rt,stimulus,button_pressed,trial_type,trial_index,time_elapsed,internal_node_id,subject,list,ppt_race,ppt_gender,url,first_guess,correct,key_press,responses,image_type,phrase_type,test_part
3094,Welcome to the experiment. Press Continue to begin.,0,html-button-response,0,3103,0.0-0.0,82879,List2A,black,man,,,,,,,,
30452,,,external-html,1,34635,0.0-1.0,82879,List2A,black,man,consent.html,,,,,,,
11788,"<p>On the next page, you will see portraits of 8 people and their names.</p><p>Your first task is to take a few minutes to memorise the names of these people.</p><p>You will have to recall their names during the rest of the experiment, so it is</p><p>essential that you try to memorise these people and their names as best as you can.</p><br><p><strong>You will then be tested on your memory of these names and portraits.</strong></p><br><p>The experiment will start after you have completed this memory test.</p><br><p>Ready?</p>",0,html-button-response,2,46428,0.0-2.0,82879,List2A,black,man,,,,,,,,
63291,"<img src='img/portrait_matrix_list2.JPG' style='width:900px;height:500px;''></img><p>If you have memorised all the portraits and names and are ready to start, press Continue.</p><p><strong>Please note: Your memory of these faces will be tested 4 times during this experiment.</strong></p>",0,html-button-response,3,110739,0.0-3.0-0.0,82879,List2A,black,man,,,,,,,,
5315,"<img src=""portrait/BM2.jpg""style=""width:400px;height:400px;""></img>",5,html-button-response,4,117073,0.0-3.0-1.0,82879,List2A,black,man,,TRUE,5,,,,,
null,CORRECT,,html-keyboard-response,5,118596,0.0-3.0-2.0-0.0,82879,List2A,black,man,,,,null,,,,
2175,"<img src=""portrait/BW2.jpg""style=""width:400px;height:400px;""></img>",2,html-button-response,6,120780,0.0-3.0-4.0,82879,List2A,black,man,,TRUE,2,,,,,
null,CORRECT,,html-keyboard-response,7,122312,0.0-3.0-5.0-0.0,82879,List2A,black,man,,,,null,,,,
8973,"<img src=""portrait/BM1.jpg""style=""width:400px;height:400px;""></img>",1,html-button-response,8,131291,0.0-3.0-7.0,82879,List2A,black,man,,TRUE,4,,,,,
15489,"<img src=""portrait/BM1.jpg""style=""width:400px;height:400px;""></img>",7,html-button-response,9,147800,0.0-3.0-9.0-0.0,82879,List2A,black,man,,FALSE,4,,,,,
null,INCORRECT,,html-keyboard-response,10,149329,0.0-3.0-9.0-2.0-0.0,82879,List2A,black,man,,,,null,,,,
5055,"<img src=""portrait/BW1.jpg""style=""width:400px;height:400px;""></img>",0,html-button-response,11,154390,0.0-3.0-10.0,82879,List2A,black,man,,TRUE,0,,,,,
null,CORRECT,,html-keyboard-response,12,155909,0.0-3.0-11.0-0.0,82879,List2A,black,man,,,,null,,,,
4184,"<img src=""portrait/WW2.jpg""style=""width:400px;height:400px;""></img>",3,html-button-response,13,160100,0.0-3.0-13.0,82879,List2A,black,man,,TRUE,3,,,,,
null,CORRECT,,html-keyboard-response,14,161618,0.0-3.0-14.0-0.0,82879,List2A,black,man,,,,null,,,,
3266,"<img src=""portrait/WM2.jpg""style=""width:400px;height:400px;""></img>",6,html-button-response,15,164889,0.0-3.0-16.0,82879,List2A,black,man,,TRUE,7,,,,,
6716,"<img src=""portrait/WM2.jpg""style=""width:400px;height:400px;""></img>",7,html-button-response,16,172625,0.0-3.0-18.0-0.0,82879,List2A,black,man,,FALSE,7,,,,,
null,CORRECT,,html-keyboard-response,17,174157,0.0-3.0-18.0-1.0-0.0,82879,List2A,black,man,,,,null,,,,
5499,"<img src=""portrait/WW1.jpg""style=""width:400px;height:400px;""></img>",1,html-button-response,18,179662,0.0-3.0-19.0,82879,List2A,black,man,,TRUE,1,,,,,
null,CORRECT,,html-keyboard-response,19,181174,0.0-3.0-20.0-0.0,82879,List2A,black,man,,,,null,,,,
4389,"<img src=""portrait/WM1.jpg""style=""width:400px;height:400px;""></img>",6,html-button-response,20,185567,0.0-3.0-22.0,82879,List2A,black,man,,TRUE,6,,,,,
null,CORRECT,,html-keyboard-response,21,187086,0.0-3.0-23.0-0.0,82879,List2A,black,man,,,,null,,,,
7584,<p>You got 6 out of 8 right first time. Press Continue.</p>,0,html-button-response,22,194674,0.0-3.0-25.0,82879,List2A,black,man,,,,,,,,
4162,"As you did not score 100%, the memory game will repeat. Press Continue.",0,html-button-response,23,199856,0.0-3.0-26.0-0.0,82879,List2A,black,man,,,,,,,,
26663,"<img src='img/portrait_matrix_list2.JPG' style='width:900px;height:500px;''></img><p>If you have memorised all the portraits and names and are ready to start, press Continue.</p><p><strong>Please note: Your memory of these faces will be tested 4 times during this experiment.</strong></p>",0,html-button-response,24,227540,0.0-3.1-0.1,82879,List2A,black,man,,,,,,,,
5934,"<img src=""portrait/BM2.jpg""style=""width:400px;height:400px;""></img>",5,html-button-response,25,234482,0.0-3.1-1.1,82879,List2A,black,man,,TRUE,5,,,,,
null,CORRECT,,html-keyboard-response,26,236000,0.0-3.1-2.1-0.1,82879,List2A,black,man,,,,null,,,,
3310,"<img src=""portrait/BW2.jpg""style=""width:400px;height:400px;""></img>",2,html-button-response,27,239315,0.0-3.1-4.1,82879,List2A,black,man,,TRUE,2,,,,,
null,CORRECT,,html-keyboard-response,28,240833,0.0-3.1-5.1-0.1,82879,List2A,black,man,,,,null,,,,
5251,"<img src=""portrait/BM1.jpg""style=""width:400px;height:400px;""></img>",4,html-button-response,29,246091,0.0-3.1-7.1,82879,List2A,black,man,,TRUE,4,,,,,
null,CORRECT,,html-keyboard-response,30,247608,0.0-3.1-8.1-0.1,82879,List2A,black,man,,,,null,,,,
8820,"<img src=""portrait/BW1.jpg""style=""width:400px;height:400px;""></img>",1,html-button-response,31,256435,0.0-3.1-10.1,82879,List2A,black,man,,TRUE,0,,,,,
3979,"<img src=""portrait/BW1.jpg""style=""width:400px;height:400px;""></img>",0,html-button-response,32,261431,0.0-3.1-12.1-0.1,82879,List2A,black,man,,FALSE,0,,,,,
null,CORRECT,,html-keyboard-response,33,262969,0.0-3.1-12.1-1.1-0.1,82879,List2A,black,man,,,,null,,,,
1866,"<img src=""portrait/WW2.jpg""style=""width:400px;height:400px;""></img>",3,html-button-response,34,264841,0.0-3.1-13.1,82879,List2A,black,man,,TRUE,3,,,,,
null,CORRECT,,html-keyboard-response,35,266376,0.0-3.1-14.1-0.1,82879,List2A,black,man,,,,null,,,,
3302,"<img src=""portrait/WM2.jpg""style=""width:400px;height:400px;""></img>",7,html-button-response,36,269683,0.0-3.1-16.1,82879,List2A,black,man,,TRUE,7,,,,,
null,CORRECT,,html-keyboard-response,37,271199,0.0-3.1-17.1-0.1,82879,List2A,black,man,,,,null,,,,
6327,"<img src=""portrait/WW1.jpg""style=""width:400px;height:400px;""></img>",1,html-button-response,38,277530,0.0-3.1-19.1,82879,List2A,black,man,,TRUE,1,,,,,
null,CORRECT,,html-keyboard-response,39,279065,0.0-3.1-20.1-0.1,82879,List2A,black,man,,,,null,,,,
3983,"<img src=""portrait/WM1.jpg""style=""width:400px;height:400px;""></img>",6,html-button-response,40,283052,0.0-3.1-22.1,82879,List2A,black,man,,TRUE,6,,,,,
null,CORRECT,,html-keyboard-response,41,284574,0.0-3.1-23.1-0.1,82879,List2A,black,man,,,,null,,,,
1921,<p>You got 7 out of 8 right first time. Press Continue.</p>,0,html-button-response,42,286498,0.0-3.1-25.1,82879,List2A,black,man,,,,,,,,
1666,"As you did not score 100%, the memory game will repeat. Press Continue.",0,html-button-response,43,289182,0.0-3.1-26.1-0.1,82879,List2A,black,man,,,,,,,,
19247,"<img src='img/portrait_matrix_list2.JPG' style='width:900px;height:500px;''></img><p>If you have memorised all the portraits and names and are ready to start, press Continue.</p><p><strong>Please note: Your memory of these faces will be tested 4 times during this experiment.</strong></p>",0,html-button-response,44,309451,0.0-3.2-0.2,82879,List2A,black,man,,,,,,,,
3682,"<img src=""portrait/BM2.jpg""style=""width:400px;height:400px;""></img>",5,html-button-response,45,314140,0.0-3.2-1.2,82879,List2A,black,man,,TRUE,5,,,,,
null,CORRECT,,html-keyboard-response,46,315674,0.0-3.2-2.2-0.2,82879,List2A,black,man,,,,null,,,,
3271,"<img src=""portrait/BW2.jpg""style=""width:400px;height:400px;""></img>",2,html-button-response,47,318950,0.0-3.2-4.2,82879,List2A,black,man,,TRUE,2,,,,,
null,CORRECT,,html-keyboard-response,48,320468,0.0-3.2-5.2-0.2,82879,List2A,black,man,,,,null,,,,
5376,"<img src=""portrait/BM1.jpg""style=""width:400px;height:400px;""></img>",4,html-button-response,49,325851,0.0-3.2-7.2,82879,List2A,black,man,,TRUE,4,,,,,
null,CORRECT,,html-keyboard-response,50,327385,0.0-3.2-8.2-0.2,82879,List2A,black,man,,,,null,,,,
6823,"<img src=""portrait/BW1.jpg""style=""width:400px;height:400px;""></img>",0,html-button-response,51,334213,0.0-3.2-10.2,82879,List2A,black,man,,TRUE,0,,,,,
null,CORRECT,,html-keyboard-response,52,335730,0.0-3.2-11.2-0.2,82879,List2A,black,man,,,,null,,,,
3873,"<img src=""portrait/WW2.jpg""style=""width:400px;height:400px;""></img>",3,html-button-response,53,339609,0.0-3.2-13.2,82879,List2A,black,man,,TRUE,3,,,,,
null,CORRECT,,html-keyboard-response,54,341125,0.0-3.2-14.2-0.2,82879,List2A,black,man,,,,null,,,,
4044,"<img src=""portrait/WM2.jpg""style=""width:400px;height:400px;""></img>",7,html-button-response,55,345175,0.0-3.2-16.2,82879,List2A,black,man,,TRUE,7,,,,,
null,CORRECT,,html-keyboard-response,56,346692,0.0-3.2-17.2-0.2,82879,List2A,black,man,,,,null,,,,
6066,"<img src=""portrait/WW1.jpg""style=""width:400px;height:400px;""></img>",1,html-button-response,57,352763,0.0-3.2-19.2,82879,List2A,black,man,,TRUE,1,,,,,
null,CORRECT,,html-keyboard-response,58,354282,0.0-3.2-20.2-0.2,82879,List2A,black,man,,,,null,,,,
3941,"<img src=""portrait/WM1.jpg""style=""width:400px;height:400px;""></img>",6,html-button-response,59,358228,0.0-3.2-22.2,82879,List2A,black,man,,TRUE,6,,,,,
null,CORRECT,,html-keyboard-response,60,359760,0.0-3.2-23.2-0.2,82879,List2A,black,man,,,,null,,,,
2114,<p>You got 8 out of 8 right first time. Press Continue.</p>,0,html-button-response,61,361879,0.0-3.2-25.2,82879,List2A,black,man,,,,,,,,
29169,"<p>In this experiment, you will view photographs of the people from the memory game interacting.</p><p>By using the <strong>exact</strong> phrase given <i>after</i> the photograph appears and recalling the correct names of the people in the photographs, form a sentence describing the interaction. You do not need to capitalise names.</p><p>Type your answer in the space provided. Please complete every sentence before moving onto the next trial.</p><p>You will only have a few seconds to memorise each given photograph and phrase before you can respond, so try your best to focus.</p><p>An example is given below. Press 'Continue' when you are ready.</p><img src='img/speaking_example_v2.jpg' style='width:800px;height:460px;''></img>",0,html-button-response,62,392069,0.0-4.0,82879,List2A,black,man,,,,,,,,
2369,"<p>Before the experiment starts, you will watch two example trials. Press 'Continue'.</p>",0,html-button-response,63,395455,0.0-5.0,82879,List2A,black,man,,,,,,,,
null,<img src='img/speaking_WW.gif'></img>,,html-keyboard-response,64,398480,0.0-6.0,82879,List2A,black,man,,,,null,,,,
null,<p>is speaking to</p>,,html-keyboard-response,65,400481,0.0-7.0,82879,List2A,black,man,,,,null,,,,
2760,<p><b>Answer:</b> jane is speaking to ruth</p>,0,html-button-response,66,403244,0.0-8.0,82879,List2A,black,man,,,,,,,,
null,<img src='img/pointing_BM.gif'></img>,,html-keyboard-response,67,406280,0.0-9.0,82879,List2A,black,man,,,,null,,,,
null,<p>are pointing at each other</p>,,html-keyboard-response,68,408264,0.0-10.0,82879,List2A,black,man,,,,null,,,,
3294,<p><b>Answer:</b> fred and mike are pointing at each other</p>,0,html-button-response,69,411561,0.0-11.0,82879,List2A,black,man,,,,,,,,
5058,"<p>Ready to start the experiment?</p><br><p><strong>Remember to describe the picture using a full sentence,</strong></p><p><strong>that combines the names of the people with the given phrase.</strong></p><p><strong>If you do not do this correctly you will not be paid.</strong></p><p><strong> You do not need to capitalise names or use punctuation.</strong></p><br><p>Press 'Continue' to begin.</p>",0,html-button-response,70,417639,0.0-12.0,82879,List2A,black,man,,,,,,,,
null,"<div style=""font-size:60px;"">+</div>",,html-keyboard-response,71,419173,0.0-13.0-0.0,82879,List2A,black,man,,,,null,,,,
null,"<img src=""stim_listA/kiss2.gif""</stim_listA>",,html-keyboard-response,72,421179,0.0-13.0-1.0,82879,List2A,black,man,,,,null,,,,
null,are kissing each other,,html-keyboard-response,73,423179,0.0-13.0-2.0,82879,List2A,black,man,,,,null,,,,
46162,,,survey-text,74,469346,0.0-13.0-3.0,82879,List2A,black,man,,,,,"{""Q0"":""Jane and Dave are kissing each other""}","<img src=""stim_listA/kiss2.gif""</stim_listA>",are kissing each other,
null,"<div style=""font-size:60px;"">+</div>",,html-keyboard-response,75,469861,0.0-13.0-0.1,82879,List2A,black,man,,,,null,,,,
null,"<img src=""stim_listA/touch1.gif""</stim_listA>",,html-keyboard-response,76,471872,0.0-13.0-1.1,82879,List2A,black,man,,,,null,,,,
null,is touching,,html-keyboard-response,77,473874,0.0-13.0-2.1,82879,List2A,black,man,,,,null,,,,
26571,,,survey-text,78,500449,0.0-13.0-3.1,82879,List2A,black,man,,,,,"{""Q0"":""Jane is touching dave""}","<img src=""stim_listA/touch1.gif""</stim_listA>",is touching,
null,"<div style=""font-size:60px;"">+</div>",,html-keyboard-response,79,500965,0.0-13.0-0.2,82879,List2A,black,man,,,,null,,,,
null,"<img src=""stim_listA/meet1.gif""</stim_listA>",,html-keyboard-response,80,502973,0.0-13.0-1.2,82879,List2A,black,man,,,,null,,,,
null,is meeting,,html-keyboard-response,81,504988,0.0-13.0-2.2,82879,List2A,black,man,,,,null,,,,
24839,,,survey-text,82,529833,0.0-13.0-3.2,82879,List2A,black,man,,,,,"{""Q0"":""Jane is meeting dave""}","<img src=""stim_listA/meet1.gif""</stim_listA>",is meeting,
null,"<div style=""font-size:60px;"">+</div>",,html-keyboard-response,83,530350,0.0-13.0-0.3,82879,List2A,black,man,,,,null,,,,
null,"<img src=""stim_listA/meet7.gif""</stim_listA>",,html-keyboard-response,84,532370,0.0-13.0-1.3,82879,List2A,black,man,,,,null,,,,
null,is meeting,,html-keyboard-response,85,534356,0.0-13.0-2.3,82879,List2A,black,man,,,,null,,,,
25391,,,survey-text,86,559753,0.0-13.0-3.3,82879,List2A,black,man,,,,,"{""Q0"":""Jane is meeting kate""}","<img src=""stim_listA/meet7.gif""</stim_listA>",is meeting,
null,"<div style=""font-size:60px;"">+</div>",,html-keyboard-response,87,560267,0.0-13.0-0.4,82879,List2A,black,man,,,,null,,,,
null,"<img src=""stim_listA/fight7.gif""</stim_listA>",,html-keyboard-response,88,562282,0.0-13.0-1.4,82879,List2A,black,man,,,,null,,,,
null,is fighting,,html-keyboard-response,89,564274,0.0-13.0-2.4,82879,List2A,black,man,,,,null,,,,
26632,,,survey-text,90,590913,0.0-13.0-3.4,82879,List2A,black,man,,,,,"{""Q0"":""Jane is fighting Kate""}","<img src=""stim_listA/fight7.gif""</stim_listA>",is fighting,
null,"<div style=""font-size:60px;"">+</div>",,html-keyboard-response,91,591428,0.0-13.0-0.5,82879,List2A,black,man,,,,null,,,,
null,"<img src=""stim_listA/argue2.gif""</stim_listA>",,html-keyboard-response,92,593448,0.0-13.0-1.5,82879,List2A,black,man,,,,null,,,,
null,are arguing with each other,,html-keyboard-response,93,595433,0.0-13.0-2.5,82879,List2A,black,man,,,,null,,,,
31260,,,survey-text,94,626698,0.0-13.0-3.5,82879,List2A,black,man,,,,,"{""Q0"":""Jane and Luke are arguing with each other""}","<img src=""stim_listA/argue2.gif""</stim_listA>",are arguing with each other,
null,"<div style=""font-size:60px;"">+</div>",,html-keyboard-response,95,627215,0.0-13.0-0.6,82879,List2A,black,man,,,,null,,,,
null,"<img src=""stim_listA/marry2.gif""</stim_listA>",,html-keyboard-response,96,629236,0.0-13.0-1.6,82879,List2A,black,man,,,,null,,,,
null,are marrying each other,,html-keyboard-response,97,631223,0.0-13.0-2.6,82879,List2A,black,man,,,,null,,,,
31524,,,survey-text,98,662753,0.0-13.0-3.6,82879,List2A,black,man,,,,,"{""Q0"":""Jane and Luke are marrying each other""}","<img src=""stim_listA/marry2.gif""</stim_listA>",are marrying each other,
null,"<div style=""font-size:60px;"">+</div>",,html-keyboard-response,99,663271,0.0-13.0-0.7,82879,List2A,black,man,,,,null,,,,
null,"<img src=""stim_listA/kiss3.gif""</stim_listA>",,html-keyboard-response,100,665283,0.0-13.0-1.7,82879,List2A,black,man,,,,null,,,,
null,is kissing,,html-keyboard-response,101,667286,0.0-13.0-2.7,82879,List2A,black,man,,,,null,,,,
28660,,,survey-text,102,695952,0.0-13.0-3.7,82879,List2A,black,man,,,,,"{""Q0"":""Fred is kissing Beth""}","<img src=""stim_listA/kiss3.gif""</stim_listA>",is kissing,
null,"<div style=""font-size:60px;"">+</div>",,html-keyboard-response,103,696469,0.0-13.0-0.8,82879,List2A,black,man,,,,null,,,,
null,"<img src=""stim_listA/meet3.gif""</stim_listA>",,html-keyboard-response,104,698488,0.0-13.0-1.8,82879,List2A,black,man,,,,null,,,,
null,is meeting,,html-keyboard-response,105,700474,0.0-13.0-2.8,82879,List2A,black,man,,,,null,,,,
22373,,,survey-text,106,722854,0.0-13.0-3.8,82879,List2A,black,man,,,,,"{""Q0"":""Mike is meeting Kate""}","<img src=""stim_listA/meet3.gif""</stim_listA>",is meeting,
null,"<div style=""font-size:60px;"">+</div>",,html-keyboard-response,107,723370,0.0-13.0-0.9,82879,List2A,black,man,,,,null,,,,
null,"<img src=""stim_listA/shout6.gif""</stim_listA>",,html-keyboard-response,108,725379,0.0-13.0-1.9,82879,List2A,black,man,,,,null,,,,
null,are shouting at each other,,html-keyboard-response,109,727379,0.0-13.0-2.9,82879,List2A,black,man,,,,null,,,,
46095,,,survey-text,110,773479,0.0-13.0-3.9,82879,List2A,black,man,,,,,"{""Q0"":""Mike and Dave are shouting at each other""}","<img src=""stim_listA/shout6.gif""</stim_listA>",are shouting at each other,
null,"<div style=""font-size:60px;"">+</div>",,html-keyboard-response,111,773999,0.0-13.0-0.10,82879,List2A,black,man,,,,null,,,,
null,"<img src=""stim_listA/shout8.gif""</stim_listA>",,html-keyboard-response,112,776008,0.0-13.0-1.10,82879,List2A,black,man,,,,null,,,,
null,are shouting at each other,,html-keyboard-response,113,778011,0.0-13.0-2.10,82879,List2A,black,man,,,,null,,,,
30565,,,survey-text,114,808581,0.0-13.0-3.10,82879,List2A,black,man,,,,,"{""Q0"":""Kate and Jane are shouting at each other""}","<img src=""stim_listA/shout8.gif""</stim_listA>",are shouting at each other,
null,"<div style=""font-size:60px;"">+</div>",,html-keyboard-response,115,809099,0.0-13.0-0.11,82879,List2A,black,man,,,,null,,,,
null,"<img src=""stim_listA/argue1.gif""</stim_listA>",,html-keyboard-response,116,811115,0.0-13.0-1.11,82879,List2A,black,man,,,,null,,,,
null,is arguing with,,html-keyboard-response,117,813120,0.0-13.0-2.11,82879,List2A,black,man,,,,null,,,,
29520,,,survey-text,118,842644,0.0-13.0-3.11,82879,List2A,black,man,,,,,"{""Q0"":""Ruth is arguing with Dave""}","<img src=""stim_listA/argue1.gif""</stim_listA>",is arguing with,
null,"<div style=""font-size:60px;"">+</div>",,html-keyboard-response,119,843160,0.0-13.0-0.12,82879,List2A,black,man,,,,null,,,,
null,"<img src=""stim_listA/argue5.gif""</stim_listA>",,html-keyboard-response,120,845174,0.0-13.0-1.12,82879,List2A,black,man,,,,null,,,,
null,is arguing with,,html-keyboard-response,121,847176,0.0-13.0-2.12,82879,List2A,black,man,,,,null,,,,
35924,,,survey-text,122,883105,0.0-13.0-3.12,82879,List2A,black,man,,,,,"{""Q0"":""Dave is arguing with Mike""}","<img src=""stim_listA/argue5.gif""</stim_listA>",is arguing with,
null,"<div style=""font-size:60px;"">+</div>",,html-keyboard-response,123,883606,0.0-13.0-0.13,82879,List2A,black,man,,,,null,,,,
null,"<img src=""stim_listA/talk5.gif""</stim_listA>",,html-keyboard-response,124,885620,0.0-13.0-1.13,82879,List2A,black,man,,,,null,,,,
null,is talking to,,html-keyboard-response,125,887622,0.0-13.0-2.13,82879,List2A,black,man,,,,null,,,,
26612,,,survey-text,126,914239,0.0-13.0-3.13,82879,List2A,black,man,,,,,"{""Q0"":""Luke is talking to Mike""}","<img src=""stim_listA/talk5.gif""</stim_listA>",is talking to,
null,"<div style=""font-size:60px;"">+</div>",,html-keyboard-response,127,914756,0.0-13.0-0.14,82879,List2A,black,man,,,,null,,,,
null,"<img src=""stim_listA/hug8.gif""</stim_listA>",,html-keyboard-response,128,916773,0.0-13.0-1.14,82879,List2A,black,man,,,,null,,,,
null,are hugging each other,,html-keyboard-response,129,918765,0.0-13.0-2.14,82879,List2A,black,man,,,,null,,,,
28061,,,survey-text,130,946831,0.0-13.0-3.14,82879,List2A,black,man,,,,,"{""Q0"":""Jane and Kate are hugging each other""}","<img src=""stim_listA/hug8.gif""</stim_listA>",are hugging each other,
null,"<div style=""font-size:60px;"">+</div>",,html-keyboard-response,131,947346,0.0-13.0-0.15,82879,List2A,black,man,,,,null,,,,
null,"<img src=""stim_listA/argue3.gif""</stim_listA>",,html-keyboard-response,132,949358,0.0-13.0-1.15,82879,List2A,black,man,,,,null,,,,
null,is arguing with,,html-keyboard-response,133,951360,0.0-13.0-2.15,82879,List2A,black,man,,,,null,,,,
41437,,,survey-text,134,992802,0.0-13.0-3.15,82879,List2A,black,man,,,,,"{""Q0"":""Mike is arguing with Beth""}","<img src=""stim_listA/argue3.gif""</stim_listA>",is arguing with,
null,"<div style=""font-size:60px;"">+</div>",,html-keyboard-response,135,993316,0.0-13.0-0.16,82879,List2A,black,man,,,,null,,,,
null,"<img src=""stim_listA/meet8.gif""</stim_listA>",,html-keyboard-response,136,995318,0.0-13.0-1.16,82879,List2A,black,man,,,,null,,,,
null,are meeting each other,,html-keyboard-response,137,997326,0.0-13.0-2.16,82879,List2A,black,man,,,,null,,,,
48336,,,survey-text,138,1045670,0.0-13.0-3.16,82879,List2A,black,man,,,,,"{""Q0"":""Ruth and Beth are meeting each other""}","<img src=""stim_listA/meet8.gif""</stim_listA>",are meeting each other,
null,"<div style=""font-size:60px;"">+</div>",,html-keyboard-response,139,1046189,0.0-13.0-0.17,82879,List2A,black,man,,,,null,,,,
null,"<img src=""stim_listA/marry4.gif""</stim_listA>",,html-keyboard-response,140,1048202,0.0-13.0-1.17,82879,List2A,black,man,,,,null,,,,
null,are marrying each other,,html-keyboard-response,141,1050209,0.0-13.0-2.17,82879,List2A,black,man,,,,null,,,,
30161,,,survey-text,142,1080375,0.0-13.0-3.17,82879,List2A,black,man,,,,,"{""Q0"":""Kate and Fred are dancing""}","<img src=""stim_listA/marry4.gif""</stim_listA>",are marrying each other,
null,"<div style=""font-size:60px;"">+</div>",,html-keyboard-response,143,1080890,0.0-13.0-0.18,82879,List2A,black,man,,,,null,,,,
null,"<img src=""stim_listA/dance2.gif""</stim_listA>",,html-keyboard-response,144,1082905,0.0-13.0-1.18,82879,List2A,black,man,,,,null,,,,
null,are dancing with each other,,html-keyboard-response,145,1084906,0.0-13.0-2.18,82879,List2A,black,man,,,,null,,,,
31131,,,survey-text,146,1116043,0.0-13.0-3.18,82879,List2A,black,man,,,,,"{""Q0"":""Mike and Beth are dancing together""}","<img src=""stim_listA/dance2.gif""</stim_listA>",are dancing with each other,
null,"<div style=""font-size:60px;"">+</div>",,html-keyboard-response,147,1116558,0.0-13.0-0.19,82879,List2A,black,man,,,,null,,,,
null,"<img src=""stim_listA/marry6.gif""</stim_listA>",,html-keyboard-response,148,1118583,0.0-13.0-1.19,82879,List2A,black,man,,,,null,,,,
null,are marrying each other,,html-keyboard-response,149,1120566,0.0-13.0-2.19,82879,List2A,black,man,,,,null,,,,
33658,,,survey-text,150,1154230,0.0-13.0-3.19,82879,List2A,black,man,,,,,"{""Q0"":""Luke and Mike are marrying each other""}","<img src=""stim_listA/marry6.gif""</stim_listA>",are marrying each other,
7135,"<img src='img/portrait_matrix_list2.JPG' style='width:900px;height:500px;''></img><p>If you have memorised all the portraits and names and are ready to start, press Continue.</p><p><strong>Please note: Your memory of these faces will be tested 4 times during this experiment.</strong></p>",0,html-button-response,151,1161370,0.0-14.0-0.0,82879,List2A,black,man,,,,,,,,
5589,"<img src=""portrait/WM2.jpg""style=""width:400px;height:400px;""></img>",7,html-button-response,152,1167974,0.0-14.0-1.0,82879,List2A,black,man,,TRUE,7,,,,,
null,CORRECT,,html-keyboard-response,153,1169485,0.0-14.0-2.0-0.0,82879,List2A,black,man,,,,null,,,,
3095,"<img src=""portrait/BM1.jpg""style=""width:400px;height:400px;""></img>",4,html-button-response,154,1172586,0.0-14.0-4.0,82879,List2A,black,man,,TRUE,4,,,,,
null,CORRECT,,html-keyboard-response,155,1174121,0.0-14.0-5.0-0.0,82879,List2A,black,man,,,,null,,,,
7202,"<img src=""portrait/WW1.jpg""style=""width:400px;height:400px;""></img>",1,html-button-response,156,1181328,0.0-14.0-7.0,82879,List2A,black,man,,TRUE,1,,,,,
null,CORRECT,,html-keyboard-response,157,1182849,0.0-14.0-8.0-0.0,82879,List2A,black,man,,,,null,,,,
3722,"<img src=""portrait/WM1.jpg""style=""width:400px;height:400px;""></img>",6,html-button-response,158,1186578,0.0-14.0-10.0,82879,List2A,black,man,,TRUE,6,,,,,
null,CORRECT,,html-keyboard-response,159,1188097,0.0-14.0-11.0-0.0,82879,List2A,black,man,,,,null,,,,
2895,"<img src=""portrait/BW2.jpg""style=""width:400px;height:400px;""></img>",2,html-button-response,160,1190998,0.0-14.0-13.0,82879,List2A,black,man,,TRUE,2,,,,,
null,CORRECT,,html-keyboard-response,161,1192516,0.0-14.0-14.0-0.0,82879,List2A,black,man,,,,null,,,,
3296,"<img src=""portrait/BW1.jpg""style=""width:400px;height:400px;""></img>",0,html-button-response,162,1195818,0.0-14.0-16.0,82879,List2A,black,man,,TRUE,0,,,,,
null,CORRECT,,html-keyboard-response,163,1197351,0.0-14.0-17.0-0.0,82879,List2A,black,man,,,,null,,,,
4618,"<img src=""portrait/WW2.jpg""style=""width:400px;height:400px;""></img>",3,html-button-response,164,1201976,0.0-14.0-19.0,82879,List2A,black,man,,TRUE,3,,,,,
null,CORRECT,,html-keyboard-response,165,1203510,0.0-14.0-20.0-0.0,82879,List2A,black,man,,,,null,,,,
1850,"<img src=""portrait/BM2.jpg""style=""width:400px;height:400px;""></img>",5,html-button-response,166,1205366,0.0-14.0-22.0,82879,List2A,black,man,,TRUE,5,,,,,
null,CORRECT,,html-keyboard-response,167,1206903,0.0-14.0-23.0-0.0,82879,List2A,black,man,,,,null,,,,
1683,<p>You got 8 out of 8 right first time. Press Continue.</p>,0,html-button-response,168,1208592,0.0-14.0-25.0,82879,List2A,black,man,,,,,,,,
null,"<div style=""font-size:60px;"">+</div>",,html-keyboard-response,169,1210127,0.0-15.0-0.0,82879,List2A,black,man,,,,null,,,,
null,"<img src=""stim_listA/meet2.gif""</stim_listA>",,html-keyboard-response,170,1212130,0.0-15.0-1.0,82879,List2A,black,man,,,,null,,,,
null,are meeting each other,,html-keyboard-response,171,1214145,0.0-15.0-2.0,82879,List2A,black,man,,,,null,,,,
31275,,,survey-text,172,1245426,0.0-15.0-3.0,82879,List2A,black,man,,,,,"{""Q0"":""Ruth and Luke are meeting each other""}","<img src=""stim_listA/meet2.gif""</stim_listA>",are meeting each other,
null,"<div style=""font-size:60px;"">+</div>",,html-keyboard-response,173,1245942,0.0-15.0-0.1,82879,List2A,black,man,,,,null,,,,
null,"<img src=""stim_listA/touch2.gif""</stim_listA>",,html-keyboard-response,174,1247960,0.0-15.0-1.1,82879,List2A,black,man,,,,null,,,,
null,are touching each other,,html-keyboard-response,175,1249960,0.0-15.0-2.1,82879,List2A,black,man,,,,null,,,,
31073,,,survey-text,176,1281038,0.0-15.0-3.1,82879,List2A,black,man,,,,,"{""Q0"":""Ruth and Luke are touching each other""}","<img src=""stim_listA/touch2.gif""</stim_listA>",are touching each other,
null,"<div style=""font-size:60px;"">+</div>",,html-keyboard-response,177,1281552,0.0-15.0-0.2,82879,List2A,black,man,,,,null,,,,
null,"<img src=""stim_listA/fight6.gif""</stim_listA>",,html-keyboard-response,178,1283563,0.0-15.0-1.2,82879,List2A,black,man,,,,null,,,,
null,are fighting each other,,html-keyboard-response,179,1285568,0.0-15.0-2.2,82879,List2A,black,man,,,,null,,,,
38658,,,survey-text,180,1324232,0.0-15.0-3.2,82879,List2A,black,man,,,,,"{""Q0"":""Luke and Fred are fighting each other""}","<img src=""stim_listA/fight6.gif""</stim_listA>",are fighting each other,
null,"<div style=""font-size:60px;"">+</div>",,html-keyboard-response,181,1324747,0.0-15.0-0.3,82879,List2A,black,man,,,,null,,,,
null,"<img src=""stim_listA/hug7.gif""</stim_listA>",,html-keyboard-response,182,1326760,0.0-15.0-1.3,82879,List2A,black,man,,,,null,,,,
null,is hugging,,html-keyboard-response,183,1328761,0.0-15.0-2.3,82879,List2A,black,man,,,,null,,,,
30671,,,survey-text,184,1359438,0.0-15.0-3.3,82879,List2A,black,man,,,,,"{""Q0"":""Beth and Ruth are hugging each other""}","<img src=""stim_listA/hug7.gif""</stim_listA>",is hugging,
null,"<div style=""font-size:60px;"">+</div>",,html-keyboard-response,185,1359954,0.0-15.0-0.4,82879,List2A,black,man,,,,null,,,,
null,"<img src=""stim_listA/hug3.gif""</stim_listA>",,html-keyboard-response,186,1361960,0.0-15.0-1.4,82879,List2A,black,man,,,,null,,,,
null,is hugging,,html-keyboard-response,187,1363962,0.0-15.0-2.4,82879,List2A,black,man,,,,null,,,,
37211,,,survey-text,188,1401178,0.0-15.0-3.4,82879,List2A,black,man,,,,,"{""Q0"":""Ruth and Fred is hugging""}","<img src=""stim_listA/hug3.gif""</stim_listA>",is hugging,
null,"<div style=""font-size:60px;"">+</div>",,html-keyboard-response,189,1401695,0.0-15.0-0.5,82879,List2A,black,man,,,,null,,,,
null,"<img src=""stim_listA/kiss5.gif""</stim_listA>",,html-keyboard-response,190,1403696,0.0-15.0-1.5,82879,List2A,black,man,,,,null,,,,
null,is kissing,,html-keyboard-response,191,1405696,0.0-15.0-2.5,82879,List2A,black,man,,,,null,,,,
31964,,,survey-text,192,1437666,0.0-15.0-3.5,82879,List2A,black,man,,,,,"{""Q0"":""Luke and Fred is hugging""}","<img src=""stim_listA/kiss5.gif""</stim_listA>",is kissing,
null,"<div style=""font-size:60px;"">+</div>",,html-keyboard-response,193,1438180,0.0-15.0-0.6,82879,List2A,black,man,,,,null,,,,
null,"<img src=""stim_listA/marry7.gif""</stim_listA>",,html-keyboard-response,194,1440182,0.0-15.0-1.6,82879,List2A,black,man,,,,null,,,,
null,is marrying,,html-keyboard-response,195,1442183,0.0-15.0-2.6,82879,List2A,black,man,,,,null,,,,
38406,,,survey-text,196,1480594,0.0-15.0-3.6,82879,List2A,black,man,,,,,"{""Q0"":""Jane and Beth is hugging""}","<img src=""stim_listA/marry7.gif""</stim_listA>",is marrying,
null,"<div style=""font-size:60px;"">+</div>",,html-keyboard-response,197,1481111,0.0-15.0-0.7,82879,List2A,black,man,,,,null,,,,
null,"<img src=""stim_listA/dance1.gif""</stim_listA>",,html-keyboard-response,198,1483130,0.0-15.0-1.7,82879,List2A,black,man,,,,null,,,,
null,is dancing with,,html-keyboard-response,199,1485120,0.0-15.0-2.7,82879,List2A,black,man,,,,null,,,,
39074,,,survey-text,200,1524200,0.0-15.0-3.7,82879,List2A,black,man,,,,,"{""Q0"":""Luke is dancing with Jane""}","<img src=""stim_listA/dance1.gif""</stim_listA>",is dancing with,
null,"<div style=""font-size:60px;"">+</div>",,html-keyboard-response,201,1524719,0.0-15.0-0.8,82879,List2A,black,man,,,,null,,,,
null,"<img src=""stim_listA/talk6.gif""</stim_listA>",,html-keyboard-response,202,1526721,0.0-15.0-1.8,82879,List2A,black,man,,,,null,,,,
null,are talking to each other,,html-keyboard-response,203,1528723,0.0-15.0-2.8,82879,List2A,black,man,,,,null,,,,
40809,,,survey-text,204,1569538,0.0-15.0-3.8,82879,List2A,black,man,,,,,"{""Q0"":""Fred and Dave are talking to each other""}","<img src=""stim_listA/talk6.gif""</stim_listA>",are talking to each other,
null,"<div style=""font-size:60px;"">+</div>",,html-keyboard-response,205,1570052,0.0-15.0-0.9,82879,List2A,black,man,,,,null,,,,
null,"<img src=""stim_listA/shout2.gif""</stim_listA>",,html-keyboard-response,206,1572060,0.0-15.0-1.9,82879,List2A,black,man,,,,null,,,,
null,are shouting at each other,,html-keyboard-response,207,1574059,0.0-15.0-2.9,82879,List2A,black,man,,,,null,,,,
33423,,,survey-text,208,1607489,0.0-15.0-3.9,82879,List2A,black,man,,,,,"{""Q0"":""Jane and Dave are shouting at each other""}","<img src=""stim_listA/shout2.gif""</stim_listA>",are shouting at each other,
null,"<div style=""font-size:60px;"">+</div>",,html-keyboard-response,209,1608005,0.0-15.0-0.10,82879,List2A,black,man,,,,null,,,,
null,"<img src=""stim_listA/argue7.gif""</stim_listA>",,html-keyboard-response,210,1610023,0.0-15.0-1.10,82879,List2A,black,man,,,,null,,,,
null,is arguing with,,html-keyboard-response,211,1612018,0.0-15.0-2.10,82879,List2A,black,man,,,,null,,,,
26769,,,survey-text,212,1638793,0.0-15.0-3.10,82879,List2A,black,man,,,,,"{""Q0"":""Jane is arguing with Beth""}","<img src=""stim_listA/argue7.gif""</stim_listA>",is arguing with,
null,"<div style=""font-size:60px;"">+</div>",,html-keyboard-response,213,1639309,0.0-15.0-0.11,82879,List2A,black,man,,,,null,,,,
null,"<img src=""stim_listA/kiss6.gif""</stim_listA>",,html-keyboard-response,214,1641310,0.0-15.0-1.11,82879,List2A,black,man,,,,null,,,,
null,are kissing each other,,html-keyboard-response,215,1643328,0.0-15.0-2.11,82879,List2A,black,man,,,,null,,,,
45336,,,survey-text,216,1688671,0.0-15.0-3.11,82879,List2A,black,man,,,,,"{""Q0"":""Dave and Mike are kissing each other""}","<img src=""stim_listA/kiss6.gif""</stim_listA>",are kissing each other,
null,"<div style=""font-size:60px;"">+</div>",,html-keyboard-response,217,1689190,0.0-15.0-0.12,82879,List2A,black,man,,,,null,,,,
null,"<img src=""stim_listA/touch5.gif""</stim_listA>",,html-keyboard-response,218,1691198,0.0-15.0-1.12,82879,List2A,black,man,,,,null,,,,
null,is touching,,html-keyboard-response,219,1693200,0.0-15.0-2.12,82879,List2A,black,man,,,,null,,,,
24224,,,survey-text,220,1717430,0.0-15.0-3.12,82879,List2A,black,man,,,,,"{""Q0"":""Mike is touching Dave""}","<img src=""stim_listA/touch5.gif""</stim_listA>",is touching,
null,"<div style=""font-size:60px;"">+</div>",,html-keyboard-response,221,1717947,0.0-15.0-0.13,82879,List2A,black,man,,,,null,,,,
null,"<img src=""stim_listA/touch8.gif""</stim_listA>",,html-keyboard-response,222,1719958,0.0-15.0-1.13,82879,List2A,black,man,,,,null,,,,
null,are touching each other,,html-keyboard-response,223,1721956,0.0-15.0-2.13,82879,List2A,black,man,,,,null,,,,
31430,,,survey-text,224,1753394,0.0-15.0-3.13,82879,List2A,black,man,,,,,"{""Q0"":""Beth and Ruth are touching each other""}","<img src=""stim_listA/touch8.gif""</stim_listA>",are touching each other,
null,"<div style=""font-size:60px;"">+</div>",,html-keyboard-response,225,1753909,0.0-15.0-0.14,82879,List2A,black,man,,,,null,,,,
null,"<img src=""stim_listA/dance8.gif""</stim_listA>",,html-keyboard-response,226,1755918,0.0-15.0-1.14,82879,List2A,black,man,,,,null,,,,
null,are dancing with each other,,html-keyboard-response,227,1757920,0.0-15.0-2.14,82879,List2A,black,man,,,,null,,,,
26325,,,survey-text,228,1784251,0.0-15.0-3.14,82879,List2A,black,man,,,,,"{""Q0"":""Beth and Ruth are dancing with each other""}","<img src=""stim_listA/dance8.gif""</stim_listA>",are dancing with each other,
null,"<div style=""font-size:60px;"">+</div>",,html-keyboard-response,229,1784767,0.0-15.0-0.15,82879,List2A,black,man,,,,null,,,,
null,"<img src=""stim_listA/hug6.gif""</stim_listA>",,html-keyboard-response,230,1786788,0.0-15.0-1.15,82879,List2A,black,man,,,,null,,,,
null,are hugging each other,,html-keyboard-response,231,1788772,0.0-15.0-2.15,82879,List2A,black,man,,,,null,,,,
27870,,,survey-text,232,1816648,0.0-15.0-3.15,82879,List2A,black,man,,,,,"{""Q0"":""Mike and Dave are dancing with each other""}","<img src=""stim_listA/hug6.gif""</stim_listA>",are hugging each other,
null,"<div style=""font-size:60px;"">+</div>",,html-keyboard-response,233,1817164,0.0-15.0-0.16,82879,List2A,black,man,,,,null,,,,
null,"<img src=""stim_listA/argue4.gif""</stim_listA>",,html-keyboard-response,234,1819170,0.0-15.0-1.16,82879,List2A,black,man,,,,null,,,,
null,are arguing with each other,,html-keyboard-response,235,1821173,0.0-15.0-2.16,82879,List2A,black,man,,,,null,,,,
27866,,,survey-text,236,1849045,0.0-15.0-3.16,82879,List2A,black,man,,,,,"{""Q0"":""Fred and Kate are arguing with each other""}","<img src=""stim_listA/argue4.gif""</stim_listA>",are arguing with each other,
null,"<div style=""font-size:60px;"">+</div>",,html-keyboard-response,237,1849560,0.0-15.0-0.17,82879,List2A,black,man,,,,null,,,,
null,"<img src=""stim_listA/marry3.gif""</stim_listA>",,html-keyboard-response,238,1851574,0.0-15.0-1.17,82879,List2A,black,man,,,,null,,,,
null,is marrying,,html-keyboard-response,239,1853570,0.0-15.0-2.17,82879,List2A,black,man,,,,null,,,,
24323,,,survey-text,240,1877898,0.0-15.0-3.17,82879,List2A,black,man,,,,,"{""Q0"":""Mike and beth is marrying""}","<img src=""stim_listA/marry3.gif""</stim_listA>",is marrying,
null,"<div style=""font-size:60px;"">+</div>",,html-keyboard-response,241,1878415,0.0-15.0-0.18,82879,List2A,black,man,,,,null,,,,
null,"<img src=""stim_listA/talk3.gif""</stim_listA>",,html-keyboard-response,242,1880422,0.0-15.0-1.18,82879,List2A,black,man,,,,null,,,,
null,is talking to,,html-keyboard-response,243,1882428,0.0-15.0-2.18,82879,List2A,black,man,,,,null,,,,
27730,,,survey-text,244,1910167,0.0-15.0-3.18,82879,List2A,black,man,,,,,"{""Q0"":""Fred is talking to Kate""}","<img src=""stim_listA/talk3.gif""</stim_listA>",is talking to,
null,"<div style=""font-size:60px;"">+</div>",,html-keyboard-response,245,1910679,0.0-15.0-0.19,82879,List2A,black,man,,,,null,,,,
null,"<img src=""stim_listA/hug4.gif""</stim_listA>",,html-keyboard-response,246,1912689,0.0-15.0-1.19,82879,List2A,black,man,,,,null,,,,
null,are hugging each other,,html-keyboard-response,247,1914684,0.0-15.0-2.19,82879,List2A,black,man,,,,null,,,,
40914,,,survey-text,248,1955602,0.0-15.0-3.19,82879,List2A,black,man,,,,,"{""Q0"":""Kate and Fred are hugging each other""}","<img src=""stim_listA/hug4.gif""</stim_listA>",are hugging each other,
2205,"<img src='img/portrait_matrix_list2.JPG' style='width:900px;height:500px;''></img><p>If you have memorised all the portraits and names and are ready to start, press Continue.</p><p><strong>Please note: Your memory of these faces will be tested 4 times during this experiment.</strong></p>",0,html-button-response,249,1957813,0.0-16.0-0.0,82879,List2A,black,man,,,,,,,,
1667,"<img src=""portrait/BM1.jpg""style=""width:400px;height:400px;""></img>",4,html-button-response,250,1960501,0.0-16.0-1.0,82879,List2A,black,man,,TRUE,4,,,,,
null,CORRECT,,html-keyboard-response,251,1962032,0.0-16.0-2.0-0.0,82879,List2A,black,man,,,,null,,,,
1809,"<img src=""portrait/BW2.jpg""style=""width:400px;height:400px;""></img>",2,html-button-response,252,1963848,0.0-16.0-4.0,82879,List2A,black,man,,TRUE,2,,,,,
null,CORRECT,,html-keyboard-response,253,1965366,0.0-16.0-5.0-0.0,82879,List2A,black,man,,,,null,,,,
2197,"<img src=""portrait/WM2.jpg""style=""width:400px;height:400px;""></img>",7,html-button-response,254,1967570,0.0-16.0-7.0,82879,List2A,black,man,,TRUE,7,,,,,
null,CORRECT,,html-keyboard-response,255,1969091,0.0-16.0-8.0-0.0,82879,List2A,black,man,,,,null,,,,
1915,"<img src=""portrait/BM2.jpg""style=""width:400px;height:400px;""></img>",5,html-button-response,256,1971013,0.0-16.0-10.0,82879,List2A,black,man,,TRUE,5,,,,,
null,CORRECT,,html-keyboard-response,257,1972531,0.0-16.0-11.0-0.0,82879,List2A,black,man,,,,null,,,,
6242,"<img src=""portrait/WW1.jpg""style=""width:400px;height:400px;""></img>",1,html-button-response,258,1978780,0.0-16.0-13.0,82879,List2A,black,man,,TRUE,1,,,,,
null,CORRECT,,html-keyboard-response,259,1980309,0.0-16.0-14.0-0.0,82879,List2A,black,man,,,,null,,,,
3673,"<img src=""portrait/WM1.jpg""style=""width:400px;height:400px;""></img>",6,html-button-response,260,1983990,0.0-16.0-16.0,82879,List2A,black,man,,TRUE,6,,,,,
null,CORRECT,,html-keyboard-response,261,1985515,0.0-16.0-17.0-0.0,82879,List2A,black,man,,,,null,,,,
1820,"<img src=""portrait/WW2.jpg""style=""width:400px;height:400px;""></img>",3,html-button-response,262,1987343,0.0-16.0-19.0,82879,List2A,black,man,,TRUE,3,,,,,
null,CORRECT,,html-keyboard-response,263,1988852,0.0-16.0-20.0-0.0,82879,List2A,black,man,,,,null,,,,
2861,"<img src=""portrait/BW1.jpg""style=""width:400px;height:400px;""></img>",0,html-button-response,264,1991721,0.0-16.0-22.0,82879,List2A,black,man,,TRUE,0,,,,,
null,CORRECT,,html-keyboard-response,265,1993248,0.0-16.0-23.0-0.0,82879,List2A,black,man,,,,null,,,,
1307,<p>You got 8 out of 8 right first time. Press Continue.</p>,0,html-button-response,266,1994562,0.0-16.0-25.0,82879,List2A,black,man,,,,,,,,
null,"<div style=""font-size:60px;"">+</div>",,html-keyboard-response,267,1996065,0.0-17.0-0.0,82879,List2A,black,man,,,,null,,,,
null,"<img src=""stim_listA/talk7.gif""</stim_listA>",,html-keyboard-response,268,1998075,0.0-17.0-1.0,82879,List2A,black,man,,,,null,,,,
null,is talking to,,html-keyboard-response,269,2000075,0.0-17.0-2.0,82879,List2A,black,man,,,,null,,,,
34998,,,survey-text,270,2035084,0.0-17.0-3.0,82879,List2A,black,man,,,,,"{""Q0"":""Kate is talking to ruth""}","<img src=""stim_listA/talk7.gif""</stim_listA>",is talking to,
null,"<div style=""font-size:60px;"">+</div>",,html-keyboard-response,271,2035600,0.0-17.0-0.1,82879,List2A,black,man,,,,null,,,,
null,"<img src=""stim_listA/fight1.gif""</stim_listA>",,html-keyboard-response,272,2037610,0.0-17.0-1.1,82879,List2A,black,man,,,,null,,,,
null,is fighting,,html-keyboard-response,273,2039616,0.0-17.0-2.1,82879,List2A,black,man,,,,null,,,,
23633,,,survey-text,274,2063255,0.0-17.0-3.1,82879,List2A,black,man,,,,,"{""Q0"":""Dave is fighting jane""}","<img src=""stim_listA/fight1.gif""</stim_listA>",is fighting,
null,"<div style=""font-size:60px;"">+</div>",,html-keyboard-response,275,2063773,0.0-17.0-0.2,82879,List2A,black,man,,,,null,,,,
null,"<img src=""stim_listA/talk4.gif""</stim_listA>",,html-keyboard-response,276,2065783,0.0-17.0-1.2,82879,List2A,black,man,,,,null,,,,
null,are talking to each other,,html-keyboard-response,277,2067785,0.0-17.0-2.2,82879,List2A,black,man,,,,null,,,,
29259,,,survey-text,278,2097049,0.0-17.0-3.2,82879,List2A,black,man,,,,,"{""Q0"":""Mike and beth are talking to each other""}","<img src=""stim_listA/talk4.gif""</stim_listA>",are talking to each other,
null,"<div style=""font-size:60px;"">+</div>",,html-keyboard-response,279,2097566,0.0-17.0-0.3,82879,List2A,black,man,,,,null,,,,
null,"<img src=""stim_listA/talk1.gif""</stim_listA>",,html-keyboard-response,280,2099574,0.0-17.0-1.3,82879,List2A,black,man,,,,null,,,,
null,is talking to,,html-keyboard-response,281,2101574,0.0-17.0-2.3,82879,List2A,black,man,,,,null,,,,
30392,,,survey-text,282,2131972,0.0-17.0-3.3,82879,List2A,black,man,,,,,"{""Q0"":""Luke is talking to jane""}","<img src=""stim_listA/talk1.gif""</stim_listA>",is talking to,
null,"<div style=""font-size:60px;"">+</div>",,html-keyboard-response,283,2132489,0.0-17.0-0.4,82879,List2A,black,man,,,,null,,,,
null,"<img src=""stim_listA/hug1.gif""</stim_listA>",,html-keyboard-response,284,2134505,0.0-17.0-1.4,82879,List2A,black,man,,,,null,,,,
null,is hugging,,html-keyboard-response,285,2136494,0.0-17.0-2.4,82879,List2A,black,man,,,,null,,,,
23256,,,survey-text,286,2159756,0.0-17.0-3.4,82879,List2A,black,man,,,,,"{""Q0"":""Luke is hugging ruth""}","<img src=""stim_listA/hug1.gif""</stim_listA>",is hugging,
null,"<div style=""font-size:60px;"">+</div>",,html-keyboard-response,287,2160275,0.0-17.0-0.5,82879,List2A,black,man,,,,null,,,,
null,"<img src=""stim_listA/meet5.gif""</stim_listA>",,html-keyboard-response,288,2162291,0.0-17.0-1.5,82879,List2A,black,man,,,,null,,,,
null,is meeting,,html-keyboard-response,289,2164294,0.0-17.0-2.5,82879,List2A,black,man,,,,null,,,,
27082,,,survey-text,290,2191382,0.0-17.0-3.5,82879,List2A,black,man,,,,,"{""Q0"":""Dave is meeting mike""}","<img src=""stim_listA/meet5.gif""</stim_listA>",is meeting,
null,"<div style=""font-size:60px;"">+</div>",,html-keyboard-response,291,2191896,0.0-17.0-0.6,82879,List2A,black,man,,,,null,,,,
null,"<img src=""stim_listA/fight3.gif""</stim_listA>",,html-keyboard-response,292,2193905,0.0-17.0-1.6,82879,List2A,black,man,,,,null,,,,
null,is fighting,,html-keyboard-response,293,2195906,0.0-17.0-2.6,82879,List2A,black,man,,,,null,,,,
24095,,,survey-text,294,2220006,0.0-17.0-3.6,82879,List2A,black,man,,,,,"{""Q0"":""Kate is fighting mike""}","<img src=""stim_listA/fight3.gif""</stim_listA>",is fighting,
null,"<div style=""font-size:60px;"">+</div>",,html-keyboard-response,295,2220524,0.0-17.0-0.7,82879,List2A,black,man,,,,null,,,,
null,"<img src=""stim_listA/touch3.gif""</stim_listA>",,html-keyboard-response,296,2222540,0.0-17.0-1.7,82879,List2A,black,man,,,,null,,,,
null,is touching,,html-keyboard-response,297,2224539,0.0-17.0-2.7,82879,List2A,black,man,,,,null,,,,
24212,,,survey-text,298,2248757,0.0-17.0-3.7,82879,List2A,black,man,,,,,"{""Q0"":""Kate is touching mike""}","<img src=""stim_listA/touch3.gif""</stim_listA>",is touching,
null,"<div style=""font-size:60px;"">+</div>",,html-keyboard-response,299,2249274,0.0-17.0-0.8,82879,List2A,black,man,,,,null,,,,
null,"<img src=""stim_listA/talk2.gif""</stim_listA>",,html-keyboard-response,300,2251291,0.0-17.0-1.8,82879,List2A,black,man,,,,null,,,,
null,are talking to each other,,html-keyboard-response,301,2253295,0.0-17.0-2.8,82879,List2A,black,man,,,,null,,,,
26882,,,survey-text,302,2280185,0.0-17.0-3.8,82879,List2A,black,man,,,,,"{""Q0"":""Ruth and dave are talking to each other""}","<img src=""stim_listA/talk2.gif""</stim_listA>",are talking to each other,
null,"<div style=""font-size:60px;"">+</div>",,html-keyboard-response,303,2280702,0.0-17.0-0.9,82879,List2A,black,man,,,,null,,,,
null,"<img src=""stim_listA/shout3.gif""</stim_listA>",,html-keyboard-response,304,2282714,0.0-17.0-1.9,82879,List2A,black,man,,,,null,,,,
null,is shouting at,,html-keyboard-response,305,2284714,0.0-17.0-2.9,82879,List2A,black,man,,,,null,,,,
30938,,,survey-text,306,2315658,0.0-17.0-3.9,82879,List2A,black,man,,,,,"{""Q0"":""Fred is shouting at beth""}","<img src=""stim_listA/shout3.gif""</stim_listA>",is shouting at,
null,"<div style=""font-size:60px;"">+</div>",,html-keyboard-response,307,2316176,0.0-17.0-0.10,82879,List2A,black,man,,,,null,,,,
null,"<img src=""stim_listA/kiss8.gif""</stim_listA>",,html-keyboard-response,308,2318186,0.0-17.0-1.10,82879,List2A,black,man,,,,null,,,,
null,are kissing each other,,html-keyboard-response,309,2320185,0.0-17.0-2.10,82879,List2A,black,man,,,,null,,,,
47310,,,survey-text,310,2367502,0.0-17.0-3.10,82879,List2A,black,man,,,,,"{""Q0"":""Jane and kate is kissing each other""}","<img src=""stim_listA/kiss8.gif""</stim_listA>",are kissing each other,
null,"<div style=""font-size:60px;"">+</div>",,html-keyboard-response,311,2368019,0.0-17.0-0.11,82879,List2A,black,man,,,,null,,,,
null,"<img src=""stim_listA/shout1.gif""</stim_listA>",,html-keyboard-response,312,2370033,0.0-17.0-1.11,82879,List2A,black,man,,,,null,,,,
null,is shouting at,,html-keyboard-response,313,2372029,0.0-17.0-2.11,82879,List2A,black,man,,,,null,,,,
39782,,,survey-text,314,2411817,0.0-17.0-3.11,82879,List2A,black,man,,,,,"{""Q0"":""Luke is shouting at ruth""}","<img src=""stim_listA/shout1.gif""</stim_listA>",is shouting at,
null,"<div style=""font-size:60px;"">+</div>",,html-keyboard-response,315,2412334,0.0-17.0-0.12,82879,List2A,black,man,,,,null,,,,
null,"<img src=""stim_listA/shout7.gif""</stim_listA>",,html-keyboard-response,316,2414343,0.0-17.0-1.12,82879,List2A,black,man,,,,null,,,,
null,is shouting at,,html-keyboard-response,317,2416347,0.0-17.0-2.12,82879,List2A,black,man,,,,null,,,,
33806,,,survey-text,318,2450158,0.0-17.0-3.12,82879,List2A,black,man,,,,,"{""Q0"":""Ruth is shouting at beth""}","<img src=""stim_listA/shout7.gif""</stim_listA>",is shouting at,
null,"<div style=""font-size:60px;"">+</div>",,html-keyboard-response,319,2450673,0.0-17.0-0.13,82879,List2A,black,man,,,,null,,,,
null,"<img src=""stim_listA/fight4.gif""</stim_listA>",,html-keyboard-response,320,2452693,0.0-17.0-1.13,82879,List2A,black,man,,,,null,,,,
null,are fighting each other,,html-keyboard-response,321,2454694,0.0-17.0-2.13,82879,List2A,black,man,,,,null,,,,
36758,,,survey-text,322,2491458,0.0-17.0-3.13,82879,List2A,black,man,,,,,"{""Q0"":""Beth and fred are fighting each other""}","<img src=""stim_listA/fight4.gif""</stim_listA>",are fighting each other,
null,"<div style=""font-size:60px;"">+</div>",,html-keyboard-response,323,2491976,0.0-17.0-0.14,82879,List2A,black,man,,,,null,,,,
null,"<img src=""stim_listA/fight2.gif""</stim_listA>",,html-keyboard-response,324,2493995,0.0-17.0-1.14,82879,List2A,black,man,,,,null,,,,
null,are fighting each other,,html-keyboard-response,325,2495997,0.0-17.0-2.14,82879,List2A,black,man,,,,null,,,,
31077,,,survey-text,326,2527079,0.0-17.0-3.14,82879,List2A,black,man,,,,,"{""Q0"":""Ruth and luke are fighting each other""}","<img src=""stim_listA/fight2.gif""</stim_listA>",are fighting each other,
null,"<div style=""font-size:60px;"">+</div>",,html-keyboard-response,327,2527594,0.0-17.0-0.15,82879,List2A,black,man,,,,null,,,,
null,"<img src=""stim_listA/shout4.gif""</stim_listA>",,html-keyboard-response,328,2529610,0.0-17.0-1.15,82879,List2A,black,man,,,,null,,,,
null,are shouting at each other,,html-keyboard-response,329,2531612,0.0-17.0-2.15,82879,List2A,black,man,,,,null,,,,
50234,,,survey-text,330,2581852,0.0-17.0-3.15,82879,List2A,black,man,,,,,"{""Q0"":""Kate and mike are shouting at each other""}","<img src=""stim_listA/shout4.gif""</stim_listA>",are shouting at each other,
null,"<div style=""font-size:60px;"">+</div>",,html-keyboard-response,331,2582369,0.0-17.0-0.16,82879,List2A,black,man,,,,null,,,,
null,"<img src=""stim_listA/argue6.gif""</stim_listA>",,html-keyboard-response,332,2584379,0.0-17.0-1.16,82879,List2A,black,man,,,,null,,,,
null,are arguing with each other,,html-keyboard-response,333,2586387,0.0-17.0-2.16,82879,List2A,black,man,,,,null,,,,
33711,,,survey-text,334,2620104,0.0-17.0-3.16,82879,List2A,black,man,,,,,"{""Q0"":""Luke and mike are shouting at each other""}","<img src=""stim_listA/argue6.gif""</stim_listA>",are arguing with each other,
null,"<div style=""font-size:60px;"">+</div>",,html-keyboard-response,335,2620618,0.0-17.0-0.17,82879,List2A,black,man,,,,null,,,,
null,"<img src=""stim_listA/dance3.gif""</stim_listA>",,html-keyboard-response,336,2622631,0.0-17.0-1.17,82879,List2A,black,man,,,,null,,,,
null,is dancing with,,html-keyboard-response,337,2624627,0.0-17.0-2.17,82879,List2A,black,man,,,,null,,,,
46942,,,survey-text,338,2671574,0.0-17.0-3.17,82879,List2A,black,man,,,,,"{""Q0"":""Fred is dancing with kate""}","<img src=""stim_listA/dance3.gif""</stim_listA>",is dancing with,
null,"<div style=""font-size:60px;"">+</div>",,html-keyboard-response,339,2672089,0.0-17.0-0.18,82879,List2A,black,man,,,,null,,,,
null,"<img src=""stim_listA/meet6.gif""</stim_listA>",,html-keyboard-response,340,2674104,0.0-17.0-1.18,82879,List2A,black,man,,,,null,,,,
null,are meeting each other,,html-keyboard-response,341,2676107,0.0-17.0-2.18,82879,List2A,black,man,,,,null,,,,
35258,,,survey-text,342,2711371,0.0-17.0-3.18,82879,List2A,black,man,,,,,"{""Q0"":""Fred and luke are meeting each other""}","<img src=""stim_listA/meet6.gif""</stim_listA>",are meeting each other,
null,"<div style=""font-size:60px;"">+</div>",,html-keyboard-response,343,2711886,0.0-17.0-0.19,82879,List2A,black,man,,,,null,,,,
null,"<img src=""stim_listA/hug5.gif""</stim_listA>",,html-keyboard-response,344,2713893,0.0-17.0-1.19,82879,List2A,black,man,,,,null,,,,
null,is hugging,,html-keyboard-response,345,2715908,0.0-17.0-2.19,82879,List2A,black,man,,,,null,,,,
20815,,,survey-text,346,2736728,0.0-17.0-3.19,82879,List2A,black,man,,,,,"{""Q0"":""Luke is hugging fred""}","<img src=""stim_listA/hug5.gif""</stim_listA>",is hugging,
2133,"<img src='img/portrait_matrix_list2.JPG' style='width:900px;height:500px;''></img><p>If you have memorised all the portraits and names and are ready to start, press Continue.</p><p><strong>Please note: Your memory of these faces will be tested 4 times during this experiment.</strong></p>",0,html-button-response,347,2738869,0.0-18.0-0.0,82879,List2A,black,man,,,,,,,,
9359,"<img src=""portrait/BM2.jpg""style=""width:400px;height:400px;""></img>",5,html-button-response,348,2749247,0.0-18.0-1.0,82879,List2A,black,man,,TRUE,5,,,,,
null,CORRECT,,html-keyboard-response,349,2750790,0.0-18.0-2.0-0.0,82879,List2A,black,man,,,,null,,,,
2355,"<img src=""portrait/BW1.jpg""style=""width:400px;height:400px;""></img>",0,html-button-response,350,2753152,0.0-18.0-4.0,82879,List2A,black,man,,TRUE,0,,,,,
null,CORRECT,,html-keyboard-response,351,2754669,0.0-18.0-5.0-0.0,82879,List2A,black,man,,,,null,,,,
2004,"<img src=""portrait/BM1.jpg""style=""width:400px;height:400px;""></img>",4,html-button-response,352,2756680,0.0-18.0-7.0,82879,List2A,black,man,,TRUE,4,,,,,
null,CORRECT,,html-keyboard-response,353,2758198,0.0-18.0-8.0-0.0,82879,List2A,black,man,,,,null,,,,
3263,"<img src=""portrait/WW1.jpg""style=""width:400px;height:400px;""></img>",0,html-button-response,354,2761468,0.0-18.0-10.0,82879,List2A,black,man,,TRUE,1,,,,,
2701,"<img src=""portrait/WW1.jpg""style=""width:400px;height:400px;""></img>",1,html-button-response,355,2765189,0.0-18.0-12.0-0.0,82879,List2A,black,man,,FALSE,1,,,,,
null,CORRECT,,html-keyboard-response,356,2766720,0.0-18.0-12.0-1.0-0.0,82879,List2A,black,man,,,,null,,,,
2346,"<img src=""portrait/WM2.jpg""style=""width:400px;height:400px;""></img>",7,html-button-response,357,2769074,0.0-18.0-13.0,82879,List2A,black,man,,TRUE,7,,,,,
null,CORRECT,,html-keyboard-response,358,2770591,0.0-18.0-14.0-0.0,82879,List2A,black,man,,,,null,,,,
2104,"<img src=""portrait/BW2.jpg""style=""width:400px;height:400px;""></img>",2,html-button-response,359,2772703,0.0-18.0-16.0,82879,List2A,black,man,,TRUE,2,,,,,
null,CORRECT,,html-keyboard-response,360,2774238,0.0-18.0-17.0-0.0,82879,List2A,black,man,,,,null,,,,
3793,"<img src=""portrait/WM1.jpg""style=""width:400px;height:400px;""></img>",6,html-button-response,361,2778039,0.0-18.0-19.0,82879,List2A,black,man,,TRUE,6,,,,,
null,CORRECT,,html-keyboard-response,362,2779570,0.0-18.0-20.0-0.0,82879,List2A,black,man,,,,null,,,,
2557,"<img src=""portrait/WW2.jpg""style=""width:400px;height:400px;""></img>",3,html-button-response,363,2782134,0.0-18.0-22.0,82879,List2A,black,man,,TRUE,3,,,,,
null,CORRECT,,html-keyboard-response,364,2783651,0.0-18.0-23.0-0.0,82879,List2A,black,man,,,,null,,,,
1734,<p>You got 7 out of 8 right first time. Press Continue.</p>,0,html-button-response,365,2785392,0.0-18.0-25.0,82879,List2A,black,man,,,,,,,,
2277,"As you did not score 100%, the memory game will repeat. Press Continue.",0,html-button-response,366,2788674,0.0-18.0-26.0-0.0,82879,List2A,black,man,,,,,,,,
2015,"<img src='img/portrait_matrix_list2.JPG' style='width:900px;height:500px;''></img><p>If you have memorised all the portraits and names and are ready to start, press Continue.</p><p><strong>Please note: Your memory of these faces will be tested 4 times during this experiment.</strong></p>",0,html-button-response,367,2791710,0.0-18.1-0.1,82879,List2A,black,man,,,,,,,,
1778,"<img src=""portrait/BM2.jpg""style=""width:400px;height:400px;""></img>",5,html-button-response,368,2794509,0.0-18.1-1.1,82879,List2A,black,man,,TRUE,5,,,,,
null,CORRECT,,html-keyboard-response,369,2796012,0.0-18.1-2.1-0.1,82879,List2A,black,man,,,,null,,,,
4952,"<img src=""portrait/BW1.jpg""style=""width:400px;height:400px;""></img>",0,html-button-response,370,2800997,0.0-18.1-4.1,82879,List2A,black,man,,TRUE,0,,,,,
null,CORRECT,,html-keyboard-response,371,2802502,0.0-18.1-5.1-0.1,82879,List2A,black,man,,,,null,,,,
2568,"<img src=""portrait/BM1.jpg""style=""width:400px;height:400px;""></img>",5,html-button-response,372,2805079,0.0-18.1-7.1,82879,List2A,black,man,,TRUE,4,,,,,
3181,"<img src=""portrait/BM1.jpg""style=""width:400px;height:400px;""></img>",4,html-button-response,373,2809280,0.0-18.1-9.1-0.1,82879,List2A,black,man,,FALSE,4,,,,,
null,CORRECT,,html-keyboard-response,374,2810800,0.0-18.1-9.1-1.1-0.1,82879,List2A,black,man,,,,null,,,,
8856,"<img src=""portrait/WW1.jpg""style=""width:400px;height:400px;""></img>",1,html-button-response,375,2819663,0.0-18.1-10.1,82879,List2A,black,man,,TRUE,1,,,,,
null,CORRECT,,html-keyboard-response,376,2821178,0.0-18.1-11.1-0.1,82879,List2A,black,man,,,,null,,,,
2149,"<img src=""portrait/WM2.jpg""style=""width:400px;height:400px;""></img>",7,html-button-response,377,2823334,0.0-18.1-13.1,82879,List2A,black,man,,TRUE,7,,,,,
null,CORRECT,,html-keyboard-response,378,2824859,0.0-18.1-14.1-0.1,82879,List2A,black,man,,,,null,,,,
2789,"<img src=""portrait/BW2.jpg""style=""width:400px;height:400px;""></img>",2,html-button-response,379,2827655,0.0-18.1-16.1,82879,List2A,black,man,,TRUE,2,,,,,
null,CORRECT,,html-keyboard-response,380,2829190,0.0-18.1-17.1-0.1,82879,List2A,black,man,,,,null,,,,
2280,"<img src=""portrait/WM1.jpg""style=""width:400px;height:400px;""></img>",6,html-button-response,381,2831477,0.0-18.1-19.1,82879,List2A,black,man,,TRUE,6,,,,,
null,CORRECT,,html-keyboard-response,382,2833011,0.0-18.1-20.1-0.1,82879,List2A,black,man,,,,null,,,,
2331,"<img src=""portrait/WW2.jpg""style=""width:400px;height:400px;""></img>",3,html-button-response,383,2835350,0.0-18.1-22.1,82879,List2A,black,man,,TRUE,3,,,,,
null,CORRECT,,html-keyboard-response,384,2836867,0.0-18.1-23.1-0.1,82879,List2A,black,man,,,,null,,,,
966,<p>You got 7 out of 8 right first time. Press Continue.</p>,0,html-button-response,385,2837841,0.0-18.1-25.1,82879,List2A,black,man,,,,,,,,
1762,"As you did not score 100%, the memory game will repeat. Press Continue.",0,html-button-response,386,2840617,0.0-18.1-26.1-0.1,82879,List2A,black,man,,,,,,,,
1041,"<img src='img/portrait_matrix_list2.JPG' style='width:900px;height:500px;''></img><p>If you have memorised all the portraits and names and are ready to start, press Continue.</p><p><strong>Please note: Your memory of these faces will be tested 4 times during this experiment.</strong></p>",0,html-button-response,387,2842677,0.0-18.2-0.2,82879,List2A,black,man,,,,,,,,
12274,"<img src=""portrait/BM2.jpg""style=""width:400px;height:400px;""></img>",5,html-button-response,388,2855972,0.0-18.2-1.2,82879,List2A,black,man,,TRUE,5,,,,,
null,CORRECT,,html-keyboard-response,389,2857504,0.0-18.2-2.2-0.2,82879,List2A,black,man,,,,null,,,,
6008,"<img src=""portrait/BW1.jpg""style=""width:400px;height:400px;""></img>",0,html-button-response,390,2863520,0.0-18.2-4.2,82879,List2A,black,man,,TRUE,0,,,,,
null,CORRECT,,html-keyboard-response,391,2865032,0.0-18.2-5.2-0.2,82879,List2A,black,man,,,,null,,,,
1977,"<img src=""portrait/BM1.jpg""style=""width:400px;height:400px;""></img>",4,html-button-response,392,2867016,0.0-18.2-7.2,82879,List2A,black,man,,TRUE,4,,,,,
null,CORRECT,,html-keyboard-response,393,2868550,0.0-18.2-8.2-0.2,82879,List2A,black,man,,,,null,,,,
2787,"<img src=""portrait/WW1.jpg""style=""width:400px;height:400px;""></img>",1,html-button-response,394,2871371,0.0-18.2-10.2,82879,List2A,black,man,,TRUE,1,,,,,
null,CORRECT,,html-keyboard-response,395,2872888,0.0-18.2-11.2-0.2,82879,List2A,black,man,,,,null,,,,
2004,"<img src=""portrait/WM2.jpg""style=""width:400px;height:400px;""></img>",7,html-button-response,396,2874898,0.0-18.2-13.2,82879,List2A,black,man,,TRUE,7,,,,,
null,CORRECT,,html-keyboard-response,397,2876416,0.0-18.2-14.2-0.2,82879,List2A,black,man,,,,null,,,,
3544,"<img src=""portrait/BW2.jpg""style=""width:400px;height:400px;""></img>",2,html-button-response,398,2879966,0.0-18.2-16.2,82879,List2A,black,man,,TRUE,2,,,,,
null,CORRECT,,html-keyboard-response,399,2881500,0.0-18.2-17.2-0.2,82879,List2A,black,man,,,,null,,,,
1944,"<img src=""portrait/WM1.jpg""style=""width:400px;height:400px;""></img>",6,html-button-response,400,2883451,0.0-18.2-19.2,82879,List2A,black,man,,TRUE,6,,,,,
null,CORRECT,,html-keyboard-response,401,2884985,0.0-18.2-20.2-0.2,82879,List2A,black,man,,,,null,,,,
2086,"<img src=""portrait/WW2.jpg""style=""width:400px;height:400px;""></img>",3,html-button-response,402,2887078,0.0-18.2-22.2,82879,List2A,black,man,,TRUE,3,,,,,
null,CORRECT,,html-keyboard-response,403,2888594,0.0-18.2-23.2-0.2,82879,List2A,black,man,,,,null,,,,
1060,<p>You got 8 out of 8 right first time. Press Continue.</p>,0,html-button-response,404,2889660,0.0-18.2-25.2,82879,List2A,black,man,,,,,,,,
null,"<div style=""font-size:60px;"">+</div>",,html-keyboard-response,405,2891180,0.0-19.0-0.0,82879,List2A,black,man,,,,null,,,,
null,"<img src=""stim_listA/touch7.gif""</stim_listA>",,html-keyboard-response,406,2893186,0.0-19.0-1.0,82879,List2A,black,man,,,,null,,,,
null,is touching,,html-keyboard-response,407,2895190,0.0-19.0-2.0,82879,List2A,black,man,,,,null,,,,
31684,,,survey-text,408,2926881,0.0-19.0-3.0,82879,List2A,black,man,,,,,"{""Q0"":""Kate is touching jane""}","<img src=""stim_listA/touch7.gif""</stim_listA>",is touching,
null,"<div style=""font-size:60px;"">+</div>",,html-keyboard-response,409,2927396,0.0-19.0-0.1,82879,List2A,black,man,,,,null,,,,
null,"<img src=""stim_listA/kiss1.gif""</stim_listA>",,html-keyboard-response,410,2929410,0.0-19.0-1.1,82879,List2A,black,man,,,,null,,,,
null,is kissing,,html-keyboard-response,411,2931415,0.0-19.0-2.1,82879,List2A,black,man,,,,null,,,,
33758,,,survey-text,412,2965177,0.0-19.0-3.1,82879,List2A,black,man,,,,,"{""Q0"":""Ruth is kissing luke""}","<img src=""stim_listA/kiss1.gif""</stim_listA>",is kissing,
null,"<div style=""font-size:60px;"">+</div>",,html-keyboard-response,413,2965694,0.0-19.0-0.2,82879,List2A,black,man,,,,null,,,,
null,"<img src=""stim_listA/dance5.gif""</stim_listA>",,html-keyboard-response,414,2967714,0.0-19.0-1.2,82879,List2A,black,man,,,,null,,,,
null,is dancing with,,html-keyboard-response,415,2969699,0.0-19.0-2.2,82879,List2A,black,man,,,,null,,,,
24407,,,survey-text,416,2994115,0.0-19.0-3.2,82879,List2A,black,man,,,,,"{""Q0"":""Luke is dancing with mike""}","<img src=""stim_listA/dance5.gif""</stim_listA>",is dancing with,
null,"<div style=""font-size:60px;"">+</div>",,html-keyboard-response,417,2994631,0.0-19.0-0.3,82879,List2A,black,man,,,,null,,,,
null,"<img src=""stim_listA/dance4.gif""</stim_listA>",,html-keyboard-response,418,2996639,0.0-19.0-1.3,82879,List2A,black,man,,,,null,,,,
null,are dancing with each other,,html-keyboard-response,419,2998639,0.0-19.0-2.3,82879,List2A,black,man,,,,null,,,,
40267,,,survey-text,420,3038912,0.0-19.0-3.3,82879,List2A,black,man,,,,,"{""Q0"":""Beth and mike are dancing with each other""}","<img src=""stim_listA/dance4.gif""</stim_listA>",are dancing with each other,
null,"<div style=""font-size:60px;"">+</div>",,html-keyboard-response,421,3039429,0.0-19.0-0.4,82879,List2A,black,man,,,,null,,,,
null,"<img src=""stim_listA/marry5.gif""</stim_listA>",,html-keyboard-response,422,3041438,0.0-19.0-1.4,82879,List2A,black,man,,,,null,,,,
null,is marrying,,html-keyboard-response,423,3043446,0.0-19.0-2.4,82879,List2A,black,man,,,,null,,,,
20259,,,survey-text,424,3063711,0.0-19.0-3.4,82879,List2A,black,man,,,,,"{""Q0"":""Dave is marrying fred""}","<img src=""stim_listA/marry5.gif""</stim_listA>",is marrying,
null,"<div style=""font-size:60px;"">+</div>",,html-keyboard-response,425,3064226,0.0-19.0-0.5,82879,List2A,black,man,,,,null,,,,
null,"<img src=""stim_listA/dance7.gif""</stim_listA>",,html-keyboard-response,426,3066234,0.0-19.0-1.5,82879,List2A,black,man,,,,null,,,,
null,is dancing with,,html-keyboard-response,427,3068233,0.0-19.0-2.5,82879,List2A,black,man,,,,null,,,,
19414,,,survey-text,428,3087653,0.0-19.0-3.5,82879,List2A,black,man,,,,,"{""Q0"":""Kate is dancing with ruth""}","<img src=""stim_listA/dance7.gif""</stim_listA>",is dancing with,
null,"<div style=""font-size:60px;"">+</div>",,html-keyboard-response,429,3088168,0.0-19.0-0.6,82879,List2A,black,man,,,,null,,,,
null,"<img src=""stim_listA/dance6.gif""</stim_listA>",,html-keyboard-response,430,3090174,0.0-19.0-1.6,82879,List2A,black,man,,,,null,,,,
null,are dancing with each other,,html-keyboard-response,431,3092175,0.0-19.0-2.6,82879,List2A,black,man,,,,null,,,,
42100,,,survey-text,432,3134282,0.0-19.0-3.6,82879,List2A,black,man,,,,,"{""Q0"":""Mike and dave is dancing with each other""}","<img src=""stim_listA/dance6.gif""</stim_listA>",are dancing with each other,
null,"<div style=""font-size:60px;"">+</div>",,html-keyboard-response,433,3134799,0.0-19.0-0.7,82879,List2A,black,man,,,,null,,,,
null,"<img src=""stim_listA/shout5.gif""</stim_listA>",,html-keyboard-response,434,3136816,0.0-19.0-1.7,82879,List2A,black,man,,,,null,,,,
null,is shouting at,,html-keyboard-response,435,3138808,0.0-19.0-2.7,82879,List2A,black,man,,,,null,,,,
17736,,,survey-text,436,3156551,0.0-19.0-3.7,82879,List2A,black,man,,,,,"{""Q0"":""Luke is shouting at fred""}","<img src=""stim_listA/shout5.gif""</stim_listA>",is shouting at,
null,"<div style=""font-size:60px;"">+</div>",,html-keyboard-response,437,3157067,0.0-19.0-0.8,82879,List2A,black,man,,,,null,,,,
null,"<img src=""stim_listA/kiss4.gif""</stim_listA>",,html-keyboard-response,438,3159076,0.0-19.0-1.8,82879,List2A,black,man,,,,null,,,,
null,are kissing each other,,html-keyboard-response,439,3161079,0.0-19.0-2.8,82879,List2A,black,man,,,,null,,,,
34306,,,survey-text,440,3195391,0.0-19.0-3.8,82879,List2A,black,man,,,,,"{""Q0"":""Mike and kate are kissing each other""}","<img src=""stim_listA/kiss4.gif""</stim_listA>",are kissing each other,
null,"<div style=""font-size:60px;"">+</div>",,html-keyboard-response,441,3195909,0.0-19.0-0.9,82879,List2A,black,man,,,,null,,,,
null,"<img src=""stim_listA/touch6.gif""</stim_listA>",,html-keyboard-response,442,3197918,0.0-19.0-1.9,82879,List2A,black,man,,,,null,,,,
null,are touching each other,,html-keyboard-response,443,3199920,0.0-19.0-2.9,82879,List2A,black,man,,,,null,,,,
32027,,,survey-text,444,3231953,0.0-19.0-3.9,82879,List2A,black,man,,,,,"{""Q0"":""Mike and fred are touching each other""}","<img src=""stim_listA/touch6.gif""</stim_listA>",are touching each other,
null,"<div style=""font-size:60px;"">+</div>",,html-keyboard-response,445,3232472,0.0-19.0-0.10,82879,List2A,black,man,,,,null,,,,
null,"<img src=""stim_listA/talk8.gif""</stim_listA>",,html-keyboard-response,446,3234488,0.0-19.0-1.10,82879,List2A,black,man,,,,null,,,,
null,are talking to each other,,html-keyboard-response,447,3236489,0.0-19.0-2.10,82879,List2A,black,man,,,,null,,,,
41230,,,survey-text,448,3277726,0.0-19.0-3.10,82879,List2A,black,man,,,,,"{""Q0"":""Jane and beth are talking to each other""}","<img src=""stim_listA/talk8.gif""</stim_listA>",are talking to each other,
null,"<div style=""font-size:60px;"">+</div>",,html-keyboard-response,449,3278244,0.0-19.0-0.11,82879,List2A,black,man,,,,null,,,,
null,"<img src=""stim_listA/touch4.gif""</stim_listA>",,html-keyboard-response,450,3280257,0.0-19.0-1.11,82879,List2A,black,man,,,,null,,,,
null,are touching each other,,html-keyboard-response,451,3282254,0.0-19.0-2.11,82879,List2A,black,man,,,,null,,,,
31337,,,survey-text,452,3313597,0.0-19.0-3.11,82879,List2A,black,man,,,,,"{""Q0"":""Fred and beth are touching each other""}","<img src=""stim_listA/touch4.gif""</stim_listA>",are touching each other,
null,"<div style=""font-size:60px;"">+</div>",,html-keyboard-response,453,3314114,0.0-19.0-0.12,82879,List2A,black,man,,,,null,,,,
null,"<img src=""stim_listA/argue8.gif""</stim_listA>",,html-keyboard-response,454,3316130,0.0-19.0-1.12,82879,List2A,black,man,,,,null,,,,
null,are arguing with each other,,html-keyboard-response,455,3318135,0.0-19.0-2.12,82879,List2A,black,man,,,,null,,,,
31784,,,survey-text,456,3349924,0.0-19.0-3.12,82879,List2A,black,man,,,,,"{""Q0"":""Kate and beth are arguing with each other""}","<img src=""stim_listA/argue8.gif""</stim_listA>",are arguing with each other,
null,"<div style=""font-size:60px;"">+</div>",,html-keyboard-response,457,3350441,0.0-19.0-0.13,82879,List2A,black,man,,,,null,,,,
null,"<img src=""stim_listA/marry1.gif""</stim_listA>",,html-keyboard-response,458,3352460,0.0-19.0-1.13,82879,List2A,black,man,,,,null,,,,
null,is marrying,,html-keyboard-response,459,3354470,0.0-19.0-2.13,82879,List2A,black,man,,,,null,,,,
27702,,,survey-text,460,3382178,0.0-19.0-3.13,82879,List2A,black,man,,,,,"{""Q0"":""Ruth is marrying dave""}","<img src=""stim_listA/marry1.gif""</stim_listA>",is marrying,
null,"<div style=""font-size:60px;"">+</div>",,html-keyboard-response,461,3382696,0.0-19.0-0.14,82879,List2A,black,man,,,,null,,,,
null,"<img src=""stim_listA/fight8.gif""</stim_listA>",,html-keyboard-response,462,3384713,0.0-19.0-1.14,82879,List2A,black,man,,,,null,,,,
null,are fighting each other,,html-keyboard-response,463,3386715,0.0-19.0-2.14,82879,List2A,black,man,,,,null,,,,
23746,,,survey-text,464,3410468,0.0-19.0-3.14,82879,List2A,black,man,,,,,"{""Q0"":""Ruth and beth are fighting each other""}","<img src=""stim_listA/fight8.gif""</stim_listA>",are fighting each other,
null,"<div style=""font-size:60px;"">+</div>",,html-keyboard-response,465,3410983,0.0-19.0-0.15,82879,List2A,black,man,,,,null,,,,
null,"<img src=""stim_listA/hug2.gif""</stim_listA>",,html-keyboard-response,466,3412996,0.0-19.0-1.15,82879,List2A,black,man,,,,null,,,,
null,are hugging each other,,html-keyboard-response,467,3414997,0.0-19.0-2.15,82879,List2A,black,man,,,,null,,,,
42520,,,survey-text,468,3457524,0.0-19.0-3.15,82879,List2A,black,man,,,,,"{""Q0"":""Jane and beth are hugging each other""}","<img src=""stim_listA/hug2.gif""</stim_listA>",are hugging each other,
null,"<div style=""font-size:60px;"">+</div>",,html-keyboard-response,469,3458041,0.0-19.0-0.16,82879,List2A,black,man,,,,null,,,,
null,"<img src=""stim_listA/fight5.gif""</stim_listA>",,html-keyboard-response,470,3460047,0.0-19.0-1.16,82879,List2A,black,man,,,,null,,,,
null,is fighting,,html-keyboard-response,471,3462047,0.0-19.0-2.16,82879,List2A,black,man,,,,null,,,,
24637,,,survey-text,472,3486692,0.0-19.0-3.16,82879,List2A,black,man,,,,,"{""Q0"":""Mike and dave is fighting ""}","<img src=""stim_listA/fight5.gif""</stim_listA>",is fighting,
null,"<div style=""font-size:60px;"">+</div>",,html-keyboard-response,473,3487209,0.0-19.0-0.17,82879,List2A,black,man,,,,null,,,,
null,"<img src=""stim_listA/marry8.gif""</stim_listA>",,html-keyboard-response,474,3489230,0.0-19.0-1.17,82879,List2A,black,man,,,,null,,,,
null,are marrying each other,,html-keyboard-response,475,3491224,0.0-19.0-2.17,82879,List2A,black,man,,,,null,,,,
34991,,,survey-text,476,3526221,0.0-19.0-3.17,82879,List2A,black,man,,,,,"{""Q0"":""Kate and ruth is dancing with each other""}","<img src=""stim_listA/marry8.gif""</stim_listA>",are marrying each other,
null,"<div style=""font-size:60px;"">+</div>",,html-keyboard-response,477,3526736,0.0-19.0-0.18,82879,List2A,black,man,,,,null,,,,
null,"<img src=""stim_listA/meet4.gif""</stim_listA>",,html-keyboard-response,478,3528744,0.0-19.0-1.18,82879,List2A,black,man,,,,null,,,,
null,are meeting each other,,html-keyboard-response,479,3530743,0.0-19.0-2.18,82879,List2A,black,man,,,,null,,,,
31154,,,survey-text,480,3561903,0.0-19.0-3.18,82879,List2A,black,man,,,,,"{""Q0"":""Fred and beth are meeting each""}","<img src=""stim_listA/meet4.gif""</stim_listA>",are meeting each other,
null,"<div style=""font-size:60px;"">+</div>",,html-keyboard-response,481,3562422,0.0-19.0-0.19,82879,List2A,black,man,,,,null,,,,
null,"<img src=""stim_listA/kiss7.gif""</stim_listA>",,html-keyboard-response,482,3564441,0.0-19.0-1.19,82879,List2A,black,man,,,,null,,,,
null,is kissing,,html-keyboard-response,483,3566442,0.0-19.0-2.19,82879,List2A,black,man,,,,null,,,,
26535,,,survey-text,484,3592984,0.0-19.0-3.19,82879,List2A,black,man,,,,,"{""Q0"":""Beth and ruth is kissing""}","<img src=""stim_listA/kiss7.gif""</stim_listA>",is kissing,
2137,<p>Thank you for completing that task.</p><p>The final part of this session is a short questionnaire.</p><p>Press Continue.</p>,0,html-button-response,485,3595127,0.0-20.0,82879,List2A,black,man,,,,,,,,
58380,,,survey-text,486,3654526,0.0-21.0,82879,List2A,black,man,,,,,"{""Q0"":""28"",""Q1"":""English"",""Q2"":""English"",""Q3"":""England"",""Q4"":""Black"",""Q5"":""Male""}",,,demographics
41987,,,survey-likert,487,3696533,0.0-22.0,82879,List2A,black,man,,,,,"{""Q0"":5,""Q1"":5,""Q2"":5,""Q3"":5,""Q4"":5,""Q5"":5,""Q6"":5,""Q7"":5,""Q8"":5,""Q9"":5,""Q10"":5,""Q11"":5,""Q12"":5,""Q13"":5}",,,likert_race
38640,,,survey-likert,488,3735193,0.0-23.0,82879,List2A,black,man,,,,,"{""Q0"":5,""Q1"":5,""Q2"":5,""Q3"":5,""Q4"":5,""Q5"":5,""Q6"":5,""Q7"":5,""Q8"":5,""Q9"":5,""Q10"":5,""Q11"":5,""Q12"":5,""Q13"":5}",,,likert_gender
17625,,,survey-text,489,3752829,0.0-24.0,82879,List2A,black,man,,,,,"{""Q0"":""ccc""}",,,worker_id
11703,,,external-html,490,3764672,0.0-25.0,82879,List2A,black,man,debrief.html,,,,,,,
