rt,stimulus,button_pressed,trial_type,trial_index,time_elapsed,internal_node_id,subject,list,ppt_race,ppt_gender,url,first_guess,correct,key_press,responses,image_type,phrase_type,test_part
10278,Welcome to the experiment. Press Continue to begin.,0,html-button-response,0,10299,0.0-0.0,8310,List2B,white,woman,,,,,,,,
19593,,,external-html,1,31175,0.0-1.0,8310,List2B,white,woman,consent.html,,,,,,,
6629,"<p>On the next page, you will see portraits of 8 people and their names.</p><p>Your first task is to take a few minutes to memorise the names of these people.</p><p>You will have to recall their names during the rest of the experiment, so it is</p><p>essential that you try to memorise these people and their names as best as you can.</p><br><p><strong>You will then be tested on your memory of these names and portraits.</strong></p><br><p>The experiment will start after you have completed this memory test.</p><br><p>Ready?</p>",0,html-button-response,2,37811,0.0-2.0,8310,List2B,white,woman,,,,,,,,
30582,"<img src='img/portrait_matrix_list2.JPG' style='width:900px;height:500px;''></img><p>If you have memorised all the portraits and names and are ready to start, press Continue.</p><p><strong>Please note: Your memory of these faces will be tested 4 times during this experiment.</strong></p>",0,html-button-response,3,69403,0.0-3.0-0.0,8310,List2B,white,woman,,,,,,,,
3208,"<img src=""portrait/BW2.jpg""style=""width:400px;height:400px;""></img>",2,html-button-response,4,73620,0.0-3.0-1.0,8310,List2B,white,woman,,TRUE,2,,,,,
null,CORRECT,,html-keyboard-response,5,75137,0.0-3.0-2.0-0.0,8310,List2B,white,woman,,,,null,,,,
3404,"<img src=""portrait/WW2.jpg""style=""width:400px;height:400px;""></img>",1,html-button-response,6,78553,0.0-3.0-4.0,8310,List2B,white,woman,,TRUE,3,,,,,
7041,"<img src=""portrait/WW2.jpg""style=""width:400px;height:400px;""></img>",3,html-button-response,7,86613,0.0-3.0-6.0-0.0,8310,List2B,white,woman,,FALSE,3,,,,,
null,CORRECT,,html-keyboard-response,8,88138,0.0-3.0-6.0-1.0-0.0,8310,List2B,white,woman,,,,null,,,,
3129,"<img src=""portrait/WM2.jpg""style=""width:400px;height:400px;""></img>",7,html-button-response,9,91275,0.0-3.0-7.0,8310,List2B,white,woman,,TRUE,7,,,,,
null,CORRECT,,html-keyboard-response,10,92783,0.0-3.0-8.0-0.0,8310,List2B,white,woman,,,,null,,,,
4126,"<img src=""portrait/BW1.jpg""style=""width:400px;height:400px;""></img>",0,html-button-response,11,96915,0.0-3.0-10.0,8310,List2B,white,woman,,TRUE,0,,,,,
null,CORRECT,,html-keyboard-response,12,98428,0.0-3.0-11.0-0.0,8310,List2B,white,woman,,,,null,,,,
6102,"<img src=""portrait/BM2.jpg""style=""width:400px;height:400px;""></img>",4,html-button-response,13,104537,0.0-3.0-13.0,8310,List2B,white,woman,,TRUE,5,,,,,
2419,"<img src=""portrait/BM2.jpg""style=""width:400px;height:400px;""></img>",5,html-button-response,14,107969,0.0-3.0-15.0-0.0,8310,List2B,white,woman,,FALSE,5,,,,,
null,CORRECT,,html-keyboard-response,15,109482,0.0-3.0-15.0-1.0-0.0,8310,List2B,white,woman,,,,null,,,,
3496,"<img src=""portrait/WM1.jpg""style=""width:400px;height:400px;""></img>",6,html-button-response,16,112982,0.0-3.0-16.0,8310,List2B,white,woman,,TRUE,6,,,,,
null,CORRECT,,html-keyboard-response,17,114490,0.0-3.0-17.0-0.0,8310,List2B,white,woman,,,,null,,,,
2896,"<img src=""portrait/WW1.jpg""style=""width:400px;height:400px;""></img>",1,html-button-response,18,117388,0.0-3.0-19.0,8310,List2B,white,woman,,TRUE,1,,,,,
null,CORRECT,,html-keyboard-response,19,118903,0.0-3.0-20.0-0.0,8310,List2B,white,woman,,,,null,,,,
2817,"<img src=""portrait/BM1.jpg""style=""width:400px;height:400px;""></img>",4,html-button-response,20,121727,0.0-3.0-22.0,8310,List2B,white,woman,,TRUE,4,,,,,
null,CORRECT,,html-keyboard-response,21,123235,0.0-3.0-23.0-0.0,8310,List2B,white,woman,,,,null,,,,
2105,<p>You got 6 out of 8 right first time. Press Continue.</p>,0,html-button-response,22,125348,0.0-3.0-25.0,8310,List2B,white,woman,,,,,,,,
2535,"As you did not score 100%, the memory game will repeat. Press Continue.",0,html-button-response,23,128890,0.0-3.0-26.0-0.0,8310,List2B,white,woman,,,,,,,,
113700,"<img src='img/portrait_matrix_list2.JPG' style='width:900px;height:500px;''></img><p>If you have memorised all the portraits and names and are ready to start, press Continue.</p><p><strong>Please note: Your memory of these faces will be tested 4 times during this experiment.</strong></p>",0,html-button-response,24,243611,0.0-3.1-0.1,8310,List2B,white,woman,,,,,,,,
5092,"<img src=""portrait/BW2.jpg""style=""width:400px;height:400px;""></img>",2,html-button-response,25,249712,0.0-3.1-1.1,8310,List2B,white,woman,,TRUE,2,,,,,
null,CORRECT,,html-keyboard-response,26,251218,0.0-3.1-2.1-0.1,8310,List2B,white,woman,,,,null,,,,
2448,"<img src=""portrait/WW2.jpg""style=""width:400px;height:400px;""></img>",3,html-button-response,27,253671,0.0-3.1-4.1,8310,List2B,white,woman,,TRUE,3,,,,,
null,CORRECT,,html-keyboard-response,28,255181,0.0-3.1-5.1-0.1,8310,List2B,white,woman,,,,null,,,,
2045,"<img src=""portrait/WM2.jpg""style=""width:400px;height:400px;""></img>",7,html-button-response,29,257234,0.0-3.1-7.1,8310,List2B,white,woman,,TRUE,7,,,,,
null,CORRECT,,html-keyboard-response,30,258740,0.0-3.1-8.1-0.1,8310,List2B,white,woman,,,,null,,,,
2076,"<img src=""portrait/BW1.jpg""style=""width:400px;height:400px;""></img>",0,html-button-response,31,260824,0.0-3.1-10.1,8310,List2B,white,woman,,TRUE,0,,,,,
null,CORRECT,,html-keyboard-response,32,262335,0.0-3.1-11.1-0.1,8310,List2B,white,woman,,,,null,,,,
2592,"<img src=""portrait/BM2.jpg""style=""width:400px;height:400px;""></img>",5,html-button-response,33,264932,0.0-3.1-13.1,8310,List2B,white,woman,,TRUE,5,,,,,
null,CORRECT,,html-keyboard-response,34,266444,0.0-3.1-14.1-0.1,8310,List2B,white,woman,,,,null,,,,
1944,"<img src=""portrait/WM1.jpg""style=""width:400px;height:400px;""></img>",6,html-button-response,35,268397,0.0-3.1-16.1,8310,List2B,white,woman,,TRUE,6,,,,,
null,CORRECT,,html-keyboard-response,36,269908,0.0-3.1-17.1-0.1,8310,List2B,white,woman,,,,null,,,,
1816,"<img src=""portrait/WW1.jpg""style=""width:400px;height:400px;""></img>",1,html-button-response,37,271729,0.0-3.1-19.1,8310,List2B,white,woman,,TRUE,1,,,,,
null,CORRECT,,html-keyboard-response,38,273239,0.0-3.1-20.1-0.1,8310,List2B,white,woman,,,,null,,,,
1546,"<img src=""portrait/BM1.jpg""style=""width:400px;height:400px;""></img>",4,html-button-response,39,274794,0.0-3.1-22.1,8310,List2B,white,woman,,TRUE,4,,,,,
null,CORRECT,,html-keyboard-response,40,276306,0.0-3.1-23.1-0.1,8310,List2B,white,woman,,,,null,,,,
1943,<p>You got 8 out of 8 right first time. Press Continue.</p>,0,html-button-response,41,278258,0.0-3.1-25.1,8310,List2B,white,woman,,,,,,,,
212684,"<p>In this experiment, you will view photographs of the people from the memory game interacting.</p><p>By using the <strong>exact</strong> phrase given <i>after</i> the photograph appears and recalling the correct names of the people in the photographs, form a sentence describing the interaction. You do not need to capitalise names.</p><p>Type your answer in the space provided. Please complete every sentence before moving onto the next trial.</p><p>You will only have a few seconds to memorise each given photograph and phrase before you can respond, so try your best to focus.</p><p>An example is given below. Press 'Continue' when you are ready.</p><img src='img/speaking_example_v2.jpg' style='width:800px;height:460px;''></img>",0,html-button-response,42,491954,0.0-4.0,8310,List2B,white,woman,,,,,,,,
8024,"<p>Before the experiment starts, you will watch two example trials. Press 'Continue'.</p>",0,html-button-response,43,500983,0.0-5.0,8310,List2B,white,woman,,,,,,,,
null,<img src='img/speaking_WW.gif'></img>,,html-keyboard-response,44,503992,0.0-6.0,8310,List2B,white,woman,,,,null,,,,
null,<p>is speaking to</p>,,html-keyboard-response,45,506023,0.0-7.0,8310,List2B,white,woman,,,,null,,,,
2195,<p><b>Answer:</b> jane is speaking to ruth</p>,0,html-button-response,46,508223,0.0-8.0,8310,List2B,white,woman,,,,,,,,
null,<img src='img/pointing_BM.gif'></img>,,html-keyboard-response,47,511239,0.0-9.0,8310,List2B,white,woman,,,,null,,,,
null,<p>are pointing at each other</p>,,html-keyboard-response,48,513245,0.0-10.0,8310,List2B,white,woman,,,,null,,,,
1690,<p><b>Answer:</b> fred and mike are pointing at each other</p>,0,html-button-response,49,514939,0.0-11.0,8310,List2B,white,woman,,,,,,,,
3659,"<p>Ready to start the experiment?</p><br><p><strong>Remember to describe the picture using a full sentence,</strong></p><p><strong>that combines the names of the people with the given phrase.</strong></p><p><strong>If you do not do this correctly you will not be paid.</strong></p><p><strong> You do not need to capitalise names or use punctuation.</strong></p><br><p>Press 'Continue' to begin.</p>",0,html-button-response,50,519608,0.0-12.0,8310,List2B,white,woman,,,,,,,,
null,"<div style=""font-size:60px;"">+</div>",,html-keyboard-response,51,521123,0.0-13.0-0.0,8310,List2B,white,woman,,,,null,,,,
null,"<img src=""stim_listB/dance1.gif""</stim_listB>",,html-keyboard-response,52,523132,0.0-13.0-1.0,8310,List2B,white,woman,,,,null,,,,
null,is dancing with,,html-keyboard-response,53,525180,0.0-13.0-2.0,8310,List2B,white,woman,,,,null,,,,
8101,,,survey-text,54,533285,0.0-13.0-3.0,8310,List2B,white,woman,,,,,"{""Q0"":""Jane is dancing with luke""}","<img src=""stim_listB/dance1.gif""</stim_listB>",is dancing with,
null,"<div style=""font-size:60px;"">+</div>",,html-keyboard-response,55,533791,0.0-13.0-0.1,8310,List2B,white,woman,,,,null,,,,
null,"<img src=""stim_listB/kiss7.gif""</stim_listB>",,html-keyboard-response,56,535796,0.0-13.0-1.1,8310,List2B,white,woman,,,,null,,,,
null,is kissing,,html-keyboard-response,57,537802,0.0-13.0-2.1,8310,List2B,white,woman,,,,null,,,,
11502,,,survey-text,58,549309,0.0-13.0-3.1,8310,List2B,white,woman,,,,,"{""Q0"":""beth is kissing ruth""}","<img src=""stim_listB/kiss7.gif""</stim_listB>",is kissing,
null,"<div style=""font-size:60px;"">+</div>",,html-keyboard-response,59,549823,0.0-13.0-0.2,8310,List2B,white,woman,,,,null,,,,
null,"<img src=""stim_listB/argue4.gif""</stim_listB>",,html-keyboard-response,60,551834,0.0-13.0-1.2,8310,List2B,white,woman,,,,null,,,,
null,are arguing with each other,,html-keyboard-response,61,553841,0.0-13.0-2.2,8310,List2B,white,woman,,,,null,,,,
14802,,,survey-text,62,568647,0.0-13.0-3.2,8310,List2B,white,woman,,,,,"{""Q0"":""Beth is arguing with fred""}","<img src=""stim_listB/argue4.gif""</stim_listB>",are arguing with each other,
null,"<div style=""font-size:60px;"">+</div>",,html-keyboard-response,63,569153,0.0-13.0-0.3,8310,List2B,white,woman,,,,null,,,,
null,"<img src=""stim_listB/argue2.gif""</stim_listB>",,html-keyboard-response,64,571158,0.0-13.0-1.3,8310,List2B,white,woman,,,,null,,,,
null,are arguing with each other,,html-keyboard-response,65,573164,0.0-13.0-2.3,8310,List2B,white,woman,,,,null,,,,
1003,,,survey-text,66,574171,0.0-13.0-3.3,8310,List2B,white,woman,,,,,"{""Q0"":""""}","<img src=""stim_listB/argue2.gif""</stim_listB>",are arguing with each other,
null,"<div style=""font-size:60px;"">+</div>",,html-keyboard-response,67,574676,0.0-13.0-0.4,8310,List2B,white,woman,,,,null,,,,
null,"<img src=""stim_listB/argue1.gif""</stim_listB>",,html-keyboard-response,68,576684,0.0-13.0-1.4,8310,List2B,white,woman,,,,null,,,,
null,is arguing with,,html-keyboard-response,69,578689,0.0-13.0-2.4,8310,List2B,white,woman,,,,null,,,,
15088,,,survey-text,70,593781,0.0-13.0-3.4,8310,List2B,white,woman,,,,,"{""Q0"":""ruth is arguing with dave""}","<img src=""stim_listB/argue1.gif""</stim_listB>",is arguing with,
null,"<div style=""font-size:60px;"">+</div>",,html-keyboard-response,71,594288,0.0-13.0-0.5,8310,List2B,white,woman,,,,null,,,,
null,"<img src=""stim_listB/fight7.gif""</stim_listB>",,html-keyboard-response,72,596298,0.0-13.0-1.5,8310,List2B,white,woman,,,,null,,,,
null,is fighting,,html-keyboard-response,73,598305,0.0-13.0-2.5,8310,List2B,white,woman,,,,null,,,,
12099,,,survey-text,74,610408,0.0-13.0-3.5,8310,List2B,white,woman,,,,,"{""Q0"":""kate is fighting jane""}","<img src=""stim_listB/fight7.gif""</stim_listB>",is fighting,
null,"<div style=""font-size:60px;"">+</div>",,html-keyboard-response,75,610916,0.0-13.0-0.6,8310,List2B,white,woman,,,,null,,,,
null,"<img src=""stim_listB/shout1.gif""</stim_listB>",,html-keyboard-response,76,612927,0.0-13.0-1.6,8310,List2B,white,woman,,,,null,,,,
null,is shouting at,,html-keyboard-response,77,614933,0.0-13.0-2.6,8310,List2B,white,woman,,,,null,,,,
8840,,,survey-text,78,623777,0.0-13.0-3.6,8310,List2B,white,woman,,,,,"{""Q0"":""luke is shouting at ruth""}","<img src=""stim_listB/shout1.gif""</stim_listB>",is shouting at,
null,"<div style=""font-size:60px;"">+</div>",,html-keyboard-response,79,624283,0.0-13.0-0.7,8310,List2B,white,woman,,,,null,,,,
null,"<img src=""stim_listB/talk4.gif""</stim_listB>",,html-keyboard-response,80,626291,0.0-13.0-1.7,8310,List2B,white,woman,,,,null,,,,
null,are talking to each other,,html-keyboard-response,81,628296,0.0-13.0-2.7,8310,List2B,white,woman,,,,null,,,,
17143,,,survey-text,82,645446,0.0-13.0-3.7,8310,List2B,white,woman,,,,,"{""Q0"":""mike and kate are talking to each other""}","<img src=""stim_listB/talk4.gif""</stim_listB>",are talking to each other,
null,"<div style=""font-size:60px;"">+</div>",,html-keyboard-response,83,645954,0.0-13.0-0.8,8310,List2B,white,woman,,,,null,,,,
null,"<img src=""stim_listB/hug5.gif""</stim_listB>",,html-keyboard-response,84,647965,0.0-13.0-1.8,8310,List2B,white,woman,,,,null,,,,
null,is hugging,,html-keyboard-response,85,649971,0.0-13.0-2.8,8310,List2B,white,woman,,,,null,,,,
5505,,,survey-text,86,655479,0.0-13.0-3.8,8310,List2B,white,woman,,,,,"{""Q0"":""""}","<img src=""stim_listB/hug5.gif""</stim_listB>",is hugging,
null,"<div style=""font-size:60px;"">+</div>",,html-keyboard-response,87,655998,0.0-13.0-0.9,8310,List2B,white,woman,,,,null,,,,
null,"<img src=""stim_listB/shout6.gif""</stim_listB>",,html-keyboard-response,88,658007,0.0-13.0-1.9,8310,List2B,white,woman,,,,null,,,,
null,are shouting at each other,,html-keyboard-response,89,660010,0.0-13.0-2.9,8310,List2B,white,woman,,,,null,,,,
10652,,,survey-text,90,670664,0.0-13.0-3.9,8310,List2B,white,woman,,,,,"{""Q0"":""mike and dave are shouting at each other""}","<img src=""stim_listB/shout6.gif""</stim_listB>",are shouting at each other,
null,"<div style=""font-size:60px;"">+</div>",,html-keyboard-response,91,671169,0.0-13.0-0.10,8310,List2B,white,woman,,,,null,,,,
null,"<img src=""stim_listB/fight6.gif""</stim_listB>",,html-keyboard-response,92,673175,0.0-13.0-1.10,8310,List2B,white,woman,,,,null,,,,
null,are fighting each other,,html-keyboard-response,93,675179,0.0-13.0-2.10,8310,List2B,white,woman,,,,null,,,,
17339,,,survey-text,94,692519,0.0-13.0-3.10,8310,List2B,white,woman,,,,,"{""Q0"":""luke and fred are fighting each other""}","<img src=""stim_listB/fight6.gif""</stim_listB>",are fighting each other,
null,"<div style=""font-size:60px;"">+</div>",,html-keyboard-response,95,693023,0.0-13.0-0.11,8310,List2B,white,woman,,,,null,,,,
null,"<img src=""stim_listB/marry1.gif""</stim_listB>",,html-keyboard-response,96,695029,0.0-13.0-1.11,8310,List2B,white,woman,,,,null,,,,
null,is marrying,,html-keyboard-response,97,697034,0.0-13.0-2.11,8310,List2B,white,woman,,,,null,,,,
17486,,,survey-text,98,714524,0.0-13.0-3.11,8310,List2B,white,woman,,,,,"{""Q0"":""ruth is marrying dave""}","<img src=""stim_listB/marry1.gif""</stim_listB>",is marrying,
null,"<div style=""font-size:60px;"">+</div>",,html-keyboard-response,99,715029,0.0-13.0-0.12,8310,List2B,white,woman,,,,null,,,,
null,"<img src=""stim_listB/touch1.gif""</stim_listB>",,html-keyboard-response,100,717039,0.0-13.0-1.12,8310,List2B,white,woman,,,,null,,,,
null,is touching,,html-keyboard-response,101,719046,0.0-13.0-2.12,8310,List2B,white,woman,,,,null,,,,
13871,,,survey-text,102,732919,0.0-13.0-3.12,8310,List2B,white,woman,,,,,"{""Q0"":""jane is touching dave""}","<img src=""stim_listB/touch1.gif""</stim_listB>",is touching,
null,"<div style=""font-size:60px;"">+</div>",,html-keyboard-response,103,733424,0.0-13.0-0.13,8310,List2B,white,woman,,,,null,,,,
null,"<img src=""stim_listB/hug4.gif""</stim_listB>",,html-keyboard-response,104,735435,0.0-13.0-1.13,8310,List2B,white,woman,,,,null,,,,
null,are hugging each other,,html-keyboard-response,105,737439,0.0-13.0-2.13,8310,List2B,white,woman,,,,null,,,,
11431,,,survey-text,106,748875,0.0-13.0-3.13,8310,List2B,white,woman,,,,,"{""Q0"":""kate and mike are hugging each other""}","<img src=""stim_listB/hug4.gif""</stim_listB>",are hugging each other,
null,"<div style=""font-size:60px;"">+</div>",,html-keyboard-response,107,749383,0.0-13.0-0.14,8310,List2B,white,woman,,,,null,,,,
null,"<img src=""stim_listB/marry8.gif""</stim_listB>",,html-keyboard-response,108,751392,0.0-13.0-1.14,8310,List2B,white,woman,,,,null,,,,
null,are marrying each other,,html-keyboard-response,109,753396,0.0-13.0-2.14,8310,List2B,white,woman,,,,null,,,,
8912,,,survey-text,110,762311,0.0-13.0-3.14,8310,List2B,white,woman,,,,,"{""Q0"":""kate and ruth are marrying each other""}","<img src=""stim_listB/marry8.gif""</stim_listB>",are marrying each other,
null,"<div style=""font-size:60px;"">+</div>",,html-keyboard-response,111,762816,0.0-13.0-0.15,8310,List2B,white,woman,,,,null,,,,
null,"<img src=""stim_listB/hug8.gif""</stim_listB>",,html-keyboard-response,112,764825,0.0-13.0-1.15,8310,List2B,white,woman,,,,null,,,,
null,are hugging each other,,html-keyboard-response,113,766828,0.0-13.0-2.15,8310,List2B,white,woman,,,,null,,,,
8610,,,survey-text,114,775440,0.0-13.0-3.15,8310,List2B,white,woman,,,,,"{""Q0"":""kate and jane are hugging each other""}","<img src=""stim_listB/hug8.gif""</stim_listB>",are hugging each other,
null,"<div style=""font-size:60px;"">+</div>",,html-keyboard-response,115,775947,0.0-13.0-0.16,8310,List2B,white,woman,,,,null,,,,
null,"<img src=""stim_listB/fight5.gif""</stim_listB>",,html-keyboard-response,116,777956,0.0-13.0-1.16,8310,List2B,white,woman,,,,null,,,,
null,is fighting,,html-keyboard-response,117,779971,0.0-13.0-2.16,8310,List2B,white,woman,,,,null,,,,
12468,,,survey-text,118,792443,0.0-13.0-3.16,8310,List2B,white,woman,,,,,"{""Q0"":""dave is fighting mike""}","<img src=""stim_listB/fight5.gif""</stim_listB>",is fighting,
null,"<div style=""font-size:60px;"">+</div>",,html-keyboard-response,119,792946,0.0-13.0-0.17,8310,List2B,white,woman,,,,null,,,,
null,"<img src=""stim_listB/talk2.gif""</stim_listB>",,html-keyboard-response,120,794955,0.0-13.0-1.17,8310,List2B,white,woman,,,,null,,,,
null,are talking to each other,,html-keyboard-response,121,796963,0.0-13.0-2.17,8310,List2B,white,woman,,,,null,,,,
51436,,,survey-text,122,848403,0.0-13.0-3.17,8310,List2B,white,woman,,,,,"{""Q0"":""""}","<img src=""stim_listB/talk2.gif""</stim_listB>",are talking to each other,
null,"<div style=""font-size:60px;"">+</div>",,html-keyboard-response,123,848907,0.0-13.0-0.18,8310,List2B,white,woman,,,,null,,,,
null,"<img src=""stim_listB/fight3.gif""</stim_listB>",,html-keyboard-response,124,850917,0.0-13.0-1.18,8310,List2B,white,woman,,,,null,,,,
null,is fighting,,html-keyboard-response,125,852921,0.0-13.0-2.18,8310,List2B,white,woman,,,,null,,,,
6917,,,survey-text,126,859843,0.0-13.0-3.18,8310,List2B,white,woman,,,,,"{""Q0"":""kate is fighting mike""}","<img src=""stim_listB/fight3.gif""</stim_listB>",is fighting,
null,"<div style=""font-size:60px;"">+</div>",,html-keyboard-response,127,860350,0.0-13.0-0.19,8310,List2B,white,woman,,,,null,,,,
null,"<img src=""stim_listB/dance8.gif""</stim_listB>",,html-keyboard-response,128,862358,0.0-13.0-1.19,8310,List2B,white,woman,,,,null,,,,
null,are dancing with each other,,html-keyboard-response,129,864361,0.0-13.0-2.19,8310,List2B,white,woman,,,,null,,,,
13786,,,survey-text,130,878149,0.0-13.0-3.19,8310,List2B,white,woman,,,,,"{""Q0"":""beth and jane are dancing with each other""}","<img src=""stim_listB/dance8.gif""</stim_listB>",are dancing with each other,
20644,"<img src='img/portrait_matrix_list2.JPG' style='width:900px;height:500px;''></img><p>If you have memorised all the portraits and names and are ready to start, press Continue.</p><p><strong>Please note: Your memory of these faces will be tested 4 times during this experiment.</strong></p>",0,html-button-response,131,898797,0.0-14.0-0.0,8310,List2B,white,woman,,,,,,,,
3628,"<img src=""portrait/BW2.jpg""style=""width:400px;height:400px;""></img>",2,html-button-response,132,903444,0.0-14.0-1.0,8310,List2B,white,woman,,TRUE,2,,,,,
null,CORRECT,,html-keyboard-response,133,904955,0.0-14.0-2.0-0.0,8310,List2B,white,woman,,,,null,,,,
3128,"<img src=""portrait/BM1.jpg""style=""width:400px;height:400px;""></img>",4,html-button-response,134,908093,0.0-14.0-4.0,8310,List2B,white,woman,,TRUE,4,,,,,
null,CORRECT,,html-keyboard-response,135,909603,0.0-14.0-5.0-0.0,8310,List2B,white,woman,,,,null,,,,
2383,"<img src=""portrait/WW1.jpg""style=""width:400px;height:400px;""></img>",1,html-button-response,136,911997,0.0-14.0-7.0,8310,List2B,white,woman,,TRUE,1,,,,,
null,CORRECT,,html-keyboard-response,137,913511,0.0-14.0-8.0-0.0,8310,List2B,white,woman,,,,null,,,,
1988,"<img src=""portrait/WM1.jpg""style=""width:400px;height:400px;""></img>",6,html-button-response,138,915503,0.0-14.0-10.0,8310,List2B,white,woman,,TRUE,6,,,,,
null,CORRECT,,html-keyboard-response,139,917015,0.0-14.0-11.0-0.0,8310,List2B,white,woman,,,,null,,,,
3097,"<img src=""portrait/BM2.jpg""style=""width:400px;height:400px;""></img>",5,html-button-response,140,920117,0.0-14.0-13.0,8310,List2B,white,woman,,TRUE,5,,,,,
null,CORRECT,,html-keyboard-response,141,921629,0.0-14.0-14.0-0.0,8310,List2B,white,woman,,,,null,,,,
1964,"<img src=""portrait/WM2.jpg""style=""width:400px;height:400px;""></img>",7,html-button-response,142,923602,0.0-14.0-16.0,8310,List2B,white,woman,,TRUE,7,,,,,
null,CORRECT,,html-keyboard-response,143,925115,0.0-14.0-17.0-0.0,8310,List2B,white,woman,,,,null,,,,
2686,"<img src=""portrait/BW1.jpg""style=""width:400px;height:400px;""></img>",0,html-button-response,144,927807,0.0-14.0-19.0,8310,List2B,white,woman,,TRUE,0,,,,,
null,CORRECT,,html-keyboard-response,145,929319,0.0-14.0-20.0-0.0,8310,List2B,white,woman,,,,null,,,,
2888,"<img src=""portrait/WW2.jpg""style=""width:400px;height:400px;""></img>",3,html-button-response,146,932212,0.0-14.0-22.0,8310,List2B,white,woman,,TRUE,3,,,,,
null,CORRECT,,html-keyboard-response,147,933723,0.0-14.0-23.0-0.0,8310,List2B,white,woman,,,,null,,,,
2041,<p>You got 8 out of 8 right first time. Press Continue.</p>,0,html-button-response,148,935768,0.0-14.0-25.0,8310,List2B,white,woman,,,,,,,,
null,"<div style=""font-size:60px;"">+</div>",,html-keyboard-response,149,937281,0.0-15.0-0.0,8310,List2B,white,woman,,,,null,,,,
null,"<img src=""stim_listB/touch2.gif""</stim_listB>",,html-keyboard-response,150,939289,0.0-15.0-1.0,8310,List2B,white,woman,,,,null,,,,
null,are touching each other,,html-keyboard-response,151,941295,0.0-15.0-2.0,8310,List2B,white,woman,,,,null,,,,
9674,,,survey-text,152,950974,0.0-15.0-3.0,8310,List2B,white,woman,,,,,"{""Q0"":""luke and ruth are touvhing each other""}","<img src=""stim_listB/touch2.gif""</stim_listB>",are touching each other,
null,"<div style=""font-size:60px;"">+</div>",,html-keyboard-response,153,951480,0.0-15.0-0.1,8310,List2B,white,woman,,,,null,,,,
null,"<img src=""stim_listB/shout4.gif""</stim_listB>",,html-keyboard-response,154,953491,0.0-15.0-1.1,8310,List2B,white,woman,,,,null,,,,
null,are shouting at each other,,html-keyboard-response,155,955498,0.0-15.0-2.1,8310,List2B,white,woman,,,,null,,,,
8933,,,survey-text,156,964434,0.0-15.0-3.1,8310,List2B,white,woman,,,,,"{""Q0"":""kate and mike are shouting at each other""}","<img src=""stim_listB/shout4.gif""</stim_listB>",are shouting at each other,
null,"<div style=""font-size:60px;"">+</div>",,html-keyboard-response,157,964939,0.0-15.0-0.2,8310,List2B,white,woman,,,,null,,,,
null,"<img src=""stim_listB/kiss1.gif""</stim_listB>",,html-keyboard-response,158,966950,0.0-15.0-1.2,8310,List2B,white,woman,,,,null,,,,
null,is kissing,,html-keyboard-response,159,968953,0.0-15.0-2.2,8310,List2B,white,woman,,,,null,,,,
7154,,,survey-text,160,976112,0.0-15.0-3.2,8310,List2B,white,woman,,,,,"{""Q0"":""luke is kissing ruth""}","<img src=""stim_listB/kiss1.gif""</stim_listB>",is kissing,
null,"<div style=""font-size:60px;"">+</div>",,html-keyboard-response,161,976619,0.0-15.0-0.3,8310,List2B,white,woman,,,,null,,,,
null,"<img src=""stim_listB/argue8.gif""</stim_listB>",,html-keyboard-response,162,978631,0.0-15.0-1.3,8310,List2B,white,woman,,,,null,,,,
null,are arguing with each other,,html-keyboard-response,163,980638,0.0-15.0-2.3,8310,List2B,white,woman,,,,null,,,,
15610,,,survey-text,164,996252,0.0-15.0-3.3,8310,List2B,white,woman,,,,,"{""Q0"":""kate and ruth are arguing with each other""}","<img src=""stim_listB/argue8.gif""</stim_listB>",are arguing with each other,
null,"<div style=""font-size:60px;"">+</div>",,html-keyboard-response,165,996755,0.0-15.0-0.4,8310,List2B,white,woman,,,,null,,,,
null,"<img src=""stim_listB/dance5.gif""</stim_listB>",,html-keyboard-response,166,998762,0.0-15.0-1.4,8310,List2B,white,woman,,,,null,,,,
null,is dancing with,,html-keyboard-response,167,1000767,0.0-15.0-2.4,8310,List2B,white,woman,,,,null,,,,
7051,,,survey-text,168,1007823,0.0-15.0-3.4,8310,List2B,white,woman,,,,,"{""Q0"":""luke is dancung with mike""}","<img src=""stim_listB/dance5.gif""</stim_listB>",is dancing with,
null,"<div style=""font-size:60px;"">+</div>",,html-keyboard-response,169,1008328,0.0-15.0-0.5,8310,List2B,white,woman,,,,null,,,,
null,"<img src=""stim_listB/touch5.gif""</stim_listB>",,html-keyboard-response,170,1010337,0.0-15.0-1.5,8310,List2B,white,woman,,,,null,,,,
null,is touching,,html-keyboard-response,171,1012342,0.0-15.0-2.5,8310,List2B,white,woman,,,,null,,,,
6416,,,survey-text,172,1018761,0.0-15.0-3.5,8310,List2B,white,woman,,,,,"{""Q0"":""mike is touching dave""}","<img src=""stim_listB/touch5.gif""</stim_listB>",is touching,
null,"<div style=""font-size:60px;"">+</div>",,html-keyboard-response,173,1019266,0.0-15.0-0.6,8310,List2B,white,woman,,,,null,,,,
null,"<img src=""stim_listB/talk6.gif""</stim_listB>",,html-keyboard-response,174,1021276,0.0-15.0-1.6,8310,List2B,white,woman,,,,null,,,,
null,are talking to each other,,html-keyboard-response,175,1023282,0.0-15.0-2.6,8310,List2B,white,woman,,,,null,,,,
9180,,,survey-text,176,1032467,0.0-15.0-3.6,8310,List2B,white,woman,,,,,"{""Q0"":""dave and fred are talking to each other""}","<img src=""stim_listB/talk6.gif""</stim_listB>",are talking to each other,
null,"<div style=""font-size:60px;"">+</div>",,html-keyboard-response,177,1032974,0.0-15.0-0.7,8310,List2B,white,woman,,,,null,,,,
null,"<img src=""stim_listB/argue3.gif""</stim_listB>",,html-keyboard-response,178,1034984,0.0-15.0-1.7,8310,List2B,white,woman,,,,null,,,,
null,is arguing with,,html-keyboard-response,179,1036995,0.0-15.0-2.7,8310,List2B,white,woman,,,,null,,,,
6294,,,survey-text,180,1043291,0.0-15.0-3.7,8310,List2B,white,woman,,,,,"{""Q0"":""beth is arguing with mike""}","<img src=""stim_listB/argue3.gif""</stim_listB>",is arguing with,
null,"<div style=""font-size:60px;"">+</div>",,html-keyboard-response,181,1043794,0.0-15.0-0.8,8310,List2B,white,woman,,,,null,,,,
null,"<img src=""stim_listB/meet4.gif""</stim_listB>",,html-keyboard-response,182,1045801,0.0-15.0-1.8,8310,List2B,white,woman,,,,null,,,,
null,are meeting each other,,html-keyboard-response,183,1047809,0.0-15.0-2.8,8310,List2B,white,woman,,,,null,,,,
9722,,,survey-text,184,1057535,0.0-15.0-3.8,8310,List2B,white,woman,,,,,"{""Q0"":""fred and beth are meeting each other""}","<img src=""stim_listB/meet4.gif""</stim_listB>",are meeting each other,
null,"<div style=""font-size:60px;"">+</div>",,html-keyboard-response,185,1058039,0.0-15.0-0.9,8310,List2B,white,woman,,,,null,,,,
null,"<img src=""stim_listB/dance4.gif""</stim_listB>",,html-keyboard-response,186,1060050,0.0-15.0-1.9,8310,List2B,white,woman,,,,null,,,,
null,are dancing with each other,,html-keyboard-response,187,1062054,0.0-15.0-2.9,8310,List2B,white,woman,,,,null,,,,
11115,,,survey-text,188,1073173,0.0-15.0-3.9,8310,List2B,white,woman,,,,,"{""Q0"":""mike and beth are dancing with each other""}","<img src=""stim_listB/dance4.gif""</stim_listB>",are dancing with each other,
null,"<div style=""font-size:60px;"">+</div>",,html-keyboard-response,189,1073678,0.0-15.0-0.10,8310,List2B,white,woman,,,,null,,,,
null,"<img src=""stim_listB/hug1.gif""</stim_listB>",,html-keyboard-response,190,1075689,0.0-15.0-1.10,8310,List2B,white,woman,,,,null,,,,
null,is hugging,,html-keyboard-response,191,1077693,0.0-15.0-2.10,8310,List2B,white,woman,,,,null,,,,
6803,,,survey-text,192,1084498,0.0-15.0-3.10,8310,List2B,white,woman,,,,,"{""Q0"":""ruth is hugging luke""}","<img src=""stim_listB/hug1.gif""</stim_listB>",is hugging,
null,"<div style=""font-size:60px;"">+</div>",,html-keyboard-response,193,1085005,0.0-15.0-0.11,8310,List2B,white,woman,,,,null,,,,
null,"<img src=""stim_listB/kiss4.gif""</stim_listB>",,html-keyboard-response,194,1087015,0.0-15.0-1.11,8310,List2B,white,woman,,,,null,,,,
null,are kissing each other,,html-keyboard-response,195,1089018,0.0-15.0-2.11,8310,List2B,white,woman,,,,null,,,,
13647,,,survey-text,196,1102669,0.0-15.0-3.11,8310,List2B,white,woman,,,,,"{""Q0"":""kate and mike are kissing each other""}","<img src=""stim_listB/kiss4.gif""</stim_listB>",are kissing each other,
null,"<div style=""font-size:60px;"">+</div>",,html-keyboard-response,197,1103178,0.0-15.0-0.12,8310,List2B,white,woman,,,,null,,,,
null,"<img src=""stim_listB/shout2.gif""</stim_listB>",,html-keyboard-response,198,1105185,0.0-15.0-1.12,8310,List2B,white,woman,,,,null,,,,
null,are shouting at each other,,html-keyboard-response,199,1107190,0.0-15.0-2.12,8310,List2B,white,woman,,,,null,,,,
13740,,,survey-text,200,1120935,0.0-15.0-3.12,8310,List2B,white,woman,,,,,"{""Q0"":""jane and dave are shouting at each other""}","<img src=""stim_listB/shout2.gif""</stim_listB>",are shouting at each other,
null,"<div style=""font-size:60px;"">+</div>",,html-keyboard-response,201,1121442,0.0-15.0-0.13,8310,List2B,white,woman,,,,null,,,,
null,"<img src=""stim_listB/marry5.gif""</stim_listB>",,html-keyboard-response,202,1123451,0.0-15.0-1.13,8310,List2B,white,woman,,,,null,,,,
null,is marrying,,html-keyboard-response,203,1125456,0.0-15.0-2.13,8310,List2B,white,woman,,,,null,,,,
7315,,,survey-text,204,1132775,0.0-15.0-3.13,8310,List2B,white,woman,,,,,"{""Q0"":""dave is marrying fred""}","<img src=""stim_listB/marry5.gif""</stim_listB>",is marrying,
null,"<div style=""font-size:60px;"">+</div>",,html-keyboard-response,205,1133282,0.0-15.0-0.14,8310,List2B,white,woman,,,,null,,,,
null,"<img src=""stim_listB/dance7.gif""</stim_listB>",,html-keyboard-response,206,1135294,0.0-15.0-1.14,8310,List2B,white,woman,,,,null,,,,
null,is dancing with,,html-keyboard-response,207,1137298,0.0-15.0-2.14,8310,List2B,white,woman,,,,null,,,,
6648,,,survey-text,208,1143951,0.0-15.0-3.14,8310,List2B,white,woman,,,,,"{""Q0"":""ruth is dancing with kate""}","<img src=""stim_listB/dance7.gif""</stim_listB>",is dancing with,
null,"<div style=""font-size:60px;"">+</div>",,html-keyboard-response,209,1144460,0.0-15.0-0.15,8310,List2B,white,woman,,,,null,,,,
null,"<img src=""stim_listB/dance2.gif""</stim_listB>",,html-keyboard-response,210,1146470,0.0-15.0-1.15,8310,List2B,white,woman,,,,null,,,,
null,are dancing with each other,,html-keyboard-response,211,1148484,0.0-15.0-2.15,8310,List2B,white,woman,,,,null,,,,
9425,,,survey-text,212,1157912,0.0-15.0-3.15,8310,List2B,white,woman,,,,,"{""Q0"":""dave and ruth are dancing with each other""}","<img src=""stim_listB/dance2.gif""</stim_listB>",are dancing with each other,
null,"<div style=""font-size:60px;"">+</div>",,html-keyboard-response,213,1158418,0.0-15.0-0.16,8310,List2B,white,woman,,,,null,,,,
null,"<img src=""stim_listB/hug3.gif""</stim_listB>",,html-keyboard-response,214,1160430,0.0-15.0-1.16,8310,List2B,white,woman,,,,null,,,,
null,is hugging,,html-keyboard-response,215,1162435,0.0-15.0-2.16,8310,List2B,white,woman,,,,null,,,,
7161,,,survey-text,216,1169601,0.0-15.0-3.16,8310,List2B,white,woman,,,,,"{""Q0"":""beth is hugging fred""}","<img src=""stim_listB/hug3.gif""</stim_listB>",is hugging,
null,"<div style=""font-size:60px;"">+</div>",,html-keyboard-response,217,1170106,0.0-15.0-0.17,8310,List2B,white,woman,,,,null,,,,
null,"<img src=""stim_listB/dance6.gif""</stim_listB>",,html-keyboard-response,218,1172116,0.0-15.0-1.17,8310,List2B,white,woman,,,,null,,,,
null,are dancing with each other,,html-keyboard-response,219,1174120,0.0-15.0-2.17,8310,List2B,white,woman,,,,null,,,,
10257,,,survey-text,220,1184381,0.0-15.0-3.17,8310,List2B,white,woman,,,,,"{""Q0"":""dave and fred are dancing with each other""}","<img src=""stim_listB/dance6.gif""</stim_listB>",are dancing with each other,
null,"<div style=""font-size:60px;"">+</div>",,html-keyboard-response,221,1184888,0.0-15.0-0.18,8310,List2B,white,woman,,,,null,,,,
null,"<img src=""stim_listB/marry3.gif""</stim_listB>",,html-keyboard-response,222,1186900,0.0-15.0-1.18,8310,List2B,white,woman,,,,null,,,,
null,is marrying,,html-keyboard-response,223,1188906,0.0-15.0-2.18,8310,List2B,white,woman,,,,null,,,,
5777,,,survey-text,224,1194688,0.0-15.0-3.18,8310,List2B,white,woman,,,,,"{""Q0"":""beth is marrying mike""}","<img src=""stim_listB/marry3.gif""</stim_listB>",is marrying,
null,"<div style=""font-size:60px;"">+</div>",,html-keyboard-response,225,1195193,0.0-15.0-0.19,8310,List2B,white,woman,,,,null,,,,
null,"<img src=""stim_listB/touch8.gif""</stim_listB>",,html-keyboard-response,226,1197203,0.0-15.0-1.19,8310,List2B,white,woman,,,,null,,,,
null,are touching each other,,html-keyboard-response,227,1199209,0.0-15.0-2.19,8310,List2B,white,woman,,,,null,,,,
8033,,,survey-text,228,1207248,0.0-15.0-3.19,8310,List2B,white,woman,,,,,"{""Q0"":""beth is marrying ruth""}","<img src=""stim_listB/touch8.gif""</stim_listB>",are touching each other,
2586,"<img src='img/portrait_matrix_list2.JPG' style='width:900px;height:500px;''></img><p>If you have memorised all the portraits and names and are ready to start, press Continue.</p><p><strong>Please note: Your memory of these faces will be tested 4 times during this experiment.</strong></p>",0,html-button-response,229,1209838,0.0-16.0-0.0,8310,List2B,white,woman,,,,,,,,
1993,"<img src=""portrait/WM2.jpg""style=""width:400px;height:400px;""></img>",7,html-button-response,230,1212840,0.0-16.0-1.0,8310,List2B,white,woman,,TRUE,7,,,,,
null,CORRECT,,html-keyboard-response,231,1214354,0.0-16.0-2.0-0.0,8310,List2B,white,woman,,,,null,,,,
3922,"<img src=""portrait/BW1.jpg""style=""width:400px;height:400px;""></img>",0,html-button-response,232,1218286,0.0-16.0-4.0,8310,List2B,white,woman,,TRUE,0,,,,,
null,CORRECT,,html-keyboard-response,233,1219797,0.0-16.0-5.0-0.0,8310,List2B,white,woman,,,,null,,,,
2521,"<img src=""portrait/BM1.jpg""style=""width:400px;height:400px;""></img>",4,html-button-response,234,1222326,0.0-16.0-7.0,8310,List2B,white,woman,,TRUE,4,,,,,
null,CORRECT,,html-keyboard-response,235,1223836,0.0-16.0-8.0-0.0,8310,List2B,white,woman,,,,null,,,,
2106,"<img src=""portrait/BW2.jpg""style=""width:400px;height:400px;""></img>",2,html-button-response,236,1225950,0.0-16.0-10.0,8310,List2B,white,woman,,TRUE,2,,,,,
null,CORRECT,,html-keyboard-response,237,1227462,0.0-16.0-11.0-0.0,8310,List2B,white,woman,,,,null,,,,
2477,"<img src=""portrait/WM1.jpg""style=""width:400px;height:400px;""></img>",6,html-button-response,238,1229947,0.0-16.0-13.0,8310,List2B,white,woman,,TRUE,6,,,,,
null,CORRECT,,html-keyboard-response,239,1231462,0.0-16.0-14.0-0.0,8310,List2B,white,woman,,,,null,,,,
3145,"<img src=""portrait/WW2.jpg""style=""width:400px;height:400px;""></img>",3,html-button-response,240,1234614,0.0-16.0-16.0,8310,List2B,white,woman,,TRUE,3,,,,,
null,CORRECT,,html-keyboard-response,241,1236119,0.0-16.0-17.0-0.0,8310,List2B,white,woman,,,,null,,,,
3215,"<img src=""portrait/BM2.jpg""style=""width:400px;height:400px;""></img>",5,html-button-response,242,1239343,0.0-16.0-19.0,8310,List2B,white,woman,,TRUE,5,,,,,
null,CORRECT,,html-keyboard-response,243,1240854,0.0-16.0-20.0-0.0,8310,List2B,white,woman,,,,null,,,,
2710,"<img src=""portrait/WW1.jpg""style=""width:400px;height:400px;""></img>",1,html-button-response,244,1243572,0.0-16.0-22.0,8310,List2B,white,woman,,TRUE,1,,,,,
null,CORRECT,,html-keyboard-response,245,1245082,0.0-16.0-23.0-0.0,8310,List2B,white,woman,,,,null,,,,
2454,<p>You got 8 out of 8 right first time. Press Continue.</p>,0,html-button-response,246,1247542,0.0-16.0-25.0,8310,List2B,white,woman,,,,,,,,
null,"<div style=""font-size:60px;"">+</div>",,html-keyboard-response,247,1249053,0.0-17.0-0.0,8310,List2B,white,woman,,,,null,,,,
null,"<img src=""stim_listB/hug6.gif""</stim_listB>",,html-keyboard-response,248,1251064,0.0-17.0-1.0,8310,List2B,white,woman,,,,null,,,,
null,are hugging each other,,html-keyboard-response,249,1253071,0.0-17.0-2.0,8310,List2B,white,woman,,,,null,,,,
11729,,,survey-text,250,1264806,0.0-17.0-3.0,8310,List2B,white,woman,,,,,"{""Q0"":""mike and dave are hugging""}","<img src=""stim_listB/hug6.gif""</stim_listB>",are hugging each other,
null,"<div style=""font-size:60px;"">+</div>",,html-keyboard-response,251,1265312,0.0-17.0-0.1,8310,List2B,white,woman,,,,null,,,,
null,"<img src=""stim_listB/argue5.gif""</stim_listB>",,html-keyboard-response,252,1267320,0.0-17.0-1.1,8310,List2B,white,woman,,,,null,,,,
null,is arguing with,,html-keyboard-response,253,1269326,0.0-17.0-2.1,8310,List2B,white,woman,,,,null,,,,
6838,,,survey-text,254,1276166,0.0-17.0-3.1,8310,List2B,white,woman,,,,,"{""Q0"":""fred is arguing with dave""}","<img src=""stim_listB/argue5.gif""</stim_listB>",is arguing with,
null,"<div style=""font-size:60px;"">+</div>",,html-keyboard-response,255,1276671,0.0-17.0-0.2,8310,List2B,white,woman,,,,null,,,,
null,"<img src=""stim_listB/marry2.gif""</stim_listB>",,html-keyboard-response,256,1278677,0.0-17.0-1.2,8310,List2B,white,woman,,,,null,,,,
null,are marrying each other,,html-keyboard-response,257,1280684,0.0-17.0-2.2,8310,List2B,white,woman,,,,null,,,,
9876,,,survey-text,258,1290566,0.0-17.0-3.2,8310,List2B,white,woman,,,,,"{""Q0"":""luke and jane are marrying each other""}","<img src=""stim_listB/marry2.gif""</stim_listB>",are marrying each other,
null,"<div style=""font-size:60px;"">+</div>",,html-keyboard-response,259,1291070,0.0-17.0-0.3,8310,List2B,white,woman,,,,null,,,,
null,"<img src=""stim_listB/shout3.gif""</stim_listB>",,html-keyboard-response,260,1293088,0.0-17.0-1.3,8310,List2B,white,woman,,,,null,,,,
null,is shouting at,,html-keyboard-response,261,1295092,0.0-17.0-2.3,8310,List2B,white,woman,,,,null,,,,
6340,,,survey-text,262,1301435,0.0-17.0-3.3,8310,List2B,white,woman,,,,,"{""Q0"":""beth is shouting at fred""}","<img src=""stim_listB/shout3.gif""</stim_listB>",is shouting at,
null,"<div style=""font-size:60px;"">+</div>",,html-keyboard-response,263,1301943,0.0-17.0-0.4,8310,List2B,white,woman,,,,null,,,,
null,"<img src=""stim_listB/argue6.gif""</stim_listB>",,html-keyboard-response,264,1303954,0.0-17.0-1.4,8310,List2B,white,woman,,,,null,,,,
null,are arguing with each other,,html-keyboard-response,265,1305959,0.0-17.0-2.4,8310,List2B,white,woman,,,,null,,,,
10658,,,survey-text,266,1316620,0.0-17.0-3.4,8310,List2B,white,woman,,,,,"{""Q0"":""luke and mike are arguing with each other""}","<img src=""stim_listB/argue6.gif""</stim_listB>",are arguing with each other,
null,"<div style=""font-size:60px;"">+</div>",,html-keyboard-response,267,1317126,0.0-17.0-0.5,8310,List2B,white,woman,,,,null,,,,
null,"<img src=""stim_listB/fight1.gif""</stim_listB>",,html-keyboard-response,268,1319141,0.0-17.0-1.5,8310,List2B,white,woman,,,,null,,,,
null,is fighting,,html-keyboard-response,269,1321144,0.0-17.0-2.5,8310,List2B,white,woman,,,,null,,,,
6759,,,survey-text,270,1327908,0.0-17.0-3.5,8310,List2B,white,woman,,,,,"{""Q0"":""jane is fiughting dave""}","<img src=""stim_listB/fight1.gif""</stim_listB>",is fighting,
null,"<div style=""font-size:60px;"">+</div>",,html-keyboard-response,271,1328414,0.0-17.0-0.6,8310,List2B,white,woman,,,,null,,,,
null,"<img src=""stim_listB/marry7.gif""</stim_listB>",,html-keyboard-response,272,1330425,0.0-17.0-1.6,8310,List2B,white,woman,,,,null,,,,
null,is marrying,,html-keyboard-response,273,1332433,0.0-17.0-2.6,8310,List2B,white,woman,,,,null,,,,
6363,,,survey-text,274,1338800,0.0-17.0-3.6,8310,List2B,white,woman,,,,,"{""Q0"":""jane is marrying beth""}","<img src=""stim_listB/marry7.gif""</stim_listB>",is marrying,
null,"<div style=""font-size:60px;"">+</div>",,html-keyboard-response,275,1339307,0.0-17.0-0.7,8310,List2B,white,woman,,,,null,,,,
null,"<img src=""stim_listB/meet6.gif""</stim_listB>",,html-keyboard-response,276,1341316,0.0-17.0-1.7,8310,List2B,white,woman,,,,null,,,,
null,are meeting each other,,html-keyboard-response,277,1343322,0.0-17.0-2.7,8310,List2B,white,woman,,,,null,,,,
12085,,,survey-text,278,1355413,0.0-17.0-3.7,8310,List2B,white,woman,,,,,"{""Q0"":""luke and fred are meeting each other""}","<img src=""stim_listB/meet6.gif""</stim_listB>",are meeting each other,
null,"<div style=""font-size:60px;"">+</div>",,html-keyboard-response,279,1355922,0.0-17.0-0.8,8310,List2B,white,woman,,,,null,,,,
null,"<img src=""stim_listB/talk8.gif""</stim_listB>",,html-keyboard-response,280,1357933,0.0-17.0-1.8,8310,List2B,white,woman,,,,null,,,,
null,are talking to each other,,html-keyboard-response,281,1359938,0.0-17.0-2.8,8310,List2B,white,woman,,,,null,,,,
9149,,,survey-text,282,1369090,0.0-17.0-3.8,8310,List2B,white,woman,,,,,"{""Q0"":""jane and beth are talking to each other""}","<img src=""stim_listB/talk8.gif""</stim_listB>",are talking to each other,
null,"<div style=""font-size:60px;"">+</div>",,html-keyboard-response,283,1369598,0.0-17.0-0.9,8310,List2B,white,woman,,,,null,,,,
null,"<img src=""stim_listB/meet5.gif""</stim_listB>",,html-keyboard-response,284,1371612,0.0-17.0-1.9,8310,List2B,white,woman,,,,null,,,,
null,is meeting,,html-keyboard-response,285,1373619,0.0-17.0-2.9,8310,List2B,white,woman,,,,null,,,,
7020,,,survey-text,286,1380643,0.0-17.0-3.9,8310,List2B,white,woman,,,,,"{""Q0"":""mike is meeting dave""}","<img src=""stim_listB/meet5.gif""</stim_listB>",is meeting,
null,"<div style=""font-size:60px;"">+</div>",,html-keyboard-response,287,1381156,0.0-17.0-0.10,8310,List2B,white,woman,,,,null,,,,
null,"<img src=""stim_listB/kiss2.gif""</stim_listB>",,html-keyboard-response,288,1383166,0.0-17.0-1.10,8310,List2B,white,woman,,,,null,,,,
null,are kissing each other,,html-keyboard-response,289,1385175,0.0-17.0-2.10,8310,List2B,white,woman,,,,null,,,,
8823,,,survey-text,290,1394002,0.0-17.0-3.10,8310,List2B,white,woman,,,,,"{""Q0"":""dave and jane are kissing each other""}","<img src=""stim_listB/kiss2.gif""</stim_listB>",are kissing each other,
null,"<div style=""font-size:60px;"">+</div>",,html-keyboard-response,291,1394508,0.0-17.0-0.11,8310,List2B,white,woman,,,,null,,,,
null,"<img src=""stim_listB/meet8.gif""</stim_listB>",,html-keyboard-response,292,1396518,0.0-17.0-1.11,8310,List2B,white,woman,,,,null,,,,
null,are meeting each other,,html-keyboard-response,293,1398521,0.0-17.0-2.11,8310,List2B,white,woman,,,,null,,,,
9137,,,survey-text,294,1407661,0.0-17.0-3.11,8310,List2B,white,woman,,,,,"{""Q0"":""beth and ruth are meeting each other""}","<img src=""stim_listB/meet8.gif""</stim_listB>",are meeting each other,
null,"<div style=""font-size:60px;"">+</div>",,html-keyboard-response,295,1408165,0.0-17.0-0.12,8310,List2B,white,woman,,,,null,,,,
null,"<img src=""stim_listB/fight8.gif""</stim_listB>",,html-keyboard-response,296,1410177,0.0-17.0-1.12,8310,List2B,white,woman,,,,null,,,,
null,are fighting each other,,html-keyboard-response,297,1412180,0.0-17.0-2.12,8310,List2B,white,woman,,,,null,,,,
15772,,,survey-text,298,1427957,0.0-17.0-3.12,8310,List2B,white,woman,,,,,"{""Q0"":""ruth and beth are fighting eavh other""}","<img src=""stim_listB/fight8.gif""</stim_listB>",are fighting each other,
null,"<div style=""font-size:60px;"">+</div>",,html-keyboard-response,299,1428462,0.0-17.0-0.13,8310,List2B,white,woman,,,,null,,,,
null,"<img src=""stim_listB/hug2.gif""</stim_listB>",,html-keyboard-response,300,1430472,0.0-17.0-1.13,8310,List2B,white,woman,,,,null,,,,
null,are hugging each other,,html-keyboard-response,301,1432479,0.0-17.0-2.13,8310,List2B,white,woman,,,,null,,,,
9504,,,survey-text,302,1441989,0.0-17.0-3.13,8310,List2B,white,woman,,,,,"{""Q0"":""jane and dave are hugging""}","<img src=""stim_listB/hug2.gif""</stim_listB>",are hugging each other,
null,"<div style=""font-size:60px;"">+</div>",,html-keyboard-response,303,1442494,0.0-17.0-0.14,8310,List2B,white,woman,,,,null,,,,
null,"<img src=""stim_listB/talk7.gif""</stim_listB>",,html-keyboard-response,304,1444504,0.0-17.0-1.14,8310,List2B,white,woman,,,,null,,,,
null,is talking to,,html-keyboard-response,305,1446508,0.0-17.0-2.14,8310,List2B,white,woman,,,,null,,,,
1798,,,survey-text,306,1448311,0.0-17.0-3.14,8310,List2B,white,woman,,,,,"{""Q0"":""""}","<img src=""stim_listB/talk7.gif""</stim_listB>",is talking to,
null,"<div style=""font-size:60px;"">+</div>",,html-keyboard-response,307,1448816,0.0-17.0-0.15,8310,List2B,white,woman,,,,null,,,,
null,"<img src=""stim_listB/touch4.gif""</stim_listB>",,html-keyboard-response,308,1450820,0.0-17.0-1.15,8310,List2B,white,woman,,,,null,,,,
null,are touching each other,,html-keyboard-response,309,1452829,0.0-17.0-2.15,8310,List2B,white,woman,,,,null,,,,
9136,,,survey-text,310,1461970,0.0-17.0-3.15,8310,List2B,white,woman,,,,,"{""Q0"":""fred and beth are touching each other""}","<img src=""stim_listB/touch4.gif""</stim_listB>",are touching each other,
null,"<div style=""font-size:60px;"">+</div>",,html-keyboard-response,311,1462478,0.0-17.0-0.16,8310,List2B,white,woman,,,,null,,,,
null,"<img src=""stim_listB/shout8.gif""</stim_listB>",,html-keyboard-response,312,1464494,0.0-17.0-1.16,8310,List2B,white,woman,,,,null,,,,
null,are shouting at each other,,html-keyboard-response,313,1466499,0.0-17.0-2.16,8310,List2B,white,woman,,,,null,,,,
8964,,,survey-text,314,1475468,0.0-17.0-3.16,8310,List2B,white,woman,,,,,"{""Q0"":""kate and jane are shouting at each other""}","<img src=""stim_listB/shout8.gif""</stim_listB>",are shouting at each other,
null,"<div style=""font-size:60px;"">+</div>",,html-keyboard-response,315,1475974,0.0-17.0-0.17,8310,List2B,white,woman,,,,null,,,,
null,"<img src=""stim_listB/kiss8.gif""</stim_listB>",,html-keyboard-response,316,1477990,0.0-17.0-1.17,8310,List2B,white,woman,,,,null,,,,
null,are kissing each other,,html-keyboard-response,317,1479998,0.0-17.0-2.17,8310,List2B,white,woman,,,,null,,,,
7335,,,survey-text,318,1487339,0.0-17.0-3.17,8310,List2B,white,woman,,,,,"{""Q0"":""kate and jane are kissing each other""}","<img src=""stim_listB/kiss8.gif""</stim_listB>",are kissing each other,
null,"<div style=""font-size:60px;"">+</div>",,html-keyboard-response,319,1487844,0.0-17.0-0.18,8310,List2B,white,woman,,,,null,,,,
null,"<img src=""stim_listB/shout5.gif""</stim_listB>",,html-keyboard-response,320,1489857,0.0-17.0-1.18,8310,List2B,white,woman,,,,null,,,,
null,is shouting at,,html-keyboard-response,321,1491861,0.0-17.0-2.18,8310,List2B,white,woman,,,,null,,,,
6655,,,survey-text,322,1498521,0.0-17.0-3.18,8310,List2B,white,woman,,,,,"{""Q0"":""fred is shouting at luke""}","<img src=""stim_listB/shout5.gif""</stim_listB>",is shouting at,
null,"<div style=""font-size:60px;"">+</div>",,html-keyboard-response,323,1499029,0.0-17.0-0.19,8310,List2B,white,woman,,,,null,,,,
null,"<img src=""stim_listB/kiss6.gif""</stim_listB>",,html-keyboard-response,324,1501038,0.0-17.0-1.19,8310,List2B,white,woman,,,,null,,,,
null,are kissing each other,,html-keyboard-response,325,1503044,0.0-17.0-2.19,8310,List2B,white,woman,,,,null,,,,
7485,,,survey-text,326,1510533,0.0-17.0-3.19,8310,List2B,white,woman,,,,,"{""Q0"":""mike and dave are kissing each other""}","<img src=""stim_listB/kiss6.gif""</stim_listB>",are kissing each other,
2230,"<img src='img/portrait_matrix_list2.JPG' style='width:900px;height:500px;''></img><p>If you have memorised all the portraits and names and are ready to start, press Continue.</p><p><strong>Please note: Your memory of these faces will be tested 4 times during this experiment.</strong></p>",0,html-button-response,327,1512768,0.0-18.0-0.0,8310,List2B,white,woman,,,,,,,,
1984,"<img src=""portrait/BW2.jpg""style=""width:400px;height:400px;""></img>",2,html-button-response,328,1515762,0.0-18.0-1.0,8310,List2B,white,woman,,TRUE,2,,,,,
null,CORRECT,,html-keyboard-response,329,1517274,0.0-18.0-2.0-0.0,8310,List2B,white,woman,,,,null,,,,
3308,"<img src=""portrait/WM2.jpg""style=""width:400px;height:400px;""></img>",7,html-button-response,330,1520592,0.0-18.0-4.0,8310,List2B,white,woman,,TRUE,7,,,,,
null,CORRECT,,html-keyboard-response,331,1522107,0.0-18.0-5.0-0.0,8310,List2B,white,woman,,,,null,,,,
3306,"<img src=""portrait/BW1.jpg""style=""width:400px;height:400px;""></img>",0,html-button-response,332,1525421,0.0-18.0-7.0,8310,List2B,white,woman,,TRUE,0,,,,,
null,CORRECT,,html-keyboard-response,333,1526936,0.0-18.0-8.0-0.0,8310,List2B,white,woman,,,,null,,,,
1877,"<img src=""portrait/WM1.jpg""style=""width:400px;height:400px;""></img>",6,html-button-response,334,1528823,0.0-18.0-10.0,8310,List2B,white,woman,,TRUE,6,,,,,
null,CORRECT,,html-keyboard-response,335,1530334,0.0-18.0-11.0-0.0,8310,List2B,white,woman,,,,null,,,,
2067,"<img src=""portrait/BM2.jpg""style=""width:400px;height:400px;""></img>",5,html-button-response,336,1532405,0.0-18.0-13.0,8310,List2B,white,woman,,TRUE,5,,,,,
null,CORRECT,,html-keyboard-response,337,1533918,0.0-18.0-14.0-0.0,8310,List2B,white,woman,,,,null,,,,
1952,"<img src=""portrait/WW1.jpg""style=""width:400px;height:400px;""></img>",1,html-button-response,338,1535878,0.0-18.0-16.0,8310,List2B,white,woman,,TRUE,1,,,,,
null,CORRECT,,html-keyboard-response,339,1537389,0.0-18.0-17.0-0.0,8310,List2B,white,woman,,,,null,,,,
2906,"<img src=""portrait/WW2.jpg""style=""width:400px;height:400px;""></img>",3,html-button-response,340,1540300,0.0-18.0-19.0,8310,List2B,white,woman,,TRUE,3,,,,,
null,CORRECT,,html-keyboard-response,341,1541815,0.0-18.0-20.0-0.0,8310,List2B,white,woman,,,,null,,,,
2200,"<img src=""portrait/BM1.jpg""style=""width:400px;height:400px;""></img>",4,html-button-response,342,1544023,0.0-18.0-22.0,8310,List2B,white,woman,,TRUE,4,,,,,
null,CORRECT,,html-keyboard-response,343,1545533,0.0-18.0-23.0-0.0,8310,List2B,white,woman,,,,null,,,,
6801,<p>You got 8 out of 8 right first time. Press Continue.</p>,0,html-button-response,344,1552336,0.0-18.0-25.0,8310,List2B,white,woman,,,,,,,,
null,"<div style=""font-size:60px;"">+</div>",,html-keyboard-response,345,1553848,0.0-19.0-0.0,8310,List2B,white,woman,,,,null,,,,
null,"<img src=""stim_listB/talk5.gif""</stim_listB>",,html-keyboard-response,346,1555860,0.0-19.0-1.0,8310,List2B,white,woman,,,,null,,,,
null,is talking to,,html-keyboard-response,347,1557867,0.0-19.0-2.0,8310,List2B,white,woman,,,,null,,,,
8777,,,survey-text,348,1566649,0.0-19.0-3.0,8310,List2B,white,woman,,,,,"{""Q0"":""luke is talking to mike""}","<img src=""stim_listB/talk5.gif""</stim_listB>",is talking to,
null,"<div style=""font-size:60px;"">+</div>",,html-keyboard-response,349,1567153,0.0-19.0-0.1,8310,List2B,white,woman,,,,null,,,,
null,"<img src=""stim_listB/shout7.gif""</stim_listB>",,html-keyboard-response,350,1569161,0.0-19.0-1.1,8310,List2B,white,woman,,,,null,,,,
null,is shouting at,,html-keyboard-response,351,1571165,0.0-19.0-2.1,8310,List2B,white,woman,,,,null,,,,
15470,,,survey-text,352,1586638,0.0-19.0-3.1,8310,List2B,white,woman,,,,,"{""Q0"":""beth is shouting at ruth""}","<img src=""stim_listB/shout7.gif""</stim_listB>",is shouting at,
null,"<div style=""font-size:60px;"">+</div>",,html-keyboard-response,353,1587144,0.0-19.0-0.2,8310,List2B,white,woman,,,,null,,,,
null,"<img src=""stim_listB/meet1.gif""</stim_listB>",,html-keyboard-response,354,1589154,0.0-19.0-1.2,8310,List2B,white,woman,,,,null,,,,
null,is meeting,,html-keyboard-response,355,1591160,0.0-19.0-2.2,8310,List2B,white,woman,,,,null,,,,
6803,,,survey-text,356,1597968,0.0-19.0-3.2,8310,List2B,white,woman,,,,,"{""Q0"":""jane is meeting dave""}","<img src=""stim_listB/meet1.gif""</stim_listB>",is meeting,
null,"<div style=""font-size:60px;"">+</div>",,html-keyboard-response,357,1598475,0.0-19.0-0.3,8310,List2B,white,woman,,,,null,,,,
null,"<img src=""stim_listB/meet7.gif""</stim_listB>",,html-keyboard-response,358,1600485,0.0-19.0-1.3,8310,List2B,white,woman,,,,null,,,,
null,is meeting,,html-keyboard-response,359,1602492,0.0-19.0-2.3,8310,List2B,white,woman,,,,null,,,,
6210,,,survey-text,360,1608706,0.0-19.0-3.3,8310,List2B,white,woman,,,,,"{""Q0"":""kate is meeting jane""}","<img src=""stim_listB/meet7.gif""</stim_listB>",is meeting,
null,"<div style=""font-size:60px;"">+</div>",,html-keyboard-response,361,1609212,0.0-19.0-0.4,8310,List2B,white,woman,,,,null,,,,
null,"<img src=""stim_listB/kiss5.gif""</stim_listB>",,html-keyboard-response,362,1611222,0.0-19.0-1.4,8310,List2B,white,woman,,,,null,,,,
null,is kissing,,html-keyboard-response,363,1613228,0.0-19.0-2.4,8310,List2B,white,woman,,,,null,,,,
6621,,,survey-text,364,1619853,0.0-19.0-3.4,8310,List2B,white,woman,,,,,"{""Q0"":""fred is kissing luke""}","<img src=""stim_listB/kiss5.gif""</stim_listB>",is kissing,
null,"<div style=""font-size:60px;"">+</div>",,html-keyboard-response,365,1620357,0.0-19.0-0.5,8310,List2B,white,woman,,,,null,,,,
null,"<img src=""stim_listB/kiss3.gif""</stim_listB>",,html-keyboard-response,366,1622364,0.0-19.0-1.5,8310,List2B,white,woman,,,,null,,,,
null,is kissing,,html-keyboard-response,367,1624368,0.0-19.0-2.5,8310,List2B,white,woman,,,,null,,,,
6651,,,survey-text,368,1631023,0.0-19.0-3.5,8310,List2B,white,woman,,,,,"{""Q0"":""beth is kissing fred""}","<img src=""stim_listB/kiss3.gif""</stim_listB>",is kissing,
null,"<div style=""font-size:60px;"">+</div>",,html-keyboard-response,369,1631530,0.0-19.0-0.6,8310,List2B,white,woman,,,,null,,,,
null,"<img src=""stim_listB/talk3.gif""</stim_listB>",,html-keyboard-response,370,1633538,0.0-19.0-1.6,8310,List2B,white,woman,,,,null,,,,
null,is talking to,,html-keyboard-response,371,1635544,0.0-19.0-2.6,8310,List2B,white,woman,,,,null,,,,
10049,,,survey-text,372,1645598,0.0-19.0-3.6,8310,List2B,white,woman,,,,,"{""Q0"":""kate is talking to fred""}","<img src=""stim_listB/talk3.gif""</stim_listB>",is talking to,
null,"<div style=""font-size:60px;"">+</div>",,html-keyboard-response,373,1646104,0.0-19.0-0.7,8310,List2B,white,woman,,,,null,,,,
null,"<img src=""stim_listB/talk1.gif""</stim_listB>",,html-keyboard-response,374,1648117,0.0-19.0-1.7,8310,List2B,white,woman,,,,null,,,,
null,is talking to,,html-keyboard-response,375,1650122,0.0-19.0-2.7,8310,List2B,white,woman,,,,null,,,,
5836,,,survey-text,376,1655962,0.0-19.0-3.7,8310,List2B,white,woman,,,,,"{""Q0"":""luke is talking to jane""}","<img src=""stim_listB/talk1.gif""</stim_listB>",is talking to,
null,"<div style=""font-size:60px;"">+</div>",,html-keyboard-response,377,1656469,0.0-19.0-0.8,8310,List2B,white,woman,,,,null,,,,
null,"<img src=""stim_listB/marry4.gif""</stim_listB>",,html-keyboard-response,378,1658480,0.0-19.0-1.8,8310,List2B,white,woman,,,,null,,,,
null,are marrying each other,,html-keyboard-response,379,1660484,0.0-19.0-2.8,8310,List2B,white,woman,,,,null,,,,
7513,,,survey-text,380,1668001,0.0-19.0-3.8,8310,List2B,white,woman,,,,,"{""Q0"":""kate and fred are marrying each other""}","<img src=""stim_listB/marry4.gif""</stim_listB>",are marrying each other,
null,"<div style=""font-size:60px;"">+</div>",,html-keyboard-response,381,1668508,0.0-19.0-0.9,8310,List2B,white,woman,,,,null,,,,
null,"<img src=""stim_listB/dance3.gif""</stim_listB>",,html-keyboard-response,382,1670519,0.0-19.0-1.9,8310,List2B,white,woman,,,,null,,,,
null,is dancing with,,html-keyboard-response,383,1672524,0.0-19.0-2.9,8310,List2B,white,woman,,,,null,,,,
6905,,,survey-text,384,1679434,0.0-19.0-3.9,8310,List2B,white,woman,,,,,"{""Q0"":""kate is dancing with fred""}","<img src=""stim_listB/dance3.gif""</stim_listB>",is dancing with,
null,"<div style=""font-size:60px;"">+</div>",,html-keyboard-response,385,1679940,0.0-19.0-0.10,8310,List2B,white,woman,,,,null,,,,
null,"<img src=""stim_listB/fight2.gif""</stim_listB>",,html-keyboard-response,386,1681950,0.0-19.0-1.10,8310,List2B,white,woman,,,,null,,,,
null,are fighting each other,,html-keyboard-response,387,1683967,0.0-19.0-2.10,8310,List2B,white,woman,,,,null,,,,
12926,,,survey-text,388,1696898,0.0-19.0-3.10,8310,List2B,white,woman,,,,,"{""Q0"":""luke and ruth are fighting each other""}","<img src=""stim_listB/fight2.gif""</stim_listB>",are fighting each other,
null,"<div style=""font-size:60px;"">+</div>",,html-keyboard-response,389,1697407,0.0-19.0-0.11,8310,List2B,white,woman,,,,null,,,,
null,"<img src=""stim_listB/marry6.gif""</stim_listB>",,html-keyboard-response,390,1699420,0.0-19.0-1.11,8310,List2B,white,woman,,,,null,,,,
null,are marrying each other,,html-keyboard-response,391,1701435,0.0-19.0-2.11,8310,List2B,white,woman,,,,null,,,,
9704,,,survey-text,392,1711146,0.0-19.0-3.11,8310,List2B,white,woman,,,,,"{""Q0"":""mike and luke are marrying each other""}","<img src=""stim_listB/marry6.gif""</stim_listB>",are marrying each other,
null,"<div style=""font-size:60px;"">+</div>",,html-keyboard-response,393,1711654,0.0-19.0-0.12,8310,List2B,white,woman,,,,null,,,,
null,"<img src=""stim_listB/touch7.gif""</stim_listB>",,html-keyboard-response,394,1713665,0.0-19.0-1.12,8310,List2B,white,woman,,,,null,,,,
null,is touching,,html-keyboard-response,395,1715672,0.0-19.0-2.12,8310,List2B,white,woman,,,,null,,,,
6334,,,survey-text,396,1722010,0.0-19.0-3.12,8310,List2B,white,woman,,,,,"{""Q0"":""kate is touching jane""}","<img src=""stim_listB/touch7.gif""</stim_listB>",is touching,
null,"<div style=""font-size:60px;"">+</div>",,html-keyboard-response,397,1722516,0.0-19.0-0.13,8310,List2B,white,woman,,,,null,,,,
null,"<img src=""stim_listB/touch3.gif""</stim_listB>",,html-keyboard-response,398,1724526,0.0-19.0-1.13,8310,List2B,white,woman,,,,null,,,,
null,is touching,,html-keyboard-response,399,1726533,0.0-19.0-2.13,8310,List2B,white,woman,,,,null,,,,
5408,,,survey-text,400,1731945,0.0-19.0-3.13,8310,List2B,white,woman,,,,,"{""Q0"":""kate is touching mike""}","<img src=""stim_listB/touch3.gif""</stim_listB>",is touching,
null,"<div style=""font-size:60px;"">+</div>",,html-keyboard-response,401,1732450,0.0-19.0-0.14,8310,List2B,white,woman,,,,null,,,,
null,"<img src=""stim_listB/meet2.gif""</stim_listB>",,html-keyboard-response,402,1734462,0.0-19.0-1.14,8310,List2B,white,woman,,,,null,,,,
null,are meeting each other,,html-keyboard-response,403,1736469,0.0-19.0-2.14,8310,List2B,white,woman,,,,null,,,,
10159,,,survey-text,404,1746632,0.0-19.0-3.14,8310,List2B,white,woman,,,,,"{""Q0"":""fred and ruth are meeting each other""}","<img src=""stim_listB/meet2.gif""</stim_listB>",are meeting each other,
null,"<div style=""font-size:60px;"">+</div>",,html-keyboard-response,405,1747139,0.0-19.0-0.15,8310,List2B,white,woman,,,,null,,,,
null,"<img src=""stim_listB/hug7.gif""</stim_listB>",,html-keyboard-response,406,1749152,0.0-19.0-1.15,8310,List2B,white,woman,,,,null,,,,
null,is hugging,,html-keyboard-response,407,1751159,0.0-19.0-2.15,8310,List2B,white,woman,,,,null,,,,
6554,,,survey-text,408,1757716,0.0-19.0-3.15,8310,List2B,white,woman,,,,,"{""Q0"":""beth is hugging ruth""}","<img src=""stim_listB/hug7.gif""</stim_listB>",is hugging,
null,"<div style=""font-size:60px;"">+</div>",,html-keyboard-response,409,1758222,0.0-19.0-0.16,8310,List2B,white,woman,,,,null,,,,
null,"<img src=""stim_listB/touch6.gif""</stim_listB>",,html-keyboard-response,410,1760233,0.0-19.0-1.16,8310,List2B,white,woman,,,,null,,,,
null,are touching each other,,html-keyboard-response,411,1762242,0.0-19.0-2.16,8310,List2B,white,woman,,,,null,,,,
642,,,survey-text,412,1762901,0.0-19.0-3.16,8310,List2B,white,woman,,,,,"{""Q0"":""""}","<img src=""stim_listB/touch6.gif""</stim_listB>",are touching each other,
null,"<div style=""font-size:60px;"">+</div>",,html-keyboard-response,413,1763405,0.0-19.0-0.17,8310,List2B,white,woman,,,,null,,,,
null,"<img src=""stim_listB/argue7.gif""</stim_listB>",,html-keyboard-response,414,1765415,0.0-19.0-1.17,8310,List2B,white,woman,,,,null,,,,
null,is arguing with,,html-keyboard-response,415,1767423,0.0-19.0-2.17,8310,List2B,white,woman,,,,null,,,,
10024,,,survey-text,416,1777450,0.0-19.0-3.17,8310,List2B,white,woman,,,,,"{""Q0"":""jane is arguing with beth""}","<img src=""stim_listB/argue7.gif""</stim_listB>",is arguing with,
null,"<div style=""font-size:60px;"">+</div>",,html-keyboard-response,417,1777955,0.0-19.0-0.18,8310,List2B,white,woman,,,,null,,,,
null,"<img src=""stim_listB/fight4.gif""</stim_listB>",,html-keyboard-response,418,1779964,0.0-19.0-1.18,8310,List2B,white,woman,,,,null,,,,
null,are fighting each other,,html-keyboard-response,419,1781970,0.0-19.0-2.18,8310,List2B,white,woman,,,,null,,,,
18656,,,survey-text,420,1800632,0.0-19.0-3.18,8310,List2B,white,woman,,,,,"{""Q0"":""beth and mike are fighting each other""}","<img src=""stim_listB/fight4.gif""</stim_listB>",are fighting each other,
null,"<div style=""font-size:60px;"">+</div>",,html-keyboard-response,421,1801139,0.0-19.0-0.19,8310,List2B,white,woman,,,,null,,,,
null,"<img src=""stim_listB/meet3.gif""</stim_listB>",,html-keyboard-response,422,1803145,0.0-19.0-1.19,8310,List2B,white,woman,,,,null,,,,
null,is meeting,,html-keyboard-response,423,1805161,0.0-19.0-2.19,8310,List2B,white,woman,,,,null,,,,
7206,,,survey-text,424,1812371,0.0-19.0-3.19,8310,List2B,white,woman,,,,,"{""Q0"":""kate is meeting mike""}","<img src=""stim_listB/meet3.gif""</stim_listB>",is meeting,
1393,<p>Thank you for completing that task.</p><p>The final part of this session is a short questionnaire.</p><p>Press Continue.</p>,0,html-button-response,425,1813768,0.0-20.0,8310,List2B,white,woman,,,,,,,,
24392,,,survey-text,426,1839171,0.0-21.0,8310,List2B,white,woman,,,,,"{""Q0"":""33"",""Q1"":""english"",""Q2"":""english"",""Q3"":""england"",""Q4"":""white"",""Q5"":""female""}",,,demographics
57170,,,survey-likert,427,1896359,0.0-22.0,8310,List2B,white,woman,,,,,"{""Q0"":4,""Q1"":4,""Q2"":4,""Q3"":3,""Q4"":4,""Q5"":4,""Q6"":3,""Q7"":2,""Q8"":3,""Q9"":3,""Q10"":3,""Q11"":3,""Q12"":3,""Q13"":3}",,,likert_race
28028,,,survey-likert,428,1924402,0.0-23.0,8310,List2B,white,woman,,,,,"{""Q0"":4,""Q1"":4,""Q2"":4,""Q3"":4,""Q4"":4,""Q5"":4,""Q6"":4,""Q7"":4,""Q8"":4,""Q9"":4,""Q10"":4,""Q11"":4,""Q12"":4,""Q13"":4}",,,likert_gender
11713,,,survey-text,429,1936121,0.0-24.0,8310,List2B,white,woman,,,,,"{""Q0"":""ccc""}",,,worker_id
2545,,,external-html,430,1938869,0.0-25.0,8310,List2B,white,woman,debrief.html,,,,,,,
