rt,stimulus,button_pressed,trial_type,trial_index,time_elapsed,internal_node_id,subject,list,ppt_race,ppt_gender,url,first_guess,correct,key_press,responses,image_type,phrase_type,test_part
2179,Welcome to the experiment. Press Continue to begin.,0,html-button-response,0,2182,0.0-0.0,85203,List1A,black,woman,,,,,,,,
43681,,,external-html,1,46934,0.0-1.0,85203,List1A,black,woman,consent.html,,,,,,,
12093,"<p>On the next page, you will see portraits of 8 people and their names.</p><p>Your first task is to take a few minutes to memorise the names of these people.</p><p>You will have to recall their names during the rest of the experiment, so it is</p><p>essential that you try to memorise these people and their names as best as you can.</p><br><p><strong>You will then be tested on your memory of these names and portraits.</strong></p><br><p>The experiment will start after you have completed this memory test.</p><br><p>Ready?</p>",0,html-button-response,2,59029,0.0-2.0,85203,List1A,black,woman,,,,,,,,
133924,"<img src='img/portrait_matrix_list1.JPG' style='width:900px;height:500px;''></img><p>If you have memorised all the portraits and names and are ready to start, press Continue.</p><p><strong>Please note: Your memory of these faces will be tested 4 times during this experiment.</strong></p>",0,html-button-response,3,193954,0.0-3.0-0.0,85203,List1A,black,woman,,,,,,,,
4869,"<img src=""portrait/BM2.jpg""style=""width:400px;height:400px;""></img>",5,html-button-response,4,199827,0.0-3.0-1.0,85203,List1A,black,woman,,TRUE,5,,,,,
null,CORRECT,,html-keyboard-response,5,201334,0.0-3.0-2.0-0.0,85203,List1A,black,woman,,,,null,,,,
22426,"<img src=""portrait/WW2.jpg""style=""width:400px;height:400px;""></img>",3,html-button-response,6,223762,0.0-3.0-4.0,85203,List1A,black,woman,,TRUE,3,,,,,
null,CORRECT,,html-keyboard-response,7,225264,0.0-3.0-5.0-0.0,85203,List1A,black,woman,,,,null,,,,
10241,"<img src=""portrait/BW2.jpg""style=""width:400px;height:400px;""></img>",2,html-button-response,8,235506,0.0-3.0-7.0,85203,List1A,black,woman,,TRUE,2,,,,,
null,CORRECT,,html-keyboard-response,9,237009,0.0-3.0-8.0-0.0,85203,List1A,black,woman,,,,null,,,,
5615,"<img src=""portrait/BW1.jpg""style=""width:400px;height:400px;""></img>",0,html-button-response,10,242626,0.0-3.0-10.0,85203,List1A,black,woman,,TRUE,0,,,,,
null,CORRECT,,html-keyboard-response,11,244127,0.0-3.0-11.0-0.0,85203,List1A,black,woman,,,,null,,,,
7289,"<img src=""portrait/BM1.jpg""style=""width:400px;height:400px;""></img>",4,html-button-response,12,251418,0.0-3.0-13.0,85203,List1A,black,woman,,TRUE,4,,,,,
null,CORRECT,,html-keyboard-response,13,252919,0.0-3.0-14.0-0.0,85203,List1A,black,woman,,,,null,,,,
10522,"<img src=""portrait/WW1.jpg""style=""width:400px;height:400px;""></img>",3,html-button-response,14,263442,0.0-3.0-16.0,85203,List1A,black,woman,,TRUE,1,,,,,
3429,"<img src=""portrait/WW1.jpg""style=""width:400px;height:400px;""></img>",1,html-button-response,15,267874,0.0-3.0-18.0-0.0,85203,List1A,black,woman,,FALSE,1,,,,,
null,CORRECT,,html-keyboard-response,16,269376,0.0-3.0-18.0-1.0-0.0,85203,List1A,black,woman,,,,null,,,,
4488,"<img src=""portrait/WM2.jpg""style=""width:400px;height:400px;""></img>",7,html-button-response,17,273866,0.0-3.0-19.0,85203,List1A,black,woman,,TRUE,7,,,,,
null,CORRECT,,html-keyboard-response,18,275369,0.0-3.0-20.0-0.0,85203,List1A,black,woman,,,,null,,,,
5608,"<img src=""portrait/WM1.jpg""style=""width:400px;height:400px;""></img>",6,html-button-response,19,280978,0.0-3.0-22.0,85203,List1A,black,woman,,TRUE,6,,,,,
null,CORRECT,,html-keyboard-response,20,282486,0.0-3.0-23.0-0.0,85203,List1A,black,woman,,,,null,,,,
1594,<p>You got 7 out of 8 right first time. Press Continue.</p>,0,html-button-response,21,284082,0.0-3.0-25.0,85203,List1A,black,woman,,,,,,,,
2646,"As you did not score 100%, the memory game will repeat. Press Continue.",0,html-button-response,22,287730,0.0-3.0-26.0-0.0,85203,List1A,black,woman,,,,,,,,
12381,"<img src='img/portrait_matrix_list1.JPG' style='width:900px;height:500px;''></img><p>If you have memorised all the portraits and names and are ready to start, press Continue.</p><p><strong>Please note: Your memory of these faces will be tested 4 times during this experiment.</strong></p>",0,html-button-response,23,301114,0.0-3.1-0.1,85203,List1A,black,woman,,,,,,,,
1838,"<img src=""portrait/BM2.jpg""style=""width:400px;height:400px;""></img>",5,html-button-response,24,303954,0.0-3.1-1.1,85203,List1A,black,woman,,TRUE,5,,,,,
null,CORRECT,,html-keyboard-response,25,305456,0.0-3.1-2.1-0.1,85203,List1A,black,woman,,,,null,,,,
7576,"<img src=""portrait/WW2.jpg""style=""width:400px;height:400px;""></img>",3,html-button-response,26,313034,0.0-3.1-4.1,85203,List1A,black,woman,,TRUE,3,,,,,
null,CORRECT,,html-keyboard-response,27,314536,0.0-3.1-5.1-0.1,85203,List1A,black,woman,,,,null,,,,
9807,"<img src=""portrait/BW2.jpg""style=""width:400px;height:400px;""></img>",0,html-button-response,28,324345,0.0-3.1-7.1,85203,List1A,black,woman,,TRUE,2,,,,,
2037,"<img src=""portrait/BW2.jpg""style=""width:400px;height:400px;""></img>",2,html-button-response,29,327385,0.0-3.1-9.1-0.1,85203,List1A,black,woman,,FALSE,2,,,,,
null,CORRECT,,html-keyboard-response,30,328889,0.0-3.1-9.1-1.1-0.1,85203,List1A,black,woman,,,,null,,,,
3430,"<img src=""portrait/BW1.jpg""style=""width:400px;height:400px;""></img>",0,html-button-response,31,332321,0.0-3.1-10.1,85203,List1A,black,woman,,TRUE,0,,,,,
null,CORRECT,,html-keyboard-response,32,333823,0.0-3.1-11.1-0.1,85203,List1A,black,woman,,,,null,,,,
6856,"<img src=""portrait/BM1.jpg""style=""width:400px;height:400px;""></img>",4,html-button-response,33,340681,0.0-3.1-13.1,85203,List1A,black,woman,,TRUE,4,,,,,
null,CORRECT,,html-keyboard-response,34,342183,0.0-3.1-14.1-0.1,85203,List1A,black,woman,,,,null,,,,
14296,"<img src=""portrait/WW1.jpg""style=""width:400px;height:400px;""></img>",1,html-button-response,35,356480,0.0-3.1-16.1,85203,List1A,black,woman,,TRUE,1,,,,,
null,CORRECT,,html-keyboard-response,36,357983,0.0-3.1-17.1-0.1,85203,List1A,black,woman,,,,null,,,,
1512,"<img src=""portrait/WM2.jpg""style=""width:400px;height:400px;""></img>",7,html-button-response,37,359496,0.0-3.1-19.1,85203,List1A,black,woman,,TRUE,7,,,,,
null,CORRECT,,html-keyboard-response,38,360999,0.0-3.1-20.1-0.1,85203,List1A,black,woman,,,,null,,,,
4064,"<img src=""portrait/WM1.jpg""style=""width:400px;height:400px;""></img>",6,html-button-response,39,365064,0.0-3.1-22.1,85203,List1A,black,woman,,TRUE,6,,,,,
null,CORRECT,,html-keyboard-response,40,366567,0.0-3.1-23.1-0.1,85203,List1A,black,woman,,,,null,,,,
1592,<p>You got 7 out of 8 right first time. Press Continue.</p>,0,html-button-response,41,368160,0.0-3.1-25.1,85203,List1A,black,woman,,,,,,,,
1686,"As you did not score 100%, the memory game will repeat. Press Continue.",0,html-button-response,42,370848,0.0-3.1-26.1-0.1,85203,List1A,black,woman,,,,,,,,
17702,"<img src='img/portrait_matrix_list1.JPG' style='width:900px;height:500px;''></img><p>If you have memorised all the portraits and names and are ready to start, press Continue.</p><p><strong>Please note: Your memory of these faces will be tested 4 times during this experiment.</strong></p>",0,html-button-response,43,389553,0.0-3.2-0.2,85203,List1A,black,woman,,,,,,,,
1942,"<img src=""portrait/BM2.jpg""style=""width:400px;height:400px;""></img>",5,html-button-response,44,392497,0.0-3.2-1.2,85203,List1A,black,woman,,TRUE,5,,,,,
null,CORRECT,,html-keyboard-response,45,393999,0.0-3.2-2.2-0.2,85203,List1A,black,woman,,,,null,,,,
16256,"<img src=""portrait/WW2.jpg""style=""width:400px;height:400px;""></img>",1,html-button-response,46,410256,0.0-3.2-4.2,85203,List1A,black,woman,,TRUE,3,,,,,
2181,"<img src=""portrait/WW2.jpg""style=""width:400px;height:400px;""></img>",3,html-button-response,47,413440,0.0-3.2-6.2-0.2,85203,List1A,black,woman,,FALSE,3,,,,,
null,CORRECT,,html-keyboard-response,48,414943,0.0-3.2-6.2-1.2-0.2,85203,List1A,black,woman,,,,null,,,,
7335,"<img src=""portrait/BW2.jpg""style=""width:400px;height:400px;""></img>",0,html-button-response,49,422280,0.0-3.2-7.2,85203,List1A,black,woman,,TRUE,2,,,,,
2822,"<img src=""portrait/BW2.jpg""style=""width:400px;height:400px;""></img>",2,html-button-response,50,426104,0.0-3.2-9.2-0.2,85203,List1A,black,woman,,FALSE,2,,,,,
null,CORRECT,,html-keyboard-response,51,427606,0.0-3.2-9.2-1.2-0.2,85203,List1A,black,woman,,,,null,,,,
2807,"<img src=""portrait/BW1.jpg""style=""width:400px;height:400px;""></img>",0,html-button-response,52,430416,0.0-3.2-10.2,85203,List1A,black,woman,,TRUE,0,,,,,
null,CORRECT,,html-keyboard-response,53,431918,0.0-3.2-11.2-0.2,85203,List1A,black,woman,,,,null,,,,
6889,"<img src=""portrait/BM1.jpg""style=""width:400px;height:400px;""></img>",4,html-button-response,54,438808,0.0-3.2-13.2,85203,List1A,black,woman,,TRUE,4,,,,,
null,CORRECT,,html-keyboard-response,55,440311,0.0-3.2-14.2-0.2,85203,List1A,black,woman,,,,null,,,,
13759,"<img src=""portrait/WW1.jpg""style=""width:400px;height:400px;""></img>",3,html-button-response,56,454072,0.0-3.2-16.2,85203,List1A,black,woman,,TRUE,1,,,,,
2205,"<img src=""portrait/WW1.jpg""style=""width:400px;height:400px;""></img>",1,html-button-response,57,457279,0.0-3.2-18.2-0.2,85203,List1A,black,woman,,FALSE,1,,,,,
null,CORRECT,,html-keyboard-response,58,458782,0.0-3.2-18.2-1.2-0.2,85203,List1A,black,woman,,,,null,,,,
2080,"<img src=""portrait/WM2.jpg""style=""width:400px;height:400px;""></img>",7,html-button-response,59,460863,0.0-3.2-19.2,85203,List1A,black,woman,,TRUE,7,,,,,
null,CORRECT,,html-keyboard-response,60,462365,0.0-3.2-20.2-0.2,85203,List1A,black,woman,,,,null,,,,
1848,"<img src=""portrait/WM1.jpg""style=""width:400px;height:400px;""></img>",6,html-button-response,61,464215,0.0-3.2-22.2,85203,List1A,black,woman,,TRUE,6,,,,,
null,CORRECT,,html-keyboard-response,62,465717,0.0-3.2-23.2-0.2,85203,List1A,black,woman,,,,null,,,,
1352,<p>You got 5 out of 8 right first time. Press Continue.</p>,0,html-button-response,63,467071,0.0-3.2-25.2,85203,List1A,black,woman,,,,,,,,
1454,"As you did not score 100%, the memory game will repeat. Press Continue.",0,html-button-response,64,469527,0.0-3.2-26.2-0.2,85203,List1A,black,woman,,,,,,,,
18852,"<img src='img/portrait_matrix_list1.JPG' style='width:900px;height:500px;''></img><p>If you have memorised all the portraits and names and are ready to start, press Continue.</p><p><strong>Please note: Your memory of these faces will be tested 4 times during this experiment.</strong></p>",0,html-button-response,65,489383,0.0-3.3-0.3,85203,List1A,black,woman,,,,,,,,
2933,"<img src=""portrait/BM2.jpg""style=""width:400px;height:400px;""></img>",5,html-button-response,66,493319,0.0-3.3-1.3,85203,List1A,black,woman,,TRUE,5,,,,,
null,CORRECT,,html-keyboard-response,67,494820,0.0-3.3-2.3-0.3,85203,List1A,black,woman,,,,null,,,,
13385,"<img src=""portrait/WW2.jpg""style=""width:400px;height:400px;""></img>",1,html-button-response,68,508207,0.0-3.3-4.3,85203,List1A,black,woman,,TRUE,3,,,,,
1990,"<img src=""portrait/WW2.jpg""style=""width:400px;height:400px;""></img>",3,html-button-response,69,511199,0.0-3.3-6.3-0.3,85203,List1A,black,woman,,FALSE,3,,,,,
null,CORRECT,,html-keyboard-response,70,512702,0.0-3.3-6.3-1.3-0.3,85203,List1A,black,woman,,,,null,,,,
14791,"<img src=""portrait/BW2.jpg""style=""width:400px;height:400px;""></img>",2,html-button-response,71,527495,0.0-3.3-7.3,85203,List1A,black,woman,,TRUE,2,,,,,
null,CORRECT,,html-keyboard-response,72,528997,0.0-3.3-8.3-0.3,85203,List1A,black,woman,,,,null,,,,
3952,"<img src=""portrait/BW1.jpg""style=""width:400px;height:400px;""></img>",0,html-button-response,73,532951,0.0-3.3-10.3,85203,List1A,black,woman,,TRUE,0,,,,,
null,CORRECT,,html-keyboard-response,74,534452,0.0-3.3-11.3-0.3,85203,List1A,black,woman,,,,null,,,,
5273,"<img src=""portrait/BM1.jpg""style=""width:400px;height:400px;""></img>",4,html-button-response,75,539727,0.0-3.3-13.3,85203,List1A,black,woman,,TRUE,4,,,,,
null,CORRECT,,html-keyboard-response,76,541230,0.0-3.3-14.3-0.3,85203,List1A,black,woman,,,,null,,,,
7215,"<img src=""portrait/WW1.jpg""style=""width:400px;height:400px;""></img>",3,html-button-response,77,548447,0.0-3.3-16.3,85203,List1A,black,woman,,TRUE,1,,,,,
1687,"<img src=""portrait/WW1.jpg""style=""width:400px;height:400px;""></img>",1,html-button-response,78,551135,0.0-3.3-18.3-0.3,85203,List1A,black,woman,,FALSE,1,,,,,
null,CORRECT,,html-keyboard-response,79,552638,0.0-3.3-18.3-1.3-0.3,85203,List1A,black,woman,,,,null,,,,
1311,"<img src=""portrait/WM2.jpg""style=""width:400px;height:400px;""></img>",7,html-button-response,80,553951,0.0-3.3-19.3,85203,List1A,black,woman,,TRUE,7,,,,,
null,CORRECT,,html-keyboard-response,81,555453,0.0-3.3-20.3-0.3,85203,List1A,black,woman,,,,null,,,,
1880,"<img src=""portrait/WM1.jpg""style=""width:400px;height:400px;""></img>",6,html-button-response,82,557335,0.0-3.3-22.3,85203,List1A,black,woman,,TRUE,6,,,,,
null,CORRECT,,html-keyboard-response,83,558838,0.0-3.3-23.3-0.3,85203,List1A,black,woman,,,,null,,,,
1191,<p>You got 6 out of 8 right first time. Press Continue.</p>,0,html-button-response,84,560030,0.0-3.3-25.3,85203,List1A,black,woman,,,,,,,,
1717,"As you did not score 100%, the memory game will repeat. Press Continue.",0,html-button-response,85,562750,0.0-3.3-26.3-0.3,85203,List1A,black,woman,,,,,,,,
13421,"<img src='img/portrait_matrix_list1.JPG' style='width:900px;height:500px;''></img><p>If you have memorised all the portraits and names and are ready to start, press Continue.</p><p><strong>Please note: Your memory of these faces will be tested 4 times during this experiment.</strong></p>",0,html-button-response,86,577174,0.0-3.4-0.4,85203,List1A,black,woman,,,,,,,,
2078,"<img src=""portrait/BM2.jpg""style=""width:400px;height:400px;""></img>",5,html-button-response,87,580254,0.0-3.4-1.4,85203,List1A,black,woman,,TRUE,5,,,,,
null,CORRECT,,html-keyboard-response,88,581757,0.0-3.4-2.4-0.4,85203,List1A,black,woman,,,,null,,,,
2544,"<img src=""portrait/WW2.jpg""style=""width:400px;height:400px;""></img>",3,html-button-response,89,584302,0.0-3.4-4.4,85203,List1A,black,woman,,TRUE,3,,,,,
null,CORRECT,,html-keyboard-response,90,585805,0.0-3.4-5.4-0.4,85203,List1A,black,woman,,,,null,,,,
6159,"<img src=""portrait/BW2.jpg""style=""width:400px;height:400px;""></img>",2,html-button-response,91,591966,0.0-3.4-7.4,85203,List1A,black,woman,,TRUE,2,,,,,
null,CORRECT,,html-keyboard-response,92,593468,0.0-3.4-8.4-0.4,85203,List1A,black,woman,,,,null,,,,
4648,"<img src=""portrait/BW1.jpg""style=""width:400px;height:400px;""></img>",0,html-button-response,93,598117,0.0-3.4-10.4,85203,List1A,black,woman,,TRUE,0,,,,,
null,CORRECT,,html-keyboard-response,94,599620,0.0-3.4-11.4-0.4,85203,List1A,black,woman,,,,null,,,,
10208,"<img src=""portrait/BM1.jpg""style=""width:400px;height:400px;""></img>",4,html-button-response,95,609829,0.0-3.4-13.4,85203,List1A,black,woman,,TRUE,4,,,,,
null,CORRECT,,html-keyboard-response,96,611332,0.0-3.4-14.4-0.4,85203,List1A,black,woman,,,,null,,,,
12080,"<img src=""portrait/WW1.jpg""style=""width:400px;height:400px;""></img>",1,html-button-response,97,623413,0.0-3.4-16.4,85203,List1A,black,woman,,TRUE,1,,,,,
null,CORRECT,,html-keyboard-response,98,624916,0.0-3.4-17.4-0.4,85203,List1A,black,woman,,,,null,,,,
2976,"<img src=""portrait/WM2.jpg""style=""width:400px;height:400px;""></img>",7,html-button-response,99,627893,0.0-3.4-19.4,85203,List1A,black,woman,,TRUE,7,,,,,
null,CORRECT,,html-keyboard-response,100,629396,0.0-3.4-20.4-0.4,85203,List1A,black,woman,,,,null,,,,
4640,"<img src=""portrait/WM1.jpg""style=""width:400px;height:400px;""></img>",6,html-button-response,101,634037,0.0-3.4-22.4,85203,List1A,black,woman,,TRUE,6,,,,,
null,CORRECT,,html-keyboard-response,102,635540,0.0-3.4-23.4-0.4,85203,List1A,black,woman,,,,null,,,,
1591,<p>You got 8 out of 8 right first time. Press Continue.</p>,0,html-button-response,103,637133,0.0-3.4-25.4,85203,List1A,black,woman,,,,,,,,
60894,"<p>In this experiment, you will view photographs of the people from the memory game interacting.</p><p>By using the <strong>exact</strong> phrase given <i>after</i> the photograph appears and recalling the correct names of the people in the photographs, form a sentence describing the interaction. You do not need to capitalise names.</p><p>Type your answer in the space provided. Please complete every sentence before moving onto the next trial.</p><p>You will only have a few seconds to memorise each given photograph and phrase before you can respond, so try your best to focus.</p><p>An example is given below. Press 'Continue' when you are ready.</p><img src='img/speaking_example_v2.jpg' style='width:800px;height:460px;''></img>",0,html-button-response,104,699029,0.0-4.0,85203,List1A,black,woman,,,,,,,,
2934,"<p>Before the experiment starts, you will watch two example trials. Press 'Continue'.</p>",0,html-button-response,105,702964,0.0-5.0,85203,List1A,black,woman,,,,,,,,
null,<img src='img/speaking_WW.gif'></img>,,html-keyboard-response,106,705966,0.0-6.0,85203,List1A,black,woman,,,,null,,,,
null,<p>is speaking to</p>,,html-keyboard-response,107,707968,0.0-7.0,85203,List1A,black,woman,,,,null,,,,
5059,<p><b>Answer:</b> kate is speaking to beth</p>,0,html-button-response,108,713028,0.0-8.0,85203,List1A,black,woman,,,,,,,,
null,<img src='img/pointing_BM.gif'></img>,,html-keyboard-response,109,716030,0.0-9.0,85203,List1A,black,woman,,,,null,,,,
null,<p>are pointing at each other</p>,,html-keyboard-response,110,718032,0.0-10.0,85203,List1A,black,woman,,,,null,,,,
2114,<p><b>Answer:</b> luke and dave are pointing at each other</p>,0,html-button-response,111,720148,0.0-11.0,85203,List1A,black,woman,,,,,,,,
7766,"<p>Ready to start the experiment?</p><br><p><strong>Remember to describe the picture using a full sentence,</strong></p><p><strong> that combines the names of the people with the given phrase.</strong></p><p><strong> You do not need to capitalise names or use punctuation.</strong></p><br><p>Press 'Continue' to begin.</p>",0,html-button-response,112,728916,0.0-12.0,85203,List1A,black,woman,,,,,,,,
null,"<div style=""font-size:60px;"">+</div>",,html-keyboard-response,113,730418,0.0-13.0-0.0,85203,List1A,black,woman,,,,null,,,,
null,"<img src=""stim_listA/talk6.gif""</stim_listA>",,html-keyboard-response,114,732421,0.0-13.0-1.0,85203,List1A,black,woman,,,,null,,,,
null,are talking to each other,,html-keyboard-response,115,734423,0.0-13.0-2.0,85203,List1A,black,woman,,,,null,,,,
9452,,,survey-text,116,743876,0.0-13.0-3.0,85203,List1A,black,woman,,,,,"{""Q0"":""mike and luke are talking to each other""}","<img src=""stim_listA/talk6.gif""</stim_listA>",are talking to each other,
null,"<div style=""font-size:60px;"">+</div>",,html-keyboard-response,117,744378,0.0-13.0-0.1,85203,List1A,black,woman,,,,null,,,,
null,"<img src=""stim_listA/marry7.gif""</stim_listA>",,html-keyboard-response,118,746380,0.0-13.0-1.1,85203,List1A,black,woman,,,,null,,,,
null,is marrying,,html-keyboard-response,119,748381,0.0-13.0-2.1,85203,List1A,black,woman,,,,null,,,,
12014,,,survey-text,120,760396,0.0-13.0-3.1,85203,List1A,black,woman,,,,,"{""Q0"":""beth and ruth is marrying each other""}","<img src=""stim_listA/marry7.gif""</stim_listA>",is marrying,
null,"<div style=""font-size:60px;"">+</div>",,html-keyboard-response,121,760898,0.0-13.0-0.2,85203,List1A,black,woman,,,,null,,,,
null,"<img src=""stim_listA/shout6.gif""</stim_listA>",,html-keyboard-response,122,762900,0.0-13.0-1.2,85203,List1A,black,woman,,,,null,,,,
null,are shouting at each other,,html-keyboard-response,123,764901,0.0-13.0-2.2,85203,List1A,black,woman,,,,null,,,,
11677,,,survey-text,124,776580,0.0-13.0-3.2,85203,List1A,black,woman,,,,,"{""Q0"":""dave and mike are shouting at each other""}","<img src=""stim_listA/shout6.gif""</stim_listA>",are shouting at each other,
null,"<div style=""font-size:60px;"">+</div>",,html-keyboard-response,125,777081,0.0-13.0-0.3,85203,List1A,black,woman,,,,null,,,,
null,"<img src=""stim_listA/hug8.gif""</stim_listA>",,html-keyboard-response,126,779082,0.0-13.0-1.3,85203,List1A,black,woman,,,,null,,,,
null,are hugging each other,,html-keyboard-response,127,781084,0.0-13.0-2.3,85203,List1A,black,woman,,,,null,,,,
10983,,,survey-text,128,792068,0.0-13.0-3.3,85203,List1A,black,woman,,,,,"{""Q0"":""berh and jane are hugging each other""}","<img src=""stim_listA/hug8.gif""</stim_listA>",are hugging each other,
null,"<div style=""font-size:60px;"">+</div>",,html-keyboard-response,129,792569,0.0-13.0-0.4,85203,List1A,black,woman,,,,null,,,,
null,"<img src=""stim_listA/talk8.gif""</stim_listA>",,html-keyboard-response,130,794571,0.0-13.0-1.4,85203,List1A,black,woman,,,,null,,,,
null,are talking to each other,,html-keyboard-response,131,796573,0.0-13.0-2.4,85203,List1A,black,woman,,,,null,,,,
14821,,,survey-text,132,811395,0.0-13.0-3.4,85203,List1A,black,woman,,,,,"{""Q0"":""ruth and beth are talking to each other""}","<img src=""stim_listA/talk8.gif""</stim_listA>",are talking to each other,
null,"<div style=""font-size:60px;"">+</div>",,html-keyboard-response,133,811897,0.0-13.0-0.5,85203,List1A,black,woman,,,,null,,,,
null,"<img src=""stim_listA/meet6.gif""</stim_listA>",,html-keyboard-response,134,813898,0.0-13.0-1.5,85203,List1A,black,woman,,,,null,,,,
null,are meeting each other,,html-keyboard-response,135,815900,0.0-13.0-2.5,85203,List1A,black,woman,,,,null,,,,
18021,,,survey-text,136,833923,0.0-13.0-3.5,85203,List1A,black,woman,,,,,"{""Q0"":""luke and fred are meeting each other""}","<img src=""stim_listA/meet6.gif""</stim_listA>",are meeting each other,
null,"<div style=""font-size:60px;"">+</div>",,html-keyboard-response,137,834424,0.0-13.0-0.6,85203,List1A,black,woman,,,,null,,,,
null,"<img src=""stim_listA/meet4.gif""</stim_listA>",,html-keyboard-response,138,836427,0.0-13.0-1.6,85203,List1A,black,woman,,,,null,,,,
null,are meeting each other,,html-keyboard-response,139,838428,0.0-13.0-2.6,85203,List1A,black,woman,,,,null,,,,
19548,,,survey-text,140,857979,0.0-13.0-3.6,85203,List1A,black,woman,,,,,"{""Q0"":""luke and ruth and meeting each other""}","<img src=""stim_listA/meet4.gif""</stim_listA>",are meeting each other,
null,"<div style=""font-size:60px;"">+</div>",,html-keyboard-response,141,858480,0.0-13.0-0.7,85203,List1A,black,woman,,,,null,,,,
null,"<img src=""stim_listA/marry6.gif""</stim_listA>",,html-keyboard-response,142,860482,0.0-13.0-1.7,85203,List1A,black,woman,,,,null,,,,
null,are marrying each other,,html-keyboard-response,143,862484,0.0-13.0-2.7,85203,List1A,black,woman,,,,null,,,,
12166,,,survey-text,144,874650,0.0-13.0-3.7,85203,List1A,black,woman,,,,,"{""Q0"":""dave and fred are marrying each other""}","<img src=""stim_listA/marry6.gif""</stim_listA>",are marrying each other,
null,"<div style=""font-size:60px;"">+</div>",,html-keyboard-response,145,875151,0.0-13.0-0.8,85203,List1A,black,woman,,,,null,,,,
null,"<img src=""stim_listA/hug4.gif""</stim_listA>",,html-keyboard-response,146,877154,0.0-13.0-1.8,85203,List1A,black,woman,,,,null,,,,
null,are hugging each other,,html-keyboard-response,147,879155,0.0-13.0-2.8,85203,List1A,black,woman,,,,null,,,,
11567,,,survey-text,148,890722,0.0-13.0-3.8,85203,List1A,black,woman,,,,,"{""Q0"":""dave and jane are hugging each other""}","<img src=""stim_listA/hug4.gif""</stim_listA>",are hugging each other,
null,"<div style=""font-size:60px;"">+</div>",,html-keyboard-response,149,891223,0.0-13.0-0.9,85203,List1A,black,woman,,,,null,,,,
null,"<img src=""stim_listA/marry1.gif""</stim_listA>",,html-keyboard-response,150,893225,0.0-13.0-1.9,85203,List1A,black,woman,,,,null,,,,
null,is marrying,,html-keyboard-response,151,895227,0.0-13.0-2.9,85203,List1A,black,woman,,,,null,,,,
12734,,,survey-text,152,907962,0.0-13.0-3.9,85203,List1A,black,woman,,,,,"{""Q0"":""muke and kate are marrying each other""}","<img src=""stim_listA/marry1.gif""</stim_listA>",is marrying,
null,"<div style=""font-size:60px;"">+</div>",,html-keyboard-response,153,908463,0.0-13.0-0.10,85203,List1A,black,woman,,,,null,,,,
null,"<img src=""stim_listA/fight4.gif""</stim_listA>",,html-keyboard-response,154,910465,0.0-13.0-1.10,85203,List1A,black,woman,,,,null,,,,
null,are fighting each other,,html-keyboard-response,155,912467,0.0-13.0-2.10,85203,List1A,black,woman,,,,null,,,,
20022,,,survey-text,156,932490,0.0-13.0-3.10,85203,List1A,black,woman,,,,,"{""Q0"":""luke and ruth are fighting each other""}","<img src=""stim_listA/fight4.gif""</stim_listA>",are fighting each other,
null,"<div style=""font-size:60px;"">+</div>",,html-keyboard-response,157,932991,0.0-13.0-0.11,85203,List1A,black,woman,,,,null,,,,
null,"<img src=""stim_listA/shout7.gif""</stim_listA>",,html-keyboard-response,158,934993,0.0-13.0-1.11,85203,List1A,black,woman,,,,null,,,,
null,is shouting at,,html-keyboard-response,159,936995,0.0-13.0-2.11,85203,List1A,black,woman,,,,null,,,,
15454,,,survey-text,160,952449,0.0-13.0-3.11,85203,List1A,black,woman,,,,,"{""Q0"":""jane and kate are shouting at each other""}","<img src=""stim_listA/shout7.gif""</stim_listA>",is shouting at,
null,"<div style=""font-size:60px;"">+</div>",,html-keyboard-response,161,952950,0.0-13.0-0.12,85203,List1A,black,woman,,,,null,,,,
null,"<img src=""stim_listA/dance2.gif""</stim_listA>",,html-keyboard-response,162,954953,0.0-13.0-1.12,85203,List1A,black,woman,,,,null,,,,
null,are dancing with each other,,html-keyboard-response,163,956954,0.0-13.0-2.12,85203,List1A,black,woman,,,,null,,,,
9261,,,survey-text,164,966217,0.0-13.0-3.12,85203,List1A,black,woman,,,,,"{""Q0"":""jane and mike are dancing with each other""}","<img src=""stim_listA/dance2.gif""</stim_listA>",are dancing with each other,
null,"<div style=""font-size:60px;"">+</div>",,html-keyboard-response,165,966718,0.0-13.0-0.13,85203,List1A,black,woman,,,,null,,,,
null,"<img src=""stim_listA/fight8.gif""</stim_listA>",,html-keyboard-response,166,968720,0.0-13.0-1.13,85203,List1A,black,woman,,,,null,,,,
null,are fighting each other,,html-keyboard-response,167,970722,0.0-13.0-2.13,85203,List1A,black,woman,,,,null,,,,
18782,,,survey-text,168,989504,0.0-13.0-3.13,85203,List1A,black,woman,,,,,"{""Q0"":""jane and ruth are fighting each other""}","<img src=""stim_listA/fight8.gif""</stim_listA>",are fighting each other,
null,"<div style=""font-size:60px;"">+</div>",,html-keyboard-response,169,990005,0.0-13.0-0.14,85203,List1A,black,woman,,,,null,,,,
null,"<img src=""stim_listA/talk4.gif""</stim_listA>",,html-keyboard-response,170,992007,0.0-13.0-1.14,85203,List1A,black,woman,,,,null,,,,
null,are talking to each other,,html-keyboard-response,171,994008,0.0-13.0-2.14,85203,List1A,black,woman,,,,null,,,,
16143,,,survey-text,172,1010152,0.0-13.0-3.14,85203,List1A,black,woman,,,,,"{""Q0"":""dave and ruth are talking to each other""}","<img src=""stim_listA/talk4.gif""</stim_listA>",are talking to each other,
null,"<div style=""font-size:60px;"">+</div>",,html-keyboard-response,173,1010654,0.0-13.0-0.15,85203,List1A,black,woman,,,,null,,,,
null,"<img src=""stim_listA/meet1.gif""</stim_listA>",,html-keyboard-response,174,1012656,0.0-13.0-1.15,85203,List1A,black,woman,,,,null,,,,
null,is meeting,,html-keyboard-response,175,1014657,0.0-13.0-2.15,85203,List1A,black,woman,,,,null,,,,
7902,,,survey-text,176,1022560,0.0-13.0-3.15,85203,List1A,black,woman,,,,,"{""Q0"":""mike and  beth is meeting""}","<img src=""stim_listA/meet1.gif""</stim_listA>",is meeting,
null,"<div style=""font-size:60px;"">+</div>",,html-keyboard-response,177,1023061,0.0-13.0-0.16,85203,List1A,black,woman,,,,null,,,,
null,"<img src=""stim_listA/meet2.gif""</stim_listA>",,html-keyboard-response,178,1025063,0.0-13.0-1.16,85203,List1A,black,woman,,,,null,,,,
null,are meeting each other,,html-keyboard-response,179,1027065,0.0-13.0-2.16,85203,List1A,black,woman,,,,null,,,,
8710,,,survey-text,180,1035776,0.0-13.0-3.16,85203,List1A,black,woman,,,,,"{""Q0"":""kate and fred are meeting each other""}","<img src=""stim_listA/meet2.gif""</stim_listA>",are meeting each other,
null,"<div style=""font-size:60px;"">+</div>",,html-keyboard-response,181,1036277,0.0-13.0-0.17,85203,List1A,black,woman,,,,null,,,,
null,"<img src=""stim_listA/shout4.gif""</stim_listA>",,html-keyboard-response,182,1038280,0.0-13.0-1.17,85203,List1A,black,woman,,,,null,,,,
null,are shouting at each other,,html-keyboard-response,183,1040281,0.0-13.0-2.17,85203,List1A,black,woman,,,,null,,,,
11261,,,survey-text,184,1051544,0.0-13.0-3.17,85203,List1A,black,woman,,,,,"{""Q0"":""dave and ruth are shouting at each other""}","<img src=""stim_listA/shout4.gif""</stim_listA>",are shouting at each other,
null,"<div style=""font-size:60px;"">+</div>",,html-keyboard-response,185,1052045,0.0-13.0-0.18,85203,List1A,black,woman,,,,null,,,,
null,"<img src=""stim_listA/fight3.gif""</stim_listA>",,html-keyboard-response,186,1054047,0.0-13.0-1.18,85203,List1A,black,woman,,,,null,,,,
null,is fighting,,html-keyboard-response,187,1056048,0.0-13.0-2.18,85203,List1A,black,woman,,,,null,,,,
7382,,,survey-text,188,1063431,0.0-13.0-3.18,85203,List1A,black,woman,,,,,"{""Q0"":""dave and ruth is fighting""}","<img src=""stim_listA/fight3.gif""</stim_listA>",is fighting,
null,"<div style=""font-size:60px;"">+</div>",,html-keyboard-response,189,1063932,0.0-13.0-0.19,85203,List1A,black,woman,,,,null,,,,
null,"<img src=""stim_listA/argue5.gif""</stim_listA>",,html-keyboard-response,190,1065935,0.0-13.0-1.19,85203,List1A,black,woman,,,,null,,,,
null,is arguing with,,html-keyboard-response,191,1067936,0.0-13.0-2.19,85203,List1A,black,woman,,,,null,,,,
8180,,,survey-text,192,1076120,0.0-13.0-3.19,85203,List1A,black,woman,,,,,"{""Q0"":""mike is arguing with luke""}","<img src=""stim_listA/argue5.gif""</stim_listA>",is arguing with,
46167,"<img src='img/portrait_matrix_list1.JPG' style='width:900px;height:500px;''></img><p>If you have memorised all the portraits and names and are ready to start, press Continue.</p><p><strong>Please note: Your memory of these faces will be tested 4 times during this experiment.</strong></p>",0,html-button-response,193,1122287,0.0-14.0-0.0,85203,List1A,black,woman,,,,,,,,
1678,"<img src=""portrait/WW2.jpg""style=""width:400px;height:400px;""></img>",3,html-button-response,194,1124967,0.0-14.0-1.0,85203,List1A,black,woman,,TRUE,3,,,,,
null,CORRECT,,html-keyboard-response,195,1126470,0.0-14.0-2.0-0.0,85203,List1A,black,woman,,,,null,,,,
3720,"<img src=""portrait/BM1.jpg""style=""width:400px;height:400px;""></img>",4,html-button-response,196,1130191,0.0-14.0-4.0,85203,List1A,black,woman,,TRUE,4,,,,,
null,CORRECT,,html-keyboard-response,197,1131693,0.0-14.0-5.0-0.0,85203,List1A,black,woman,,,,null,,,,
2216,"<img src=""portrait/WM1.jpg""style=""width:400px;height:400px;""></img>",6,html-button-response,198,1133911,0.0-14.0-7.0,85203,List1A,black,woman,,TRUE,6,,,,,
null,CORRECT,,html-keyboard-response,199,1135413,0.0-14.0-8.0-0.0,85203,List1A,black,woman,,,,null,,,,
3761,"<img src=""portrait/BW1.jpg""style=""width:400px;height:400px;""></img>",0,html-button-response,200,1139175,0.0-14.0-10.0,85203,List1A,black,woman,,TRUE,0,,,,,
null,CORRECT,,html-keyboard-response,201,1140676,0.0-14.0-11.0-0.0,85203,List1A,black,woman,,,,null,,,,
1489,"<img src=""portrait/BM2.jpg""style=""width:400px;height:400px;""></img>",5,html-button-response,202,1142167,0.0-14.0-13.0,85203,List1A,black,woman,,TRUE,5,,,,,
null,CORRECT,,html-keyboard-response,203,1143669,0.0-14.0-14.0-0.0,85203,List1A,black,woman,,,,null,,,,
1656,"<img src=""portrait/BW2.jpg""style=""width:400px;height:400px;""></img>",2,html-button-response,204,1145327,0.0-14.0-16.0,85203,List1A,black,woman,,TRUE,2,,,,,
null,CORRECT,,html-keyboard-response,205,1146829,0.0-14.0-17.0-0.0,85203,List1A,black,woman,,,,null,,,,
2136,"<img src=""portrait/WW1.jpg""style=""width:400px;height:400px;""></img>",1,html-button-response,206,1148967,0.0-14.0-19.0,85203,List1A,black,woman,,TRUE,1,,,,,
null,CORRECT,,html-keyboard-response,207,1150470,0.0-14.0-20.0-0.0,85203,List1A,black,woman,,,,null,,,,
1528,"<img src=""portrait/WM2.jpg""style=""width:400px;height:400px;""></img>",7,html-button-response,208,1152000,0.0-14.0-22.0,85203,List1A,black,woman,,TRUE,7,,,,,
null,CORRECT,,html-keyboard-response,209,1153501,0.0-14.0-23.0-0.0,85203,List1A,black,woman,,,,null,,,,
1328,<p>You got 8 out of 8 right first time. Press Continue.</p>,0,html-button-response,210,1154831,0.0-14.0-25.0,85203,List1A,black,woman,,,,,,,,
null,"<div style=""font-size:60px;"">+</div>",,html-keyboard-response,211,1156334,0.0-15.0-0.0,85203,List1A,black,woman,,,,null,,,,
null,"<img src=""stim_listA/fight7.gif""</stim_listA>",,html-keyboard-response,212,1158336,0.0-15.0-1.0,85203,List1A,black,woman,,,,null,,,,
null,is fighting,,html-keyboard-response,213,1160337,0.0-15.0-2.0,85203,List1A,black,woman,,,,null,,,,
11012,,,survey-text,214,1171351,0.0-15.0-3.0,85203,List1A,black,woman,,,,,"{""Q0"":""ruth is fighting kate""}","<img src=""stim_listA/fight7.gif""</stim_listA>",is fighting,
null,"<div style=""font-size:60px;"">+</div>",,html-keyboard-response,215,1171852,0.0-15.0-0.1,85203,List1A,black,woman,,,,null,,,,
null,"<img src=""stim_listA/meet5.gif""</stim_listA>",,html-keyboard-response,216,1173855,0.0-15.0-1.1,85203,List1A,black,woman,,,,null,,,,
null,is meeting,,html-keyboard-response,217,1175857,0.0-15.0-2.1,85203,List1A,black,woman,,,,null,,,,
5268,,,survey-text,218,1181127,0.0-15.0-3.1,85203,List1A,black,woman,,,,,"{""Q0"":""mike is meeting dave""}","<img src=""stim_listA/meet5.gif""</stim_listA>",is meeting,
null,"<div style=""font-size:60px;"">+</div>",,html-keyboard-response,219,1181627,0.0-15.0-0.2,85203,List1A,black,woman,,,,null,,,,
null,"<img src=""stim_listA/kiss1.gif""</stim_listA>",,html-keyboard-response,220,1183630,0.0-15.0-1.2,85203,List1A,black,woman,,,,null,,,,
null,is kissing,,html-keyboard-response,221,1185632,0.0-15.0-2.2,85203,List1A,black,woman,,,,null,,,,
7006,,,survey-text,222,1192638,0.0-15.0-3.2,85203,List1A,black,woman,,,,,"{""Q0"":""fred is kissing beth""}","<img src=""stim_listA/kiss1.gif""</stim_listA>",is kissing,
null,"<div style=""font-size:60px;"">+</div>",,html-keyboard-response,223,1193139,0.0-15.0-0.3,85203,List1A,black,woman,,,,null,,,,
null,"<img src=""stim_listA/argue3.gif""</stim_listA>",,html-keyboard-response,224,1195142,0.0-15.0-1.3,85203,List1A,black,woman,,,,null,,,,
null,is arguing with,,html-keyboard-response,225,1197143,0.0-15.0-2.3,85203,List1A,black,woman,,,,null,,,,
7516,,,survey-text,226,1204662,0.0-15.0-3.3,85203,List1A,black,woman,,,,,"{""Q0"":""dave is arguing with ruth""}","<img src=""stim_listA/argue3.gif""</stim_listA>",is arguing with,
null,"<div style=""font-size:60px;"">+</div>",,html-keyboard-response,227,1205164,0.0-15.0-0.4,85203,List1A,black,woman,,,,null,,,,
null,"<img src=""stim_listA/hug6.gif""</stim_listA>",,html-keyboard-response,228,1207166,0.0-15.0-1.4,85203,List1A,black,woman,,,,null,,,,
null,are hugging each other,,html-keyboard-response,229,1209167,0.0-15.0-2.4,85203,List1A,black,woman,,,,null,,,,
8078,,,survey-text,230,1217246,0.0-15.0-3.4,85203,List1A,black,woman,,,,,"{""Q0"":""dave and mike are hugging each other""}","<img src=""stim_listA/hug6.gif""</stim_listA>",are hugging each other,
null,"<div style=""font-size:60px;"">+</div>",,html-keyboard-response,231,1217748,0.0-15.0-0.5,85203,List1A,black,woman,,,,null,,,,
null,"<img src=""stim_listA/dance5.gif""</stim_listA>",,html-keyboard-response,232,1219749,0.0-15.0-1.5,85203,List1A,black,woman,,,,null,,,,
null,is dancing with,,html-keyboard-response,233,1221751,0.0-15.0-2.5,85203,List1A,black,woman,,,,null,,,,
7229,,,survey-text,234,1228982,0.0-15.0-3.5,85203,List1A,black,woman,,,,,"{""Q0"":""fred is dancing with dave""}","<img src=""stim_listA/dance5.gif""</stim_listA>",is dancing with,
null,"<div style=""font-size:60px;"">+</div>",,html-keyboard-response,235,1229483,0.0-15.0-0.6,85203,List1A,black,woman,,,,null,,,,
null,"<img src=""stim_listA/shout2.gif""</stim_listA>",,html-keyboard-response,236,1231485,0.0-15.0-1.6,85203,List1A,black,woman,,,,null,,,,
null,are shouting at each other,,html-keyboard-response,237,1233488,0.0-15.0-2.6,85203,List1A,black,woman,,,,null,,,,
10061,,,survey-text,238,1243550,0.0-15.0-3.6,85203,List1A,black,woman,,,,,"{""Q0"":""kate and mike are shouting at each other""}","<img src=""stim_listA/shout2.gif""</stim_listA>",are shouting at each other,
null,"<div style=""font-size:60px;"">+</div>",,html-keyboard-response,239,1244051,0.0-15.0-0.7,85203,List1A,black,woman,,,,null,,,,
null,"<img src=""stim_listA/meet3.gif""</stim_listA>",,html-keyboard-response,240,1246052,0.0-15.0-1.7,85203,List1A,black,woman,,,,null,,,,
null,is meeting,,html-keyboard-response,241,1248054,0.0-15.0-2.7,85203,List1A,black,woman,,,,null,,,,
5047,,,survey-text,242,1253102,0.0-15.0-3.7,85203,List1A,black,woman,,,,,"{""Q0"":""dave is meeting jane""}","<img src=""stim_listA/meet3.gif""</stim_listA>",is meeting,
null,"<div style=""font-size:60px;"">+</div>",,html-keyboard-response,243,1253603,0.0-15.0-0.8,85203,List1A,black,woman,,,,null,,,,
null,"<img src=""stim_listA/argue6.gif""</stim_listA>",,html-keyboard-response,244,1255605,0.0-15.0-1.8,85203,List1A,black,woman,,,,null,,,,
null,are arguing with each other,,html-keyboard-response,245,1257607,0.0-15.0-2.8,85203,List1A,black,woman,,,,null,,,,
17669,,,survey-text,246,1275277,0.0-15.0-3.8,85203,List1A,black,woman,,,,,"{""Q0"":""dave and fred are arguing with each other""}","<img src=""stim_listA/argue6.gif""</stim_listA>",are arguing with each other,
null,"<div style=""font-size:60px;"">+</div>",,html-keyboard-response,247,1275779,0.0-15.0-0.9,85203,List1A,black,woman,,,,null,,,,
null,"<img src=""stim_listA/marry5.gif""</stim_listA>",,html-keyboard-response,248,1277781,0.0-15.0-1.9,85203,List1A,black,woman,,,,null,,,,
null,is marrying,,html-keyboard-response,249,1279782,0.0-15.0-2.9,85203,List1A,black,woman,,,,null,,,,
7150,,,survey-text,250,1286933,0.0-15.0-3.9,85203,List1A,black,woman,,,,,"{""Q0"":""mike is marrying luke""}","<img src=""stim_listA/marry5.gif""</stim_listA>",is marrying,
null,"<div style=""font-size:60px;"">+</div>",,html-keyboard-response,251,1287435,0.0-15.0-0.10,85203,List1A,black,woman,,,,null,,,,
null,"<img src=""stim_listA/talk5.gif""</stim_listA>",,html-keyboard-response,252,1289437,0.0-15.0-1.10,85203,List1A,black,woman,,,,null,,,,
null,is talking to,,html-keyboard-response,253,1291438,0.0-15.0-2.10,85203,List1A,black,woman,,,,null,,,,
7542,,,survey-text,254,1298981,0.0-15.0-3.10,85203,List1A,black,woman,,,,,"{""Q0"":""dave is talking to fred""}","<img src=""stim_listA/talk5.gif""</stim_listA>",is talking to,
null,"<div style=""font-size:60px;"">+</div>",,html-keyboard-response,255,1299483,0.0-15.0-0.11,85203,List1A,black,woman,,,,null,,,,
null,"<img src=""stim_listA/marry2.gif""</stim_listA>",,html-keyboard-response,256,1301485,0.0-15.0-1.11,85203,List1A,black,woman,,,,null,,,,
null,are marrying each other,,html-keyboard-response,257,1303487,0.0-15.0-2.11,85203,List1A,black,woman,,,,null,,,,
9485,,,survey-text,258,1312973,0.0-15.0-3.11,85203,List1A,black,woman,,,,,"{""Q0"":""kate and fred are marrying each other""}","<img src=""stim_listA/marry2.gif""</stim_listA>",are marrying each other,
null,"<div style=""font-size:60px;"">+</div>",,html-keyboard-response,259,1313474,0.0-15.0-0.12,85203,List1A,black,woman,,,,null,,,,
null,"<img src=""stim_listA/kiss2.gif""</stim_listA>",,html-keyboard-response,260,1315476,0.0-15.0-1.12,85203,List1A,black,woman,,,,null,,,,
null,are kissing each other,,html-keyboard-response,261,1317477,0.0-15.0-2.12,85203,List1A,black,woman,,,,null,,,,
8167,,,survey-text,262,1325644,0.0-15.0-3.12,85203,List1A,black,woman,,,,,"{""Q0"":""kate and mike are kissing each other""}","<img src=""stim_listA/kiss2.gif""</stim_listA>",are kissing each other,
null,"<div style=""font-size:60px;"">+</div>",,html-keyboard-response,263,1326145,0.0-15.0-0.13,85203,List1A,black,woman,,,,null,,,,
null,"<img src=""stim_listA/talk3.gif""</stim_listA>",,html-keyboard-response,264,1328148,0.0-15.0-1.13,85203,List1A,black,woman,,,,null,,,,
null,is talking to,,html-keyboard-response,265,1330150,0.0-15.0-2.13,85203,List1A,black,woman,,,,null,,,,
6630,,,survey-text,266,1336780,0.0-15.0-3.13,85203,List1A,black,woman,,,,,"{""Q0"":""jane is talking to luke""}","<img src=""stim_listA/talk3.gif""</stim_listA>",is talking to,
null,"<div style=""font-size:60px;"">+</div>",,html-keyboard-response,267,1337282,0.0-15.0-0.14,85203,List1A,black,woman,,,,null,,,,
null,"<img src=""stim_listA/talk7.gif""</stim_listA>",,html-keyboard-response,268,1339284,0.0-15.0-1.14,85203,List1A,black,woman,,,,null,,,,
null,is talking to,,html-keyboard-response,269,1341287,0.0-15.0-2.14,85203,List1A,black,woman,,,,null,,,,
6308,,,survey-text,270,1347596,0.0-15.0-3.14,85203,List1A,black,woman,,,,,"{""Q0"":""beth is talking to jane""}","<img src=""stim_listA/talk7.gif""</stim_listA>",is talking to,
null,"<div style=""font-size:60px;"">+</div>",,html-keyboard-response,271,1348097,0.0-15.0-0.15,85203,List1A,black,woman,,,,null,,,,
null,"<img src=""stim_listA/meet8.gif""</stim_listA>",,html-keyboard-response,272,1350100,0.0-15.0-1.15,85203,List1A,black,woman,,,,null,,,,
null,are meeting each other,,html-keyboard-response,273,1352102,0.0-15.0-2.15,85203,List1A,black,woman,,,,null,,,,
8453,,,survey-text,274,1360556,0.0-15.0-3.15,85203,List1A,black,woman,,,,,"{""Q0"":""ruth and beth are meeting each other""}","<img src=""stim_listA/meet8.gif""</stim_listA>",are meeting each other,
null,"<div style=""font-size:60px;"">+</div>",,html-keyboard-response,275,1361057,0.0-15.0-0.16,85203,List1A,black,woman,,,,null,,,,
null,"<img src=""stim_listA/shout1.gif""</stim_listA>",,html-keyboard-response,276,1363059,0.0-15.0-1.16,85203,List1A,black,woman,,,,null,,,,
null,is shouting at,,html-keyboard-response,277,1365060,0.0-15.0-2.16,85203,List1A,black,woman,,,,null,,,,
9671,,,survey-text,278,1374732,0.0-15.0-3.16,85203,List1A,black,woman,,,,,"{""Q0"":""fred is shouting at beth""}","<img src=""stim_listA/shout1.gif""</stim_listA>",is shouting at,
null,"<div style=""font-size:60px;"">+</div>",,html-keyboard-response,279,1375234,0.0-15.0-0.17,85203,List1A,black,woman,,,,null,,,,
null,"<img src=""stim_listA/kiss3.gif""</stim_listA>",,html-keyboard-response,280,1377236,0.0-15.0-1.17,85203,List1A,black,woman,,,,null,,,,
null,is kissing,,html-keyboard-response,281,1379237,0.0-15.0-2.17,85203,List1A,black,woman,,,,null,,,,
8702,,,survey-text,282,1387940,0.0-15.0-3.17,85203,List1A,black,woman,,,,,"{""Q0"":""luke is kissing ruth""}","<img src=""stim_listA/kiss3.gif""</stim_listA>",is kissing,
null,"<div style=""font-size:60px;"">+</div>",,html-keyboard-response,283,1388441,0.0-15.0-0.18,85203,List1A,black,woman,,,,null,,,,
null,"<img src=""stim_listA/touch4.gif""</stim_listA>",,html-keyboard-response,284,1390443,0.0-15.0-1.18,85203,List1A,black,woman,,,,null,,,,
null,are touching each other,,html-keyboard-response,285,1392445,0.0-15.0-2.18,85203,List1A,black,woman,,,,null,,,,
9574,,,survey-text,286,1402020,0.0-15.0-3.18,85203,List1A,black,woman,,,,,"{""Q0"":""ruth and luke are touching each other""}","<img src=""stim_listA/touch4.gif""</stim_listA>",are touching each other,
null,"<div style=""font-size:60px;"">+</div>",,html-keyboard-response,287,1402521,0.0-15.0-0.19,85203,List1A,black,woman,,,,null,,,,
null,"<img src=""stim_listA/touch1.gif""</stim_listA>",,html-keyboard-response,288,1404523,0.0-15.0-1.19,85203,List1A,black,woman,,,,null,,,,
null,is touching,,html-keyboard-response,289,1406524,0.0-15.0-2.19,85203,List1A,black,woman,,,,null,,,,
9958,,,survey-text,290,1416484,0.0-15.0-3.19,85203,List1A,black,woman,,,,,"{""Q0"":""mike is touching kate""}","<img src=""stim_listA/touch1.gif""</stim_listA>",is touching,
17566,"<img src='img/portrait_matrix_list1.JPG' style='width:900px;height:500px;''></img><p>If you have memorised all the portraits and names and are ready to start, press Continue.</p><p><strong>Please note: Your memory of these faces will be tested 4 times during this experiment.</strong></p>",0,html-button-response,291,1434051,0.0-16.0-0.0,85203,List1A,black,woman,,,,,,,,
2356,"<img src=""portrait/BM1.jpg""style=""width:400px;height:400px;""></img>",4,html-button-response,292,1437411,0.0-16.0-1.0,85203,List1A,black,woman,,TRUE,4,,,,,
null,CORRECT,,html-keyboard-response,293,1438913,0.0-16.0-2.0-0.0,85203,List1A,black,woman,,,,null,,,,
1296,"<img src=""portrait/WM2.jpg""style=""width:400px;height:400px;""></img>",7,html-button-response,294,1440211,0.0-16.0-4.0,85203,List1A,black,woman,,TRUE,7,,,,,
null,CORRECT,,html-keyboard-response,295,1441713,0.0-16.0-5.0-0.0,85203,List1A,black,woman,,,,null,,,,
1375,"<img src=""portrait/BM2.jpg""style=""width:400px;height:400px;""></img>",5,html-button-response,296,1443091,0.0-16.0-7.0,85203,List1A,black,woman,,TRUE,5,,,,,
null,CORRECT,,html-keyboard-response,297,1444592,0.0-16.0-8.0-0.0,85203,List1A,black,woman,,,,null,,,,
3800,"<img src=""portrait/WW2.jpg""style=""width:400px;height:400px;""></img>",3,html-button-response,298,1448395,0.0-16.0-10.0,85203,List1A,black,woman,,TRUE,3,,,,,
null,CORRECT,,html-keyboard-response,299,1449898,0.0-16.0-11.0-0.0,85203,List1A,black,woman,,,,null,,,,
2167,"<img src=""portrait/BW1.jpg""style=""width:400px;height:400px;""></img>",0,html-button-response,300,1452067,0.0-16.0-13.0,85203,List1A,black,woman,,TRUE,0,,,,,
null,CORRECT,,html-keyboard-response,301,1453569,0.0-16.0-14.0-0.0,85203,List1A,black,woman,,,,null,,,,
2040,"<img src=""portrait/WM1.jpg""style=""width:400px;height:400px;""></img>",6,html-button-response,302,1455611,0.0-16.0-16.0,85203,List1A,black,woman,,TRUE,6,,,,,
null,CORRECT,,html-keyboard-response,303,1457114,0.0-16.0-17.0-0.0,85203,List1A,black,woman,,,,null,,,,
2735,"<img src=""portrait/WW1.jpg""style=""width:400px;height:400px;""></img>",1,html-button-response,304,1459851,0.0-16.0-19.0,85203,List1A,black,woman,,TRUE,1,,,,,
null,CORRECT,,html-keyboard-response,305,1461353,0.0-16.0-20.0-0.0,85203,List1A,black,woman,,,,null,,,,
1608,"<img src=""portrait/BW2.jpg""style=""width:400px;height:400px;""></img>",2,html-button-response,306,1462963,0.0-16.0-22.0,85203,List1A,black,woman,,TRUE,2,,,,,
null,CORRECT,,html-keyboard-response,307,1464465,0.0-16.0-23.0-0.0,85203,List1A,black,woman,,,,null,,,,
1224,<p>You got 8 out of 8 right first time. Press Continue.</p>,0,html-button-response,308,1465690,0.0-16.0-25.0,85203,List1A,black,woman,,,,,,,,
null,"<div style=""font-size:60px;"">+</div>",,html-keyboard-response,309,1467194,0.0-17.0-0.0,85203,List1A,black,woman,,,,null,,,,
null,"<img src=""stim_listA/shout5.gif""</stim_listA>",,html-keyboard-response,310,1469196,0.0-17.0-1.0,85203,List1A,black,woman,,,,null,,,,
null,is shouting at,,html-keyboard-response,311,1471197,0.0-17.0-2.0,85203,List1A,black,woman,,,,null,,,,
6884,,,survey-text,312,1478082,0.0-17.0-3.0,85203,List1A,black,woman,,,,,"{""Q0"":""fred is shouting at luke""}","<img src=""stim_listA/shout5.gif""</stim_listA>",is shouting at,
null,"<div style=""font-size:60px;"">+</div>",,html-keyboard-response,313,1478584,0.0-17.0-0.1,85203,List1A,black,woman,,,,null,,,,
null,"<img src=""stim_listA/dance6.gif""</stim_listA>",,html-keyboard-response,314,1480587,0.0-17.0-1.1,85203,List1A,black,woman,,,,null,,,,
null,are dancing with each other,,html-keyboard-response,315,1482588,0.0-17.0-2.1,85203,List1A,black,woman,,,,null,,,,
10949,,,survey-text,316,1493538,0.0-17.0-3.1,85203,List1A,black,woman,,,,,"{""Q0"":""mike and luke are dancing with each other""}","<img src=""stim_listA/dance6.gif""</stim_listA>",are dancing with each other,
null,"<div style=""font-size:60px;"">+</div>",,html-keyboard-response,317,1494040,0.0-17.0-0.2,85203,List1A,black,woman,,,,null,,,,
null,"<img src=""stim_listA/dance4.gif""</stim_listA>",,html-keyboard-response,318,1496042,0.0-17.0-1.2,85203,List1A,black,woman,,,,null,,,,
null,are dancing with each other,,html-keyboard-response,319,1498044,0.0-17.0-2.2,85203,List1A,black,woman,,,,null,,,,
9038,,,survey-text,320,1507082,0.0-17.0-3.2,85203,List1A,black,woman,,,,,"{""Q0"":""ruth and dave are dancing with each other""}","<img src=""stim_listA/dance4.gif""</stim_listA>",are dancing with each other,
null,"<div style=""font-size:60px;"">+</div>",,html-keyboard-response,321,1507584,0.0-17.0-0.3,85203,List1A,black,woman,,,,null,,,,
null,"<img src=""stim_listA/argue7.gif""</stim_listA>",,html-keyboard-response,322,1509586,0.0-17.0-1.3,85203,List1A,black,woman,,,,null,,,,
null,is arguing with,,html-keyboard-response,323,1511588,0.0-17.0-2.3,85203,List1A,black,woman,,,,null,,,,
9589,,,survey-text,324,1521178,0.0-17.0-3.3,85203,List1A,black,woman,,,,,"{""Q0"":""kate is arguing with ruth""}","<img src=""stim_listA/argue7.gif""</stim_listA>",is arguing with,
null,"<div style=""font-size:60px;"">+</div>",,html-keyboard-response,325,1521679,0.0-17.0-0.4,85203,List1A,black,woman,,,,null,,,,
null,"<img src=""stim_listA/touch3.gif""</stim_listA>",,html-keyboard-response,326,1523681,0.0-17.0-1.4,85203,List1A,black,woman,,,,null,,,,
null,is touching,,html-keyboard-response,327,1525683,0.0-17.0-2.4,85203,List1A,black,woman,,,,null,,,,
5638,,,survey-text,328,1531322,0.0-17.0-3.4,85203,List1A,black,woman,,,,,"{""Q0"":""dave is touching jane""}","<img src=""stim_listA/touch3.gif""</stim_listA>",is touching,
null,"<div style=""font-size:60px;"">+</div>",,html-keyboard-response,329,1531823,0.0-17.0-0.5,85203,List1A,black,woman,,,,null,,,,
null,"<img src=""stim_listA/kiss7.gif""</stim_listA>",,html-keyboard-response,330,1533826,0.0-17.0-1.5,85203,List1A,black,woman,,,,null,,,,
null,is kissing,,html-keyboard-response,331,1535827,0.0-17.0-2.5,85203,List1A,black,woman,,,,null,,,,
34533,,,survey-text,332,1570361,0.0-17.0-3.5,85203,List1A,black,woman,,,,,"{""Q0"":""beth is kissing ruth""}","<img src=""stim_listA/kiss7.gif""</stim_listA>",is kissing,
null,"<div style=""font-size:60px;"">+</div>",,html-keyboard-response,333,1570862,0.0-17.0-0.6,85203,List1A,black,woman,,,,null,,,,
null,"<img src=""stim_listA/hug1.gif""</stim_listA>",,html-keyboard-response,334,1572866,0.0-17.0-1.6,85203,List1A,black,woman,,,,null,,,,
null,is hugging,,html-keyboard-response,335,1574869,0.0-17.0-2.6,85203,List1A,black,woman,,,,null,,,,
8099,,,survey-text,336,1582969,0.0-17.0-3.6,85203,List1A,black,woman,,,,,"{""Q0"":""fred is hugging beth""}","<img src=""stim_listA/hug1.gif""</stim_listA>",is hugging,
null,"<div style=""font-size:60px;"">+</div>",,html-keyboard-response,337,1583471,0.0-17.0-0.7,85203,List1A,black,woman,,,,null,,,,
null,"<img src=""stim_listA/talk2.gif""</stim_listA>",,html-keyboard-response,338,1585473,0.0-17.0-1.7,85203,List1A,black,woman,,,,null,,,,
null,are talking to each other,,html-keyboard-response,339,1587474,0.0-17.0-2.7,85203,List1A,black,woman,,,,null,,,,
9310,,,survey-text,340,1596785,0.0-17.0-3.7,85203,List1A,black,woman,,,,,"{""Q0"":""beth and mike are talking to each other""}","<img src=""stim_listA/talk2.gif""</stim_listA>",are talking to each other,
null,"<div style=""font-size:60px;"">+</div>",,html-keyboard-response,341,1597286,0.0-17.0-0.8,85203,List1A,black,woman,,,,null,,,,
null,"<img src=""stim_listA/touch5.gif""</stim_listA>",,html-keyboard-response,342,1599290,0.0-17.0-1.8,85203,List1A,black,woman,,,,null,,,,
null,is touching,,html-keyboard-response,343,1601291,0.0-17.0-2.8,85203,List1A,black,woman,,,,null,,,,
7101,,,survey-text,344,1608393,0.0-17.0-3.8,85203,List1A,black,woman,,,,,"{""Q0"":""dave is touching mike""}","<img src=""stim_listA/touch5.gif""</stim_listA>",is touching,
null,"<div style=""font-size:60px;"">+</div>",,html-keyboard-response,345,1608895,0.0-17.0-0.9,85203,List1A,black,woman,,,,null,,,,
null,"<img src=""stim_listA/marry8.gif""</stim_listA>",,html-keyboard-response,346,1610897,0.0-17.0-1.9,85203,List1A,black,woman,,,,null,,,,
null,are marrying each other,,html-keyboard-response,347,1612898,0.0-17.0-2.9,85203,List1A,black,woman,,,,null,,,,
11574,,,survey-text,348,1624473,0.0-17.0-3.9,85203,List1A,black,woman,,,,,"{""Q0"":""jane and kate are marrying each other""}","<img src=""stim_listA/marry8.gif""</stim_listA>",are marrying each other,
null,"<div style=""font-size:60px;"">+</div>",,html-keyboard-response,349,1624974,0.0-17.0-0.10,85203,List1A,black,woman,,,,null,,,,
null,"<img src=""stim_listA/fight1.gif""</stim_listA>",,html-keyboard-response,350,1626977,0.0-17.0-1.10,85203,List1A,black,woman,,,,null,,,,
null,is fighting,,html-keyboard-response,351,1628978,0.0-17.0-2.10,85203,List1A,black,woman,,,,null,,,,
6638,,,survey-text,352,1635617,0.0-17.0-3.10,85203,List1A,black,woman,,,,,"{""Q0"":""kate is fighting mike""}","<img src=""stim_listA/fight1.gif""</stim_listA>",is fighting,
null,"<div style=""font-size:60px;"">+</div>",,html-keyboard-response,353,1636119,0.0-17.0-0.11,85203,List1A,black,woman,,,,null,,,,
null,"<img src=""stim_listA/hug5.gif""</stim_listA>",,html-keyboard-response,354,1638121,0.0-17.0-1.11,85203,List1A,black,woman,,,,null,,,,
null,is hugging,,html-keyboard-response,355,1640122,0.0-17.0-2.11,85203,List1A,black,woman,,,,null,,,,
6982,,,survey-text,356,1647105,0.0-17.0-3.11,85203,List1A,black,woman,,,,,"{""Q0"":""fred is hugging luke""}","<img src=""stim_listA/hug5.gif""</stim_listA>",is hugging,
null,"<div style=""font-size:60px;"">+</div>",,html-keyboard-response,357,1647606,0.0-17.0-0.12,85203,List1A,black,woman,,,,null,,,,
null,"<img src=""stim_listA/argue8.gif""</stim_listA>",,html-keyboard-response,358,1649609,0.0-17.0-1.12,85203,List1A,black,woman,,,,null,,,,
null,are arguing with each other,,html-keyboard-response,359,1651610,0.0-17.0-2.12,85203,List1A,black,woman,,,,null,,,,
11238,,,survey-text,360,1662849,0.0-17.0-3.12,85203,List1A,black,woman,,,,,"{""Q0"":""jane and beth are talking to each other""}","<img src=""stim_listA/argue8.gif""</stim_listA>",are arguing with each other,
null,"<div style=""font-size:60px;"">+</div>",,html-keyboard-response,361,1663351,0.0-17.0-0.13,85203,List1A,black,woman,,,,null,,,,
null,"<img src=""stim_listA/shout8.gif""</stim_listA>",,html-keyboard-response,362,1665353,0.0-17.0-1.13,85203,List1A,black,woman,,,,null,,,,
null,are shouting at each other,,html-keyboard-response,363,1667355,0.0-17.0-2.13,85203,List1A,black,woman,,,,null,,,,
11293,,,survey-text,364,1678649,0.0-17.0-3.13,85203,List1A,black,woman,,,,,"{""Q0"":""kate and jane are shouting at each other""}","<img src=""stim_listA/shout8.gif""</stim_listA>",are shouting at each other,
null,"<div style=""font-size:60px;"">+</div>",,html-keyboard-response,365,1679150,0.0-17.0-0.14,85203,List1A,black,woman,,,,null,,,,
null,"<img src=""stim_listA/argue2.gif""</stim_listA>",,html-keyboard-response,366,1681152,0.0-17.0-1.14,85203,List1A,black,woman,,,,null,,,,
null,are arguing with each other,,html-keyboard-response,367,1683154,0.0-17.0-2.14,85203,List1A,black,woman,,,,null,,,,
17197,,,survey-text,368,1700352,0.0-17.0-3.14,85203,List1A,black,woman,,,,,"{""Q0"":""fred and kate are arguing with each other""}","<img src=""stim_listA/argue2.gif""</stim_listA>",are arguing with each other,
null,"<div style=""font-size:60px;"">+</div>",,html-keyboard-response,369,1700853,0.0-17.0-0.15,85203,List1A,black,woman,,,,null,,,,
null,"<img src=""stim_listA/fight6.gif""</stim_listA>",,html-keyboard-response,370,1702855,0.0-17.0-1.15,85203,List1A,black,woman,,,,null,,,,
null,are fighting each other,,html-keyboard-response,371,1704858,0.0-17.0-2.15,85203,List1A,black,woman,,,,null,,,,
9948,,,survey-text,372,1714808,0.0-17.0-3.15,85203,List1A,black,woman,,,,,"{""Q0"":""luke and fred are fighting each other""}","<img src=""stim_listA/fight6.gif""</stim_listA>",are fighting each other,
null,"<div style=""font-size:60px;"">+</div>",,html-keyboard-response,373,1715309,0.0-17.0-0.16,85203,List1A,black,woman,,,,null,,,,
null,"<img src=""stim_listA/hug2.gif""</stim_listA>",,html-keyboard-response,374,1717311,0.0-17.0-1.16,85203,List1A,black,woman,,,,null,,,,
null,are hugging each other,,html-keyboard-response,375,1719312,0.0-17.0-2.16,85203,List1A,black,woman,,,,null,,,,
9478,,,survey-text,376,1728792,0.0-17.0-3.16,85203,List1A,black,woman,,,,,"{""Q0"":""kate and mike are hugging each other""}","<img src=""stim_listA/hug2.gif""</stim_listA>",are hugging each other,
null,"<div style=""font-size:60px;"">+</div>",,html-keyboard-response,377,1729293,0.0-17.0-0.17,85203,List1A,black,woman,,,,null,,,,
null,"<img src=""stim_listA/marry3.gif""</stim_listA>",,html-keyboard-response,378,1731296,0.0-17.0-1.17,85203,List1A,black,woman,,,,null,,,,
null,is marrying,,html-keyboard-response,379,1733297,0.0-17.0-2.17,85203,List1A,black,woman,,,,null,,,,
9309,,,survey-text,380,1742607,0.0-17.0-3.17,85203,List1A,black,woman,,,,,"{""Q0"":""ruth is marrying dave""}","<img src=""stim_listA/marry3.gif""</stim_listA>",is marrying,
null,"<div style=""font-size:60px;"">+</div>",,html-keyboard-response,381,1743109,0.0-17.0-0.18,85203,List1A,black,woman,,,,null,,,,
null,"<img src=""stim_listA/shout3.gif""</stim_listA>",,html-keyboard-response,382,1745112,0.0-17.0-1.18,85203,List1A,black,woman,,,,null,,,,
null,is shouting at,,html-keyboard-response,383,1747113,0.0-17.0-2.18,85203,List1A,black,woman,,,,null,,,,
7950,,,survey-text,384,1755064,0.0-17.0-3.18,85203,List1A,black,woman,,,,,"{""Q0"":""ruth is shouting at luke""}","<img src=""stim_listA/shout3.gif""</stim_listA>",is shouting at,
null,"<div style=""font-size:60px;"">+</div>",,html-keyboard-response,385,1755565,0.0-17.0-0.19,85203,List1A,black,woman,,,,null,,,,
null,"<img src=""stim_listA/kiss5.gif""</stim_listA>",,html-keyboard-response,386,1757567,0.0-17.0-1.19,85203,List1A,black,woman,,,,null,,,,
null,is kissing,,html-keyboard-response,387,1759568,0.0-17.0-2.19,85203,List1A,black,woman,,,,null,,,,
6414,,,survey-text,388,1765984,0.0-17.0-3.19,85203,List1A,black,woman,,,,,"{""Q0"":""fred is kissing luke""}","<img src=""stim_listA/kiss5.gif""</stim_listA>",is kissing,
10743,"<img src='img/portrait_matrix_list1.JPG' style='width:900px;height:500px;''></img><p>If you have memorised all the portraits and names and are ready to start, press Continue.</p><p><strong>Please note: Your memory of these faces will be tested 4 times during this experiment.</strong></p>",0,html-button-response,389,1776727,0.0-18.0-0.0,85203,List1A,black,woman,,,,,,,,
2830,"<img src=""portrait/BW1.jpg""style=""width:400px;height:400px;""></img>",0,html-button-response,390,1780560,0.0-18.0-1.0,85203,List1A,black,woman,,TRUE,0,,,,,
null,CORRECT,,html-keyboard-response,391,1782062,0.0-18.0-2.0-0.0,85203,List1A,black,woman,,,,null,,,,
2464,"<img src=""portrait/WW1.jpg""style=""width:400px;height:400px;""></img>",1,html-button-response,392,1784528,0.0-18.0-4.0,85203,List1A,black,woman,,TRUE,1,,,,,
null,CORRECT,,html-keyboard-response,393,1786030,0.0-18.0-5.0-0.0,85203,List1A,black,woman,,,,null,,,,
1680,"<img src=""portrait/WM2.jpg""style=""width:400px;height:400px;""></img>",7,html-button-response,394,1787712,0.0-18.0-7.0,85203,List1A,black,woman,,TRUE,7,,,,,
null,CORRECT,,html-keyboard-response,395,1789214,0.0-18.0-8.0-0.0,85203,List1A,black,woman,,,,null,,,,
2255,"<img src=""portrait/WM1.jpg""style=""width:400px;height:400px;""></img>",6,html-button-response,396,1791472,0.0-18.0-10.0,85203,List1A,black,woman,,TRUE,6,,,,,
null,CORRECT,,html-keyboard-response,397,1792974,0.0-18.0-11.0-0.0,85203,List1A,black,woman,,,,null,,,,
1504,"<img src=""portrait/BM1.jpg""style=""width:400px;height:400px;""></img>",4,html-button-response,398,1794479,0.0-18.0-13.0,85203,List1A,black,woman,,TRUE,4,,,,,
null,CORRECT,,html-keyboard-response,399,1795981,0.0-18.0-14.0-0.0,85203,List1A,black,woman,,,,null,,,,
2696,"<img src=""portrait/WW2.jpg""style=""width:400px;height:400px;""></img>",3,html-button-response,400,1798679,0.0-18.0-16.0,85203,List1A,black,woman,,TRUE,3,,,,,
null,CORRECT,,html-keyboard-response,401,1800182,0.0-18.0-17.0-0.0,85203,List1A,black,woman,,,,null,,,,
1408,"<img src=""portrait/BM2.jpg""style=""width:400px;height:400px;""></img>",5,html-button-response,402,1801591,0.0-18.0-19.0,85203,List1A,black,woman,,TRUE,5,,,,,
null,CORRECT,,html-keyboard-response,403,1803093,0.0-18.0-20.0-0.0,85203,List1A,black,woman,,,,null,,,,
1849,"<img src=""portrait/BW2.jpg""style=""width:400px;height:400px;""></img>",2,html-button-response,404,1804943,0.0-18.0-22.0,85203,List1A,black,woman,,TRUE,2,,,,,
null,CORRECT,,html-keyboard-response,405,1806446,0.0-18.0-23.0-0.0,85203,List1A,black,woman,,,,null,,,,
1584,<p>You got 8 out of 8 right first time. Press Continue.</p>,0,html-button-response,406,1808031,0.0-18.0-25.0,85203,List1A,black,woman,,,,,,,,
null,"<div style=""font-size:60px;"">+</div>",,html-keyboard-response,407,1809536,0.0-19.0-0.0,85203,List1A,black,woman,,,,null,,,,
null,"<img src=""stim_listA/dance7.gif""</stim_listA>",,html-keyboard-response,408,1811537,0.0-19.0-1.0,85203,List1A,black,woman,,,,null,,,,
null,is dancing with,,html-keyboard-response,409,1813540,0.0-19.0-2.0,85203,List1A,black,woman,,,,null,,,,
9161,,,survey-text,410,1822702,0.0-19.0-3.0,85203,List1A,black,woman,,,,,"{""Q0"":""beth is dancing with jane""}","<img src=""stim_listA/dance7.gif""</stim_listA>",is dancing with,
null,"<div style=""font-size:60px;"">+</div>",,html-keyboard-response,411,1823204,0.0-19.0-0.1,85203,List1A,black,woman,,,,null,,,,
null,"<img src=""stim_listA/touch7.gif""</stim_listA>",,html-keyboard-response,412,1825207,0.0-19.0-1.1,85203,List1A,black,woman,,,,null,,,,
null,is touching,,html-keyboard-response,413,1827209,0.0-19.0-2.1,85203,List1A,black,woman,,,,null,,,,
8509,,,survey-text,414,1835718,0.0-19.0-3.1,85203,List1A,black,woman,,,,,"{""Q0"":""jane is touching kate""}","<img src=""stim_listA/touch7.gif""</stim_listA>",is touching,
null,"<div style=""font-size:60px;"">+</div>",,html-keyboard-response,415,1836221,0.0-19.0-0.2,85203,List1A,black,woman,,,,null,,,,
null,"<img src=""stim_listA/talk1.gif""</stim_listA>",,html-keyboard-response,416,1838223,0.0-19.0-1.2,85203,List1A,black,woman,,,,null,,,,
null,is talking to,,html-keyboard-response,417,1840224,0.0-19.0-2.2,85203,List1A,black,woman,,,,null,,,,
7117,,,survey-text,418,1847342,0.0-19.0-3.2,85203,List1A,black,woman,,,,,"{""Q0"":""fred is talking to kate""}","<img src=""stim_listA/talk1.gif""</stim_listA>",is talking to,
null,"<div style=""font-size:60px;"">+</div>",,html-keyboard-response,419,1847844,0.0-19.0-0.3,85203,List1A,black,woman,,,,null,,,,
null,"<img src=""stim_listA/kiss4.gif""</stim_listA>",,html-keyboard-response,420,1849847,0.0-19.0-1.3,85203,List1A,black,woman,,,,null,,,,
null,are kissing each other,,html-keyboard-response,421,1851848,0.0-19.0-2.3,85203,List1A,black,woman,,,,null,,,,
8870,,,survey-text,422,1860718,0.0-19.0-3.3,85203,List1A,black,woman,,,,,"{""Q0"":""jane and dave are kissing each other""}","<img src=""stim_listA/kiss4.gif""</stim_listA>",are kissing each other,
null,"<div style=""font-size:60px;"">+</div>",,html-keyboard-response,423,1861219,0.0-19.0-0.4,85203,List1A,black,woman,,,,null,,,,
null,"<img src=""stim_listA/marry4.gif""</stim_listA>",,html-keyboard-response,424,1863221,0.0-19.0-1.4,85203,List1A,black,woman,,,,null,,,,
null,are marrying each other,,html-keyboard-response,425,1865222,0.0-19.0-2.4,85203,List1A,black,woman,,,,null,,,,
10599,,,survey-text,426,1875822,0.0-19.0-3.4,85203,List1A,black,woman,,,,,"{""Q0"":""jane and luke are marrying each other""}","<img src=""stim_listA/marry4.gif""</stim_listA>",are marrying each other,
null,"<div style=""font-size:60px;"">+</div>",,html-keyboard-response,427,1876323,0.0-19.0-0.5,85203,List1A,black,woman,,,,null,,,,
null,"<img src=""stim_listA/dance3.gif""</stim_listA>",,html-keyboard-response,428,1878326,0.0-19.0-1.5,85203,List1A,black,woman,,,,null,,,,
null,is dancing with,,html-keyboard-response,429,1880328,0.0-19.0-2.5,85203,List1A,black,woman,,,,null,,,,
6813,,,survey-text,430,1887142,0.0-19.0-3.5,85203,List1A,black,woman,,,,,"{""Q0"":""luke is dancing with jane""}","<img src=""stim_listA/dance3.gif""</stim_listA>",is dancing with,
null,"<div style=""font-size:60px;"">+</div>",,html-keyboard-response,431,1887643,0.0-19.0-0.6,85203,List1A,black,woman,,,,null,,,,
null,"<img src=""stim_listA/hug3.gif""</stim_listA>",,html-keyboard-response,432,1889646,0.0-19.0-1.6,85203,List1A,black,woman,,,,null,,,,
null,is hugging,,html-keyboard-response,433,1891648,0.0-19.0-2.6,85203,List1A,black,woman,,,,null,,,,
5916,,,survey-text,434,1897566,0.0-19.0-3.6,85203,List1A,black,woman,,,,,"{""Q0"":""ruth is hugging luke""}","<img src=""stim_listA/hug3.gif""</stim_listA>",is hugging,
null,"<div style=""font-size:60px;"">+</div>",,html-keyboard-response,435,1898067,0.0-19.0-0.7,85203,List1A,black,woman,,,,null,,,,
null,"<img src=""stim_listA/touch2.gif""</stim_listA>",,html-keyboard-response,436,1900069,0.0-19.0-1.7,85203,List1A,black,woman,,,,null,,,,
null,are touching each other,,html-keyboard-response,437,1902071,0.0-19.0-2.7,85203,List1A,black,woman,,,,null,,,,
8206,,,survey-text,438,1910278,0.0-19.0-3.7,85203,List1A,black,woman,,,,,"{""Q0"":""fre and beth are touvhing each other""}","<img src=""stim_listA/touch2.gif""</stim_listA>",are touching each other,
null,"<div style=""font-size:60px;"">+</div>",,html-keyboard-response,439,1910780,0.0-19.0-0.8,85203,List1A,black,woman,,,,null,,,,
null,"<img src=""stim_listA/argue1.gif""</stim_listA>",,html-keyboard-response,440,1912782,0.0-19.0-1.8,85203,List1A,black,woman,,,,null,,,,
null,is arguing with,,html-keyboard-response,441,1914785,0.0-19.0-2.8,85203,List1A,black,woman,,,,null,,,,
7355,,,survey-text,442,1922141,0.0-19.0-3.8,85203,List1A,black,woman,,,,,"{""Q0"":""mike is arguing with beth""}","<img src=""stim_listA/argue1.gif""</stim_listA>",is arguing with,
null,"<div style=""font-size:60px;"">+</div>",,html-keyboard-response,443,1922643,0.0-19.0-0.9,85203,List1A,black,woman,,,,null,,,,
null,"<img src=""stim_listA/argue4.gif""</stim_listA>",,html-keyboard-response,444,1924645,0.0-19.0-1.9,85203,List1A,black,woman,,,,null,,,,
null,are arguing with each other,,html-keyboard-response,445,1926647,0.0-19.0-2.9,85203,List1A,black,woman,,,,null,,,,
9469,,,survey-text,446,1936118,0.0-19.0-3.9,85203,List1A,black,woman,,,,,"{""Q0"":""jane and luke are arguing with each other""}","<img src=""stim_listA/argue4.gif""</stim_listA>",are arguing with each other,
null,"<div style=""font-size:60px;"">+</div>",,html-keyboard-response,447,1936619,0.0-19.0-0.10,85203,List1A,black,woman,,,,null,,,,
null,"<img src=""stim_listA/touch6.gif""</stim_listA>",,html-keyboard-response,448,1938621,0.0-19.0-1.10,85203,List1A,black,woman,,,,null,,,,
null,are touching each other,,html-keyboard-response,449,1940623,0.0-19.0-2.10,85203,List1A,black,woman,,,,null,,,,
8909,,,survey-text,450,1949533,0.0-19.0-3.10,85203,List1A,black,woman,,,,,"{""Q0"":""fred and luke are touching each other""}","<img src=""stim_listA/touch6.gif""</stim_listA>",are touching each other,
null,"<div style=""font-size:60px;"">+</div>",,html-keyboard-response,451,1950034,0.0-19.0-0.11,85203,List1A,black,woman,,,,null,,,,
null,"<img src=""stim_listA/touch8.gif""</stim_listA>",,html-keyboard-response,452,1952037,0.0-19.0-1.11,85203,List1A,black,woman,,,,null,,,,
null,are touching each other,,html-keyboard-response,453,1954039,0.0-19.0-2.11,85203,List1A,black,woman,,,,null,,,,
13117,,,survey-text,454,1967157,0.0-19.0-3.11,85203,List1A,black,woman,,,,,"{""Q0"":""ruth and beth are touching each other""}","<img src=""stim_listA/touch8.gif""</stim_listA>",are touching each other,
null,"<div style=""font-size:60px;"">+</div>",,html-keyboard-response,455,1967658,0.0-19.0-0.12,85203,List1A,black,woman,,,,null,,,,
null,"<img src=""stim_listA/meet7.gif""</stim_listA>",,html-keyboard-response,456,1969661,0.0-19.0-1.12,85203,List1A,black,woman,,,,null,,,,
null,is meeting,,html-keyboard-response,457,1971662,0.0-19.0-2.12,85203,List1A,black,woman,,,,null,,,,
5454,,,survey-text,458,1977117,0.0-19.0-3.12,85203,List1A,black,woman,,,,,"{""Q0"":""kate is meeting jane""}","<img src=""stim_listA/meet7.gif""</stim_listA>",is meeting,
null,"<div style=""font-size:60px;"">+</div>",,html-keyboard-response,459,1977619,0.0-19.0-0.13,85203,List1A,black,woman,,,,null,,,,
null,"<img src=""stim_listA/fight5.gif""</stim_listA>",,html-keyboard-response,460,1979621,0.0-19.0-1.13,85203,List1A,black,woman,,,,null,,,,
null,is fighting,,html-keyboard-response,461,1981622,0.0-19.0-2.13,85203,List1A,black,woman,,,,null,,,,
6133,,,survey-text,462,1987757,0.0-19.0-3.13,85203,List1A,black,woman,,,,,"{""Q0"":""mike is fighting dave""}","<img src=""stim_listA/fight5.gif""</stim_listA>",is fighting,
null,"<div style=""font-size:60px;"">+</div>",,html-keyboard-response,463,1988259,0.0-19.0-0.14,85203,List1A,black,woman,,,,null,,,,
null,"<img src=""stim_listA/kiss8.gif""</stim_listA>",,html-keyboard-response,464,1990260,0.0-19.0-1.14,85203,List1A,black,woman,,,,null,,,,
null,are kissing each other,,html-keyboard-response,465,1992261,0.0-19.0-2.14,85203,List1A,black,woman,,,,null,,,,
7294,,,survey-text,466,1999556,0.0-19.0-3.14,85203,List1A,black,woman,,,,,"{""Q0"":""kate and jane are kissing""}","<img src=""stim_listA/kiss8.gif""</stim_listA>",are kissing each other,
null,"<div style=""font-size:60px;"">+</div>",,html-keyboard-response,467,2000057,0.0-19.0-0.15,85203,List1A,black,woman,,,,null,,,,
null,"<img src=""stim_listA/dance1.gif""</stim_listA>",,html-keyboard-response,468,2002059,0.0-19.0-1.15,85203,List1A,black,woman,,,,null,,,,
null,is dancing with,,html-keyboard-response,469,2004060,0.0-19.0-2.15,85203,List1A,black,woman,,,,null,,,,
11791,,,survey-text,470,2015852,0.0-19.0-3.15,85203,List1A,black,woman,,,,,"{""Q0"":""fred is dancing with kate""}","<img src=""stim_listA/dance1.gif""</stim_listA>",is dancing with,
null,"<div style=""font-size:60px;"">+</div>",,html-keyboard-response,471,2016354,0.0-19.0-0.16,85203,List1A,black,woman,,,,null,,,,
null,"<img src=""stim_listA/dance8.gif""</stim_listA>",,html-keyboard-response,472,2018357,0.0-19.0-1.16,85203,List1A,black,woman,,,,null,,,,
null,are dancing with each other,,html-keyboard-response,473,2020358,0.0-19.0-2.16,85203,List1A,black,woman,,,,null,,,,
11877,,,survey-text,474,2032236,0.0-19.0-3.16,85203,List1A,black,woman,,,,,"{""Q0"":""kate and ruth are dancing with each other""}","<img src=""stim_listA/dance8.gif""</stim_listA>",are dancing with each other,
null,"<div style=""font-size:60px;"">+</div>",,html-keyboard-response,475,2032737,0.0-19.0-0.17,85203,List1A,black,woman,,,,null,,,,
null,"<img src=""stim_listA/hug7.gif""</stim_listA>",,html-keyboard-response,476,2034740,0.0-19.0-1.17,85203,List1A,black,woman,,,,null,,,,
null,is hugging,,html-keyboard-response,477,2036741,0.0-19.0-2.17,85203,List1A,black,woman,,,,null,,,,
6327,,,survey-text,478,2043068,0.0-19.0-3.17,85203,List1A,black,woman,,,,,"{""Q0"":""ruth is hugging beth""}","<img src=""stim_listA/hug7.gif""</stim_listA>",is hugging,
null,"<div style=""font-size:60px;"">+</div>",,html-keyboard-response,479,2043570,0.0-19.0-0.18,85203,List1A,black,woman,,,,null,,,,
null,"<img src=""stim_listA/kiss6.gif""</stim_listA>",,html-keyboard-response,480,2045572,0.0-19.0-1.18,85203,List1A,black,woman,,,,null,,,,
null,are kissing each other,,html-keyboard-response,481,2047573,0.0-19.0-2.18,85203,List1A,black,woman,,,,null,,,,
7149,,,survey-text,482,2054724,0.0-19.0-3.18,85203,List1A,black,woman,,,,,"{""Q0"":""dave and mike are kissing""}","<img src=""stim_listA/kiss6.gif""</stim_listA>",are kissing each other,
null,"<div style=""font-size:60px;"">+</div>",,html-keyboard-response,483,2055225,0.0-19.0-0.19,85203,List1A,black,woman,,,,null,,,,
null,"<img src=""stim_listA/fight2.gif""</stim_listA>",,html-keyboard-response,484,2057227,0.0-19.0-1.19,85203,List1A,black,woman,,,,null,,,,
null,are fighting each other,,html-keyboard-response,485,2059230,0.0-19.0-2.19,85203,List1A,black,woman,,,,null,,,,
8196,,,survey-text,486,2067428,0.0-19.0-3.19,85203,List1A,black,woman,,,,,"{""Q0"":""fred and beth are fighting each other""}","<img src=""stim_listA/fight2.gif""</stim_listA>",are fighting each other,
22623,<p>Thank you for completing that task.</p><p>The final part of this session is a short questionnaire.</p><p>Press Continue.</p>,0,html-button-response,487,2090051,0.0-20.0,85203,List1A,black,woman,,,,,,,,
58285,,,survey-text,488,2149339,0.0-21.0,85203,List1A,black,woman,,,,,"{""Q0"":""48"",""Q1"":""English"",""Q2"":""English"",""Q3"":""UK"",""Q4"":""Carribean"",""Q5"":""female""}",,,demographics
60709,,,survey-likert,489,2210053,0.0-22.0,85203,List1A,black,woman,,,,,"{""Q0"":5,""Q1"":5,""Q2"":"""",""Q3"":2,""Q4"":5,""Q5"":1,""Q6"":3,""Q7"":6,""Q8"":5,""Q9"":5,""Q10"":3,""Q11"":2,""Q12"":5,""Q13"":3}",,,likert_race
44481,,,survey-likert,490,2254540,0.0-23.0,85203,List1A,black,woman,,,,,"{""Q0"":3,""Q1"":3,""Q2"":3,""Q3"":3,""Q4"":3,""Q5"":3,""Q6"":3,""Q7"":2,""Q8"":5,""Q9"":5,""Q10"":4,""Q11"":3,""Q12"":5,""Q13"":4}",,,likert_gender
5443,,,survey-text,491,2259985,0.0-24.0,85203,List1A,black,woman,,,,,"{""Q0"":""ccc""}",,,worker_id
35118,,,external-html,492,2295192,0.0-25.0,85203,List1A,black,woman,debrief.html,,,,,,,
