rt,stimulus,button_pressed,trial_type,trial_index,time_elapsed,internal_node_id,subject,list,ppt_race,ppt_gender,url,first_guess,correct,key_press,responses,image_type,phrase_type,test_part
2180,Welcome to the experiment. Press Continue to begin.,0,html-button-response,0,2184,0.0-0.0,85788,List2A,white,man,,,,,,,,
53075,,,external-html,1,56317,0.0-1.0,85788,List2A,white,man,consent.html,,,,,,,
10339,"<p>On the next page, you will see portraits of 8 people and their names.</p><p>Your first task is to take a few minutes to memorise the names of these people.</p><p>You will have to recall their names during the rest of the experiment, so it is</p><p>essential that you try to memorise these people and their names as best as you can.</p><br><p><strong>You will then be tested on your memory of these names and portraits.</strong></p><br><p>The experiment will start after you have completed this memory test.</p><br><p>Ready?</p>",0,html-button-response,2,66657,0.0-2.0,85788,List2A,white,man,,,,,,,,
61640,"<img src='img/portrait_matrix_list2.JPG' style='width:900px;height:500px;''></img><p>If you have memorised all the portraits and names and are ready to start, press Continue.</p><p><strong>Please note: Your memory of these faces will be tested 4 times during this experiment.</strong></p>",0,html-button-response,3,129313,0.0-3.0-0.0,85788,List2A,white,man,,,,,,,,
5075,"<img src=""portrait/WW2.jpg""style=""width:400px;height:400px;""></img>",3,html-button-response,4,135394,0.0-3.0-1.0,85788,List2A,white,man,,TRUE,3,,,,,
null,CORRECT,,html-keyboard-response,5,136900,0.0-3.0-2.0-0.0,85788,List2A,white,man,,,,null,,,,
3197,"<img src=""portrait/WM2.jpg""style=""width:400px;height:400px;""></img>",5,html-button-response,6,140098,0.0-3.0-4.0,85788,List2A,white,man,,TRUE,7,,,,,
3367,"<img src=""portrait/WM2.jpg""style=""width:400px;height:400px;""></img>",7,html-button-response,7,144482,0.0-3.0-6.0-0.0,85788,List2A,white,man,,FALSE,7,,,,,
null,CORRECT,,html-keyboard-response,8,146008,0.0-3.0-6.0-1.0-0.0,85788,List2A,white,man,,,,null,,,,
5839,"<img src=""portrait/BM1.jpg""style=""width:400px;height:400px;""></img>",5,html-button-response,9,151849,0.0-3.0-7.0,85788,List2A,white,man,,TRUE,4,,,,,
3272,"<img src=""portrait/BM1.jpg""style=""width:400px;height:400px;""></img>",4,html-button-response,10,156130,0.0-3.0-9.0-0.0,85788,List2A,white,man,,FALSE,4,,,,,
null,CORRECT,,html-keyboard-response,11,157640,0.0-3.0-9.0-1.0-0.0,85788,List2A,white,man,,,,null,,,,
4920,"<img src=""portrait/BW2.jpg""style=""width:400px;height:400px;""></img>",2,html-button-response,12,162562,0.0-3.0-10.0,85788,List2A,white,man,,TRUE,2,,,,,
null,CORRECT,,html-keyboard-response,13,164069,0.0-3.0-11.0-0.0,85788,List2A,white,man,,,,null,,,,
2867,"<img src=""portrait/WW1.jpg""style=""width:400px;height:400px;""></img>",1,html-button-response,14,166938,0.0-3.0-13.0,85788,List2A,white,man,,TRUE,1,,,,,
null,CORRECT,,html-keyboard-response,15,168461,0.0-3.0-14.0-0.0,85788,List2A,white,man,,,,null,,,,
4042,"<img src=""portrait/BW1.jpg""style=""width:400px;height:400px;""></img>",0,html-button-response,16,172505,0.0-3.0-16.0,85788,List2A,white,man,,TRUE,0,,,,,
null,CORRECT,,html-keyboard-response,17,174009,0.0-3.0-17.0-0.0,85788,List2A,white,man,,,,null,,,,
27195,"<img src=""portrait/BM2.jpg""style=""width:400px;height:400px;""></img>",4,html-button-response,18,201206,0.0-3.0-19.0,85788,List2A,white,man,,TRUE,5,,,,,
1321,"<img src=""portrait/BM2.jpg""style=""width:400px;height:400px;""></img>",5,html-button-response,19,203550,0.0-3.0-21.0-0.0,85788,List2A,white,man,,FALSE,5,,,,,
null,CORRECT,,html-keyboard-response,20,205054,0.0-3.0-21.0-1.0-0.0,85788,List2A,white,man,,,,null,,,,
2701,"<img src=""portrait/WM1.jpg""style=""width:400px;height:400px;""></img>",5,html-button-response,21,207758,0.0-3.0-22.0,85788,List2A,white,man,,TRUE,6,,,,,
1732,"<img src=""portrait/WM1.jpg""style=""width:400px;height:400px;""></img>",6,html-button-response,22,210494,0.0-3.0-24.0-0.0,85788,List2A,white,man,,FALSE,6,,,,,
null,CORRECT,,html-keyboard-response,23,212011,0.0-3.0-24.0-1.0-0.0,85788,List2A,white,man,,,,null,,,,
3895,<p>You got 4 out of 8 right first time. Press Continue.</p>,0,html-button-response,24,215910,0.0-3.0-25.0,85788,List2A,white,man,,,,,,,,
2892,"As you did not score 100%, the memory game will repeat. Press Continue.",0,html-button-response,25,219806,0.0-3.0-26.0-0.0,85788,List2A,white,man,,,,,,,,
4108,"<img src='img/portrait_matrix_list2.JPG' style='width:900px;height:500px;''></img><p>If you have memorised all the portraits and names and are ready to start, press Continue.</p><p><strong>Please note: Your memory of these faces will be tested 4 times during this experiment.</strong></p>",0,html-button-response,26,224918,0.0-3.1-0.1,85788,List2A,white,man,,,,,,,,
3655,"<img src=""portrait/WW2.jpg""style=""width:400px;height:400px;""></img>",3,html-button-response,27,229590,0.0-3.1-1.1,85788,List2A,white,man,,TRUE,3,,,,,
null,CORRECT,,html-keyboard-response,28,231099,0.0-3.1-2.1-0.1,85788,List2A,white,man,,,,null,,,,
4073,"<img src=""portrait/WM2.jpg""style=""width:400px;height:400px;""></img>",7,html-button-response,29,235174,0.0-3.1-4.1,85788,List2A,white,man,,TRUE,7,,,,,
null,CORRECT,,html-keyboard-response,30,236677,0.0-3.1-5.1-0.1,85788,List2A,white,man,,,,null,,,,
4189,"<img src=""portrait/BM1.jpg""style=""width:400px;height:400px;""></img>",5,html-button-response,31,240870,0.0-3.1-7.1,85788,List2A,white,man,,TRUE,4,,,,,
1612,"<img src=""portrait/BM1.jpg""style=""width:400px;height:400px;""></img>",4,html-button-response,32,243486,0.0-3.1-9.1-0.1,85788,List2A,white,man,,FALSE,4,,,,,
null,CORRECT,,html-keyboard-response,33,244998,0.0-3.1-9.1-1.1-0.1,85788,List2A,white,man,,,,null,,,,
6421,"<img src=""portrait/BW2.jpg""style=""width:400px;height:400px;""></img>",0,html-button-response,34,251422,0.0-3.1-10.1,85788,List2A,white,man,,TRUE,2,,,,,
1444,"<img src=""portrait/BW2.jpg""style=""width:400px;height:400px;""></img>",2,html-button-response,35,253870,0.0-3.1-12.1-0.1,85788,List2A,white,man,,FALSE,2,,,,,
null,CORRECT,,html-keyboard-response,36,255390,0.0-3.1-12.1-1.1-0.1,85788,List2A,white,man,,,,null,,,,
4054,"<img src=""portrait/WW1.jpg""style=""width:400px;height:400px;""></img>",3,html-button-response,37,259446,0.0-3.1-13.1,85788,List2A,white,man,,TRUE,1,,,,,
1276,"<img src=""portrait/WW1.jpg""style=""width:400px;height:400px;""></img>",1,html-button-response,38,261734,0.0-3.1-15.1-0.1,85788,List2A,white,man,,FALSE,1,,,,,
null,CORRECT,,html-keyboard-response,39,263261,0.0-3.1-15.1-1.1-0.1,85788,List2A,white,man,,,,null,,,,
2327,"<img src=""portrait/BW1.jpg""style=""width:400px;height:400px;""></img>",0,html-button-response,40,265589,0.0-3.1-16.1,85788,List2A,white,man,,TRUE,0,,,,,
null,CORRECT,,html-keyboard-response,41,267111,0.0-3.1-17.1-0.1,85788,List2A,white,man,,,,null,,,,
5516,"<img src=""portrait/BM2.jpg""style=""width:400px;height:400px;""></img>",5,html-button-response,42,272630,0.0-3.1-19.1,85788,List2A,white,man,,TRUE,5,,,,,
null,CORRECT,,html-keyboard-response,43,274147,0.0-3.1-20.1-0.1,85788,List2A,white,man,,,,null,,,,
1824,"<img src=""portrait/WM1.jpg""style=""width:400px;height:400px;""></img>",6,html-button-response,44,275973,0.0-3.1-22.1,85788,List2A,white,man,,TRUE,6,,,,,
null,CORRECT,,html-keyboard-response,45,277480,0.0-3.1-23.1-0.1,85788,List2A,white,man,,,,null,,,,
1377,<p>You got 5 out of 8 right first time. Press Continue.</p>,0,html-button-response,46,278861,0.0-3.1-25.1,85788,List2A,white,man,,,,,,,,
1053,"As you did not score 100%, the memory game will repeat. Press Continue.",0,html-button-response,47,280917,0.0-3.1-26.1-0.1,85788,List2A,white,man,,,,,,,,
749,"<img src='img/portrait_matrix_list2.JPG' style='width:900px;height:500px;''></img><p>If you have memorised all the portraits and names and are ready to start, press Continue.</p><p><strong>Please note: Your memory of these faces will be tested 4 times during this experiment.</strong></p>",0,html-button-response,48,282669,0.0-3.2-0.2,85788,List2A,white,man,,,,,,,,
2645,"<img src=""portrait/WW2.jpg""style=""width:400px;height:400px;""></img>",3,html-button-response,49,286318,0.0-3.2-1.2,85788,List2A,white,man,,TRUE,3,,,,,
null,CORRECT,,html-keyboard-response,50,287828,0.0-3.2-2.2-0.2,85788,List2A,white,man,,,,null,,,,
4087,"<img src=""portrait/WM2.jpg""style=""width:400px;height:400px;""></img>",7,html-button-response,51,291918,0.0-3.2-4.2,85788,List2A,white,man,,TRUE,7,,,,,
null,CORRECT,,html-keyboard-response,52,293432,0.0-3.2-5.2-0.2,85788,List2A,white,man,,,,null,,,,
5684,"<img src=""portrait/BM1.jpg""style=""width:400px;height:400px;""></img>",4,html-button-response,53,299118,0.0-3.2-7.2,85788,List2A,white,man,,TRUE,4,,,,,
null,CORRECT,,html-keyboard-response,54,300625,0.0-3.2-8.2-0.2,85788,List2A,white,man,,,,null,,,,
4346,"<img src=""portrait/BW2.jpg""style=""width:400px;height:400px;""></img>",3,html-button-response,55,304974,0.0-3.2-10.2,85788,List2A,white,man,,TRUE,2,,,,,
1314,"<img src=""portrait/BW2.jpg""style=""width:400px;height:400px;""></img>",2,html-button-response,56,307302,0.0-3.2-12.2-0.2,85788,List2A,white,man,,FALSE,2,,,,,
null,CORRECT,,html-keyboard-response,57,308805,0.0-3.2-12.2-1.2-0.2,85788,List2A,white,man,,,,null,,,,
1230,"<img src=""portrait/WW1.jpg""style=""width:400px;height:400px;""></img>",1,html-button-response,58,310038,0.0-3.2-13.2,85788,List2A,white,man,,TRUE,1,,,,,
null,CORRECT,,html-keyboard-response,59,311561,0.0-3.2-14.2-0.2,85788,List2A,white,man,,,,null,,,,
963,"<img src=""portrait/BW1.jpg""style=""width:400px;height:400px;""></img>",0,html-button-response,60,312526,0.0-3.2-16.2,85788,List2A,white,man,,TRUE,0,,,,,
null,CORRECT,,html-keyboard-response,61,314034,0.0-3.2-17.2-0.2,85788,List2A,white,man,,,,null,,,,
3082,"<img src=""portrait/BM2.jpg""style=""width:400px;height:400px;""></img>",5,html-button-response,62,317118,0.0-3.2-19.2,85788,List2A,white,man,,TRUE,5,,,,,
null,CORRECT,,html-keyboard-response,63,318625,0.0-3.2-20.2-0.2,85788,List2A,white,man,,,,null,,,,
1393,"<img src=""portrait/WM1.jpg""style=""width:400px;height:400px;""></img>",6,html-button-response,64,320022,0.0-3.2-22.2,85788,List2A,white,man,,TRUE,6,,,,,
null,CORRECT,,html-keyboard-response,65,321527,0.0-3.2-23.2-0.2,85788,List2A,white,man,,,,null,,,,
996,<p>You got 7 out of 8 right first time. Press Continue.</p>,0,html-button-response,66,322525,0.0-3.2-25.2,85788,List2A,white,man,,,,,,,,
902,"As you did not score 100%, the memory game will repeat. Press Continue.",0,html-button-response,67,324428,0.0-3.2-26.2-0.2,85788,List2A,white,man,,,,,,,,
781,"<img src='img/portrait_matrix_list2.JPG' style='width:900px;height:500px;''></img><p>If you have memorised all the portraits and names and are ready to start, press Continue.</p><p><strong>Please note: Your memory of these faces will be tested 4 times during this experiment.</strong></p>",0,html-button-response,68,326213,0.0-3.3-0.3,85788,List2A,white,man,,,,,,,,
4460,"<img src=""portrait/WW2.jpg""style=""width:400px;height:400px;""></img>",3,html-button-response,69,331685,0.0-3.3-1.3,85788,List2A,white,man,,TRUE,3,,,,,
null,CORRECT,,html-keyboard-response,70,333197,0.0-3.3-2.3-0.3,85788,List2A,white,man,,,,null,,,,
3510,"<img src=""portrait/WM2.jpg""style=""width:400px;height:400px;""></img>",7,html-button-response,71,336709,0.0-3.3-4.3,85788,List2A,white,man,,TRUE,7,,,,,
null,CORRECT,,html-keyboard-response,72,338227,0.0-3.3-5.3-0.3,85788,List2A,white,man,,,,null,,,,
2143,"<img src=""portrait/BM1.jpg""style=""width:400px;height:400px;""></img>",4,html-button-response,73,340373,0.0-3.3-7.3,85788,List2A,white,man,,TRUE,4,,,,,
null,CORRECT,,html-keyboard-response,74,341876,0.0-3.3-8.3-0.3,85788,List2A,white,man,,,,null,,,,
2679,"<img src=""portrait/BW2.jpg""style=""width:400px;height:400px;""></img>",2,html-button-response,75,344557,0.0-3.3-10.3,85788,List2A,white,man,,TRUE,2,,,,,
null,CORRECT,,html-keyboard-response,76,346071,0.0-3.3-11.3-0.3,85788,List2A,white,man,,,,null,,,,
1307,"<img src=""portrait/WW1.jpg""style=""width:400px;height:400px;""></img>",1,html-button-response,77,347381,0.0-3.3-13.3,85788,List2A,white,man,,TRUE,1,,,,,
null,CORRECT,,html-keyboard-response,78,348887,0.0-3.3-14.3-0.3,85788,List2A,white,man,,,,null,,,,
1524,"<img src=""portrait/BW1.jpg""style=""width:400px;height:400px;""></img>",0,html-button-response,79,350413,0.0-3.3-16.3,85788,List2A,white,man,,TRUE,0,,,,,
null,CORRECT,,html-keyboard-response,80,351927,0.0-3.3-17.3-0.3,85788,List2A,white,man,,,,null,,,,
2948,"<img src=""portrait/BM2.jpg""style=""width:400px;height:400px;""></img>",5,html-button-response,81,354877,0.0-3.3-19.3,85788,List2A,white,man,,TRUE,5,,,,,
null,CORRECT,,html-keyboard-response,82,356380,0.0-3.3-20.3-0.3,85788,List2A,white,man,,,,null,,,,
1423,"<img src=""portrait/WM1.jpg""style=""width:400px;height:400px;""></img>",6,html-button-response,83,357805,0.0-3.3-22.3,85788,List2A,white,man,,TRUE,6,,,,,
null,CORRECT,,html-keyboard-response,84,359311,0.0-3.3-23.3-0.3,85788,List2A,white,man,,,,null,,,,
1380,<p>You got 8 out of 8 right first time. Press Continue.</p>,0,html-button-response,85,360693,0.0-3.3-25.3,85788,List2A,white,man,,,,,,,,
34540,"<p>In this experiment, you will view photographs of the people from the memory game interacting.</p><p>By using the <strong>exact</strong> phrase given <i>after</i> the photograph appears and recalling the correct names of the people in the photographs, form a sentence describing the interaction. You do not need to capitalise names.</p><p>Type your answer in the space provided. Please complete every sentence before moving onto the next trial.</p><p>You will only have a few seconds to memorise each given photograph and phrase before you can respond, so try your best to focus.</p><p>An example is given below. Press 'Continue' when you are ready.</p><img src='img/speaking_example_v2.jpg' style='width:800px;height:460px;''></img>",0,html-button-response,86,396253,0.0-4.0,85788,List2A,white,man,,,,,,,,
1931,"<p>Before the experiment starts, you will watch two example trials. Press 'Continue'.</p>",0,html-button-response,87,399189,0.0-5.0,85788,List2A,white,man,,,,,,,,
null,<img src='img/speaking_WW.gif'></img>,,html-keyboard-response,88,402193,0.0-6.0,85788,List2A,white,man,,,,null,,,,
null,<p>is speaking to</p>,,html-keyboard-response,89,404194,0.0-7.0,85788,List2A,white,man,,,,null,,,,
2201,<p><b>Answer:</b> jane is speaking to ruth</p>,0,html-button-response,90,406397,0.0-8.0,85788,List2A,white,man,,,,,,,,
null,<img src='img/pointing_BM.gif'></img>,,html-keyboard-response,91,409409,0.0-9.0,85788,List2A,white,man,,,,null,,,,
null,<p>are pointing at each other</p>,,html-keyboard-response,92,411411,0.0-10.0,85788,List2A,white,man,,,,null,,,,
1985,<p><b>Answer:</b> fred and mike are pointing at each other</p>,0,html-button-response,93,413397,0.0-11.0,85788,List2A,white,man,,,,,,,,
16689,"<p>Ready to start the experiment?</p><br><p><strong>Remember to describe the picture using a full sentence,</strong></p><p><strong>that combines the names of the people with the given phrase.</strong></p><p><strong>If you do not do this correctly you will not be paid.</strong></p><p><strong> You do not need to capitalise names or use punctuation.</strong></p><br><p>Press 'Continue' to begin.</p>",0,html-button-response,94,431093,0.0-12.0,85788,List2A,white,man,,,,,,,,
null,"<div style=""font-size:60px;"">+</div>",,html-keyboard-response,95,432598,0.0-13.0-0.0,85788,List2A,white,man,,,,null,,,,
null,"<img src=""stim_listA/hug4.gif""</stim_listA>",,html-keyboard-response,96,434604,0.0-13.0-1.0,85788,List2A,white,man,,,,null,,,,
null,are hugging each other,,html-keyboard-response,97,436613,0.0-13.0-2.0,85788,List2A,white,man,,,,null,,,,
14638,,,survey-text,98,451253,0.0-13.0-3.0,85788,List2A,white,man,,,,,"{""Q0"":""mike and kate are hugging each other""}","<img src=""stim_listA/hug4.gif""</stim_listA>",are hugging each other,
null,"<div style=""font-size:60px;"">+</div>",,html-keyboard-response,99,451769,0.0-13.0-0.1,85788,List2A,white,man,,,,null,,,,
null,"<img src=""stim_listA/hug8.gif""</stim_listA>",,html-keyboard-response,100,453775,0.0-13.0-1.1,85788,List2A,white,man,,,,null,,,,
null,are hugging each other,,html-keyboard-response,101,455798,0.0-13.0-2.1,85788,List2A,white,man,,,,null,,,,
8525,,,survey-text,102,464325,0.0-13.0-3.1,85788,List2A,white,man,,,,,"{""Q0"":""kate and jane are hugging each other""}","<img src=""stim_listA/hug8.gif""</stim_listA>",are hugging each other,
null,"<div style=""font-size:60px;"">+</div>",,html-keyboard-response,103,464834,0.0-13.0-0.2,85788,List2A,white,man,,,,null,,,,
null,"<img src=""stim_listA/fight4.gif""</stim_listA>",,html-keyboard-response,104,466837,0.0-13.0-1.2,85788,List2A,white,man,,,,null,,,,
null,are fighting each other,,html-keyboard-response,105,468849,0.0-13.0-2.2,85788,List2A,white,man,,,,null,,,,
11546,,,survey-text,106,480397,0.0-13.0-3.2,85788,List2A,white,man,,,,,"{""Q0"":""beth and mike are fighting each other""}","<img src=""stim_listA/fight4.gif""</stim_listA>",are fighting each other,
null,"<div style=""font-size:60px;"">+</div>",,html-keyboard-response,107,480913,0.0-13.0-0.3,85788,List2A,white,man,,,,null,,,,
null,"<img src=""stim_listA/talk1.gif""</stim_listA>",,html-keyboard-response,108,482920,0.0-13.0-1.3,85788,List2A,white,man,,,,null,,,,
null,is talking to,,html-keyboard-response,109,484931,0.0-13.0-2.3,85788,List2A,white,man,,,,null,,,,
11424,,,survey-text,110,496357,0.0-13.0-3.3,85788,List2A,white,man,,,,,"{""Q0"":""luke is talking to jane""}","<img src=""stim_listA/talk1.gif""</stim_listA>",is talking to,
null,"<div style=""font-size:60px;"">+</div>",,html-keyboard-response,111,496868,0.0-13.0-0.4,85788,List2A,white,man,,,,null,,,,
null,"<img src=""stim_listA/dance5.gif""</stim_listA>",,html-keyboard-response,112,498881,0.0-13.0-1.4,85788,List2A,white,man,,,,null,,,,
null,is dancing with,,html-keyboard-response,113,500883,0.0-13.0-2.4,85788,List2A,white,man,,,,null,,,,
5376,,,survey-text,114,506261,0.0-13.0-3.4,85788,List2A,white,man,,,,,"{""Q0"":""luke is dancing with mike""}","<img src=""stim_listA/dance5.gif""</stim_listA>",is dancing with,
null,"<div style=""font-size:60px;"">+</div>",,html-keyboard-response,115,506763,0.0-13.0-0.5,85788,List2A,white,man,,,,null,,,,
null,"<img src=""stim_listA/argue3.gif""</stim_listA>",,html-keyboard-response,116,508776,0.0-13.0-1.5,85788,List2A,white,man,,,,null,,,,
null,is arguing with,,html-keyboard-response,117,510777,0.0-13.0-2.5,85788,List2A,white,man,,,,null,,,,
5012,,,survey-text,118,515790,0.0-13.0-3.5,85788,List2A,white,man,,,,,"{""Q0"":""mike is arguing with beth""}","<img src=""stim_listA/argue3.gif""</stim_listA>",is arguing with,
null,"<div style=""font-size:60px;"">+</div>",,html-keyboard-response,119,516296,0.0-13.0-0.6,85788,List2A,white,man,,,,null,,,,
null,"<img src=""stim_listA/fight1.gif""</stim_listA>",,html-keyboard-response,120,518299,0.0-13.0-1.6,85788,List2A,white,man,,,,null,,,,
null,is fighting,,html-keyboard-response,121,520310,0.0-13.0-2.6,85788,List2A,white,man,,,,null,,,,
4031,,,survey-text,122,524342,0.0-13.0-3.6,85788,List2A,white,man,,,,,"{""Q0"":""dave is fighting jane""}","<img src=""stim_listA/fight1.gif""</stim_listA>",is fighting,
null,"<div style=""font-size:60px;"">+</div>",,html-keyboard-response,123,524844,0.0-13.0-0.7,85788,List2A,white,man,,,,null,,,,
null,"<img src=""stim_listA/shout3.gif""</stim_listA>",,html-keyboard-response,124,526859,0.0-13.0-1.7,85788,List2A,white,man,,,,null,,,,
null,is shouting at,,html-keyboard-response,125,528874,0.0-13.0-2.7,85788,List2A,white,man,,,,null,,,,
9587,,,survey-text,126,538462,0.0-13.0-3.7,85788,List2A,white,man,,,,,"{""Q0"":""beth is shouting at fred""}","<img src=""stim_listA/shout3.gif""</stim_listA>",is shouting at,
null,"<div style=""font-size:60px;"">+</div>",,html-keyboard-response,127,538963,0.0-13.0-0.8,85788,List2A,white,man,,,,null,,,,
null,"<img src=""stim_listA/touch4.gif""</stim_listA>",,html-keyboard-response,128,540977,0.0-13.0-1.8,85788,List2A,white,man,,,,null,,,,
null,are touching each other,,html-keyboard-response,129,542982,0.0-13.0-2.8,85788,List2A,white,man,,,,null,,,,
5798,,,survey-text,130,548782,0.0-13.0-3.8,85788,List2A,white,man,,,,,"{""Q0"":""beth and fred are touching each other""}","<img src=""stim_listA/touch4.gif""</stim_listA>",are touching each other,
null,"<div style=""font-size:60px;"">+</div>",,html-keyboard-response,131,549287,0.0-13.0-0.9,85788,List2A,white,man,,,,null,,,,
null,"<img src=""stim_listA/touch6.gif""</stim_listA>",,html-keyboard-response,132,551289,0.0-13.0-1.9,85788,List2A,white,man,,,,null,,,,
null,are touching each other,,html-keyboard-response,133,553304,0.0-13.0-2.9,85788,List2A,white,man,,,,null,,,,
5973,,,survey-text,134,559278,0.0-13.0-3.9,85788,List2A,white,man,,,,,"{""Q0"":""luke and fred are touching each other""}","<img src=""stim_listA/touch6.gif""</stim_listA>",are touching each other,
null,"<div style=""font-size:60px;"">+</div>",,html-keyboard-response,135,559779,0.0-13.0-0.10,85788,List2A,white,man,,,,null,,,,
null,"<img src=""stim_listA/meet5.gif""</stim_listA>",,html-keyboard-response,136,561783,0.0-13.0-1.10,85788,List2A,white,man,,,,null,,,,
null,is meeting,,html-keyboard-response,137,563785,0.0-13.0-2.10,85788,List2A,white,man,,,,null,,,,
4492,,,survey-text,138,568278,0.0-13.0-3.10,85788,List2A,white,man,,,,,"{""Q0"":""luke is meeting mike""}","<img src=""stim_listA/meet5.gif""</stim_listA>",is meeting,
null,"<div style=""font-size:60px;"">+</div>",,html-keyboard-response,139,568784,0.0-13.0-0.11,85788,List2A,white,man,,,,null,,,,
null,"<img src=""stim_listA/argue6.gif""</stim_listA>",,html-keyboard-response,140,570786,0.0-13.0-1.11,85788,List2A,white,man,,,,null,,,,
null,are arguing with each other,,html-keyboard-response,141,572787,0.0-13.0-2.11,85788,List2A,white,man,,,,null,,,,
14216,,,survey-text,142,587005,0.0-13.0-3.11,85788,List2A,white,man,,,,,"{""Q0"":""luke is meeting mike""}","<img src=""stim_listA/argue6.gif""</stim_listA>",are arguing with each other,
null,"<div style=""font-size:60px;"">+</div>",,html-keyboard-response,143,587506,0.0-13.0-0.12,85788,List2A,white,man,,,,null,,,,
null,"<img src=""stim_listA/kiss1.gif""</stim_listA>",,html-keyboard-response,144,589522,0.0-13.0-1.12,85788,List2A,white,man,,,,null,,,,
null,is kissing,,html-keyboard-response,145,591543,0.0-13.0-2.12,85788,List2A,white,man,,,,null,,,,
4908,,,survey-text,146,596453,0.0-13.0-3.12,85788,List2A,white,man,,,,,"{""Q0"":""luke is kissing ruth""}","<img src=""stim_listA/kiss1.gif""</stim_listA>",is kissing,
null,"<div style=""font-size:60px;"">+</div>",,html-keyboard-response,147,596962,0.0-13.0-0.13,85788,List2A,white,man,,,,null,,,,
null,"<img src=""stim_listA/dance7.gif""</stim_listA>",,html-keyboard-response,148,598974,0.0-13.0-1.13,85788,List2A,white,man,,,,null,,,,
null,is dancing with,,html-keyboard-response,149,600976,0.0-13.0-2.13,85788,List2A,white,man,,,,null,,,,
7163,,,survey-text,150,608141,0.0-13.0-3.13,85788,List2A,white,man,,,,,"{""Q0"":""ruth is dancing with kate""}","<img src=""stim_listA/dance7.gif""</stim_listA>",is dancing with,
null,"<div style=""font-size:60px;"">+</div>",,html-keyboard-response,151,608641,0.0-13.0-0.14,85788,List2A,white,man,,,,null,,,,
null,"<img src=""stim_listA/shout1.gif""</stim_listA>",,html-keyboard-response,152,610645,0.0-13.0-1.14,85788,List2A,white,man,,,,null,,,,
null,is shouting at,,html-keyboard-response,153,612648,0.0-13.0-2.14,85788,List2A,white,man,,,,null,,,,
4883,,,survey-text,154,617533,0.0-13.0-3.14,85788,List2A,white,man,,,,,"{""Q0"":""ruth is shouting at luke""}","<img src=""stim_listA/shout1.gif""</stim_listA>",is shouting at,
null,"<div style=""font-size:60px;"">+</div>",,html-keyboard-response,155,618035,0.0-13.0-0.15,85788,List2A,white,man,,,,null,,,,
null,"<img src=""stim_listA/marry2.gif""</stim_listA>",,html-keyboard-response,156,620039,0.0-13.0-1.15,85788,List2A,white,man,,,,null,,,,
null,are marrying each other,,html-keyboard-response,157,622041,0.0-13.0-2.15,85788,List2A,white,man,,,,null,,,,
6482,,,survey-text,158,628524,0.0-13.0-3.15,85788,List2A,white,man,,,,,"{""Q0"":""luke and jane are marrying each other""}","<img src=""stim_listA/marry2.gif""</stim_listA>",are marrying each other,
null,"<div style=""font-size:60px;"">+</div>",,html-keyboard-response,159,629036,0.0-13.0-0.16,85788,List2A,white,man,,,,null,,,,
null,"<img src=""stim_listA/dance3.gif""</stim_listA>",,html-keyboard-response,160,631038,0.0-13.0-1.16,85788,List2A,white,man,,,,null,,,,
null,is dancing with,,html-keyboard-response,161,633050,0.0-13.0-2.16,85788,List2A,white,man,,,,null,,,,
4763,,,survey-text,162,637815,0.0-13.0-3.16,85788,List2A,white,man,,,,,"{""Q0"":""fred is dancing with kate""}","<img src=""stim_listA/dance3.gif""</stim_listA>",is dancing with,
null,"<div style=""font-size:60px;"">+</div>",,html-keyboard-response,163,638317,0.0-13.0-0.17,85788,List2A,white,man,,,,null,,,,
null,"<img src=""stim_listA/touch5.gif""</stim_listA>",,html-keyboard-response,164,640340,0.0-13.0-1.17,85788,List2A,white,man,,,,null,,,,
null,is touching,,html-keyboard-response,165,642353,0.0-13.0-2.17,85788,List2A,white,man,,,,null,,,,
6773,,,survey-text,166,649128,0.0-13.0-3.17,85788,List2A,white,man,,,,,"{""Q0"":""mike is touching dave""}","<img src=""stim_listA/touch5.gif""</stim_listA>",is touching,
null,"<div style=""font-size:60px;"">+</div>",,html-keyboard-response,167,649638,0.0-13.0-0.18,85788,List2A,white,man,,,,null,,,,
null,"<img src=""stim_listA/hug3.gif""</stim_listA>",,html-keyboard-response,168,651641,0.0-13.0-1.18,85788,List2A,white,man,,,,null,,,,
null,is hugging,,html-keyboard-response,169,653644,0.0-13.0-2.18,85788,List2A,white,man,,,,null,,,,
4338,,,survey-text,170,657983,0.0-13.0-3.18,85788,List2A,white,man,,,,,"{""Q0"":""fred is hugging beth""}","<img src=""stim_listA/hug3.gif""</stim_listA>",is hugging,
null,"<div style=""font-size:60px;"">+</div>",,html-keyboard-response,171,658485,0.0-13.0-0.19,85788,List2A,white,man,,,,null,,,,
null,"<img src=""stim_listA/talk7.gif""</stim_listA>",,html-keyboard-response,172,660494,0.0-13.0-1.19,85788,List2A,white,man,,,,null,,,,
null,is talking to,,html-keyboard-response,173,662508,0.0-13.0-2.19,85788,List2A,white,man,,,,null,,,,
4242,,,survey-text,174,666751,0.0-13.0-3.19,85788,List2A,white,man,,,,,"{""Q0"":""ruth is talking to kate""}","<img src=""stim_listA/talk7.gif""</stim_listA>",is talking to,
4927,"<img src='img/portrait_matrix_list2.JPG' style='width:900px;height:500px;''></img><p>If you have memorised all the portraits and names and are ready to start, press Continue.</p><p><strong>Please note: Your memory of these faces will be tested 4 times during this experiment.</strong></p>",0,html-button-response,175,671680,0.0-14.0-0.0,85788,List2A,white,man,,,,,,,,
1381,"<img src=""portrait/WW1.jpg""style=""width:400px;height:400px;""></img>",1,html-button-response,176,674064,0.0-14.0-1.0,85788,List2A,white,man,,TRUE,1,,,,,
null,CORRECT,,html-keyboard-response,177,675576,0.0-14.0-2.0-0.0,85788,List2A,white,man,,,,null,,,,
1142,"<img src=""portrait/BW2.jpg""style=""width:400px;height:400px;""></img>",2,html-button-response,178,676720,0.0-14.0-4.0,85788,List2A,white,man,,TRUE,2,,,,,
null,CORRECT,,html-keyboard-response,179,678230,0.0-14.0-5.0-0.0,85788,List2A,white,man,,,,null,,,,
1199,"<img src=""portrait/BW1.jpg""style=""width:400px;height:400px;""></img>",0,html-button-response,180,679432,0.0-14.0-7.0,85788,List2A,white,man,,TRUE,0,,,,,
null,CORRECT,,html-keyboard-response,181,680935,0.0-14.0-8.0-0.0,85788,List2A,white,man,,,,null,,,,
1406,"<img src=""portrait/WM2.jpg""style=""width:400px;height:400px;""></img>",7,html-button-response,182,682344,0.0-14.0-10.0,85788,List2A,white,man,,TRUE,7,,,,,
null,CORRECT,,html-keyboard-response,183,683851,0.0-14.0-11.0-0.0,85788,List2A,white,man,,,,null,,,,
1179,"<img src=""portrait/BM2.jpg""style=""width:400px;height:400px;""></img>",5,html-button-response,184,685033,0.0-14.0-13.0,85788,List2A,white,man,,TRUE,5,,,,,
null,CORRECT,,html-keyboard-response,185,686559,0.0-14.0-14.0-0.0,85788,List2A,white,man,,,,null,,,,
1743,"<img src=""portrait/WM1.jpg""style=""width:400px;height:400px;""></img>",6,html-button-response,186,688304,0.0-14.0-16.0,85788,List2A,white,man,,TRUE,6,,,,,
null,CORRECT,,html-keyboard-response,187,689811,0.0-14.0-17.0-0.0,85788,List2A,white,man,,,,null,,,,
2291,"<img src=""portrait/WW2.jpg""style=""width:400px;height:400px;""></img>",3,html-button-response,188,692104,0.0-14.0-19.0,85788,List2A,white,man,,TRUE,3,,,,,
null,CORRECT,,html-keyboard-response,189,693607,0.0-14.0-20.0-0.0,85788,List2A,white,man,,,,null,,,,
839,"<img src=""portrait/BM1.jpg""style=""width:400px;height:400px;""></img>",4,html-button-response,190,694448,0.0-14.0-22.0,85788,List2A,white,man,,TRUE,4,,,,,
null,CORRECT,,html-keyboard-response,191,695961,0.0-14.0-23.0-0.0,85788,List2A,white,man,,,,null,,,,
177267,<p>You got 8 out of 8 right first time. Press Continue.</p>,0,html-button-response,192,873231,0.0-14.0-25.0,85788,List2A,white,man,,,,,,,,
null,"<div style=""font-size:60px;"">+</div>",,html-keyboard-response,193,874734,0.0-15.0-0.0,85788,List2A,white,man,,,,null,,,,
null,"<img src=""stim_listA/meet7.gif""</stim_listA>",,html-keyboard-response,194,876737,0.0-15.0-1.0,85788,List2A,white,man,,,,null,,,,
null,is meeting,,html-keyboard-response,195,878739,0.0-15.0-2.0,85788,List2A,white,man,,,,null,,,,
7610,,,survey-text,196,886350,0.0-15.0-3.0,85788,List2A,white,man,,,,,"{""Q0"":""Kate is meeting jane""}","<img src=""stim_listA/meet7.gif""</stim_listA>",is meeting,
null,"<div style=""font-size:60px;"">+</div>",,html-keyboard-response,197,886852,0.0-15.0-0.1,85788,List2A,white,man,,,,null,,,,
null,"<img src=""stim_listA/fight6.gif""</stim_listA>",,html-keyboard-response,198,888854,0.0-15.0-1.1,85788,List2A,white,man,,,,null,,,,
null,are fighting each other,,html-keyboard-response,199,890856,0.0-15.0-2.1,85788,List2A,white,man,,,,null,,,,
6341,,,survey-text,200,897198,0.0-15.0-3.1,85788,List2A,white,man,,,,,"{""Q0"":""fred and luke are fighting each other""}","<img src=""stim_listA/fight6.gif""</stim_listA>",are fighting each other,
null,"<div style=""font-size:60px;"">+</div>",,html-keyboard-response,201,897701,0.0-15.0-0.2,85788,List2A,white,man,,,,null,,,,
null,"<img src=""stim_listA/talk8.gif""</stim_listA>",,html-keyboard-response,202,899714,0.0-15.0-1.2,85788,List2A,white,man,,,,null,,,,
null,are talking to each other,,html-keyboard-response,203,901715,0.0-15.0-2.2,85788,List2A,white,man,,,,null,,,,
5969,,,survey-text,204,907686,0.0-15.0-3.2,85788,List2A,white,man,,,,,"{""Q0"":""beth and jane are talking to each other""}","<img src=""stim_listA/talk8.gif""</stim_listA>",are talking to each other,
null,"<div style=""font-size:60px;"">+</div>",,html-keyboard-response,205,908188,0.0-15.0-0.3,85788,List2A,white,man,,,,null,,,,
null,"<img src=""stim_listA/shout7.gif""</stim_listA>",,html-keyboard-response,206,910201,0.0-15.0-1.3,85788,List2A,white,man,,,,null,,,,
null,is shouting at,,html-keyboard-response,207,912204,0.0-15.0-2.3,85788,List2A,white,man,,,,null,,,,
4377,,,survey-text,208,916582,0.0-15.0-3.3,85788,List2A,white,man,,,,,"{""Q0"":""beth is shouting at ruth""}","<img src=""stim_listA/shout7.gif""</stim_listA>",is shouting at,
null,"<div style=""font-size:60px;"">+</div>",,html-keyboard-response,209,917090,0.0-15.0-0.4,85788,List2A,white,man,,,,null,,,,
null,"<img src=""stim_listA/kiss3.gif""</stim_listA>",,html-keyboard-response,210,919103,0.0-15.0-1.4,85788,List2A,white,man,,,,null,,,,
null,is kissing,,html-keyboard-response,211,921104,0.0-15.0-2.4,85788,List2A,white,man,,,,null,,,,
3733,,,survey-text,212,924838,0.0-15.0-3.4,85788,List2A,white,man,,,,,"{""Q0"":""beth is kissing fred""}","<img src=""stim_listA/kiss3.gif""</stim_listA>",is kissing,
null,"<div style=""font-size:60px;"">+</div>",,html-keyboard-response,213,925353,0.0-15.0-0.5,85788,List2A,white,man,,,,null,,,,
null,"<img src=""stim_listA/touch1.gif""</stim_listA>",,html-keyboard-response,214,927356,0.0-15.0-1.5,85788,List2A,white,man,,,,null,,,,
null,is touching,,html-keyboard-response,215,929368,0.0-15.0-2.5,85788,List2A,white,man,,,,null,,,,
4204,,,survey-text,216,933574,0.0-15.0-3.5,85788,List2A,white,man,,,,,"{""Q0"":""jane is touching dave""}","<img src=""stim_listA/touch1.gif""</stim_listA>",is touching,
null,"<div style=""font-size:60px;"">+</div>",,html-keyboard-response,217,934075,0.0-15.0-0.6,85788,List2A,white,man,,,,null,,,,
null,"<img src=""stim_listA/argue2.gif""</stim_listA>",,html-keyboard-response,218,936085,0.0-15.0-1.6,85788,List2A,white,man,,,,null,,,,
null,are arguing with each other,,html-keyboard-response,219,938088,0.0-15.0-2.6,85788,List2A,white,man,,,,null,,,,
9228,,,survey-text,220,947318,0.0-15.0-3.6,85788,List2A,white,man,,,,,"{""Q0"":""luke and jane are arguing with each other""}","<img src=""stim_listA/argue2.gif""</stim_listA>",are arguing with each other,
null,"<div style=""font-size:60px;"">+</div>",,html-keyboard-response,221,947822,0.0-15.0-0.7,85788,List2A,white,man,,,,null,,,,
null,"<img src=""stim_listA/shout4.gif""</stim_listA>",,html-keyboard-response,222,949831,0.0-15.0-1.7,85788,List2A,white,man,,,,null,,,,
null,are shouting at each other,,html-keyboard-response,223,951832,0.0-15.0-2.7,85788,List2A,white,man,,,,null,,,,
11260,,,survey-text,224,963094,0.0-15.0-3.7,85788,List2A,white,man,,,,,"{""Q0"":""mike and kate are shouting with each other""}","<img src=""stim_listA/shout4.gif""</stim_listA>",are shouting at each other,
null,"<div style=""font-size:60px;"">+</div>",,html-keyboard-response,225,963595,0.0-15.0-0.8,85788,List2A,white,man,,,,null,,,,
null,"<img src=""stim_listA/hug5.gif""</stim_listA>",,html-keyboard-response,226,965601,0.0-15.0-1.8,85788,List2A,white,man,,,,null,,,,
null,is hugging,,html-keyboard-response,227,967610,0.0-15.0-2.8,85788,List2A,white,man,,,,null,,,,
3851,,,survey-text,228,971462,0.0-15.0-3.8,85788,List2A,white,man,,,,,"{""Q0"":""fred is hugging luke""}","<img src=""stim_listA/hug5.gif""</stim_listA>",is hugging,
null,"<div style=""font-size:60px;"">+</div>",,html-keyboard-response,229,971966,0.0-15.0-0.9,85788,List2A,white,man,,,,null,,,,
null,"<img src=""stim_listA/meet4.gif""</stim_listA>",,html-keyboard-response,230,973969,0.0-15.0-1.9,85788,List2A,white,man,,,,null,,,,
null,are meeting each other,,html-keyboard-response,231,975975,0.0-15.0-2.9,85788,List2A,white,man,,,,null,,,,
6669,,,survey-text,232,982646,0.0-15.0-3.9,85788,List2A,white,man,,,,,"{""Q0"":""beth and fred are meeting each other""}","<img src=""stim_listA/meet4.gif""</stim_listA>",are meeting each other,
null,"<div style=""font-size:60px;"">+</div>",,html-keyboard-response,233,983147,0.0-15.0-0.10,85788,List2A,white,man,,,,null,,,,
null,"<img src=""stim_listA/argue4.gif""</stim_listA>",,html-keyboard-response,234,985155,0.0-15.0-1.10,85788,List2A,white,man,,,,null,,,,
null,are arguing with each other,,html-keyboard-response,235,987157,0.0-15.0-2.10,85788,List2A,white,man,,,,null,,,,
8097,,,survey-text,236,995256,0.0-15.0-3.10,85788,List2A,white,man,,,,,"{""Q0"":""fred and kate are arguing with each other""}","<img src=""stim_listA/argue4.gif""</stim_listA>",are arguing with each other,
null,"<div style=""font-size:60px;"">+</div>",,html-keyboard-response,237,995760,0.0-15.0-0.11,85788,List2A,white,man,,,,null,,,,
null,"<img src=""stim_listA/talk3.gif""</stim_listA>",,html-keyboard-response,238,997776,0.0-15.0-1.11,85788,List2A,white,man,,,,null,,,,
null,is talking to,,html-keyboard-response,239,999778,0.0-15.0-2.11,85788,List2A,white,man,,,,null,,,,
3861,,,survey-text,240,1003639,0.0-15.0-3.11,85788,List2A,white,man,,,,,"{""Q0"":""fred is talking to kate""}","<img src=""stim_listA/talk3.gif""</stim_listA>",is talking to,
null,"<div style=""font-size:60px;"">+</div>",,html-keyboard-response,241,1004142,0.0-15.0-0.12,85788,List2A,white,man,,,,null,,,,
null,"<img src=""stim_listA/shout2.gif""</stim_listA>",,html-keyboard-response,242,1006145,0.0-15.0-1.12,85788,List2A,white,man,,,,null,,,,
null,are shouting at each other,,html-keyboard-response,243,1008152,0.0-15.0-2.12,85788,List2A,white,man,,,,null,,,,
6726,,,survey-text,244,1014879,0.0-15.0-3.12,85788,List2A,white,man,,,,,"{""Q0"":""luke and jane are shouting at each other""}","<img src=""stim_listA/shout2.gif""</stim_listA>",are shouting at each other,
null,"<div style=""font-size:60px;"">+</div>",,html-keyboard-response,245,1015384,0.0-15.0-0.13,85788,List2A,white,man,,,,null,,,,
null,"<img src=""stim_listA/kiss5.gif""</stim_listA>",,html-keyboard-response,246,1017386,0.0-15.0-1.13,85788,List2A,white,man,,,,null,,,,
null,is kissing,,html-keyboard-response,247,1019388,0.0-15.0-2.13,85788,List2A,white,man,,,,null,,,,
4111,,,survey-text,248,1023504,0.0-15.0-3.13,85788,List2A,white,man,,,,,"{""Q0"":""luke is kissing fred""}","<img src=""stim_listA/kiss5.gif""</stim_listA>",is kissing,
null,"<div style=""font-size:60px;"">+</div>",,html-keyboard-response,249,1024007,0.0-15.0-0.14,85788,List2A,white,man,,,,null,,,,
null,"<img src=""stim_listA/talk4.gif""</stim_listA>",,html-keyboard-response,250,1026021,0.0-15.0-1.14,85788,List2A,white,man,,,,null,,,,
null,are talking to each other,,html-keyboard-response,251,1028024,0.0-15.0-2.14,85788,List2A,white,man,,,,null,,,,
6718,,,survey-text,252,1034744,0.0-15.0-3.14,85788,List2A,white,man,,,,,"{""Q0"":""mike and beth are talking to each other""}","<img src=""stim_listA/talk4.gif""</stim_listA>",are talking to each other,
null,"<div style=""font-size:60px;"">+</div>",,html-keyboard-response,253,1035246,0.0-15.0-0.15,85788,List2A,white,man,,,,null,,,,
null,"<img src=""stim_listA/marry3.gif""</stim_listA>",,html-keyboard-response,254,1037253,0.0-15.0-1.15,85788,List2A,white,man,,,,null,,,,
null,is marrying,,html-keyboard-response,255,1039256,0.0-15.0-2.15,85788,List2A,white,man,,,,null,,,,
4494,,,survey-text,256,1043752,0.0-15.0-3.15,85788,List2A,white,man,,,,,"{""Q0"":""mike is marrying beth""}","<img src=""stim_listA/marry3.gif""</stim_listA>",is marrying,
null,"<div style=""font-size:60px;"">+</div>",,html-keyboard-response,257,1044253,0.0-15.0-0.16,85788,List2A,white,man,,,,null,,,,
null,"<img src=""stim_listA/kiss4.gif""</stim_listA>",,html-keyboard-response,258,1046256,0.0-15.0-1.16,85788,List2A,white,man,,,,null,,,,
null,are kissing each other,,html-keyboard-response,259,1048257,0.0-15.0-2.16,85788,List2A,white,man,,,,null,,,,
6922,,,survey-text,260,1055181,0.0-15.0-3.16,85788,List2A,white,man,,,,,"{""Q0"":""mike and kate are kissing each other""}","<img src=""stim_listA/kiss4.gif""</stim_listA>",are kissing each other,
null,"<div style=""font-size:60px;"">+</div>",,html-keyboard-response,261,1055682,0.0-15.0-0.17,85788,List2A,white,man,,,,null,,,,
null,"<img src=""stim_listA/marry7.gif""</stim_listA>",,html-keyboard-response,262,1057698,0.0-15.0-1.17,85788,List2A,white,man,,,,null,,,,
null,is marrying,,html-keyboard-response,263,1059700,0.0-15.0-2.17,85788,List2A,white,man,,,,null,,,,
4223,,,survey-text,264,1063925,0.0-15.0-3.17,85788,List2A,white,man,,,,,"{""Q0"":""beth is marrying jane""}","<img src=""stim_listA/marry7.gif""</stim_listA>",is marrying,
null,"<div style=""font-size:60px;"">+</div>",,html-keyboard-response,265,1064444,0.0-15.0-0.18,85788,List2A,white,man,,,,null,,,,
null,"<img src=""stim_listA/meet1.gif""</stim_listA>",,html-keyboard-response,266,1066448,0.0-15.0-1.18,85788,List2A,white,man,,,,null,,,,
null,is meeting,,html-keyboard-response,267,1068450,0.0-15.0-2.18,85788,List2A,white,man,,,,null,,,,
4266,,,survey-text,268,1072717,0.0-15.0-3.18,85788,List2A,white,man,,,,,"{""Q0"":""luke is meeting jane""}","<img src=""stim_listA/meet1.gif""</stim_listA>",is meeting,
null,"<div style=""font-size:60px;"">+</div>",,html-keyboard-response,269,1073219,0.0-15.0-0.19,85788,List2A,white,man,,,,null,,,,
null,"<img src=""stim_listA/fight5.gif""</stim_listA>",,html-keyboard-response,270,1075223,0.0-15.0-1.19,85788,List2A,white,man,,,,null,,,,
null,is fighting,,html-keyboard-response,271,1077224,0.0-15.0-2.19,85788,List2A,white,man,,,,null,,,,
4179,,,survey-text,272,1081405,0.0-15.0-3.19,85788,List2A,white,man,,,,,"{""Q0"":""luke is fighting mike""}","<img src=""stim_listA/fight5.gif""</stim_listA>",is fighting,
7096,"<img src='img/portrait_matrix_list2.JPG' style='width:900px;height:500px;''></img><p>If you have memorised all the portraits and names and are ready to start, press Continue.</p><p><strong>Please note: Your memory of these faces will be tested 4 times during this experiment.</strong></p>",0,html-button-response,273,1088502,0.0-16.0-0.0,85788,List2A,white,man,,,,,,,,
1694,"<img src=""portrait/BW1.jpg""style=""width:400px;height:400px;""></img>",0,html-button-response,274,1091197,0.0-16.0-1.0,85788,List2A,white,man,,TRUE,0,,,,,
null,CORRECT,,html-keyboard-response,275,1092709,0.0-16.0-2.0-0.0,85788,List2A,white,man,,,,null,,,,
1389,"<img src=""portrait/BM1.jpg""style=""width:400px;height:400px;""></img>",4,html-button-response,276,1094101,0.0-16.0-4.0,85788,List2A,white,man,,TRUE,4,,,,,
null,CORRECT,,html-keyboard-response,277,1095625,0.0-16.0-5.0-0.0,85788,List2A,white,man,,,,null,,,,
1235,"<img src=""portrait/WW2.jpg""style=""width:400px;height:400px;""></img>",3,html-button-response,278,1096862,0.0-16.0-7.0,85788,List2A,white,man,,TRUE,3,,,,,
null,CORRECT,,html-keyboard-response,279,1098377,0.0-16.0-8.0-0.0,85788,List2A,white,man,,,,null,,,,
1315,"<img src=""portrait/WM2.jpg""style=""width:400px;height:400px;""></img>",7,html-button-response,280,1099694,0.0-16.0-10.0,85788,List2A,white,man,,TRUE,7,,,,,
null,CORRECT,,html-keyboard-response,281,1101197,0.0-16.0-11.0-0.0,85788,List2A,white,man,,,,null,,,,
1263,"<img src=""portrait/WW1.jpg""style=""width:400px;height:400px;""></img>",1,html-button-response,282,1102462,0.0-16.0-13.0,85788,List2A,white,man,,TRUE,1,,,,,
null,CORRECT,,html-keyboard-response,283,1103973,0.0-16.0-14.0-0.0,85788,List2A,white,man,,,,null,,,,
1486,"<img src=""portrait/BW2.jpg""style=""width:400px;height:400px;""></img>",2,html-button-response,284,1105462,0.0-16.0-16.0,85788,List2A,white,man,,TRUE,2,,,,,
null,CORRECT,,html-keyboard-response,285,1106967,0.0-16.0-17.0-0.0,85788,List2A,white,man,,,,null,,,,
988,"<img src=""portrait/WM1.jpg""style=""width:400px;height:400px;""></img>",6,html-button-response,286,1107958,0.0-16.0-19.0,85788,List2A,white,man,,TRUE,6,,,,,
null,CORRECT,,html-keyboard-response,287,1109461,0.0-16.0-20.0-0.0,85788,List2A,white,man,,,,null,,,,
695,"<img src=""portrait/BM2.jpg""style=""width:400px;height:400px;""></img>",5,html-button-response,288,1110158,0.0-16.0-22.0,85788,List2A,white,man,,TRUE,5,,,,,
null,CORRECT,,html-keyboard-response,289,1111669,0.0-16.0-23.0-0.0,85788,List2A,white,man,,,,null,,,,
1070,<p>You got 8 out of 8 right first time. Press Continue.</p>,0,html-button-response,290,1112741,0.0-16.0-25.0,85788,List2A,white,man,,,,,,,,
null,"<div style=""font-size:60px;"">+</div>",,html-keyboard-response,291,1114268,0.0-17.0-0.0,85788,List2A,white,man,,,,null,,,,
null,"<img src=""stim_listA/touch7.gif""</stim_listA>",,html-keyboard-response,292,1116286,0.0-17.0-1.0,85788,List2A,white,man,,,,null,,,,
null,is touching,,html-keyboard-response,293,1118288,0.0-17.0-2.0,85788,List2A,white,man,,,,null,,,,
4005,,,survey-text,294,1122295,0.0-17.0-3.0,85788,List2A,white,man,,,,,"{""Q0"":""beth is touching jane""}","<img src=""stim_listA/touch7.gif""</stim_listA>",is touching,
null,"<div style=""font-size:60px;"">+</div>",,html-keyboard-response,295,1122796,0.0-17.0-0.1,85788,List2A,white,man,,,,null,,,,
null,"<img src=""stim_listA/argue8.gif""</stim_listA>",,html-keyboard-response,296,1124799,0.0-17.0-1.1,85788,List2A,white,man,,,,null,,,,
null,are arguing with each other,,html-keyboard-response,297,1126800,0.0-17.0-2.1,85788,List2A,white,man,,,,null,,,,
6718,,,survey-text,298,1133519,0.0-17.0-3.1,85788,List2A,white,man,,,,,"{""Q0"":""ruth and kate arguing with each other""}","<img src=""stim_listA/argue8.gif""</stim_listA>",are arguing with each other,
null,"<div style=""font-size:60px;"">+</div>",,html-keyboard-response,299,1134021,0.0-17.0-0.2,85788,List2A,white,man,,,,null,,,,
null,"<img src=""stim_listA/kiss8.gif""</stim_listA>",,html-keyboard-response,300,1136032,0.0-17.0-1.2,85788,List2A,white,man,,,,null,,,,
null,are kissing each other,,html-keyboard-response,301,1138035,0.0-17.0-2.2,85788,List2A,white,man,,,,null,,,,
6819,,,survey-text,302,1144855,0.0-17.0-3.2,85788,List2A,white,man,,,,,"{""Q0"":""kate and jane are kissing each other""}","<img src=""stim_listA/kiss8.gif""</stim_listA>",are kissing each other,
null,"<div style=""font-size:60px;"">+</div>",,html-keyboard-response,303,1145358,0.0-17.0-0.3,85788,List2A,white,man,,,,null,,,,
null,"<img src=""stim_listA/shout5.gif""</stim_listA>",,html-keyboard-response,304,1147361,0.0-17.0-1.3,85788,List2A,white,man,,,,null,,,,
null,is shouting at,,html-keyboard-response,305,1149377,0.0-17.0-2.3,85788,List2A,white,man,,,,null,,,,
4221,,,survey-text,306,1153599,0.0-17.0-3.3,85788,List2A,white,man,,,,,"{""Q0"":""luke is shouting at fred""}","<img src=""stim_listA/shout5.gif""</stim_listA>",is shouting at,
null,"<div style=""font-size:60px;"">+</div>",,html-keyboard-response,307,1154100,0.0-17.0-0.4,85788,List2A,white,man,,,,null,,,,
null,"<img src=""stim_listA/dance1.gif""</stim_listA>",,html-keyboard-response,308,1156104,0.0-17.0-1.4,85788,List2A,white,man,,,,null,,,,
null,is dancing with,,html-keyboard-response,309,1158106,0.0-17.0-2.4,85788,List2A,white,man,,,,null,,,,
5708,,,survey-text,310,1163815,0.0-17.0-3.4,85788,List2A,white,man,,,,,"{""Q0"":""luke is dancing with jane""}","<img src=""stim_listA/dance1.gif""</stim_listA>",is dancing with,
null,"<div style=""font-size:60px;"">+</div>",,html-keyboard-response,311,1164324,0.0-17.0-0.5,85788,List2A,white,man,,,,null,,,,
null,"<img src=""stim_listA/marry5.gif""</stim_listA>",,html-keyboard-response,312,1166327,0.0-17.0-1.5,85788,List2A,white,man,,,,null,,,,
null,is marrying,,html-keyboard-response,313,1168339,0.0-17.0-2.5,85788,List2A,white,man,,,,null,,,,
4379,,,survey-text,314,1172720,0.0-17.0-3.5,85788,List2A,white,man,,,,,"{""Q0"":""fred is marrying luke""}","<img src=""stim_listA/marry5.gif""</stim_listA>",is marrying,
null,"<div style=""font-size:60px;"">+</div>",,html-keyboard-response,315,1173224,0.0-17.0-0.6,85788,List2A,white,man,,,,null,,,,
null,"<img src=""stim_listA/kiss7.gif""</stim_listA>",,html-keyboard-response,316,1175241,0.0-17.0-1.6,85788,List2A,white,man,,,,null,,,,
null,is kissing,,html-keyboard-response,317,1177250,0.0-17.0-2.6,85788,List2A,white,man,,,,null,,,,
4308,,,survey-text,318,1181559,0.0-17.0-3.6,85788,List2A,white,man,,,,,"{""Q0"":""ruth is kissing beth""}","<img src=""stim_listA/kiss7.gif""</stim_listA>",is kissing,
null,"<div style=""font-size:60px;"">+</div>",,html-keyboard-response,319,1182065,0.0-17.0-0.7,85788,List2A,white,man,,,,null,,,,
null,"<img src=""stim_listA/shout6.gif""</stim_listA>",,html-keyboard-response,320,1184068,0.0-17.0-1.7,85788,List2A,white,man,,,,null,,,,
null,are shouting at each other,,html-keyboard-response,321,1186071,0.0-17.0-2.7,85788,List2A,white,man,,,,null,,,,
7063,,,survey-text,322,1193135,0.0-17.0-3.7,85788,List2A,white,man,,,,,"{""Q0"":""mike and luke are shouting at each other""}","<img src=""stim_listA/shout6.gif""</stim_listA>",are shouting at each other,
null,"<div style=""font-size:60px;"">+</div>",,html-keyboard-response,323,1193643,0.0-17.0-0.8,85788,List2A,white,man,,,,null,,,,
null,"<img src=""stim_listA/marry4.gif""</stim_listA>",,html-keyboard-response,324,1195650,0.0-17.0-1.8,85788,List2A,white,man,,,,null,,,,
null,are marrying each other,,html-keyboard-response,325,1197652,0.0-17.0-2.8,85788,List2A,white,man,,,,null,,,,
6722,,,survey-text,326,1204375,0.0-17.0-3.8,85788,List2A,white,man,,,,,"{""Q0"":""fred and kate are marrying each other""}","<img src=""stim_listA/marry4.gif""</stim_listA>",are marrying each other,
null,"<div style=""font-size:60px;"">+</div>",,html-keyboard-response,327,1204877,0.0-17.0-0.9,85788,List2A,white,man,,,,null,,,,
null,"<img src=""stim_listA/dance8.gif""</stim_listA>",,html-keyboard-response,328,1206880,0.0-17.0-1.9,85788,List2A,white,man,,,,null,,,,
null,are dancing with each other,,html-keyboard-response,329,1208883,0.0-17.0-2.9,85788,List2A,white,man,,,,null,,,,
6139,,,survey-text,330,1215023,0.0-17.0-3.9,85788,List2A,white,man,,,,,"{""Q0"":""beth and jane are dancing with each other""}","<img src=""stim_listA/dance8.gif""</stim_listA>",are dancing with each other,
null,"<div style=""font-size:60px;"">+</div>",,html-keyboard-response,331,1215531,0.0-17.0-0.10,85788,List2A,white,man,,,,null,,,,
null,"<img src=""stim_listA/talk2.gif""</stim_listA>",,html-keyboard-response,332,1217534,0.0-17.0-1.10,85788,List2A,white,man,,,,null,,,,
null,are talking to each other,,html-keyboard-response,333,1219537,0.0-17.0-2.10,85788,List2A,white,man,,,,null,,,,
5989,,,survey-text,334,1225527,0.0-17.0-3.10,85788,List2A,white,man,,,,,"{""Q0"":""ruth and dave are talking to each other""}","<img src=""stim_listA/talk2.gif""</stim_listA>",are talking to each other,
null,"<div style=""font-size:60px;"">+</div>",,html-keyboard-response,335,1226034,0.0-17.0-0.11,85788,List2A,white,man,,,,null,,,,
null,"<img src=""stim_listA/argue1.gif""</stim_listA>",,html-keyboard-response,336,1228049,0.0-17.0-1.11,85788,List2A,white,man,,,,null,,,,
null,is arguing with,,html-keyboard-response,337,1230056,0.0-17.0-2.11,85788,List2A,white,man,,,,null,,,,
6014,,,survey-text,338,1236071,0.0-17.0-3.11,85788,List2A,white,man,,,,,"{""Q0"":""dave is arguing with ruth""}","<img src=""stim_listA/argue1.gif""</stim_listA>",is arguing with,
null,"<div style=""font-size:60px;"">+</div>",,html-keyboard-response,339,1236573,0.0-17.0-0.12,85788,List2A,white,man,,,,null,,,,
null,"<img src=""stim_listA/fight3.gif""</stim_listA>",,html-keyboard-response,340,1238591,0.0-17.0-1.12,85788,List2A,white,man,,,,null,,,,
null,is fighting,,html-keyboard-response,341,1240593,0.0-17.0-2.12,85788,List2A,white,man,,,,null,,,,
4789,,,survey-text,342,1245383,0.0-17.0-3.12,85788,List2A,white,man,,,,,"{""Q0"":""mike is fighting kate""}","<img src=""stim_listA/fight3.gif""</stim_listA>",is fighting,
null,"<div style=""font-size:60px;"">+</div>",,html-keyboard-response,343,1245886,0.0-17.0-0.13,85788,List2A,white,man,,,,null,,,,
null,"<img src=""stim_listA/meet8.gif""</stim_listA>",,html-keyboard-response,344,1247902,0.0-17.0-1.13,85788,List2A,white,man,,,,null,,,,
null,are meeting each other,,html-keyboard-response,345,1249904,0.0-17.0-2.13,85788,List2A,white,man,,,,null,,,,
7486,,,survey-text,346,1257391,0.0-17.0-3.13,85788,List2A,white,man,,,,,"{""Q0"":""beth and ruth are meeting each other""}","<img src=""stim_listA/meet8.gif""</stim_listA>",are meeting each other,
null,"<div style=""font-size:60px;"">+</div>",,html-keyboard-response,347,1257892,0.0-17.0-0.14,85788,List2A,white,man,,,,null,,,,
null,"<img src=""stim_listA/kiss6.gif""</stim_listA>",,html-keyboard-response,348,1259897,0.0-17.0-1.14,85788,List2A,white,man,,,,null,,,,
null,are kissing each other,,html-keyboard-response,349,1261898,0.0-17.0-2.14,85788,List2A,white,man,,,,null,,,,
5452,,,survey-text,350,1267351,0.0-17.0-3.14,85788,List2A,white,man,,,,,"{""Q0"":""mike and dave are kissing each other""}","<img src=""stim_listA/kiss6.gif""</stim_listA>",are kissing each other,
null,"<div style=""font-size:60px;"">+</div>",,html-keyboard-response,351,1267864,0.0-17.0-0.15,85788,List2A,white,man,,,,null,,,,
null,"<img src=""stim_listA/dance2.gif""</stim_listA>",,html-keyboard-response,352,1269868,0.0-17.0-1.15,85788,List2A,white,man,,,,null,,,,
null,are dancing with each other,,html-keyboard-response,353,1271872,0.0-17.0-2.15,85788,List2A,white,man,,,,null,,,,
6198,,,survey-text,354,1278071,0.0-17.0-3.15,85788,List2A,white,man,,,,,"{""Q0"":""ruth and dave are dancing with each other""}","<img src=""stim_listA/dance2.gif""</stim_listA>",are dancing with each other,
null,"<div style=""font-size:60px;"">+</div>",,html-keyboard-response,355,1278576,0.0-17.0-0.16,85788,List2A,white,man,,,,null,,,,
null,"<img src=""stim_listA/kiss2.gif""</stim_listA>",,html-keyboard-response,356,1280593,0.0-17.0-1.16,85788,List2A,white,man,,,,null,,,,
null,are kissing each other,,html-keyboard-response,357,1282595,0.0-17.0-2.16,85788,List2A,white,man,,,,null,,,,
5531,,,survey-text,358,1288127,0.0-17.0-3.16,85788,List2A,white,man,,,,,"{""Q0"":""dave and jane are kissing each other""}","<img src=""stim_listA/kiss2.gif""</stim_listA>",are kissing each other,
null,"<div style=""font-size:60px;"">+</div>",,html-keyboard-response,359,1288630,0.0-17.0-0.17,85788,List2A,white,man,,,,null,,,,
null,"<img src=""stim_listA/fight7.gif""</stim_listA>",,html-keyboard-response,360,1290637,0.0-17.0-1.17,85788,List2A,white,man,,,,null,,,,
null,is fighting,,html-keyboard-response,361,1292638,0.0-17.0-2.17,85788,List2A,white,man,,,,null,,,,
6130,,,survey-text,362,1298769,0.0-17.0-3.17,85788,List2A,white,man,,,,,"{""Q0"":""jane is fighting kate""}","<img src=""stim_listA/fight7.gif""</stim_listA>",is fighting,
null,"<div style=""font-size:60px;"">+</div>",,html-keyboard-response,363,1299270,0.0-17.0-0.18,85788,List2A,white,man,,,,null,,,,
null,"<img src=""stim_listA/touch8.gif""</stim_listA>",,html-keyboard-response,364,1301278,0.0-17.0-1.18,85788,List2A,white,man,,,,null,,,,
null,are touching each other,,html-keyboard-response,365,1303293,0.0-17.0-2.18,85788,List2A,white,man,,,,null,,,,
6403,,,survey-text,366,1309698,0.0-17.0-3.18,85788,List2A,white,man,,,,,"{""Q0"":""beth and ruth are touching each other""}","<img src=""stim_listA/touch8.gif""</stim_listA>",are touching each other,
null,"<div style=""font-size:60px;"">+</div>",,html-keyboard-response,367,1310212,0.0-17.0-0.19,85788,List2A,white,man,,,,null,,,,
null,"<img src=""stim_listA/touch3.gif""</stim_listA>",,html-keyboard-response,368,1312215,0.0-17.0-1.19,85788,List2A,white,man,,,,null,,,,
null,is touching,,html-keyboard-response,369,1314217,0.0-17.0-2.19,85788,List2A,white,man,,,,null,,,,
4215,,,survey-text,370,1318433,0.0-17.0-3.19,85788,List2A,white,man,,,,,"{""Q0"":""mike is touching kate""}","<img src=""stim_listA/touch3.gif""</stim_listA>",is touching,
6951,"<img src='img/portrait_matrix_list2.JPG' style='width:900px;height:500px;''></img><p>If you have memorised all the portraits and names and are ready to start, press Continue.</p><p><strong>Please note: Your memory of these faces will be tested 4 times during this experiment.</strong></p>",0,html-button-response,371,1325386,0.0-18.0-0.0,85788,List2A,white,man,,,,,,,,
4794,"<img src=""portrait/BM1.jpg""style=""width:400px;height:400px;""></img>",4,html-button-response,372,1331186,0.0-18.0-1.0,85788,List2A,white,man,,TRUE,4,,,,,
null,CORRECT,,html-keyboard-response,373,1332690,0.0-18.0-2.0-0.0,85788,List2A,white,man,,,,null,,,,
1262,"<img src=""portrait/WW1.jpg""style=""width:400px;height:400px;""></img>",1,html-button-response,374,1333955,0.0-18.0-4.0,85788,List2A,white,man,,TRUE,1,,,,,
null,CORRECT,,html-keyboard-response,375,1335484,0.0-18.0-5.0-0.0,85788,List2A,white,man,,,,null,,,,
1474,"<img src=""portrait/BW1.jpg""style=""width:400px;height:400px;""></img>",0,html-button-response,376,1336962,0.0-18.0-7.0,85788,List2A,white,man,,TRUE,0,,,,,
null,CORRECT,,html-keyboard-response,377,1338465,0.0-18.0-8.0-0.0,85788,List2A,white,man,,,,null,,,,
1310,"<img src=""portrait/WM1.jpg""style=""width:400px;height:400px;""></img>",6,html-button-response,378,1339778,0.0-18.0-10.0,85788,List2A,white,man,,TRUE,6,,,,,
null,CORRECT,,html-keyboard-response,379,1341281,0.0-18.0-11.0-0.0,85788,List2A,white,man,,,,null,,,,
1182,"<img src=""portrait/WM2.jpg""style=""width:400px;height:400px;""></img>",7,html-button-response,380,1342467,0.0-18.0-13.0,85788,List2A,white,man,,TRUE,7,,,,,
null,CORRECT,,html-keyboard-response,381,1343983,0.0-18.0-14.0-0.0,85788,List2A,white,man,,,,null,,,,
1216,"<img src=""portrait/BW2.jpg""style=""width:400px;height:400px;""></img>",2,html-button-response,382,1345202,0.0-18.0-16.0,85788,List2A,white,man,,TRUE,2,,,,,
null,CORRECT,,html-keyboard-response,383,1346705,0.0-18.0-17.0-0.0,85788,List2A,white,man,,,,null,,,,
1207,"<img src=""portrait/BM2.jpg""style=""width:400px;height:400px;""></img>",5,html-button-response,384,1347915,0.0-18.0-19.0,85788,List2A,white,man,,TRUE,5,,,,,
null,CORRECT,,html-keyboard-response,385,1349436,0.0-18.0-20.0-0.0,85788,List2A,white,man,,,,null,,,,
1795,"<img src=""portrait/WW2.jpg""style=""width:400px;height:400px;""></img>",3,html-button-response,386,1351234,0.0-18.0-22.0,85788,List2A,white,man,,TRUE,3,,,,,
null,CORRECT,,html-keyboard-response,387,1352737,0.0-18.0-23.0-0.0,85788,List2A,white,man,,,,null,,,,
943,<p>You got 8 out of 8 right first time. Press Continue.</p>,0,html-button-response,388,1353682,0.0-18.0-25.0,85788,List2A,white,man,,,,,,,,
null,"<div style=""font-size:60px;"">+</div>",,html-keyboard-response,389,1355199,0.0-19.0-0.0,85788,List2A,white,man,,,,null,,,,
null,"<img src=""stim_listA/talk6.gif""</stim_listA>",,html-keyboard-response,390,1357201,0.0-19.0-1.0,85788,List2A,white,man,,,,null,,,,
null,are talking to each other,,html-keyboard-response,391,1359203,0.0-19.0-2.0,85788,List2A,white,man,,,,null,,,,
6812,,,survey-text,392,1366017,0.0-19.0-3.0,85788,List2A,white,man,,,,,"{""Q0"":""fred and dave are talking to each other""}","<img src=""stim_listA/talk6.gif""</stim_listA>",are talking to each other,
null,"<div style=""font-size:60px;"">+</div>",,html-keyboard-response,393,1366529,0.0-19.0-0.1,85788,List2A,white,man,,,,null,,,,
null,"<img src=""stim_listA/marry6.gif""</stim_listA>",,html-keyboard-response,394,1368534,0.0-19.0-1.1,85788,List2A,white,man,,,,null,,,,
null,are marrying each other,,html-keyboard-response,395,1370536,0.0-19.0-2.1,85788,List2A,white,man,,,,null,,,,
5471,,,survey-text,396,1376009,0.0-19.0-3.1,85788,List2A,white,man,,,,,"{""Q0"":""luke and mike are marrying each other""}","<img src=""stim_listA/marry6.gif""</stim_listA>",are marrying each other,
null,"<div style=""font-size:60px;"">+</div>",,html-keyboard-response,397,1376517,0.0-19.0-0.2,85788,List2A,white,man,,,,null,,,,
null,"<img src=""stim_listA/hug1.gif""</stim_listA>",,html-keyboard-response,398,1378520,0.0-19.0-1.2,85788,List2A,white,man,,,,null,,,,
null,is hugging,,html-keyboard-response,399,1380526,0.0-19.0-2.2,85788,List2A,white,man,,,,null,,,,
4433,,,survey-text,400,1384961,0.0-19.0-3.2,85788,List2A,white,man,,,,,"{""Q0"":""luke is hugging ruth""}","<img src=""stim_listA/hug1.gif""</stim_listA>",is hugging,
null,"<div style=""font-size:60px;"">+</div>",,html-keyboard-response,401,1385463,0.0-19.0-0.3,85788,List2A,white,man,,,,null,,,,
null,"<img src=""stim_listA/meet6.gif""</stim_listA>",,html-keyboard-response,402,1387480,0.0-19.0-1.3,85788,List2A,white,man,,,,null,,,,
null,are meeting each other,,html-keyboard-response,403,1389488,0.0-19.0-2.3,85788,List2A,white,man,,,,null,,,,
5159,,,survey-text,404,1394649,0.0-19.0-3.3,85788,List2A,white,man,,,,,"{""Q0"":""fred and luke are meeting each other""}","<img src=""stim_listA/meet6.gif""</stim_listA>",are meeting each other,
null,"<div style=""font-size:60px;"">+</div>",,html-keyboard-response,405,1395150,0.0-19.0-0.4,85788,List2A,white,man,,,,null,,,,
null,"<img src=""stim_listA/hug7.gif""</stim_listA>",,html-keyboard-response,406,1397159,0.0-19.0-1.4,85788,List2A,white,man,,,,null,,,,
null,is hugging,,html-keyboard-response,407,1399161,0.0-19.0-2.4,85788,List2A,white,man,,,,null,,,,
4767,,,survey-text,408,1403929,0.0-19.0-3.4,85788,List2A,white,man,,,,,"{""Q0"":""beth is hugging ruth""}","<img src=""stim_listA/hug7.gif""</stim_listA>",is hugging,
null,"<div style=""font-size:60px;"">+</div>",,html-keyboard-response,409,1404432,0.0-19.0-0.5,85788,List2A,white,man,,,,null,,,,
null,"<img src=""stim_listA/dance4.gif""</stim_listA>",,html-keyboard-response,410,1406436,0.0-19.0-1.5,85788,List2A,white,man,,,,null,,,,
null,are dancing with each other,,html-keyboard-response,411,1408438,0.0-19.0-2.5,85788,List2A,white,man,,,,null,,,,
6380,,,survey-text,412,1414819,0.0-19.0-3.5,85788,List2A,white,man,,,,,"{""Q0"":""beth and mike are dancing with each other""}","<img src=""stim_listA/dance4.gif""</stim_listA>",are dancing with each other,
null,"<div style=""font-size:60px;"">+</div>",,html-keyboard-response,413,1415338,0.0-19.0-0.6,85788,List2A,white,man,,,,null,,,,
null,"<img src=""stim_listA/marry8.gif""</stim_listA>",,html-keyboard-response,414,1417349,0.0-19.0-1.6,85788,List2A,white,man,,,,null,,,,
null,are marrying each other,,html-keyboard-response,415,1419353,0.0-19.0-2.6,85788,List2A,white,man,,,,null,,,,
5729,,,survey-text,416,1425083,0.0-19.0-3.6,85788,List2A,white,man,,,,,"{""Q0"":""kate and ruth are marrying each other""}","<img src=""stim_listA/marry8.gif""</stim_listA>",are marrying each other,
null,"<div style=""font-size:60px;"">+</div>",,html-keyboard-response,417,1425586,0.0-19.0-0.7,85788,List2A,white,man,,,,null,,,,
null,"<img src=""stim_listA/touch2.gif""</stim_listA>",,html-keyboard-response,418,1427589,0.0-19.0-1.7,85788,List2A,white,man,,,,null,,,,
null,are touching each other,,html-keyboard-response,419,1429592,0.0-19.0-2.7,85788,List2A,white,man,,,,null,,,,
5562,,,survey-text,420,1435156,0.0-19.0-3.7,85788,List2A,white,man,,,,,"{""Q0"":""ruth and luke are touching each other""}","<img src=""stim_listA/touch2.gif""</stim_listA>",are touching each other,
null,"<div style=""font-size:60px;"">+</div>",,html-keyboard-response,421,1435658,0.0-19.0-0.8,85788,List2A,white,man,,,,null,,,,
null,"<img src=""stim_listA/argue5.gif""</stim_listA>",,html-keyboard-response,422,1437660,0.0-19.0-1.8,85788,List2A,white,man,,,,null,,,,
null,is arguing with,,html-keyboard-response,423,1439663,0.0-19.0-2.8,85788,List2A,white,man,,,,null,,,,
4427,,,survey-text,424,1444091,0.0-19.0-3.8,85788,List2A,white,man,,,,,"{""Q0"":""dave is arguing with fred""}","<img src=""stim_listA/argue5.gif""</stim_listA>",is arguing with,
null,"<div style=""font-size:60px;"">+</div>",,html-keyboard-response,425,1444594,0.0-19.0-0.9,85788,List2A,white,man,,,,null,,,,
null,"<img src=""stim_listA/meet2.gif""</stim_listA>",,html-keyboard-response,426,1446598,0.0-19.0-1.9,85788,List2A,white,man,,,,null,,,,
null,are meeting each other,,html-keyboard-response,427,1448599,0.0-19.0-2.9,85788,List2A,white,man,,,,null,,,,
5339,,,survey-text,428,1453940,0.0-19.0-3.9,85788,List2A,white,man,,,,,"{""Q0"":""ruth and luke are meeting each other""}","<img src=""stim_listA/meet2.gif""</stim_listA>",are meeting each other,
null,"<div style=""font-size:60px;"">+</div>",,html-keyboard-response,429,1454441,0.0-19.0-0.10,85788,List2A,white,man,,,,null,,,,
null,"<img src=""stim_listA/marry1.gif""</stim_listA>",,html-keyboard-response,430,1456451,0.0-19.0-1.10,85788,List2A,white,man,,,,null,,,,
null,is marrying,,html-keyboard-response,431,1458453,0.0-19.0-2.10,85788,List2A,white,man,,,,null,,,,
6125,,,survey-text,432,1464580,0.0-19.0-3.10,85788,List2A,white,man,,,,,"{""Q0"":""ruth is marrying dave""}","<img src=""stim_listA/marry1.gif""</stim_listA>",is marrying,
null,"<div style=""font-size:60px;"">+</div>",,html-keyboard-response,433,1465083,0.0-19.0-0.11,85788,List2A,white,man,,,,null,,,,
null,"<img src=""stim_listA/argue7.gif""</stim_listA>",,html-keyboard-response,434,1467087,0.0-19.0-1.11,85788,List2A,white,man,,,,null,,,,
null,is arguing with,,html-keyboard-response,435,1469098,0.0-19.0-2.11,85788,List2A,white,man,,,,null,,,,
5640,,,survey-text,436,1474740,0.0-19.0-3.11,85788,List2A,white,man,,,,,"{""Q0"":""jane is arguing with beth""}","<img src=""stim_listA/argue7.gif""</stim_listA>",is arguing with,
null,"<div style=""font-size:60px;"">+</div>",,html-keyboard-response,437,1475259,0.0-19.0-0.12,85788,List2A,white,man,,,,null,,,,
null,"<img src=""stim_listA/hug6.gif""</stim_listA>",,html-keyboard-response,438,1477276,0.0-19.0-1.12,85788,List2A,white,man,,,,null,,,,
null,are hugging each other,,html-keyboard-response,439,1479277,0.0-19.0-2.12,85788,List2A,white,man,,,,null,,,,
5602,,,survey-text,440,1484881,0.0-19.0-3.12,85788,List2A,white,man,,,,,"{""Q0"":""mike and dave are hugging each other""}","<img src=""stim_listA/hug6.gif""</stim_listA>",are hugging each other,
null,"<div style=""font-size:60px;"">+</div>",,html-keyboard-response,441,1485382,0.0-19.0-0.13,85788,List2A,white,man,,,,null,,,,
null,"<img src=""stim_listA/shout8.gif""</stim_listA>",,html-keyboard-response,442,1487387,0.0-19.0-1.13,85788,List2A,white,man,,,,null,,,,
null,are shouting at each other,,html-keyboard-response,443,1489389,0.0-19.0-2.13,85788,List2A,white,man,,,,null,,,,
6274,,,survey-text,444,1495665,0.0-19.0-3.13,85788,List2A,white,man,,,,,"{""Q0"":""jane and kate are shouting at each other""}","<img src=""stim_listA/shout8.gif""</stim_listA>",are shouting at each other,
null,"<div style=""font-size:60px;"">+</div>",,html-keyboard-response,445,1496168,0.0-19.0-0.14,85788,List2A,white,man,,,,null,,,,
null,"<img src=""stim_listA/dance6.gif""</stim_listA>",,html-keyboard-response,446,1498180,0.0-19.0-1.14,85788,List2A,white,man,,,,null,,,,
null,are dancing with each other,,html-keyboard-response,447,1500182,0.0-19.0-2.14,85788,List2A,white,man,,,,null,,,,
6712,,,survey-text,448,1506897,0.0-19.0-3.14,85788,List2A,white,man,,,,,"{""Q0"":""dave and fred are dancing with each other""}","<img src=""stim_listA/dance6.gif""</stim_listA>",are dancing with each other,
null,"<div style=""font-size:60px;"">+</div>",,html-keyboard-response,449,1507414,0.0-19.0-0.15,85788,List2A,white,man,,,,null,,,,
null,"<img src=""stim_listA/meet3.gif""</stim_listA>",,html-keyboard-response,450,1509417,0.0-19.0-1.15,85788,List2A,white,man,,,,null,,,,
null,is meeting,,html-keyboard-response,451,1511419,0.0-19.0-2.15,85788,List2A,white,man,,,,null,,,,
4348,,,survey-text,452,1515769,0.0-19.0-3.15,85788,List2A,white,man,,,,,"{""Q0"":""mike is meeting kate""}","<img src=""stim_listA/meet3.gif""</stim_listA>",is meeting,
null,"<div style=""font-size:60px;"">+</div>",,html-keyboard-response,453,1516276,0.0-19.0-0.16,85788,List2A,white,man,,,,null,,,,
null,"<img src=""stim_listA/fight8.gif""</stim_listA>",,html-keyboard-response,454,1518287,0.0-19.0-1.16,85788,List2A,white,man,,,,null,,,,
null,are fighting each other,,html-keyboard-response,455,1520293,0.0-19.0-2.16,85788,List2A,white,man,,,,null,,,,
5795,,,survey-text,456,1526089,0.0-19.0-3.16,85788,List2A,white,man,,,,,"{""Q0"":""beth and ruth are fighting each other""}","<img src=""stim_listA/fight8.gif""</stim_listA>",are fighting each other,
null,"<div style=""font-size:60px;"">+</div>",,html-keyboard-response,457,1526591,0.0-19.0-0.17,85788,List2A,white,man,,,,null,,,,
null,"<img src=""stim_listA/hug2.gif""</stim_listA>",,html-keyboard-response,458,1528592,0.0-19.0-1.17,85788,List2A,white,man,,,,null,,,,
null,are hugging each other,,html-keyboard-response,459,1530595,0.0-19.0-2.17,85788,List2A,white,man,,,,null,,,,
6030,,,survey-text,460,1536627,0.0-19.0-3.17,85788,List2A,white,man,,,,,"{""Q0"":""dave and jane are hugging each other""}","<img src=""stim_listA/hug2.gif""</stim_listA>",are hugging each other,
null,"<div style=""font-size:60px;"">+</div>",,html-keyboard-response,461,1537128,0.0-19.0-0.18,85788,List2A,white,man,,,,null,,,,
null,"<img src=""stim_listA/fight2.gif""</stim_listA>",,html-keyboard-response,462,1539130,0.0-19.0-1.18,85788,List2A,white,man,,,,null,,,,
null,are fighting each other,,html-keyboard-response,463,1541135,0.0-19.0-2.18,85788,List2A,white,man,,,,null,,,,
6297,,,survey-text,464,1547435,0.0-19.0-3.18,85788,List2A,white,man,,,,,"{""Q0"":""ruth and luke are fighting each other""}","<img src=""stim_listA/fight2.gif""</stim_listA>",are fighting each other,
null,"<div style=""font-size:60px;"">+</div>",,html-keyboard-response,465,1547937,0.0-19.0-0.19,85788,List2A,white,man,,,,null,,,,
null,"<img src=""stim_listA/talk5.gif""</stim_listA>",,html-keyboard-response,466,1549939,0.0-19.0-1.19,85788,List2A,white,man,,,,null,,,,
null,is talking to,,html-keyboard-response,467,1551941,0.0-19.0-2.19,85788,List2A,white,man,,,,null,,,,
6525,,,survey-text,468,1558467,0.0-19.0-3.19,85788,List2A,white,man,,,,,"{""Q0"":""luke is talking to mike""}","<img src=""stim_listA/talk5.gif""</stim_listA>",is talking to,
1711,<p>Thank you for completing that task.</p><p>The final part of this session is a short questionnaire.</p><p>Press Continue.</p>,0,html-button-response,469,1560180,0.0-20.0,85788,List2A,white,man,,,,,,,,
65378,,,survey-text,470,1626571,0.0-21.0,85788,List2A,white,man,,,,,"{""Q0"":""22"",""Q1"":""English"",""Q2"":""English"",""Q3"":""UK"",""Q4"":""White"",""Q5"":""Male""}",,,demographics
40815,,,survey-likert,471,1667393,0.0-22.0,85788,List2A,white,man,,,,,"{""Q0"":5,""Q1"":5,""Q2"":5,""Q3"":5,""Q4"":5,""Q5"":6,""Q6"":3,""Q7"":0,""Q8"":3,""Q9"":2,""Q10"":5,""Q11"":4,""Q12"":4,""Q13"":4}",,,likert_race
35520,,,survey-likert,472,1702923,0.0-23.0,85788,List2A,white,man,,,,,"{""Q0"":5,""Q1"":5,""Q2"":5,""Q3"":6,""Q4"":4,""Q5"":6,""Q6"":5,""Q7"":4,""Q8"":5,""Q9"":5,""Q10"":4,""Q11"":4,""Q12"":4,""Q13"":4}",,,likert_gender
3006,,,survey-text,473,1705936,0.0-24.0,85788,List2A,white,man,,,,,"{""Q0"":""ccc""}",,,worker_id
21581,,,external-html,474,1727625,0.0-25.0,85788,List2A,white,man,debrief.html,,,,,,,
