rt,stimulus,button_pressed,trial_type,trial_index,time_elapsed,internal_node_id,subject,list,ppt_race,ppt_gender,url,first_guess,correct,key_press,responses,image_type,phrase_type,test_part
2157,Welcome to the experiment. Press Continue to begin.,0,html-button-response,0,2161,0.0-0.0,85979,List2A,white,woman,,,,,,,,
57172,,,external-html,1,60390,0.0-1.0,85979,List2A,white,woman,consent.html,,,,,,,
11130,"<p>On the next page, you will see portraits of 8 people and their names.</p><p>Your first task is to take a few minutes to memorise the names of these people.</p><p>You will have to recall their names during the rest of the experiment, so it is</p><p>essential that you try to memorise these people and their names as best as you can.</p><br><p><strong>You will then be tested on your memory of these names and portraits.</strong></p><br><p>The experiment will start after you have completed this memory test.</p><br><p>Ready?</p>",0,html-button-response,2,71521,0.0-2.0,85979,List2A,white,woman,,,,,,,,
24573,"<img src='img/portrait_matrix_list2.JPG' style='width:900px;height:500px;''></img><p>If you have memorised all the portraits and names and are ready to start, press Continue.</p><p><strong>Please note: Your memory of these faces will be tested 4 times during this experiment.</strong></p>",0,html-button-response,3,97096,0.0-3.0-0.0,85979,List2A,white,woman,,,,,,,,
5353,"<img src=""portrait/WW2.jpg""style=""width:400px;height:400px;""></img>",3,html-button-response,4,103452,0.0-3.0-1.0,85979,List2A,white,woman,,TRUE,3,,,,,
null,CORRECT,,html-keyboard-response,5,104956,0.0-3.0-2.0-0.0,85979,List2A,white,woman,,,,null,,,,
4720,"<img src=""portrait/WM1.jpg""style=""width:400px;height:400px;""></img>",6,html-button-response,6,109678,0.0-3.0-4.0,85979,List2A,white,woman,,TRUE,6,,,,,
null,CORRECT,,html-keyboard-response,7,111180,0.0-3.0-5.0-0.0,85979,List2A,white,woman,,,,null,,,,
3441,"<img src=""portrait/BM2.jpg""style=""width:400px;height:400px;""></img>",5,html-button-response,8,114623,0.0-3.0-7.0,85979,List2A,white,woman,,TRUE,5,,,,,
null,CORRECT,,html-keyboard-response,9,116126,0.0-3.0-8.0-0.0,85979,List2A,white,woman,,,,null,,,,
4139,"<img src=""portrait/BW2.jpg""style=""width:400px;height:400px;""></img>",2,html-button-response,10,120266,0.0-3.0-10.0,85979,List2A,white,woman,,TRUE,2,,,,,
null,CORRECT,,html-keyboard-response,11,121769,0.0-3.0-11.0-0.0,85979,List2A,white,woman,,,,null,,,,
5752,"<img src=""portrait/WW1.jpg""style=""width:400px;height:400px;""></img>",1,html-button-response,12,127523,0.0-3.0-13.0,85979,List2A,white,woman,,TRUE,1,,,,,
null,CORRECT,,html-keyboard-response,13,129026,0.0-3.0-14.0-0.0,85979,List2A,white,woman,,,,null,,,,
4512,"<img src=""portrait/BM1.jpg""style=""width:400px;height:400px;""></img>",4,html-button-response,14,133539,0.0-3.0-16.0,85979,List2A,white,woman,,TRUE,4,,,,,
null,CORRECT,,html-keyboard-response,15,135043,0.0-3.0-17.0-0.0,85979,List2A,white,woman,,,,null,,,,
4092,"<img src=""portrait/BW1.jpg""style=""width:400px;height:400px;""></img>",0,html-button-response,16,139136,0.0-3.0-19.0,85979,List2A,white,woman,,TRUE,0,,,,,
null,CORRECT,,html-keyboard-response,17,140639,0.0-3.0-20.0-0.0,85979,List2A,white,woman,,,,null,,,,
1751,"<img src=""portrait/WM2.jpg""style=""width:400px;height:400px;""></img>",7,html-button-response,18,142392,0.0-3.0-22.0,85979,List2A,white,woman,,TRUE,7,,,,,
null,CORRECT,,html-keyboard-response,19,143895,0.0-3.0-23.0-0.0,85979,List2A,white,woman,,,,null,,,,
1601,<p>You got 8 out of 8 right first time. Press Continue.</p>,0,html-button-response,20,145498,0.0-3.0-25.0,85979,List2A,white,woman,,,,,,,,
8977,"<p>In this experiment, you will view photographs of the people from the memory game interacting.</p><p>By using the <strong>exact</strong> phrase given <i>after</i> the photograph appears and recalling the correct names of the people in the photographs, form a sentence describing the interaction. You do not need to capitalise names.</p><p>Type your answer in the space provided. Please complete every sentence before moving onto the next trial.</p><p>You will only have a few seconds to memorise each given photograph and phrase before you can respond, so try your best to focus.</p><p>An example is given below. Press 'Continue' when you are ready.</p><img src='img/speaking_example_v2.jpg' style='width:800px;height:460px;''></img>",0,html-button-response,21,155478,0.0-4.0,85979,List2A,white,woman,,,,,,,,
2069,"<p>Before the experiment starts, you will watch two example trials. Press 'Continue'.</p>",0,html-button-response,22,158550,0.0-5.0,85979,List2A,white,woman,,,,,,,,
null,<img src='img/speaking_WW.gif'></img>,,html-keyboard-response,23,161553,0.0-6.0,85979,List2A,white,woman,,,,null,,,,
null,<p>is speaking to</p>,,html-keyboard-response,24,163555,0.0-7.0,85979,List2A,white,woman,,,,null,,,,
10195,<p><b>Answer:</b> jane is speaking to ruth</p>,0,html-button-response,25,173751,0.0-8.0,85979,List2A,white,woman,,,,,,,,
null,<img src='img/pointing_BM.gif'></img>,,html-keyboard-response,26,176755,0.0-9.0,85979,List2A,white,woman,,,,null,,,,
null,<p>are pointing at each other</p>,,html-keyboard-response,27,178757,0.0-10.0,85979,List2A,white,woman,,,,null,,,,
4154,<p><b>Answer:</b> fred and mike are pointing at each other</p>,0,html-button-response,28,182912,0.0-11.0,85979,List2A,white,woman,,,,,,,,
3589,"<p>Ready to start the experiment?</p><br><p><strong>Remember to describe the picture using a full sentence,</strong></p><p><strong>that combines the names of the people with the given phrase.</strong></p><p><strong>If you do not do this correctly you will not be paid.</strong></p><p><strong> You do not need to capitalise names or use punctuation.</strong></p><br><p>Press 'Continue' to begin.</p>",0,html-button-response,29,187503,0.0-12.0,85979,List2A,white,woman,,,,,,,,
null,"<div style=""font-size:60px;"">+</div>",,html-keyboard-response,30,189005,0.0-13.0-0.0,85979,List2A,white,woman,,,,null,,,,
null,"<img src=""stim_listA/touch4.gif""</stim_listA>",,html-keyboard-response,31,191008,0.0-13.0-1.0,85979,List2A,white,woman,,,,null,,,,
null,are touching each other,,html-keyboard-response,32,193010,0.0-13.0-2.0,85979,List2A,white,woman,,,,null,,,,
11187,,,survey-text,33,204198,0.0-13.0-3.0,85979,List2A,white,woman,,,,,"{""Q0"":""BETH AND MIKE ARE HIGH FIVING""}","<img src=""stim_listA/touch4.gif""</stim_listA>",are touching each other,
null,"<div style=""font-size:60px;"">+</div>",,html-keyboard-response,34,204701,0.0-13.0-0.1,85979,List2A,white,woman,,,,null,,,,
null,"<img src=""stim_listA/kiss2.gif""</stim_listA>",,html-keyboard-response,35,206703,0.0-13.0-1.1,85979,List2A,white,woman,,,,null,,,,
null,are kissing each other,,html-keyboard-response,36,208704,0.0-13.0-2.1,85979,List2A,white,woman,,,,null,,,,
10980,,,survey-text,37,219685,0.0-13.0-3.1,85979,List2A,white,woman,,,,,"{""Q0"":""DAVE AND JANE ARE KISSING EACH OTHER""}","<img src=""stim_listA/kiss2.gif""</stim_listA>",are kissing each other,
null,"<div style=""font-size:60px;"">+</div>",,html-keyboard-response,38,220187,0.0-13.0-0.2,85979,List2A,white,woman,,,,null,,,,
null,"<img src=""stim_listA/meet7.gif""</stim_listA>",,html-keyboard-response,39,222190,0.0-13.0-1.2,85979,List2A,white,woman,,,,null,,,,
null,is meeting,,html-keyboard-response,40,224191,0.0-13.0-2.2,85979,List2A,white,woman,,,,null,,,,
9618,,,survey-text,41,233810,0.0-13.0-3.2,85979,List2A,white,woman,,,,,"{""Q0"":""JANE AND KATE ARE SHAKING HANDS""}","<img src=""stim_listA/meet7.gif""</stim_listA>",is meeting,
null,"<div style=""font-size:60px;"">+</div>",,html-keyboard-response,42,234313,0.0-13.0-0.3,85979,List2A,white,woman,,,,null,,,,
null,"<img src=""stim_listA/shout6.gif""</stim_listA>",,html-keyboard-response,43,236315,0.0-13.0-1.3,85979,List2A,white,woman,,,,null,,,,
null,are shouting at each other,,html-keyboard-response,44,238317,0.0-13.0-2.3,85979,List2A,white,woman,,,,null,,,,
12137,,,survey-text,45,250455,0.0-13.0-3.3,85979,List2A,white,woman,,,,,"{""Q0"":""DAVE AND MIKE ARE SHOUTING AT EACH OTHER""}","<img src=""stim_listA/shout6.gif""</stim_listA>",are shouting at each other,
null,"<div style=""font-size:60px;"">+</div>",,html-keyboard-response,46,250956,0.0-13.0-0.4,85979,List2A,white,woman,,,,null,,,,
null,"<img src=""stim_listA/marry4.gif""</stim_listA>",,html-keyboard-response,47,252959,0.0-13.0-1.4,85979,List2A,white,woman,,,,null,,,,
null,are marrying each other,,html-keyboard-response,48,254961,0.0-13.0-2.4,85979,List2A,white,woman,,,,null,,,,
9885,,,survey-text,49,264847,0.0-13.0-3.4,85979,List2A,white,woman,,,,,"{""Q0"":""kate and fred are marrying each other""}","<img src=""stim_listA/marry4.gif""</stim_listA>",are marrying each other,
null,"<div style=""font-size:60px;"">+</div>",,html-keyboard-response,50,265350,0.0-13.0-0.5,85979,List2A,white,woman,,,,null,,,,
null,"<img src=""stim_listA/meet3.gif""</stim_listA>",,html-keyboard-response,51,267352,0.0-13.0-1.5,85979,List2A,white,woman,,,,null,,,,
null,is meeting,,html-keyboard-response,52,269354,0.0-13.0-2.5,85979,List2A,white,woman,,,,null,,,,
8879,,,survey-text,53,278236,0.0-13.0-3.5,85979,List2A,white,woman,,,,,"{""Q0"":""katie and mike are meeting each other ""}","<img src=""stim_listA/meet3.gif""</stim_listA>",is meeting,
null,"<div style=""font-size:60px;"">+</div>",,html-keyboard-response,54,278738,0.0-13.0-0.6,85979,List2A,white,woman,,,,null,,,,
null,"<img src=""stim_listA/hug8.gif""</stim_listA>",,html-keyboard-response,55,280740,0.0-13.0-1.6,85979,List2A,white,woman,,,,null,,,,
null,are hugging each other,,html-keyboard-response,56,282742,0.0-13.0-2.6,85979,List2A,white,woman,,,,null,,,,
7330,,,survey-text,57,290073,0.0-13.0-3.6,85979,List2A,white,woman,,,,,"{""Q0"":""jane and kate are hugging other ""}","<img src=""stim_listA/hug8.gif""</stim_listA>",are hugging each other,
null,"<div style=""font-size:60px;"">+</div>",,html-keyboard-response,58,290574,0.0-13.0-0.7,85979,List2A,white,woman,,,,null,,,,
null,"<img src=""stim_listA/hug1.gif""</stim_listA>",,html-keyboard-response,59,292576,0.0-13.0-1.7,85979,List2A,white,woman,,,,null,,,,
null,is hugging,,html-keyboard-response,60,294578,0.0-13.0-2.7,85979,List2A,white,woman,,,,null,,,,
12815,,,survey-text,61,307394,0.0-13.0-3.7,85979,List2A,white,woman,,,,,"{""Q0"":""ruth is hugging luke""}","<img src=""stim_listA/hug1.gif""</stim_listA>",is hugging,
null,"<div style=""font-size:60px;"">+</div>",,html-keyboard-response,62,307895,0.0-13.0-0.8,85979,List2A,white,woman,,,,null,,,,
null,"<img src=""stim_listA/shout3.gif""</stim_listA>",,html-keyboard-response,63,309899,0.0-13.0-1.8,85979,List2A,white,woman,,,,null,,,,
null,is shouting at,,html-keyboard-response,64,311901,0.0-13.0-2.8,85979,List2A,white,woman,,,,null,,,,
11123,,,survey-text,65,323025,0.0-13.0-3.8,85979,List2A,white,woman,,,,,"{""Q0"":""ruth is shouting at mike""}","<img src=""stim_listA/shout3.gif""</stim_listA>",is shouting at,
null,"<div style=""font-size:60px;"">+</div>",,html-keyboard-response,66,323527,0.0-13.0-0.9,85979,List2A,white,woman,,,,null,,,,
null,"<img src=""stim_listA/marry6.gif""</stim_listA>",,html-keyboard-response,67,325530,0.0-13.0-1.9,85979,List2A,white,woman,,,,null,,,,
null,are marrying each other,,html-keyboard-response,68,327532,0.0-13.0-2.9,85979,List2A,white,woman,,,,null,,,,
10342,,,survey-text,69,337874,0.0-13.0-3.9,85979,List2A,white,woman,,,,,"{""Q0"":""luke and fred are marrying each other ""}","<img src=""stim_listA/marry6.gif""</stim_listA>",are marrying each other,
null,"<div style=""font-size:60px;"">+</div>",,html-keyboard-response,70,338376,0.0-13.0-0.10,85979,List2A,white,woman,,,,null,,,,
null,"<img src=""stim_listA/kiss3.gif""</stim_listA>",,html-keyboard-response,71,340379,0.0-13.0-1.10,85979,List2A,white,woman,,,,null,,,,
null,is kissing,,html-keyboard-response,72,342381,0.0-13.0-2.10,85979,List2A,white,woman,,,,null,,,,
7195,,,survey-text,73,349576,0.0-13.0-3.10,85979,List2A,white,woman,,,,,"{""Q0"":""beth and fred are kissing""}","<img src=""stim_listA/kiss3.gif""</stim_listA>",is kissing,
null,"<div style=""font-size:60px;"">+</div>",,html-keyboard-response,74,350078,0.0-13.0-0.11,85979,List2A,white,woman,,,,null,,,,
null,"<img src=""stim_listA/touch8.gif""</stim_listA>",,html-keyboard-response,75,352081,0.0-13.0-1.11,85979,List2A,white,woman,,,,null,,,,
null,are touching each other,,html-keyboard-response,76,354083,0.0-13.0-2.11,85979,List2A,white,woman,,,,null,,,,
16229,,,survey-text,77,370313,0.0-13.0-3.11,85979,List2A,white,woman,,,,,"{""Q0"":""beth and ruth are meeting each other""}","<img src=""stim_listA/touch8.gif""</stim_listA>",are touching each other,
null,"<div style=""font-size:60px;"">+</div>",,html-keyboard-response,78,370815,0.0-13.0-0.12,85979,List2A,white,woman,,,,null,,,,
null,"<img src=""stim_listA/argue4.gif""</stim_listA>",,html-keyboard-response,79,372818,0.0-13.0-1.12,85979,List2A,white,woman,,,,null,,,,
null,are arguing with each other,,html-keyboard-response,80,374820,0.0-13.0-2.12,85979,List2A,white,woman,,,,null,,,,
9848,,,survey-text,81,384670,0.0-13.0-3.12,85979,List2A,white,woman,,,,,"{""Q0"":""fred and kate are arguing ""}","<img src=""stim_listA/argue4.gif""</stim_listA>",are arguing with each other,
null,"<div style=""font-size:60px;"">+</div>",,html-keyboard-response,82,385172,0.0-13.0-0.13,85979,List2A,white,woman,,,,null,,,,
null,"<img src=""stim_listA/argue8.gif""</stim_listA>",,html-keyboard-response,83,387174,0.0-13.0-1.13,85979,List2A,white,woman,,,,null,,,,
null,are arguing with each other,,html-keyboard-response,84,389177,0.0-13.0-2.13,85979,List2A,white,woman,,,,null,,,,
13284,,,survey-text,85,402461,0.0-13.0-3.13,85979,List2A,white,woman,,,,,"{""Q0"":""kate and ruth are arguing with each other""}","<img src=""stim_listA/argue8.gif""</stim_listA>",are arguing with each other,
null,"<div style=""font-size:60px;"">+</div>",,html-keyboard-response,86,402963,0.0-13.0-0.14,85979,List2A,white,woman,,,,null,,,,
null,"<img src=""stim_listA/fight1.gif""</stim_listA>",,html-keyboard-response,87,404966,0.0-13.0-1.14,85979,List2A,white,woman,,,,null,,,,
null,is fighting,,html-keyboard-response,88,406968,0.0-13.0-2.14,85979,List2A,white,woman,,,,null,,,,
9466,,,survey-text,89,416436,0.0-13.0-3.14,85979,List2A,white,woman,,,,,"{""Q0"":""jane is fighting with dave""}","<img src=""stim_listA/fight1.gif""</stim_listA>",is fighting,
null,"<div style=""font-size:60px;"">+</div>",,html-keyboard-response,90,416938,0.0-13.0-0.15,85979,List2A,white,woman,,,,null,,,,
null,"<img src=""stim_listA/dance6.gif""</stim_listA>",,html-keyboard-response,91,418941,0.0-13.0-1.15,85979,List2A,white,woman,,,,null,,,,
null,are dancing with each other,,html-keyboard-response,92,420943,0.0-13.0-2.15,85979,List2A,white,woman,,,,null,,,,
8984,,,survey-text,93,429928,0.0-13.0-3.15,85979,List2A,white,woman,,,,,"{""Q0"":""dave is dancing with fred""}","<img src=""stim_listA/dance6.gif""</stim_listA>",are dancing with each other,
null,"<div style=""font-size:60px;"">+</div>",,html-keyboard-response,94,430430,0.0-13.0-0.16,85979,List2A,white,woman,,,,null,,,,
null,"<img src=""stim_listA/touch7.gif""</stim_listA>",,html-keyboard-response,95,432432,0.0-13.0-1.16,85979,List2A,white,woman,,,,null,,,,
null,is touching,,html-keyboard-response,96,434435,0.0-13.0-2.16,85979,List2A,white,woman,,,,null,,,,
10073,,,survey-text,97,444508,0.0-13.0-3.16,85979,List2A,white,woman,,,,,"{""Q0"":""kate and jane are meeting ""}","<img src=""stim_listA/touch7.gif""</stim_listA>",is touching,
null,"<div style=""font-size:60px;"">+</div>",,html-keyboard-response,98,445011,0.0-13.0-0.17,85979,List2A,white,woman,,,,null,,,,
null,"<img src=""stim_listA/touch5.gif""</stim_listA>",,html-keyboard-response,99,447013,0.0-13.0-1.17,85979,List2A,white,woman,,,,null,,,,
null,is touching,,html-keyboard-response,100,449016,0.0-13.0-2.17,85979,List2A,white,woman,,,,null,,,,
11693,,,survey-text,101,460709,0.0-13.0-3.17,85979,List2A,white,woman,,,,,"{""Q0"":""dave is touching mike""}","<img src=""stim_listA/touch5.gif""</stim_listA>",is touching,
null,"<div style=""font-size:60px;"">+</div>",,html-keyboard-response,102,461211,0.0-13.0-0.18,85979,List2A,white,woman,,,,null,,,,
null,"<img src=""stim_listA/kiss6.gif""</stim_listA>",,html-keyboard-response,103,463214,0.0-13.0-1.18,85979,List2A,white,woman,,,,null,,,,
null,are kissing each other,,html-keyboard-response,104,465216,0.0-13.0-2.18,85979,List2A,white,woman,,,,null,,,,
7932,,,survey-text,105,473150,0.0-13.0-3.18,85979,List2A,white,woman,,,,,"{""Q0"":""mike and dave are kissing each other""}","<img src=""stim_listA/kiss6.gif""</stim_listA>",are kissing each other,
null,"<div style=""font-size:60px;"">+</div>",,html-keyboard-response,106,473652,0.0-13.0-0.19,85979,List2A,white,woman,,,,null,,,,
null,"<img src=""stim_listA/talk8.gif""</stim_listA>",,html-keyboard-response,107,475654,0.0-13.0-1.19,85979,List2A,white,woman,,,,null,,,,
null,are talking to each other,,html-keyboard-response,108,477657,0.0-13.0-2.19,85979,List2A,white,woman,,,,null,,,,
12821,,,survey-text,109,490478,0.0-13.0-3.19,85979,List2A,white,woman,,,,,"{""Q0"":""jane and beth are kissing ""}","<img src=""stim_listA/talk8.gif""</stim_listA>",are talking to each other,
5171,"<img src='img/portrait_matrix_list2.JPG' style='width:900px;height:500px;''></img><p>If you have memorised all the portraits and names and are ready to start, press Continue.</p><p><strong>Please note: Your memory of these faces will be tested 4 times during this experiment.</strong></p>",0,html-button-response,110,495651,0.0-14.0-0.0,85979,List2A,white,woman,,,,,,,,
3912,"<img src=""portrait/BW2.jpg""style=""width:400px;height:400px;""></img>",2,html-button-response,111,500566,0.0-14.0-1.0,85979,List2A,white,woman,,TRUE,2,,,,,
null,CORRECT,,html-keyboard-response,112,502070,0.0-14.0-2.0-0.0,85979,List2A,white,woman,,,,null,,,,
2699,"<img src=""portrait/WW2.jpg""style=""width:400px;height:400px;""></img>",3,html-button-response,113,504771,0.0-14.0-4.0,85979,List2A,white,woman,,TRUE,3,,,,,
null,CORRECT,,html-keyboard-response,114,506274,0.0-14.0-5.0-0.0,85979,List2A,white,woman,,,,null,,,,
3484,"<img src=""portrait/WM1.jpg""style=""width:400px;height:400px;""></img>",6,html-button-response,115,509759,0.0-14.0-7.0,85979,List2A,white,woman,,TRUE,6,,,,,
null,CORRECT,,html-keyboard-response,116,511262,0.0-14.0-8.0-0.0,85979,List2A,white,woman,,,,null,,,,
3432,"<img src=""portrait/BW1.jpg""style=""width:400px;height:400px;""></img>",0,html-button-response,117,514696,0.0-14.0-10.0,85979,List2A,white,woman,,TRUE,0,,,,,
null,CORRECT,,html-keyboard-response,118,516199,0.0-14.0-11.0-0.0,85979,List2A,white,woman,,,,null,,,,
3221,"<img src=""portrait/WM2.jpg""style=""width:400px;height:400px;""></img>",7,html-button-response,119,519422,0.0-14.0-13.0,85979,List2A,white,woman,,TRUE,7,,,,,
null,CORRECT,,html-keyboard-response,120,520925,0.0-14.0-14.0-0.0,85979,List2A,white,woman,,,,null,,,,
2648,"<img src=""portrait/BM1.jpg""style=""width:400px;height:400px;""></img>",4,html-button-response,121,523574,0.0-14.0-16.0,85979,List2A,white,woman,,TRUE,4,,,,,
null,CORRECT,,html-keyboard-response,122,525077,0.0-14.0-17.0-0.0,85979,List2A,white,woman,,,,null,,,,
3032,"<img src=""portrait/BM2.jpg""style=""width:400px;height:400px;""></img>",5,html-button-response,123,528112,0.0-14.0-19.0,85979,List2A,white,woman,,TRUE,5,,,,,
null,CORRECT,,html-keyboard-response,124,529614,0.0-14.0-20.0-0.0,85979,List2A,white,woman,,,,null,,,,
3003,"<img src=""portrait/WW1.jpg""style=""width:400px;height:400px;""></img>",1,html-button-response,125,532619,0.0-14.0-22.0,85979,List2A,white,woman,,TRUE,1,,,,,
null,CORRECT,,html-keyboard-response,126,534122,0.0-14.0-23.0-0.0,85979,List2A,white,woman,,,,null,,,,
1710,<p>You got 8 out of 8 right first time. Press Continue.</p>,0,html-button-response,127,535833,0.0-14.0-25.0,85979,List2A,white,woman,,,,,,,,
null,"<div style=""font-size:60px;"">+</div>",,html-keyboard-response,128,537337,0.0-15.0-0.0,85979,List2A,white,woman,,,,null,,,,
null,"<img src=""stim_listA/talk1.gif""</stim_listA>",,html-keyboard-response,129,539339,0.0-15.0-1.0,85979,List2A,white,woman,,,,null,,,,
null,is talking to,,html-keyboard-response,130,541341,0.0-15.0-2.0,85979,List2A,white,woman,,,,null,,,,
7035,,,survey-text,131,548378,0.0-15.0-3.0,85979,List2A,white,woman,,,,,"{""Q0"":""jane is talking to luke""}","<img src=""stim_listA/talk1.gif""</stim_listA>",is talking to,
null,"<div style=""font-size:60px;"">+</div>",,html-keyboard-response,132,548879,0.0-15.0-0.1,85979,List2A,white,woman,,,,null,,,,
null,"<img src=""stim_listA/fight3.gif""</stim_listA>",,html-keyboard-response,133,550881,0.0-15.0-1.1,85979,List2A,white,woman,,,,null,,,,
null,is fighting,,html-keyboard-response,134,552883,0.0-15.0-2.1,85979,List2A,white,woman,,,,null,,,,
5734,,,survey-text,135,558618,0.0-15.0-3.1,85979,List2A,white,woman,,,,,"{""Q0"":""kate is fighting mike""}","<img src=""stim_listA/fight3.gif""</stim_listA>",is fighting,
null,"<div style=""font-size:60px;"">+</div>",,html-keyboard-response,136,559120,0.0-15.0-0.2,85979,List2A,white,woman,,,,null,,,,
null,"<img src=""stim_listA/talk3.gif""</stim_listA>",,html-keyboard-response,137,561122,0.0-15.0-1.2,85979,List2A,white,woman,,,,null,,,,
null,is talking to,,html-keyboard-response,138,563124,0.0-15.0-2.2,85979,List2A,white,woman,,,,null,,,,
5342,,,survey-text,139,568467,0.0-15.0-3.2,85979,List2A,white,woman,,,,,"{""Q0"":""kate is talking to fred""}","<img src=""stim_listA/talk3.gif""</stim_listA>",is talking to,
null,"<div style=""font-size:60px;"">+</div>",,html-keyboard-response,140,568969,0.0-15.0-0.3,85979,List2A,white,woman,,,,null,,,,
null,"<img src=""stim_listA/hug2.gif""</stim_listA>",,html-keyboard-response,141,570972,0.0-15.0-1.3,85979,List2A,white,woman,,,,null,,,,
null,are hugging each other,,html-keyboard-response,142,572974,0.0-15.0-2.3,85979,List2A,white,woman,,,,null,,,,
11242,,,survey-text,143,584217,0.0-15.0-3.3,85979,List2A,white,woman,,,,,"{""Q0"":""jane and dave are hugging each other ""}","<img src=""stim_listA/hug2.gif""</stim_listA>",are hugging each other,
null,"<div style=""font-size:60px;"">+</div>",,html-keyboard-response,144,584719,0.0-15.0-0.4,85979,List2A,white,woman,,,,null,,,,
null,"<img src=""stim_listA/shout8.gif""</stim_listA>",,html-keyboard-response,145,586721,0.0-15.0-1.4,85979,List2A,white,woman,,,,null,,,,
null,are shouting at each other,,html-keyboard-response,146,588724,0.0-15.0-2.4,85979,List2A,white,woman,,,,null,,,,
9499,,,survey-text,147,598223,0.0-15.0-3.4,85979,List2A,white,woman,,,,,"{""Q0"":""kate and jane are arguing""}","<img src=""stim_listA/shout8.gif""</stim_listA>",are shouting at each other,
null,"<div style=""font-size:60px;"">+</div>",,html-keyboard-response,148,598725,0.0-15.0-0.5,85979,List2A,white,woman,,,,null,,,,
null,"<img src=""stim_listA/marry2.gif""</stim_listA>",,html-keyboard-response,149,600727,0.0-15.0-1.5,85979,List2A,white,woman,,,,null,,,,
null,are marrying each other,,html-keyboard-response,150,602730,0.0-15.0-2.5,85979,List2A,white,woman,,,,null,,,,
20841,,,survey-text,151,623571,0.0-15.0-3.5,85979,List2A,white,woman,,,,,"{""Q0"":""jane and luke are touching each other ""}","<img src=""stim_listA/marry2.gif""</stim_listA>",are marrying each other,
null,"<div style=""font-size:60px;"">+</div>",,html-keyboard-response,152,624073,0.0-15.0-0.6,85979,List2A,white,woman,,,,null,,,,
null,"<img src=""stim_listA/meet6.gif""</stim_listA>",,html-keyboard-response,153,626075,0.0-15.0-1.6,85979,List2A,white,woman,,,,null,,,,
null,are meeting each other,,html-keyboard-response,154,628078,0.0-15.0-2.6,85979,List2A,white,woman,,,,null,,,,
12140,,,survey-text,155,640220,0.0-15.0-3.6,85979,List2A,white,woman,,,,,"{""Q0"":""luke and fred are meeting each other""}","<img src=""stim_listA/meet6.gif""</stim_listA>",are meeting each other,
null,"<div style=""font-size:60px;"">+</div>",,html-keyboard-response,156,640721,0.0-15.0-0.7,85979,List2A,white,woman,,,,null,,,,
null,"<img src=""stim_listA/kiss4.gif""</stim_listA>",,html-keyboard-response,157,642723,0.0-15.0-1.7,85979,List2A,white,woman,,,,null,,,,
null,are kissing each other,,html-keyboard-response,158,644726,0.0-15.0-2.7,85979,List2A,white,woman,,,,null,,,,
6531,,,survey-text,159,651259,0.0-15.0-3.7,85979,List2A,white,woman,,,,,"{""Q0"":""kate and mike are kissing ""}","<img src=""stim_listA/kiss4.gif""</stim_listA>",are kissing each other,
null,"<div style=""font-size:60px;"">+</div>",,html-keyboard-response,160,651761,0.0-15.0-0.8,85979,List2A,white,woman,,,,null,,,,
null,"<img src=""stim_listA/argue5.gif""</stim_listA>",,html-keyboard-response,161,653763,0.0-15.0-1.8,85979,List2A,white,woman,,,,null,,,,
null,is arguing with,,html-keyboard-response,162,655765,0.0-15.0-2.8,85979,List2A,white,woman,,,,null,,,,
11299,,,survey-text,163,667065,0.0-15.0-3.8,85979,List2A,white,woman,,,,,"{""Q0"":""fred is arguing with dave""}","<img src=""stim_listA/argue5.gif""</stim_listA>",is arguing with,
null,"<div style=""font-size:60px;"">+</div>",,html-keyboard-response,164,667567,0.0-15.0-0.9,85979,List2A,white,woman,,,,null,,,,
null,"<img src=""stim_listA/shout7.gif""</stim_listA>",,html-keyboard-response,165,669570,0.0-15.0-1.9,85979,List2A,white,woman,,,,null,,,,
null,is shouting at,,html-keyboard-response,166,671572,0.0-15.0-2.9,85979,List2A,white,woman,,,,null,,,,
11320,,,survey-text,167,682893,0.0-15.0-3.9,85979,List2A,white,woman,,,,,"{""Q0"":""beth is shouting at ruth""}","<img src=""stim_listA/shout7.gif""</stim_listA>",is shouting at,
null,"<div style=""font-size:60px;"">+</div>",,html-keyboard-response,168,683395,0.0-15.0-0.10,85979,List2A,white,woman,,,,null,,,,
null,"<img src=""stim_listA/marry8.gif""</stim_listA>",,html-keyboard-response,169,685397,0.0-15.0-1.10,85979,List2A,white,woman,,,,null,,,,
null,are marrying each other,,html-keyboard-response,170,687400,0.0-15.0-2.10,85979,List2A,white,woman,,,,null,,,,
10500,,,survey-text,171,697901,0.0-15.0-3.10,85979,List2A,white,woman,,,,,"{""Q0"":""kate is marrying ruth""}","<img src=""stim_listA/marry8.gif""</stim_listA>",are marrying each other,
null,"<div style=""font-size:60px;"">+</div>",,html-keyboard-response,172,698402,0.0-15.0-0.11,85979,List2A,white,woman,,,,null,,,,
null,"<img src=""stim_listA/touch6.gif""</stim_listA>",,html-keyboard-response,173,700405,0.0-15.0-1.11,85979,List2A,white,woman,,,,null,,,,
null,are touching each other,,html-keyboard-response,174,702407,0.0-15.0-2.11,85979,List2A,white,woman,,,,null,,,,
9988,,,survey-text,175,712397,0.0-15.0-3.11,85979,List2A,white,woman,,,,,"{""Q0"":""fred and luke are touching each other ""}","<img src=""stim_listA/touch6.gif""</stim_listA>",are touching each other,
null,"<div style=""font-size:60px;"">+</div>",,html-keyboard-response,176,712899,0.0-15.0-0.12,85979,List2A,white,woman,,,,null,,,,
null,"<img src=""stim_listA/shout2.gif""</stim_listA>",,html-keyboard-response,177,714901,0.0-15.0-1.12,85979,List2A,white,woman,,,,null,,,,
null,are shouting at each other,,html-keyboard-response,178,716903,0.0-15.0-2.12,85979,List2A,white,woman,,,,null,,,,
7695,,,survey-text,179,724599,0.0-15.0-3.12,85979,List2A,white,woman,,,,,"{""Q0"":""jane and luke are shouting at each other""}","<img src=""stim_listA/shout2.gif""</stim_listA>",are shouting at each other,
null,"<div style=""font-size:60px;"">+</div>",,html-keyboard-response,180,725101,0.0-15.0-0.13,85979,List2A,white,woman,,,,null,,,,
null,"<img src=""stim_listA/kiss8.gif""</stim_listA>",,html-keyboard-response,181,727103,0.0-15.0-1.13,85979,List2A,white,woman,,,,null,,,,
null,are kissing each other,,html-keyboard-response,182,729106,0.0-15.0-2.13,85979,List2A,white,woman,,,,null,,,,
7281,,,survey-text,183,736388,0.0-15.0-3.13,85979,List2A,white,woman,,,,,"{""Q0"":""kate and jane are kissing each other""}","<img src=""stim_listA/kiss8.gif""</stim_listA>",are kissing each other,
null,"<div style=""font-size:60px;"">+</div>",,html-keyboard-response,184,736890,0.0-15.0-0.14,85979,List2A,white,woman,,,,null,,,,
null,"<img src=""stim_listA/meet1.gif""</stim_listA>",,html-keyboard-response,185,738893,0.0-15.0-1.14,85979,List2A,white,woman,,,,null,,,,
null,is meeting,,html-keyboard-response,186,740895,0.0-15.0-2.14,85979,List2A,white,woman,,,,null,,,,
6948,,,survey-text,187,747844,0.0-15.0-3.14,85979,List2A,white,woman,,,,,"{""Q0"":""jane is meeting dave""}","<img src=""stim_listA/meet1.gif""</stim_listA>",is meeting,
null,"<div style=""font-size:60px;"">+</div>",,html-keyboard-response,188,748346,0.0-15.0-0.15,85979,List2A,white,woman,,,,null,,,,
null,"<img src=""stim_listA/argue2.gif""</stim_listA>",,html-keyboard-response,189,750349,0.0-15.0-1.15,85979,List2A,white,woman,,,,null,,,,
null,are arguing with each other,,html-keyboard-response,190,752351,0.0-15.0-2.15,85979,List2A,white,woman,,,,null,,,,
11079,,,survey-text,191,763431,0.0-15.0-3.15,85979,List2A,white,woman,,,,,"{""Q0"":""jane and dave are arguing with each other""}","<img src=""stim_listA/argue2.gif""</stim_listA>",are arguing with each other,
null,"<div style=""font-size:60px;"">+</div>",,html-keyboard-response,192,763933,0.0-15.0-0.16,85979,List2A,white,woman,,,,null,,,,
null,"<img src=""stim_listA/marry1.gif""</stim_listA>",,html-keyboard-response,193,765935,0.0-15.0-1.16,85979,List2A,white,woman,,,,null,,,,
null,is marrying,,html-keyboard-response,194,767937,0.0-15.0-2.16,85979,List2A,white,woman,,,,null,,,,
10736,,,survey-text,195,778673,0.0-15.0-3.16,85979,List2A,white,woman,,,,,"{""Q0"":""ruth is marrying dave""}","<img src=""stim_listA/marry1.gif""</stim_listA>",is marrying,
null,"<div style=""font-size:60px;"">+</div>",,html-keyboard-response,196,779175,0.0-15.0-0.17,85979,List2A,white,woman,,,,null,,,,
null,"<img src=""stim_listA/marry3.gif""</stim_listA>",,html-keyboard-response,197,781178,0.0-15.0-1.17,85979,List2A,white,woman,,,,null,,,,
null,is marrying,,html-keyboard-response,198,783180,0.0-15.0-2.17,85979,List2A,white,woman,,,,null,,,,
6879,,,survey-text,199,790060,0.0-15.0-3.17,85979,List2A,white,woman,,,,,"{""Q0"":""beth is marrying fred""}","<img src=""stim_listA/marry3.gif""</stim_listA>",is marrying,
null,"<div style=""font-size:60px;"">+</div>",,html-keyboard-response,200,790562,0.0-15.0-0.18,85979,List2A,white,woman,,,,null,,,,
null,"<img src=""stim_listA/shout5.gif""</stim_listA>",,html-keyboard-response,201,792565,0.0-15.0-1.18,85979,List2A,white,woman,,,,null,,,,
null,is shouting at,,html-keyboard-response,202,794567,0.0-15.0-2.18,85979,List2A,white,woman,,,,null,,,,
6679,,,survey-text,203,801248,0.0-15.0-3.18,85979,List2A,white,woman,,,,,"{""Q0"":""luke is shouting at mike ""}","<img src=""stim_listA/shout5.gif""</stim_listA>",is shouting at,
null,"<div style=""font-size:60px;"">+</div>",,html-keyboard-response,204,801749,0.0-15.0-0.19,85979,List2A,white,woman,,,,null,,,,
null,"<img src=""stim_listA/dance8.gif""</stim_listA>",,html-keyboard-response,205,803751,0.0-15.0-1.19,85979,List2A,white,woman,,,,null,,,,
null,are dancing with each other,,html-keyboard-response,206,805753,0.0-15.0-2.19,85979,List2A,white,woman,,,,null,,,,
15857,,,survey-text,207,821612,0.0-15.0-3.19,85979,List2A,white,woman,,,,,"{""Q0"":""beth and jane are dancing together ""}","<img src=""stim_listA/dance8.gif""</stim_listA>",are dancing with each other,
3867,"<img src='img/portrait_matrix_list2.JPG' style='width:900px;height:500px;''></img><p>If you have memorised all the portraits and names and are ready to start, press Continue.</p><p><strong>Please note: Your memory of these faces will be tested 4 times during this experiment.</strong></p>",0,html-button-response,208,825480,0.0-16.0-0.0,85979,List2A,white,woman,,,,,,,,
4003,"<img src=""portrait/BW1.jpg""style=""width:400px;height:400px;""></img>",0,html-button-response,209,830484,0.0-16.0-1.0,85979,List2A,white,woman,,TRUE,0,,,,,
null,CORRECT,,html-keyboard-response,210,831987,0.0-16.0-2.0-0.0,85979,List2A,white,woman,,,,null,,,,
2127,"<img src=""portrait/WM2.jpg""style=""width:400px;height:400px;""></img>",7,html-button-response,211,834116,0.0-16.0-4.0,85979,List2A,white,woman,,TRUE,7,,,,,
null,CORRECT,,html-keyboard-response,212,835619,0.0-16.0-5.0-0.0,85979,List2A,white,woman,,,,null,,,,
2325,"<img src=""portrait/BM1.jpg""style=""width:400px;height:400px;""></img>",4,html-button-response,213,837946,0.0-16.0-7.0,85979,List2A,white,woman,,TRUE,4,,,,,
null,CORRECT,,html-keyboard-response,214,839449,0.0-16.0-8.0-0.0,85979,List2A,white,woman,,,,null,,,,
2380,"<img src=""portrait/BM2.jpg""style=""width:400px;height:400px;""></img>",5,html-button-response,215,841830,0.0-16.0-10.0,85979,List2A,white,woman,,TRUE,5,,,,,
null,CORRECT,,html-keyboard-response,216,843334,0.0-16.0-11.0-0.0,85979,List2A,white,woman,,,,null,,,,
2811,"<img src=""portrait/BW2.jpg""style=""width:400px;height:400px;""></img>",2,html-button-response,217,846146,0.0-16.0-13.0,85979,List2A,white,woman,,TRUE,2,,,,,
null,CORRECT,,html-keyboard-response,218,847649,0.0-16.0-14.0-0.0,85979,List2A,white,woman,,,,null,,,,
2949,"<img src=""portrait/WW2.jpg""style=""width:400px;height:400px;""></img>",3,html-button-response,219,850599,0.0-16.0-16.0,85979,List2A,white,woman,,TRUE,3,,,,,
null,CORRECT,,html-keyboard-response,220,852102,0.0-16.0-17.0-0.0,85979,List2A,white,woman,,,,null,,,,
2560,"<img src=""portrait/WW1.jpg""style=""width:400px;height:400px;""></img>",1,html-button-response,221,854663,0.0-16.0-19.0,85979,List2A,white,woman,,TRUE,1,,,,,
null,CORRECT,,html-keyboard-response,222,856167,0.0-16.0-20.0-0.0,85979,List2A,white,woman,,,,null,,,,
3639,"<img src=""portrait/WM1.jpg""style=""width:400px;height:400px;""></img>",6,html-button-response,223,859808,0.0-16.0-22.0,85979,List2A,white,woman,,TRUE,6,,,,,
null,CORRECT,,html-keyboard-response,224,861310,0.0-16.0-23.0-0.0,85979,List2A,white,woman,,,,null,,,,
1353,<p>You got 8 out of 8 right first time. Press Continue.</p>,0,html-button-response,225,862664,0.0-16.0-25.0,85979,List2A,white,woman,,,,,,,,
null,"<div style=""font-size:60px;"">+</div>",,html-keyboard-response,226,864168,0.0-17.0-0.0,85979,List2A,white,woman,,,,null,,,,
null,"<img src=""stim_listA/dance7.gif""</stim_listA>",,html-keyboard-response,227,866170,0.0-17.0-1.0,85979,List2A,white,woman,,,,null,,,,
null,is dancing with,,html-keyboard-response,228,868172,0.0-17.0-2.0,85979,List2A,white,woman,,,,null,,,,
7757,,,survey-text,229,875931,0.0-17.0-3.0,85979,List2A,white,woman,,,,,"{""Q0"":""kate is dancing with ruth""}","<img src=""stim_listA/dance7.gif""</stim_listA>",is dancing with,
null,"<div style=""font-size:60px;"">+</div>",,html-keyboard-response,230,876433,0.0-17.0-0.1,85979,List2A,white,woman,,,,null,,,,
null,"<img src=""stim_listA/dance5.gif""</stim_listA>",,html-keyboard-response,231,878435,0.0-17.0-1.1,85979,List2A,white,woman,,,,null,,,,
null,is dancing with,,html-keyboard-response,232,880437,0.0-17.0-2.1,85979,List2A,white,woman,,,,null,,,,
7735,,,survey-text,233,888173,0.0-17.0-3.1,85979,List2A,white,woman,,,,,"{""Q0"":""mike is dancing with luke""}","<img src=""stim_listA/dance5.gif""</stim_listA>",is dancing with,
null,"<div style=""font-size:60px;"">+</div>",,html-keyboard-response,234,888675,0.0-17.0-0.2,85979,List2A,white,woman,,,,null,,,,
null,"<img src=""stim_listA/argue7.gif""</stim_listA>",,html-keyboard-response,235,890678,0.0-17.0-1.2,85979,List2A,white,woman,,,,null,,,,
null,is arguing with,,html-keyboard-response,236,892680,0.0-17.0-2.2,85979,List2A,white,woman,,,,null,,,,
7603,,,survey-text,237,900284,0.0-17.0-3.2,85979,List2A,white,woman,,,,,"{""Q0"":""ruth is arguing with jane""}","<img src=""stim_listA/argue7.gif""</stim_listA>",is arguing with,
null,"<div style=""font-size:60px;"">+</div>",,html-keyboard-response,238,900786,0.0-17.0-0.3,85979,List2A,white,woman,,,,null,,,,
null,"<img src=""stim_listA/hug4.gif""</stim_listA>",,html-keyboard-response,239,902788,0.0-17.0-1.3,85979,List2A,white,woman,,,,null,,,,
null,are hugging each other,,html-keyboard-response,240,904791,0.0-17.0-2.3,85979,List2A,white,woman,,,,null,,,,
6655,,,survey-text,241,911447,0.0-17.0-3.3,85979,List2A,white,woman,,,,,"{""Q0"":""kate is hugging fred""}","<img src=""stim_listA/hug4.gif""</stim_listA>",are hugging each other,
null,"<div style=""font-size:60px;"">+</div>",,html-keyboard-response,242,911949,0.0-17.0-0.4,85979,List2A,white,woman,,,,null,,,,
null,"<img src=""stim_listA/meet2.gif""</stim_listA>",,html-keyboard-response,243,913951,0.0-17.0-1.4,85979,List2A,white,woman,,,,null,,,,
null,are meeting each other,,html-keyboard-response,244,915953,0.0-17.0-2.4,85979,List2A,white,woman,,,,null,,,,
7399,,,survey-text,245,923352,0.0-17.0-3.4,85979,List2A,white,woman,,,,,"{""Q0"":""luke is meeting ruth""}","<img src=""stim_listA/meet2.gif""</stim_listA>",are meeting each other,
null,"<div style=""font-size:60px;"">+</div>",,html-keyboard-response,246,923854,0.0-17.0-0.5,85979,List2A,white,woman,,,,null,,,,
null,"<img src=""stim_listA/shout4.gif""</stim_listA>",,html-keyboard-response,247,925857,0.0-17.0-1.5,85979,List2A,white,woman,,,,null,,,,
null,are shouting at each other,,html-keyboard-response,248,927858,0.0-17.0-2.5,85979,List2A,white,woman,,,,null,,,,
9569,,,survey-text,249,937429,0.0-17.0-3.5,85979,List2A,white,woman,,,,,"{""Q0"":""kate and mike are shouting at each other""}","<img src=""stim_listA/shout4.gif""</stim_listA>",are shouting at each other,
null,"<div style=""font-size:60px;"">+</div>",,html-keyboard-response,250,937931,0.0-17.0-0.6,85979,List2A,white,woman,,,,null,,,,
null,"<img src=""stim_listA/dance3.gif""</stim_listA>",,html-keyboard-response,251,939933,0.0-17.0-1.6,85979,List2A,white,woman,,,,null,,,,
null,is dancing with,,html-keyboard-response,252,941935,0.0-17.0-2.6,85979,List2A,white,woman,,,,null,,,,
5717,,,survey-text,253,947654,0.0-17.0-3.6,85979,List2A,white,woman,,,,,"{""Q0"":""kate is dancing with fred""}","<img src=""stim_listA/dance3.gif""</stim_listA>",is dancing with,
null,"<div style=""font-size:60px;"">+</div>",,html-keyboard-response,254,948156,0.0-17.0-0.7,85979,List2A,white,woman,,,,null,,,,
null,"<img src=""stim_listA/meet8.gif""</stim_listA>",,html-keyboard-response,255,950158,0.0-17.0-1.7,85979,List2A,white,woman,,,,null,,,,
null,are meeting each other,,html-keyboard-response,256,952161,0.0-17.0-2.7,85979,List2A,white,woman,,,,null,,,,
6987,,,survey-text,257,959148,0.0-17.0-3.7,85979,List2A,white,woman,,,,,"{""Q0"":""beth is meeting kate""}","<img src=""stim_listA/meet8.gif""</stim_listA>",are meeting each other,
null,"<div style=""font-size:60px;"">+</div>",,html-keyboard-response,258,959650,0.0-17.0-0.8,85979,List2A,white,woman,,,,null,,,,
null,"<img src=""stim_listA/talk4.gif""</stim_listA>",,html-keyboard-response,259,961652,0.0-17.0-1.8,85979,List2A,white,woman,,,,null,,,,
null,are talking to each other,,html-keyboard-response,260,963655,0.0-17.0-2.8,85979,List2A,white,woman,,,,null,,,,
7190,,,survey-text,261,970845,0.0-17.0-3.8,85979,List2A,white,woman,,,,,"{""Q0"":""beth is meeting mike ""}","<img src=""stim_listA/talk4.gif""</stim_listA>",are talking to each other,
null,"<div style=""font-size:60px;"">+</div>",,html-keyboard-response,262,971347,0.0-17.0-0.9,85979,List2A,white,woman,,,,null,,,,
null,"<img src=""stim_listA/hug5.gif""</stim_listA>",,html-keyboard-response,263,973350,0.0-17.0-1.9,85979,List2A,white,woman,,,,null,,,,
null,is hugging,,html-keyboard-response,264,975351,0.0-17.0-2.9,85979,List2A,white,woman,,,,null,,,,
11719,,,survey-text,265,987072,0.0-17.0-3.9,85979,List2A,white,woman,,,,,"{""Q0"":""luke and fred are hugging each other""}","<img src=""stim_listA/hug5.gif""</stim_listA>",is hugging,
null,"<div style=""font-size:60px;"">+</div>",,html-keyboard-response,266,987574,0.0-17.0-0.10,85979,List2A,white,woman,,,,null,,,,
null,"<img src=""stim_listA/kiss7.gif""</stim_listA>",,html-keyboard-response,267,989576,0.0-17.0-1.10,85979,List2A,white,woman,,,,null,,,,
null,is kissing,,html-keyboard-response,268,991579,0.0-17.0-2.10,85979,List2A,white,woman,,,,null,,,,
10021,,,survey-text,269,1001601,0.0-17.0-3.10,85979,List2A,white,woman,,,,,"{""Q0"":""beth is kissing ruth""}","<img src=""stim_listA/kiss7.gif""</stim_listA>",is kissing,
null,"<div style=""font-size:60px;"">+</div>",,html-keyboard-response,270,1002103,0.0-17.0-0.11,85979,List2A,white,woman,,,,null,,,,
null,"<img src=""stim_listA/dance1.gif""</stim_listA>",,html-keyboard-response,271,1004105,0.0-17.0-1.11,85979,List2A,white,woman,,,,null,,,,
null,is dancing with,,html-keyboard-response,272,1006107,0.0-17.0-2.11,85979,List2A,white,woman,,,,null,,,,
5887,,,survey-text,273,1011995,0.0-17.0-3.11,85979,List2A,white,woman,,,,,"{""Q0"":""jane is dancing with luke""}","<img src=""stim_listA/dance1.gif""</stim_listA>",is dancing with,
null,"<div style=""font-size:60px;"">+</div>",,html-keyboard-response,274,1012497,0.0-17.0-0.12,85979,List2A,white,woman,,,,null,,,,
null,"<img src=""stim_listA/touch3.gif""</stim_listA>",,html-keyboard-response,275,1014500,0.0-17.0-1.12,85979,List2A,white,woman,,,,null,,,,
null,is touching,,html-keyboard-response,276,1016502,0.0-17.0-2.12,85979,List2A,white,woman,,,,null,,,,
8327,,,survey-text,277,1024830,0.0-17.0-3.12,85979,List2A,white,woman,,,,,"{""Q0"":""kate is touching mike""}","<img src=""stim_listA/touch3.gif""</stim_listA>",is touching,
null,"<div style=""font-size:60px;"">+</div>",,html-keyboard-response,278,1025332,0.0-17.0-0.13,85979,List2A,white,woman,,,,null,,,,
null,"<img src=""stim_listA/kiss5.gif""</stim_listA>",,html-keyboard-response,279,1027334,0.0-17.0-1.13,85979,List2A,white,woman,,,,null,,,,
null,is kissing,,html-keyboard-response,280,1029337,0.0-17.0-2.13,85979,List2A,white,woman,,,,null,,,,
4739,,,survey-text,281,1034077,0.0-17.0-3.13,85979,List2A,white,woman,,,,,"{""Q0"":""luke is kissing fred""}","<img src=""stim_listA/kiss5.gif""</stim_listA>",is kissing,
null,"<div style=""font-size:60px;"">+</div>",,html-keyboard-response,282,1034579,0.0-17.0-0.14,85979,List2A,white,woman,,,,null,,,,
null,"<img src=""stim_listA/fight5.gif""</stim_listA>",,html-keyboard-response,283,1036581,0.0-17.0-1.14,85979,List2A,white,woman,,,,null,,,,
null,is fighting,,html-keyboard-response,284,1038583,0.0-17.0-2.14,85979,List2A,white,woman,,,,null,,,,
5644,,,survey-text,285,1044229,0.0-17.0-3.14,85979,List2A,white,woman,,,,,"{""Q0"":""dave is fighting mike""}","<img src=""stim_listA/fight5.gif""</stim_listA>",is fighting,
null,"<div style=""font-size:60px;"">+</div>",,html-keyboard-response,286,1044731,0.0-17.0-0.15,85979,List2A,white,woman,,,,null,,,,
null,"<img src=""stim_listA/talk6.gif""</stim_listA>",,html-keyboard-response,287,1046733,0.0-17.0-1.15,85979,List2A,white,woman,,,,null,,,,
null,are talking to each other,,html-keyboard-response,288,1048736,0.0-17.0-2.15,85979,List2A,white,woman,,,,null,,,,
7864,,,survey-text,289,1056600,0.0-17.0-3.15,85979,List2A,white,woman,,,,,"{""Q0"":""dave and fred are talking to each other""}","<img src=""stim_listA/talk6.gif""</stim_listA>",are talking to each other,
null,"<div style=""font-size:60px;"">+</div>",,html-keyboard-response,290,1057102,0.0-17.0-0.16,85979,List2A,white,woman,,,,null,,,,
null,"<img src=""stim_listA/meet5.gif""</stim_listA>",,html-keyboard-response,291,1059105,0.0-17.0-1.16,85979,List2A,white,woman,,,,null,,,,
null,is meeting,,html-keyboard-response,292,1061107,0.0-17.0-2.16,85979,List2A,white,woman,,,,null,,,,
5255,,,survey-text,293,1066364,0.0-17.0-3.16,85979,List2A,white,woman,,,,,"{""Q0"":""dave is meeting mike""}","<img src=""stim_listA/meet5.gif""</stim_listA>",is meeting,
null,"<div style=""font-size:60px;"">+</div>",,html-keyboard-response,294,1066866,0.0-17.0-0.17,85979,List2A,white,woman,,,,null,,,,
null,"<img src=""stim_listA/argue6.gif""</stim_listA>",,html-keyboard-response,295,1068868,0.0-17.0-1.17,85979,List2A,white,woman,,,,null,,,,
null,are arguing with each other,,html-keyboard-response,296,1070870,0.0-17.0-2.17,85979,List2A,white,woman,,,,null,,,,
8654,,,survey-text,297,1079525,0.0-17.0-3.17,85979,List2A,white,woman,,,,,"{""Q0"":""luke and mike are arguing with each other""}","<img src=""stim_listA/argue6.gif""</stim_listA>",are arguing with each other,
null,"<div style=""font-size:60px;"">+</div>",,html-keyboard-response,298,1080027,0.0-17.0-0.18,85979,List2A,white,woman,,,,null,,,,
null,"<img src=""stim_listA/fight4.gif""</stim_listA>",,html-keyboard-response,299,1082029,0.0-17.0-1.18,85979,List2A,white,woman,,,,null,,,,
null,are fighting each other,,html-keyboard-response,300,1084032,0.0-17.0-2.18,85979,List2A,white,woman,,,,null,,,,
12821,,,survey-text,301,1096854,0.0-17.0-3.18,85979,List2A,white,woman,,,,,"{""Q0"":""beth and fred are arguing ""}","<img src=""stim_listA/fight4.gif""</stim_listA>",are fighting each other,
null,"<div style=""font-size:60px;"">+</div>",,html-keyboard-response,302,1097356,0.0-17.0-0.19,85979,List2A,white,woman,,,,null,,,,
null,"<img src=""stim_listA/dance4.gif""</stim_listA>",,html-keyboard-response,303,1099358,0.0-17.0-1.19,85979,List2A,white,woman,,,,null,,,,
null,are dancing with each other,,html-keyboard-response,304,1101361,0.0-17.0-2.19,85979,List2A,white,woman,,,,null,,,,
10295,,,survey-text,305,1111656,0.0-17.0-3.19,85979,List2A,white,woman,,,,,"{""Q0"":""mike and beth are dancing with each other ""}","<img src=""stim_listA/dance4.gif""</stim_listA>",are dancing with each other,
2684,"<img src='img/portrait_matrix_list2.JPG' style='width:900px;height:500px;''></img><p>If you have memorised all the portraits and names and are ready to start, press Continue.</p><p><strong>Please note: Your memory of these faces will be tested 4 times during this experiment.</strong></p>",0,html-button-response,306,1114341,0.0-18.0-0.0,85979,List2A,white,woman,,,,,,,,
3207,"<img src=""portrait/WW1.jpg""style=""width:400px;height:400px;""></img>",1,html-button-response,307,1118550,0.0-18.0-1.0,85979,List2A,white,woman,,TRUE,1,,,,,
null,CORRECT,,html-keyboard-response,308,1120052,0.0-18.0-2.0-0.0,85979,List2A,white,woman,,,,null,,,,
3397,"<img src=""portrait/BW2.jpg""style=""width:400px;height:400px;""></img>",2,html-button-response,309,1123450,0.0-18.0-4.0,85979,List2A,white,woman,,TRUE,2,,,,,
null,CORRECT,,html-keyboard-response,310,1124953,0.0-18.0-5.0-0.0,85979,List2A,white,woman,,,,null,,,,
1747,"<img src=""portrait/WW2.jpg""style=""width:400px;height:400px;""></img>",3,html-button-response,311,1126701,0.0-18.0-7.0,85979,List2A,white,woman,,TRUE,3,,,,,
null,CORRECT,,html-keyboard-response,312,1128204,0.0-18.0-8.0-0.0,85979,List2A,white,woman,,,,null,,,,
2691,"<img src=""portrait/BW1.jpg""style=""width:400px;height:400px;""></img>",0,html-button-response,313,1130896,0.0-18.0-10.0,85979,List2A,white,woman,,TRUE,0,,,,,
null,CORRECT,,html-keyboard-response,314,1132398,0.0-18.0-11.0-0.0,85979,List2A,white,woman,,,,null,,,,
2568,"<img src=""portrait/BM2.jpg""style=""width:400px;height:400px;""></img>",5,html-button-response,315,1134967,0.0-18.0-13.0,85979,List2A,white,woman,,TRUE,5,,,,,
null,CORRECT,,html-keyboard-response,316,1136470,0.0-18.0-14.0-0.0,85979,List2A,white,woman,,,,null,,,,
2105,"<img src=""portrait/BM1.jpg""style=""width:400px;height:400px;""></img>",4,html-button-response,317,1138576,0.0-18.0-16.0,85979,List2A,white,woman,,TRUE,4,,,,,
null,CORRECT,,html-keyboard-response,318,1140079,0.0-18.0-17.0-0.0,85979,List2A,white,woman,,,,null,,,,
1253,"<img src=""portrait/WM2.jpg""style=""width:400px;height:400px;""></img>",7,html-button-response,319,1141334,0.0-18.0-19.0,85979,List2A,white,woman,,TRUE,7,,,,,
null,CORRECT,,html-keyboard-response,320,1142836,0.0-18.0-20.0-0.0,85979,List2A,white,woman,,,,null,,,,
2574,"<img src=""portrait/WM1.jpg""style=""width:400px;height:400px;""></img>",6,html-button-response,321,1145411,0.0-18.0-22.0,85979,List2A,white,woman,,TRUE,6,,,,,
null,CORRECT,,html-keyboard-response,322,1146914,0.0-18.0-23.0-0.0,85979,List2A,white,woman,,,,null,,,,
1179,<p>You got 8 out of 8 right first time. Press Continue.</p>,0,html-button-response,323,1148095,0.0-18.0-25.0,85979,List2A,white,woman,,,,,,,,
null,"<div style=""font-size:60px;"">+</div>",,html-keyboard-response,324,1149598,0.0-19.0-0.0,85979,List2A,white,woman,,,,null,,,,
null,"<img src=""stim_listA/touch1.gif""</stim_listA>",,html-keyboard-response,325,1151601,0.0-19.0-1.0,85979,List2A,white,woman,,,,null,,,,
null,is touching,,html-keyboard-response,326,1153603,0.0-19.0-2.0,85979,List2A,white,woman,,,,null,,,,
4346,,,survey-text,327,1157950,0.0-19.0-3.0,85979,List2A,white,woman,,,,,"{""Q0"":""jane is touching""}","<img src=""stim_listA/touch1.gif""</stim_listA>",is touching,
null,"<div style=""font-size:60px;"">+</div>",,html-keyboard-response,328,1158452,0.0-19.0-0.1,85979,List2A,white,woman,,,,null,,,,
null,"<img src=""stim_listA/hug7.gif""</stim_listA>",,html-keyboard-response,329,1160454,0.0-19.0-1.1,85979,List2A,white,woman,,,,null,,,,
null,is hugging,,html-keyboard-response,330,1162457,0.0-19.0-2.1,85979,List2A,white,woman,,,,null,,,,
5639,,,survey-text,331,1168096,0.0-19.0-3.1,85979,List2A,white,woman,,,,,"{""Q0"":""beth is hugging ruth""}","<img src=""stim_listA/hug7.gif""</stim_listA>",is hugging,
null,"<div style=""font-size:60px;"">+</div>",,html-keyboard-response,332,1168598,0.0-19.0-0.2,85979,List2A,white,woman,,,,null,,,,
null,"<img src=""stim_listA/marry5.gif""</stim_listA>",,html-keyboard-response,333,1170601,0.0-19.0-1.2,85979,List2A,white,woman,,,,null,,,,
null,is marrying,,html-keyboard-response,334,1172603,0.0-19.0-2.2,85979,List2A,white,woman,,,,null,,,,
4387,,,survey-text,335,1176991,0.0-19.0-3.2,85979,List2A,white,woman,,,,,"{""Q0"":""dave is marrying fred""}","<img src=""stim_listA/marry5.gif""</stim_listA>",is marrying,
null,"<div style=""font-size:60px;"">+</div>",,html-keyboard-response,336,1177493,0.0-19.0-0.3,85979,List2A,white,woman,,,,null,,,,
null,"<img src=""stim_listA/talk2.gif""</stim_listA>",,html-keyboard-response,337,1179495,0.0-19.0-1.3,85979,List2A,white,woman,,,,null,,,,
null,are talking to each other,,html-keyboard-response,338,1181498,0.0-19.0-2.3,85979,List2A,white,woman,,,,null,,,,
13095,,,survey-text,339,1194594,0.0-19.0-3.3,85979,List2A,white,woman,,,,,"{""Q0"":""ruth and dave are talking to each other ""}","<img src=""stim_listA/talk2.gif""</stim_listA>",are talking to each other,
null,"<div style=""font-size:60px;"">+</div>",,html-keyboard-response,340,1195096,0.0-19.0-0.4,85979,List2A,white,woman,,,,null,,,,
null,"<img src=""stim_listA/touch2.gif""</stim_listA>",,html-keyboard-response,341,1197098,0.0-19.0-1.4,85979,List2A,white,woman,,,,null,,,,
null,are touching each other,,html-keyboard-response,342,1199100,0.0-19.0-2.4,85979,List2A,white,woman,,,,null,,,,
10347,,,survey-text,343,1209448,0.0-19.0-3.4,85979,List2A,white,woman,,,,,"{""Q0"":""luke and ruth are touching ""}","<img src=""stim_listA/touch2.gif""</stim_listA>",are touching each other,
null,"<div style=""font-size:60px;"">+</div>",,html-keyboard-response,344,1209950,0.0-19.0-0.5,85979,List2A,white,woman,,,,null,,,,
null,"<img src=""stim_listA/talk5.gif""</stim_listA>",,html-keyboard-response,345,1211953,0.0-19.0-1.5,85979,List2A,white,woman,,,,null,,,,
null,is talking to,,html-keyboard-response,346,1213955,0.0-19.0-2.5,85979,List2A,white,woman,,,,null,,,,
10334,,,survey-text,347,1224291,0.0-19.0-3.5,85979,List2A,white,woman,,,,,"{""Q0"":""luke and fred are arguing ""}","<img src=""stim_listA/talk5.gif""</stim_listA>",is talking to,
null,"<div style=""font-size:60px;"">+</div>",,html-keyboard-response,348,1224793,0.0-19.0-0.6,85979,List2A,white,woman,,,,null,,,,
null,"<img src=""stim_listA/hug3.gif""</stim_listA>",,html-keyboard-response,349,1226795,0.0-19.0-1.6,85979,List2A,white,woman,,,,null,,,,
null,is hugging,,html-keyboard-response,350,1228797,0.0-19.0-2.6,85979,List2A,white,woman,,,,null,,,,
8743,,,survey-text,351,1237541,0.0-19.0-3.6,85979,List2A,white,woman,,,,,"{""Q0"":""beth and fred are hugging""}","<img src=""stim_listA/hug3.gif""</stim_listA>",is hugging,
null,"<div style=""font-size:60px;"">+</div>",,html-keyboard-response,352,1238042,0.0-19.0-0.7,85979,List2A,white,woman,,,,null,,,,
null,"<img src=""stim_listA/talk7.gif""</stim_listA>",,html-keyboard-response,353,1240044,0.0-19.0-1.7,85979,List2A,white,woman,,,,null,,,,
null,is talking to,,html-keyboard-response,354,1242046,0.0-19.0-2.7,85979,List2A,white,woman,,,,null,,,,
5859,,,survey-text,355,1247906,0.0-19.0-3.7,85979,List2A,white,woman,,,,,"{""Q0"":""kate is talking to ruth""}","<img src=""stim_listA/talk7.gif""</stim_listA>",is talking to,
null,"<div style=""font-size:60px;"">+</div>",,html-keyboard-response,356,1248408,0.0-19.0-0.8,85979,List2A,white,woman,,,,null,,,,
null,"<img src=""stim_listA/argue1.gif""</stim_listA>",,html-keyboard-response,357,1250410,0.0-19.0-1.8,85979,List2A,white,woman,,,,null,,,,
null,is arguing with,,html-keyboard-response,358,1252412,0.0-19.0-2.8,85979,List2A,white,woman,,,,null,,,,
7863,,,survey-text,359,1260276,0.0-19.0-3.8,85979,List2A,white,woman,,,,,"{""Q0"":""dave is arguing with ruth""}","<img src=""stim_listA/argue1.gif""</stim_listA>",is arguing with,
null,"<div style=""font-size:60px;"">+</div>",,html-keyboard-response,360,1260778,0.0-19.0-0.9,85979,List2A,white,woman,,,,null,,,,
null,"<img src=""stim_listA/kiss1.gif""</stim_listA>",,html-keyboard-response,361,1262780,0.0-19.0-1.9,85979,List2A,white,woman,,,,null,,,,
null,is kissing,,html-keyboard-response,362,1264782,0.0-19.0-2.9,85979,List2A,white,woman,,,,null,,,,
6712,,,survey-text,363,1271494,0.0-19.0-3.9,85979,List2A,white,woman,,,,,"{""Q0"":""luke is kissing ruth""}","<img src=""stim_listA/kiss1.gif""</stim_listA>",is kissing,
null,"<div style=""font-size:60px;"">+</div>",,html-keyboard-response,364,1271997,0.0-19.0-0.10,85979,List2A,white,woman,,,,null,,,,
null,"<img src=""stim_listA/shout1.gif""</stim_listA>",,html-keyboard-response,365,1273999,0.0-19.0-1.10,85979,List2A,white,woman,,,,null,,,,
null,is shouting at,,html-keyboard-response,366,1276001,0.0-19.0-2.10,85979,List2A,white,woman,,,,null,,,,
11378,,,survey-text,367,1287380,0.0-19.0-3.10,85979,List2A,white,woman,,,,,"{""Q0"":""ruth is shouting at luke""}","<img src=""stim_listA/shout1.gif""</stim_listA>",is shouting at,
null,"<div style=""font-size:60px;"">+</div>",,html-keyboard-response,368,1287883,0.0-19.0-0.11,85979,List2A,white,woman,,,,null,,,,
null,"<img src=""stim_listA/fight8.gif""</stim_listA>",,html-keyboard-response,369,1289884,0.0-19.0-1.11,85979,List2A,white,woman,,,,null,,,,
null,are fighting each other,,html-keyboard-response,370,1291887,0.0-19.0-2.11,85979,List2A,white,woman,,,,null,,,,
9012,,,survey-text,371,1300899,0.0-19.0-3.11,85979,List2A,white,woman,,,,,"{""Q0"":""ruth and beth are fighting each other""}","<img src=""stim_listA/fight8.gif""</stim_listA>",are fighting each other,
null,"<div style=""font-size:60px;"">+</div>",,html-keyboard-response,372,1301401,0.0-19.0-0.12,85979,List2A,white,woman,,,,null,,,,
null,"<img src=""stim_listA/hug6.gif""</stim_listA>",,html-keyboard-response,373,1303404,0.0-19.0-1.12,85979,List2A,white,woman,,,,null,,,,
null,are hugging each other,,html-keyboard-response,374,1305406,0.0-19.0-2.12,85979,List2A,white,woman,,,,null,,,,
6353,,,survey-text,375,1311761,0.0-19.0-3.12,85979,List2A,white,woman,,,,,"{""Q0"":""dave and mike are hugging each other ""}","<img src=""stim_listA/hug6.gif""</stim_listA>",are hugging each other,
null,"<div style=""font-size:60px;"">+</div>",,html-keyboard-response,376,1312263,0.0-19.0-0.13,85979,List2A,white,woman,,,,null,,,,
null,"<img src=""stim_listA/fight6.gif""</stim_listA>",,html-keyboard-response,377,1314265,0.0-19.0-1.13,85979,List2A,white,woman,,,,null,,,,
null,are fighting each other,,html-keyboard-response,378,1316267,0.0-19.0-2.13,85979,List2A,white,woman,,,,null,,,,
9631,,,survey-text,379,1325900,0.0-19.0-3.13,85979,List2A,white,woman,,,,,"{""Q0"":""luke and fred are fighting each other""}","<img src=""stim_listA/fight6.gif""</stim_listA>",are fighting each other,
null,"<div style=""font-size:60px;"">+</div>",,html-keyboard-response,380,1326402,0.0-19.0-0.14,85979,List2A,white,woman,,,,null,,,,
null,"<img src=""stim_listA/argue3.gif""</stim_listA>",,html-keyboard-response,381,1328404,0.0-19.0-1.14,85979,List2A,white,woman,,,,null,,,,
null,is arguing with,,html-keyboard-response,382,1330406,0.0-19.0-2.14,85979,List2A,white,woman,,,,null,,,,
12140,,,survey-text,383,1342547,0.0-19.0-3.14,85979,List2A,white,woman,,,,,"{""Q0"":""beth and ruth are touching""}","<img src=""stim_listA/argue3.gif""</stim_listA>",is arguing with,
null,"<div style=""font-size:60px;"">+</div>",,html-keyboard-response,384,1343048,0.0-19.0-0.15,85979,List2A,white,woman,,,,null,,,,
null,"<img src=""stim_listA/fight2.gif""</stim_listA>",,html-keyboard-response,385,1345050,0.0-19.0-1.15,85979,List2A,white,woman,,,,null,,,,
null,are fighting each other,,html-keyboard-response,386,1347052,0.0-19.0-2.15,85979,List2A,white,woman,,,,null,,,,
7761,,,survey-text,387,1354814,0.0-19.0-3.15,85979,List2A,white,woman,,,,,"{""Q0"":""luke and ruth are arguing ""}","<img src=""stim_listA/fight2.gif""</stim_listA>",are fighting each other,
null,"<div style=""font-size:60px;"">+</div>",,html-keyboard-response,388,1355316,0.0-19.0-0.16,85979,List2A,white,woman,,,,null,,,,
null,"<img src=""stim_listA/fight7.gif""</stim_listA>",,html-keyboard-response,389,1357317,0.0-19.0-1.16,85979,List2A,white,woman,,,,null,,,,
null,is fighting,,html-keyboard-response,390,1359320,0.0-19.0-2.16,85979,List2A,white,woman,,,,null,,,,
7515,,,survey-text,391,1366835,0.0-19.0-3.16,85979,List2A,white,woman,,,,,"{""Q0"":""jane is fighting kate""}","<img src=""stim_listA/fight7.gif""</stim_listA>",is fighting,
null,"<div style=""font-size:60px;"">+</div>",,html-keyboard-response,392,1367337,0.0-19.0-0.17,85979,List2A,white,woman,,,,null,,,,
null,"<img src=""stim_listA/marry7.gif""</stim_listA>",,html-keyboard-response,393,1369340,0.0-19.0-1.17,85979,List2A,white,woman,,,,null,,,,
null,is marrying,,html-keyboard-response,394,1371342,0.0-19.0-2.17,85979,List2A,white,woman,,,,null,,,,
6644,,,survey-text,395,1377988,0.0-19.0-3.17,85979,List2A,white,woman,,,,,"{""Q0"":""jane is marrying beth""}","<img src=""stim_listA/marry7.gif""</stim_listA>",is marrying,
null,"<div style=""font-size:60px;"">+</div>",,html-keyboard-response,396,1378490,0.0-19.0-0.18,85979,List2A,white,woman,,,,null,,,,
null,"<img src=""stim_listA/dance2.gif""</stim_listA>",,html-keyboard-response,397,1380491,0.0-19.0-1.18,85979,List2A,white,woman,,,,null,,,,
null,are dancing with each other,,html-keyboard-response,398,1382494,0.0-19.0-2.18,85979,List2A,white,woman,,,,null,,,,
8390,,,survey-text,399,1390884,0.0-19.0-3.18,85979,List2A,white,woman,,,,,"{""Q0"":""ruth and dave is dancing with each other""}","<img src=""stim_listA/dance2.gif""</stim_listA>",are dancing with each other,
null,"<div style=""font-size:60px;"">+</div>",,html-keyboard-response,400,1391386,0.0-19.0-0.19,85979,List2A,white,woman,,,,null,,,,
null,"<img src=""stim_listA/meet4.gif""</stim_listA>",,html-keyboard-response,401,1393388,0.0-19.0-1.19,85979,List2A,white,woman,,,,null,,,,
null,are meeting each other,,html-keyboard-response,402,1395390,0.0-19.0-2.19,85979,List2A,white,woman,,,,null,,,,
9744,,,survey-text,403,1405135,0.0-19.0-3.19,85979,List2A,white,woman,,,,,"{""Q0"":""ruth and fred are meeting each other""}","<img src=""stim_listA/meet4.gif""</stim_listA>",are meeting each other,
2054,<p>Thank you for completing that task.</p><p>The final part of this session is a short questionnaire.</p><p>Press Continue.</p>,0,html-button-response,404,1407190,0.0-20.0,85979,List2A,white,woman,,,,,,,,
27438,,,survey-text,405,1435630,0.0-21.0,85979,List2A,white,woman,,,,,"{""Q0"":""40"",""Q1"":""english"",""Q2"":""english"",""Q3"":""Wales"",""Q4"":""white"",""Q5"":""female""}",,,demographics
45706,,,survey-likert,406,1481341,0.0-22.0,85979,List2A,white,woman,,,,,"{""Q0"":4,""Q1"":3,""Q2"":3,""Q3"":4,""Q4"":1,""Q5"":4,""Q6"":4,""Q7"":2,""Q8"":3,""Q9"":4,""Q10"":4,""Q11"":4,""Q12"":5,""Q13"":4}",,,likert_race
26606,,,survey-likert,407,1507951,0.0-23.0,85979,List2A,white,woman,,,,,"{""Q0"":5,""Q1"":5,""Q2"":5,""Q3"":6,""Q4"":6,""Q5"":6,""Q6"":6,""Q7"":6,""Q8"":5,""Q9"":5,""Q10"":5,""Q11"":5,""Q12"":5,""Q13"":5}",,,likert_gender
4197,,,survey-text,408,1512151,0.0-24.0,85979,List2A,white,woman,,,,,"{""Q0"":""ccc""}",,,worker_id
19383,,,external-html,409,1531621,0.0-25.0,85979,List2A,white,woman,debrief.html,,,,,,,
