rt,stimulus,button_pressed,trial_type,trial_index,time_elapsed,internal_node_id,subject,list,ppt_race,ppt_gender,url,first_guess,correct,key_press,responses,image_type,phrase_type,test_part
108468,Welcome to the experiment. Press Continue to begin.,0,html-button-response,0,108475,0.0-0.0,86570,List2A,black,man,,,,,,,,
7403,,,external-html,1,117221,0.0-1.0,86570,List2A,black,man,consent.html,,,,,,,
15397,"<p>On the next page, you will see portraits of 8 people and their names.</p><p>Your first task is to take a few minutes to memorise the names of these people.</p><p>You will have to recall their names during the rest of the experiment, so it is</p><p>essential that you try to memorise these people and their names as best as you can.</p><br><p><strong>You will then be tested on your memory of these names and portraits.</strong></p><br><p>The experiment will start after you have completed this memory test.</p><br><p>Ready?</p>",0,html-button-response,2,132621,0.0-2.0,86570,List2A,black,man,,,,,,,,
25242,"<img src='img/portrait_matrix_list2.JPG' style='width:900px;height:500px;''></img><p>If you have memorised all the portraits and names and are ready to start, press Continue.</p><p><strong>Please note: Your memory of these faces will be tested 4 times during this experiment.</strong></p>",0,html-button-response,3,158867,0.0-3.0-0.0,86570,List2A,black,man,,,,,,,,
19192,"<img src=""portrait/WW1.jpg""style=""width:400px;height:400px;""></img>",1,html-button-response,4,179067,0.0-3.0-1.0,86570,List2A,black,man,,TRUE,1,,,,,
null,CORRECT,,html-keyboard-response,5,180575,0.0-3.0-2.0-0.0,86570,List2A,black,man,,,,null,,,,
2969,"<img src=""portrait/BM1.jpg""style=""width:400px;height:400px;""></img>",5,html-button-response,6,183547,0.0-3.0-4.0,86570,List2A,black,man,,TRUE,4,,,,,
2759,"<img src=""portrait/BM1.jpg""style=""width:400px;height:400px;""></img>",4,html-button-response,7,187312,0.0-3.0-6.0-0.0,86570,List2A,black,man,,FALSE,4,,,,,
null,CORRECT,,html-keyboard-response,8,188817,0.0-3.0-6.0-1.0-0.0,86570,List2A,black,man,,,,null,,,,
4449,"<img src=""portrait/WW2.jpg""style=""width:400px;height:400px;""></img>",3,html-button-response,9,193268,0.0-3.0-7.0,86570,List2A,black,man,,TRUE,3,,,,,
null,CORRECT,,html-keyboard-response,10,194774,0.0-3.0-8.0-0.0,86570,List2A,black,man,,,,null,,,,
2682,"<img src=""portrait/BW2.jpg""style=""width:400px;height:400px;""></img>",2,html-button-response,11,197458,0.0-3.0-10.0,86570,List2A,black,man,,TRUE,2,,,,,
null,CORRECT,,html-keyboard-response,12,198963,0.0-3.0-11.0-0.0,86570,List2A,black,man,,,,null,,,,
2452,"<img src=""portrait/BM2.jpg""style=""width:400px;height:400px;""></img>",5,html-button-response,13,201418,0.0-3.0-13.0,86570,List2A,black,man,,TRUE,5,,,,,
null,CORRECT,,html-keyboard-response,14,202923,0.0-3.0-14.0-0.0,86570,List2A,black,man,,,,null,,,,
4134,"<img src=""portrait/BW1.jpg""style=""width:400px;height:400px;""></img>",0,html-button-response,15,207059,0.0-3.0-16.0,86570,List2A,black,man,,TRUE,0,,,,,
null,CORRECT,,html-keyboard-response,16,208563,0.0-3.0-17.0-0.0,86570,List2A,black,man,,,,null,,,,
3008,"<img src=""portrait/WM2.jpg""style=""width:400px;height:400px;""></img>",7,html-button-response,17,211573,0.0-3.0-19.0,86570,List2A,black,man,,TRUE,7,,,,,
null,CORRECT,,html-keyboard-response,18,213077,0.0-3.0-20.0-0.0,86570,List2A,black,man,,,,null,,,,
2955,"<img src=""portrait/WM1.jpg""style=""width:400px;height:400px;""></img>",6,html-button-response,19,216034,0.0-3.0-22.0,86570,List2A,black,man,,TRUE,6,,,,,
null,CORRECT,,html-keyboard-response,20,217538,0.0-3.0-23.0-0.0,86570,List2A,black,man,,,,null,,,,
1750,<p>You got 7 out of 8 right first time. Press Continue.</p>,0,html-button-response,21,219292,0.0-3.0-25.0,86570,List2A,black,man,,,,,,,,
3122,"As you did not score 100%, the memory game will repeat. Press Continue.",0,html-button-response,22,223417,0.0-3.0-26.0-0.0,86570,List2A,black,man,,,,,,,,
3284,"<img src='img/portrait_matrix_list2.JPG' style='width:900px;height:500px;''></img><p>If you have memorised all the portraits and names and are ready to start, press Continue.</p><p><strong>Please note: Your memory of these faces will be tested 4 times during this experiment.</strong></p>",0,html-button-response,23,227708,0.0-3.1-0.1,86570,List2A,black,man,,,,,,,,
9575,"<img src=""portrait/WW1.jpg""style=""width:400px;height:400px;""></img>",1,html-button-response,24,238287,0.0-3.1-1.1,86570,List2A,black,man,,TRUE,1,,,,,
null,CORRECT,,html-keyboard-response,25,239792,0.0-3.1-2.1-0.1,86570,List2A,black,man,,,,null,,,,
7095,"<img src=""portrait/BM1.jpg""style=""width:400px;height:400px;""></img>",4,html-button-response,26,246889,0.0-3.1-4.1,86570,List2A,black,man,,TRUE,4,,,,,
null,CORRECT,,html-keyboard-response,27,248395,0.0-3.1-5.1-0.1,86570,List2A,black,man,,,,null,,,,
1708,"<img src=""portrait/WW2.jpg""style=""width:400px;height:400px;""></img>",3,html-button-response,28,250105,0.0-3.1-7.1,86570,List2A,black,man,,TRUE,3,,,,,
null,CORRECT,,html-keyboard-response,29,251609,0.0-3.1-8.1-0.1,86570,List2A,black,man,,,,null,,,,
1937,"<img src=""portrait/BW2.jpg""style=""width:400px;height:400px;""></img>",2,html-button-response,30,253548,0.0-3.1-10.1,86570,List2A,black,man,,TRUE,2,,,,,
null,CORRECT,,html-keyboard-response,31,255051,0.0-3.1-11.1-0.1,86570,List2A,black,man,,,,null,,,,
1463,"<img src=""portrait/BM2.jpg""style=""width:400px;height:400px;""></img>",5,html-button-response,32,256518,0.0-3.1-13.1,86570,List2A,black,man,,TRUE,5,,,,,
null,CORRECT,,html-keyboard-response,33,258022,0.0-3.1-14.1-0.1,86570,List2A,black,man,,,,null,,,,
1480,"<img src=""portrait/BW1.jpg""style=""width:400px;height:400px;""></img>",0,html-button-response,34,259505,0.0-3.1-16.1,86570,List2A,black,man,,TRUE,0,,,,,
null,CORRECT,,html-keyboard-response,35,261011,0.0-3.1-17.1-0.1,86570,List2A,black,man,,,,null,,,,
1717,"<img src=""portrait/WM2.jpg""style=""width:400px;height:400px;""></img>",7,html-button-response,36,262730,0.0-3.1-19.1,86570,List2A,black,man,,TRUE,7,,,,,
null,CORRECT,,html-keyboard-response,37,264235,0.0-3.1-20.1-0.1,86570,List2A,black,man,,,,null,,,,
1591,"<img src=""portrait/WM1.jpg""style=""width:400px;height:400px;""></img>",6,html-button-response,38,265829,0.0-3.1-22.1,86570,List2A,black,man,,TRUE,6,,,,,
null,CORRECT,,html-keyboard-response,39,267333,0.0-3.1-23.1-0.1,86570,List2A,black,man,,,,null,,,,
1392,<p>You got 8 out of 8 right first time. Press Continue.</p>,0,html-button-response,40,268727,0.0-3.1-25.1,86570,List2A,black,man,,,,,,,,
39915,"<p>In this experiment, you will view photographs of the people from the memory game interacting.</p><p>By using the <strong>exact</strong> phrase given <i>after</i> the photograph appears and recalling the correct names of the people in the photographs, form a sentence describing the interaction. You do not need to capitalise names.</p><p>Type your answer in the space provided. Please complete every sentence before moving onto the next trial.</p><p>You will only have a few seconds to memorise each given photograph and phrase before you can respond, so try your best to focus.</p><p>An example is given below. Press 'Continue' when you are ready.</p><img src='img/speaking_example_v2.jpg' style='width:800px;height:460px;''></img>",0,html-button-response,41,309646,0.0-4.0,86570,List2A,black,man,,,,,,,,
1376,"<p>Before the experiment starts, you will watch two example trials. Press 'Continue'.</p>",0,html-button-response,42,312026,0.0-5.0,86570,List2A,black,man,,,,,,,,
null,<img src='img/speaking_WW.gif'></img>,,html-keyboard-response,43,315028,0.0-6.0,86570,List2A,black,man,,,,null,,,,
null,<p>is speaking to</p>,,html-keyboard-response,44,317031,0.0-7.0,86570,List2A,black,man,,,,null,,,,
4719,<p><b>Answer:</b> jane is speaking to ruth</p>,0,html-button-response,45,321751,0.0-8.0,86570,List2A,black,man,,,,,,,,
null,<img src='img/pointing_BM.gif'></img>,,html-keyboard-response,46,324757,0.0-9.0,86570,List2A,black,man,,,,null,,,,
null,<p>are pointing at each other</p>,,html-keyboard-response,47,326760,0.0-10.0,86570,List2A,black,man,,,,null,,,,
2357,<p><b>Answer:</b> fred and mike are pointing at each other</p>,0,html-button-response,48,329119,0.0-11.0,86570,List2A,black,man,,,,,,,,
33311,"<p>Ready to start the experiment?</p><br><p><strong>Remember to describe the picture using a full sentence,</strong></p><p><strong>that combines the names of the people with the given phrase.</strong></p><p><strong>If you do not do this correctly you will not be paid.</strong></p><p><strong> You do not need to capitalise names or use punctuation.</strong></p><br><p>Press 'Continue' to begin.</p>",0,html-button-response,49,363435,0.0-12.0,86570,List2A,black,man,,,,,,,,
null,"<div style=""font-size:60px;"">+</div>",,html-keyboard-response,50,364940,0.0-13.0-0.0,86570,List2A,black,man,,,,null,,,,
null,"<img src=""stim_listA/marry2.gif""</stim_listA>",,html-keyboard-response,51,366948,0.0-13.0-1.0,86570,List2A,black,man,,,,null,,,,
null,are marrying each other,,html-keyboard-response,52,368953,0.0-13.0-2.0,86570,List2A,black,man,,,,null,,,,
17754,,,survey-text,53,386712,0.0-13.0-3.0,86570,List2A,black,man,,,,,"{""Q0"":""jane and luke are marrying each other.""}","<img src=""stim_listA/marry2.gif""</stim_listA>",are marrying each other,
null,"<div style=""font-size:60px;"">+</div>",,html-keyboard-response,54,387218,0.0-13.0-0.1,86570,List2A,black,man,,,,null,,,,
null,"<img src=""stim_listA/marry5.gif""</stim_listA>",,html-keyboard-response,55,389221,0.0-13.0-1.1,86570,List2A,black,man,,,,null,,,,
null,is marrying,,html-keyboard-response,56,391224,0.0-13.0-2.1,86570,List2A,black,man,,,,null,,,,
31032,,,survey-text,57,422257,0.0-13.0-3.1,86570,List2A,black,man,,,,,"{""Q0"":""Fred and Dave are marrying.""}","<img src=""stim_listA/marry5.gif""</stim_listA>",is marrying,
null,"<div style=""font-size:60px;"">+</div>",,html-keyboard-response,58,422762,0.0-13.0-0.2,86570,List2A,black,man,,,,null,,,,
null,"<img src=""stim_listA/argue8.gif""</stim_listA>",,html-keyboard-response,59,424775,0.0-13.0-1.2,86570,List2A,black,man,,,,null,,,,
null,are arguing with each other,,html-keyboard-response,60,426776,0.0-13.0-2.2,86570,List2A,black,man,,,,null,,,,
12330,,,survey-text,61,439108,0.0-13.0-3.2,86570,List2A,black,man,,,,,"{""Q0"":""Kate and Ruth are arguing with each other.""}","<img src=""stim_listA/argue8.gif""</stim_listA>",are arguing with each other,
null,"<div style=""font-size:60px;"">+</div>",,html-keyboard-response,62,439610,0.0-13.0-0.3,86570,List2A,black,man,,,,null,,,,
null,"<img src=""stim_listA/hug4.gif""</stim_listA>",,html-keyboard-response,63,441615,0.0-13.0-1.3,86570,List2A,black,man,,,,null,,,,
null,are hugging each other,,html-keyboard-response,64,443618,0.0-13.0-2.3,86570,List2A,black,man,,,,null,,,,
11375,,,survey-text,65,454993,0.0-13.0-3.3,86570,List2A,black,man,,,,,"{""Q0"":""Kater and Mike are hugging each other.""}","<img src=""stim_listA/hug4.gif""</stim_listA>",are hugging each other,
null,"<div style=""font-size:60px;"">+</div>",,html-keyboard-response,66,455497,0.0-13.0-0.4,86570,List2A,black,man,,,,null,,,,
null,"<img src=""stim_listA/shout1.gif""</stim_listA>",,html-keyboard-response,67,457502,0.0-13.0-1.4,86570,List2A,black,man,,,,null,,,,
null,is shouting at,,html-keyboard-response,68,459504,0.0-13.0-2.4,86570,List2A,black,man,,,,null,,,,
11307,,,survey-text,69,470813,0.0-13.0-3.4,86570,List2A,black,man,,,,,"{""Q0"":""Luke is shouting at Ruth.""}","<img src=""stim_listA/shout1.gif""</stim_listA>",is shouting at,
null,"<div style=""font-size:60px;"">+</div>",,html-keyboard-response,70,471315,0.0-13.0-0.5,86570,List2A,black,man,,,,null,,,,
null,"<img src=""stim_listA/shout7.gif""</stim_listA>",,html-keyboard-response,71,473320,0.0-13.0-1.5,86570,List2A,black,man,,,,null,,,,
null,is shouting at,,html-keyboard-response,72,475323,0.0-13.0-2.5,86570,List2A,black,man,,,,null,,,,
10821,,,survey-text,73,486145,0.0-13.0-3.5,86570,List2A,black,man,,,,,"{""Q0"":""Ruth is shouting at beth.""}","<img src=""stim_listA/shout7.gif""</stim_listA>",is shouting at,
null,"<div style=""font-size:60px;"">+</div>",,html-keyboard-response,74,486649,0.0-13.0-0.6,86570,List2A,black,man,,,,null,,,,
null,"<img src=""stim_listA/fight7.gif""</stim_listA>",,html-keyboard-response,75,488654,0.0-13.0-1.6,86570,List2A,black,man,,,,null,,,,
null,is fighting,,html-keyboard-response,76,490656,0.0-13.0-2.6,86570,List2A,black,man,,,,null,,,,
41983,,,survey-text,77,532641,0.0-13.0-3.6,86570,List2A,black,man,,,,,"{""Q0"":""Jane and Kate are fighting.""}","<img src=""stim_listA/fight7.gif""</stim_listA>",is fighting,
null,"<div style=""font-size:60px;"">+</div>",,html-keyboard-response,78,533143,0.0-13.0-0.7,86570,List2A,black,man,,,,null,,,,
null,"<img src=""stim_listA/argue7.gif""</stim_listA>",,html-keyboard-response,79,535148,0.0-13.0-1.7,86570,List2A,black,man,,,,null,,,,
null,is arguing with,,html-keyboard-response,80,537151,0.0-13.0-2.7,86570,List2A,black,man,,,,null,,,,
26519,,,survey-text,81,563672,0.0-13.0-3.7,86570,List2A,black,man,,,,,"{""Q0"":""Jane is arguing with Beth.""}","<img src=""stim_listA/argue7.gif""</stim_listA>",is arguing with,
null,"<div style=""font-size:60px;"">+</div>",,html-keyboard-response,82,564176,0.0-13.0-0.8,86570,List2A,black,man,,,,null,,,,
null,"<img src=""stim_listA/talk6.gif""</stim_listA>",,html-keyboard-response,83,566181,0.0-13.0-1.8,86570,List2A,black,man,,,,null,,,,
null,are talking to each other,,html-keyboard-response,84,568184,0.0-13.0-2.8,86570,List2A,black,man,,,,null,,,,
31542,,,survey-text,85,599728,0.0-13.0-3.8,86570,List2A,black,man,,,,,"{""Q0"":""Fred and Dave are talking to each other.""}","<img src=""stim_listA/talk6.gif""</stim_listA>",are talking to each other,
null,"<div style=""font-size:60px;"">+</div>",,html-keyboard-response,86,600232,0.0-13.0-0.9,86570,List2A,black,man,,,,null,,,,
null,"<img src=""stim_listA/fight5.gif""</stim_listA>",,html-keyboard-response,87,602235,0.0-13.0-1.9,86570,List2A,black,man,,,,null,,,,
null,is fighting,,html-keyboard-response,88,604238,0.0-13.0-2.9,86570,List2A,black,man,,,,null,,,,
37977,,,survey-text,89,642217,0.0-13.0-3.9,86570,List2A,black,man,,,,,"{""Q0"":""Mike and Dave are fighting.""}","<img src=""stim_listA/fight5.gif""</stim_listA>",is fighting,
null,"<div style=""font-size:60px;"">+</div>",,html-keyboard-response,90,642726,0.0-13.0-0.10,86570,List2A,black,man,,,,null,,,,
null,"<img src=""stim_listA/kiss1.gif""</stim_listA>",,html-keyboard-response,91,644746,0.0-13.0-1.10,86570,List2A,black,man,,,,null,,,,
null,is kissing,,html-keyboard-response,92,646749,0.0-13.0-2.10,86570,List2A,black,man,,,,null,,,,
24947,,,survey-text,93,671698,0.0-13.0-3.10,86570,List2A,black,man,,,,,"{""Q0"":""Ruth and Luke are kissing.""}","<img src=""stim_listA/kiss1.gif""</stim_listA>",is kissing,
null,"<div style=""font-size:60px;"">+</div>",,html-keyboard-response,94,672200,0.0-13.0-0.11,86570,List2A,black,man,,,,null,,,,
null,"<img src=""stim_listA/fight1.gif""</stim_listA>",,html-keyboard-response,95,674203,0.0-13.0-1.11,86570,List2A,black,man,,,,null,,,,
null,is fighting,,html-keyboard-response,96,676206,0.0-13.0-2.11,86570,List2A,black,man,,,,null,,,,
38721,,,survey-text,97,714929,0.0-13.0-3.11,86570,List2A,black,man,,,,,"{""Q0"":""Jane and David is fighting.""}","<img src=""stim_listA/fight1.gif""</stim_listA>",is fighting,
null,"<div style=""font-size:60px;"">+</div>",,html-keyboard-response,98,715431,0.0-13.0-0.12,86570,List2A,black,man,,,,null,,,,
null,"<img src=""stim_listA/hug3.gif""</stim_listA>",,html-keyboard-response,99,717437,0.0-13.0-1.12,86570,List2A,black,man,,,,null,,,,
null,is hugging,,html-keyboard-response,100,719439,0.0-13.0-2.12,86570,List2A,black,man,,,,null,,,,
49238,,,survey-text,101,768679,0.0-13.0-3.12,86570,List2A,black,man,,,,,"{""Q0"":""Beth and Fred is hugging.""}","<img src=""stim_listA/hug3.gif""</stim_listA>",is hugging,
null,"<div style=""font-size:60px;"">+</div>",,html-keyboard-response,102,769181,0.0-13.0-0.13,86570,List2A,black,man,,,,null,,,,
null,"<img src=""stim_listA/talk7.gif""</stim_listA>",,html-keyboard-response,103,771183,0.0-13.0-1.13,86570,List2A,black,man,,,,null,,,,
null,is talking to,,html-keyboard-response,104,773186,0.0-13.0-2.13,86570,List2A,black,man,,,,null,,,,
29622,,,survey-text,105,802810,0.0-13.0-3.13,86570,List2A,black,man,,,,,"{""Q0"":""Ruth is talking to Kate.""}","<img src=""stim_listA/talk7.gif""</stim_listA>",is talking to,
null,"<div style=""font-size:60px;"">+</div>",,html-keyboard-response,106,803313,0.0-13.0-0.14,86570,List2A,black,man,,,,null,,,,
null,"<img src=""stim_listA/meet5.gif""</stim_listA>",,html-keyboard-response,107,805316,0.0-13.0-1.14,86570,List2A,black,man,,,,null,,,,
null,is meeting,,html-keyboard-response,108,807318,0.0-13.0-2.14,86570,List2A,black,man,,,,null,,,,
7689,,,survey-text,109,815008,0.0-13.0-3.14,86570,List2A,black,man,,,,,"{""Q0"":""Dave is meeting Mike.""}","<img src=""stim_listA/meet5.gif""</stim_listA>",is meeting,
null,"<div style=""font-size:60px;"">+</div>",,html-keyboard-response,110,815512,0.0-13.0-0.15,86570,List2A,black,man,,,,null,,,,
null,"<img src=""stim_listA/hug8.gif""</stim_listA>",,html-keyboard-response,111,817516,0.0-13.0-1.15,86570,List2A,black,man,,,,null,,,,
null,are hugging each other,,html-keyboard-response,112,819518,0.0-13.0-2.15,86570,List2A,black,man,,,,null,,,,
9419,,,survey-text,113,828939,0.0-13.0-3.15,86570,List2A,black,man,,,,,"{""Q0"":""Kate and Jane is hugging.""}","<img src=""stim_listA/hug8.gif""</stim_listA>",are hugging each other,
null,"<div style=""font-size:60px;"">+</div>",,html-keyboard-response,114,829442,0.0-13.0-0.16,86570,List2A,black,man,,,,null,,,,
null,"<img src=""stim_listA/dance6.gif""</stim_listA>",,html-keyboard-response,115,831447,0.0-13.0-1.16,86570,List2A,black,man,,,,null,,,,
null,are dancing with each other,,html-keyboard-response,116,833449,0.0-13.0-2.16,86570,List2A,black,man,,,,null,,,,
12614,,,survey-text,117,846066,0.0-13.0-3.16,86570,List2A,black,man,,,,,"{""Q0"":""Fred and Dave is dancing with each other.""}","<img src=""stim_listA/dance6.gif""</stim_listA>",are dancing with each other,
null,"<div style=""font-size:60px;"">+</div>",,html-keyboard-response,118,846571,0.0-13.0-0.17,86570,List2A,black,man,,,,null,,,,
null,"<img src=""stim_listA/dance1.gif""</stim_listA>",,html-keyboard-response,119,848575,0.0-13.0-1.17,86570,List2A,black,man,,,,null,,,,
null,is dancing with,,html-keyboard-response,120,850577,0.0-13.0-2.17,86570,List2A,black,man,,,,null,,,,
9910,,,survey-text,121,860490,0.0-13.0-3.17,86570,List2A,black,man,,,,,"{""Q0"":""Luke is dancing with Jane.""}","<img src=""stim_listA/dance1.gif""</stim_listA>",is dancing with,
null,"<div style=""font-size:60px;"">+</div>",,html-keyboard-response,122,860993,0.0-13.0-0.18,86570,List2A,black,man,,,,null,,,,
null,"<img src=""stim_listA/hug5.gif""</stim_listA>",,html-keyboard-response,123,862998,0.0-13.0-1.18,86570,List2A,black,man,,,,null,,,,
null,is hugging,,html-keyboard-response,124,865000,0.0-13.0-2.18,86570,List2A,black,man,,,,null,,,,
7598,,,survey-text,125,872600,0.0-13.0-3.18,86570,List2A,black,man,,,,,"{""Q0"":""Luke is hugging Fred.""}","<img src=""stim_listA/hug5.gif""</stim_listA>",is hugging,
null,"<div style=""font-size:60px;"">+</div>",,html-keyboard-response,126,873103,0.0-13.0-0.19,86570,List2A,black,man,,,,null,,,,
null,"<img src=""stim_listA/hug2.gif""</stim_listA>",,html-keyboard-response,127,875108,0.0-13.0-1.19,86570,List2A,black,man,,,,null,,,,
null,are hugging each other,,html-keyboard-response,128,877111,0.0-13.0-2.19,86570,List2A,black,man,,,,null,,,,
10072,,,survey-text,129,887185,0.0-13.0-3.19,86570,List2A,black,man,,,,,"{""Q0"":""Dave and Jane is hugging each other.""}","<img src=""stim_listA/hug2.gif""</stim_listA>",are hugging each other,
38946,"<img src='img/portrait_matrix_list2.JPG' style='width:900px;height:500px;''></img><p>If you have memorised all the portraits and names and are ready to start, press Continue.</p><p><strong>Please note: Your memory of these faces will be tested 4 times during this experiment.</strong></p>",0,html-button-response,130,926134,0.0-14.0-0.0,86570,List2A,black,man,,,,,,,,
2726,"<img src=""portrait/WM2.jpg""style=""width:400px;height:400px;""></img>",7,html-button-response,131,929865,0.0-14.0-1.0,86570,List2A,black,man,,TRUE,7,,,,,
null,CORRECT,,html-keyboard-response,132,931370,0.0-14.0-2.0-0.0,86570,List2A,black,man,,,,null,,,,
2820,"<img src=""portrait/WW1.jpg""style=""width:400px;height:400px;""></img>",1,html-button-response,133,934193,0.0-14.0-4.0,86570,List2A,black,man,,TRUE,1,,,,,
null,CORRECT,,html-keyboard-response,134,935698,0.0-14.0-5.0-0.0,86570,List2A,black,man,,,,null,,,,
1914,"<img src=""portrait/WW2.jpg""style=""width:400px;height:400px;""></img>",3,html-button-response,135,937615,0.0-14.0-7.0,86570,List2A,black,man,,TRUE,3,,,,,
null,CORRECT,,html-keyboard-response,136,939120,0.0-14.0-8.0-0.0,86570,List2A,black,man,,,,null,,,,
1710,"<img src=""portrait/BW2.jpg""style=""width:400px;height:400px;""></img>",2,html-button-response,137,940834,0.0-14.0-10.0,86570,List2A,black,man,,TRUE,2,,,,,
null,CORRECT,,html-keyboard-response,138,942343,0.0-14.0-11.0-0.0,86570,List2A,black,man,,,,null,,,,
2198,"<img src=""portrait/WM1.jpg""style=""width:400px;height:400px;""></img>",6,html-button-response,139,944545,0.0-14.0-13.0,86570,List2A,black,man,,TRUE,6,,,,,
null,CORRECT,,html-keyboard-response,140,946049,0.0-14.0-14.0-0.0,86570,List2A,black,man,,,,null,,,,
4635,"<img src=""portrait/BM2.jpg""style=""width:400px;height:400px;""></img>",5,html-button-response,141,950689,0.0-14.0-16.0,86570,List2A,black,man,,TRUE,5,,,,,
null,CORRECT,,html-keyboard-response,142,952195,0.0-14.0-17.0-0.0,86570,List2A,black,man,,,,null,,,,
1342,"<img src=""portrait/BM1.jpg""style=""width:400px;height:400px;""></img>",4,html-button-response,143,953540,0.0-14.0-19.0,86570,List2A,black,man,,TRUE,4,,,,,
null,CORRECT,,html-keyboard-response,144,955044,0.0-14.0-20.0-0.0,86570,List2A,black,man,,,,null,,,,
1818,"<img src=""portrait/BW1.jpg""style=""width:400px;height:400px;""></img>",0,html-button-response,145,956864,0.0-14.0-22.0,86570,List2A,black,man,,TRUE,0,,,,,
null,CORRECT,,html-keyboard-response,146,958369,0.0-14.0-23.0-0.0,86570,List2A,black,man,,,,null,,,,
1233,<p>You got 8 out of 8 right first time. Press Continue.</p>,0,html-button-response,147,959603,0.0-14.0-25.0,86570,List2A,black,man,,,,,,,,
null,"<div style=""font-size:60px;"">+</div>",,html-keyboard-response,148,961108,0.0-15.0-0.0,86570,List2A,black,man,,,,null,,,,
null,"<img src=""stim_listA/meet3.gif""</stim_listA>",,html-keyboard-response,149,963112,0.0-15.0-1.0,86570,List2A,black,man,,,,null,,,,
null,is meeting,,html-keyboard-response,150,965115,0.0-15.0-2.0,86570,List2A,black,man,,,,null,,,,
6680,,,survey-text,151,971797,0.0-15.0-3.0,86570,List2A,black,man,,,,,"{""Q0"":""Mike is meeting Beth.""}","<img src=""stim_listA/meet3.gif""</stim_listA>",is meeting,
null,"<div style=""font-size:60px;"">+</div>",,html-keyboard-response,152,972300,0.0-15.0-0.1,86570,List2A,black,man,,,,null,,,,
null,"<img src=""stim_listA/hug6.gif""</stim_listA>",,html-keyboard-response,153,974304,0.0-15.0-1.1,86570,List2A,black,man,,,,null,,,,
null,are hugging each other,,html-keyboard-response,154,976307,0.0-15.0-2.1,86570,List2A,black,man,,,,null,,,,
9502,,,survey-text,155,985810,0.0-15.0-3.1,86570,List2A,black,man,,,,,"{""Q0"":""Dave and Mike is hugging each other.""}","<img src=""stim_listA/hug6.gif""</stim_listA>",are hugging each other,
null,"<div style=""font-size:60px;"">+</div>",,html-keyboard-response,156,986314,0.0-15.0-0.2,86570,List2A,black,man,,,,null,,,,
null,"<img src=""stim_listA/talk1.gif""</stim_listA>",,html-keyboard-response,157,988316,0.0-15.0-1.2,86570,List2A,black,man,,,,null,,,,
null,is talking to,,html-keyboard-response,158,990319,0.0-15.0-2.2,86570,List2A,black,man,,,,null,,,,
5850,,,survey-text,159,996170,0.0-15.0-3.2,86570,List2A,black,man,,,,,"{""Q0"":""Luke is talking to Jane.""}","<img src=""stim_listA/talk1.gif""</stim_listA>",is talking to,
null,"<div style=""font-size:60px;"">+</div>",,html-keyboard-response,160,996672,0.0-15.0-0.3,86570,List2A,black,man,,,,null,,,,
null,"<img src=""stim_listA/kiss6.gif""</stim_listA>",,html-keyboard-response,161,998675,0.0-15.0-1.3,86570,List2A,black,man,,,,null,,,,
null,are kissing each other,,html-keyboard-response,162,1000677,0.0-15.0-2.3,86570,List2A,black,man,,,,null,,,,
8230,,,survey-text,163,1008909,0.0-15.0-3.3,86570,List2A,black,man,,,,,"{""Q0"":""Mike and Dave are kissing each other.""}","<img src=""stim_listA/kiss6.gif""</stim_listA>",are kissing each other,
null,"<div style=""font-size:60px;"">+</div>",,html-keyboard-response,164,1009413,0.0-15.0-0.4,86570,List2A,black,man,,,,null,,,,
null,"<img src=""stim_listA/shout3.gif""</stim_listA>",,html-keyboard-response,165,1011418,0.0-15.0-1.4,86570,List2A,black,man,,,,null,,,,
null,is shouting at,,html-keyboard-response,166,1013420,0.0-15.0-2.4,86570,List2A,black,man,,,,null,,,,
7174,,,survey-text,167,1020596,0.0-15.0-3.4,86570,List2A,black,man,,,,,"{""Q0"":""Fred is shouting at Beth.""}","<img src=""stim_listA/shout3.gif""</stim_listA>",is shouting at,
null,"<div style=""font-size:60px;"">+</div>",,html-keyboard-response,168,1021098,0.0-15.0-0.5,86570,List2A,black,man,,,,null,,,,
null,"<img src=""stim_listA/touch2.gif""</stim_listA>",,html-keyboard-response,169,1023103,0.0-15.0-1.5,86570,List2A,black,man,,,,null,,,,
null,are touching each other,,html-keyboard-response,170,1025105,0.0-15.0-2.5,86570,List2A,black,man,,,,null,,,,
33644,,,survey-text,171,1058751,0.0-15.0-3.5,86570,List2A,black,man,,,,,"{""Q0"":""Luke and Ruth are touching each other.""}","<img src=""stim_listA/touch2.gif""</stim_listA>",are touching each other,
null,"<div style=""font-size:60px;"">+</div>",,html-keyboard-response,172,1059253,0.0-15.0-0.6,86570,List2A,black,man,,,,null,,,,
null,"<img src=""stim_listA/touch4.gif""</stim_listA>",,html-keyboard-response,173,1061257,0.0-15.0-1.6,86570,List2A,black,man,,,,null,,,,
null,are touching each other,,html-keyboard-response,174,1063262,0.0-15.0-2.6,86570,List2A,black,man,,,,null,,,,
25349,,,survey-text,175,1088613,0.0-15.0-3.6,86570,List2A,black,man,,,,,"{""Q0"":""Fred and Beth are touching each other.""}","<img src=""stim_listA/touch4.gif""</stim_listA>",are touching each other,
null,"<div style=""font-size:60px;"">+</div>",,html-keyboard-response,176,1089117,0.0-15.0-0.7,86570,List2A,black,man,,,,null,,,,
null,"<img src=""stim_listA/dance4.gif""</stim_listA>",,html-keyboard-response,177,1091122,0.0-15.0-1.7,86570,List2A,black,man,,,,null,,,,
null,are dancing with each other,,html-keyboard-response,178,1093125,0.0-15.0-2.7,86570,List2A,black,man,,,,null,,,,
13498,,,survey-text,179,1106625,0.0-15.0-3.7,86570,List2A,black,man,,,,,"{""Q0"":""Mike and Kate are dancing with each other.""}","<img src=""stim_listA/dance4.gif""</stim_listA>",are dancing with each other,
null,"<div style=""font-size:60px;"">+</div>",,html-keyboard-response,180,1107128,0.0-15.0-0.8,86570,List2A,black,man,,,,null,,,,
null,"<img src=""stim_listA/meet2.gif""</stim_listA>",,html-keyboard-response,181,1109133,0.0-15.0-1.8,86570,List2A,black,man,,,,null,,,,
null,are meeting each other,,html-keyboard-response,182,1111136,0.0-15.0-2.8,86570,List2A,black,man,,,,null,,,,
9010,,,survey-text,183,1120148,0.0-15.0-3.8,86570,List2A,black,man,,,,,"{""Q0"":""Luke and Ruth are meeting each other.""}","<img src=""stim_listA/meet2.gif""</stim_listA>",are meeting each other,
null,"<div style=""font-size:60px;"">+</div>",,html-keyboard-response,184,1120652,0.0-15.0-0.9,86570,List2A,black,man,,,,null,,,,
null,"<img src=""stim_listA/touch6.gif""</stim_listA>",,html-keyboard-response,185,1122654,0.0-15.0-1.9,86570,List2A,black,man,,,,null,,,,
null,are touching each other,,html-keyboard-response,186,1124657,0.0-15.0-2.9,86570,List2A,black,man,,,,null,,,,
8121,,,survey-text,187,1132780,0.0-15.0-3.9,86570,List2A,black,man,,,,,"{""Q0"":""Luke and Fred are touching each other.""}","<img src=""stim_listA/touch6.gif""</stim_listA>",are touching each other,
null,"<div style=""font-size:60px;"">+</div>",,html-keyboard-response,188,1133283,0.0-15.0-0.10,86570,List2A,black,man,,,,null,,,,
null,"<img src=""stim_listA/shout6.gif""</stim_listA>",,html-keyboard-response,189,1135285,0.0-15.0-1.10,86570,List2A,black,man,,,,null,,,,
null,are shouting at each other,,html-keyboard-response,190,1137288,0.0-15.0-2.10,86570,List2A,black,man,,,,null,,,,
12019,,,survey-text,191,1149309,0.0-15.0-3.10,86570,List2A,black,man,,,,,"{""Q0"":""Dave and Mike are shouting at each other.""}","<img src=""stim_listA/shout6.gif""</stim_listA>",are shouting at each other,
null,"<div style=""font-size:60px;"">+</div>",,html-keyboard-response,192,1149814,0.0-15.0-0.11,86570,List2A,black,man,,,,null,,,,
null,"<img src=""stim_listA/meet7.gif""</stim_listA>",,html-keyboard-response,193,1151820,0.0-15.0-1.11,86570,List2A,black,man,,,,null,,,,
null,is meeting,,html-keyboard-response,194,1153822,0.0-15.0-2.11,86570,List2A,black,man,,,,null,,,,
6960,,,survey-text,195,1160784,0.0-15.0-3.11,86570,List2A,black,man,,,,,"{""Q0"":""Jane is meeting Kate.""}","<img src=""stim_listA/meet7.gif""</stim_listA>",is meeting,
null,"<div style=""font-size:60px;"">+</div>",,html-keyboard-response,196,1161288,0.0-15.0-0.12,86570,List2A,black,man,,,,null,,,,
null,"<img src=""stim_listA/kiss2.gif""</stim_listA>",,html-keyboard-response,197,1163293,0.0-15.0-1.12,86570,List2A,black,man,,,,null,,,,
null,are kissing each other,,html-keyboard-response,198,1165296,0.0-15.0-2.12,86570,List2A,black,man,,,,null,,,,
8241,,,survey-text,199,1173539,0.0-15.0-3.12,86570,List2A,black,man,,,,,"{""Q0"":""Jane and Dave are kissing each other.""}","<img src=""stim_listA/kiss2.gif""</stim_listA>",are kissing each other,
null,"<div style=""font-size:60px;"">+</div>",,html-keyboard-response,200,1174041,0.0-15.0-0.13,86570,List2A,black,man,,,,null,,,,
null,"<img src=""stim_listA/dance3.gif""</stim_listA>",,html-keyboard-response,201,1176045,0.0-15.0-1.13,86570,List2A,black,man,,,,null,,,,
null,is dancing with,,html-keyboard-response,202,1178048,0.0-15.0-2.13,86570,List2A,black,man,,,,null,,,,
7160,,,survey-text,203,1185210,0.0-15.0-3.13,86570,List2A,black,man,,,,,"{""Q0"":""Fred is dancing with Kate.""}","<img src=""stim_listA/dance3.gif""</stim_listA>",is dancing with,
null,"<div style=""font-size:60px;"">+</div>",,html-keyboard-response,204,1185712,0.0-15.0-0.14,86570,List2A,black,man,,,,null,,,,
null,"<img src=""stim_listA/marry4.gif""</stim_listA>",,html-keyboard-response,205,1187715,0.0-15.0-1.14,86570,List2A,black,man,,,,null,,,,
null,are marrying each other,,html-keyboard-response,206,1189718,0.0-15.0-2.14,86570,List2A,black,man,,,,null,,,,
9708,,,survey-text,207,1199428,0.0-15.0-3.14,86570,List2A,black,man,,,,,"{""Q0"":""Fred and Kate are marrying each other.""}","<img src=""stim_listA/marry4.gif""</stim_listA>",are marrying each other,
null,"<div style=""font-size:60px;"">+</div>",,html-keyboard-response,208,1199930,0.0-15.0-0.15,86570,List2A,black,man,,,,null,,,,
null,"<img src=""stim_listA/dance2.gif""</stim_listA>",,html-keyboard-response,209,1201936,0.0-15.0-1.15,86570,List2A,black,man,,,,null,,,,
null,are dancing with each other,,html-keyboard-response,210,1203938,0.0-15.0-2.15,86570,List2A,black,man,,,,null,,,,
9014,,,survey-text,211,1212953,0.0-15.0-3.15,86570,List2A,black,man,,,,,"{""Q0"":""Ruth and Dave are dancing with each other.""}","<img src=""stim_listA/dance2.gif""</stim_listA>",are dancing with each other,
null,"<div style=""font-size:60px;"">+</div>",,html-keyboard-response,212,1213455,0.0-15.0-0.16,86570,List2A,black,man,,,,null,,,,
null,"<img src=""stim_listA/dance5.gif""</stim_listA>",,html-keyboard-response,213,1215459,0.0-15.0-1.16,86570,List2A,black,man,,,,null,,,,
null,is dancing with,,html-keyboard-response,214,1217461,0.0-15.0-2.16,86570,List2A,black,man,,,,null,,,,
7311,,,survey-text,215,1224774,0.0-15.0-3.16,86570,List2A,black,man,,,,,"{""Q0"":""Mike is dancing with Luke.""}","<img src=""stim_listA/dance5.gif""</stim_listA>",is dancing with,
null,"<div style=""font-size:60px;"">+</div>",,html-keyboard-response,216,1225276,0.0-15.0-0.17,86570,List2A,black,man,,,,null,,,,
null,"<img src=""stim_listA/marry3.gif""</stim_listA>",,html-keyboard-response,217,1227279,0.0-15.0-1.17,86570,List2A,black,man,,,,null,,,,
null,is marrying,,html-keyboard-response,218,1229281,0.0-15.0-2.17,86570,List2A,black,man,,,,null,,,,
6131,,,survey-text,219,1235413,0.0-15.0-3.17,86570,List2A,black,man,,,,,"{""Q0"":""Beth is marrying Mike.""}","<img src=""stim_listA/marry3.gif""</stim_listA>",is marrying,
null,"<div style=""font-size:60px;"">+</div>",,html-keyboard-response,220,1235915,0.0-15.0-0.18,86570,List2A,black,man,,,,null,,,,
null,"<img src=""stim_listA/kiss3.gif""</stim_listA>",,html-keyboard-response,221,1237920,0.0-15.0-1.18,86570,List2A,black,man,,,,null,,,,
null,is kissing,,html-keyboard-response,222,1239923,0.0-15.0-2.18,86570,List2A,black,man,,,,null,,,,
8816,,,survey-text,223,1248742,0.0-15.0-3.18,86570,List2A,black,man,,,,,"{""Q0"":""Beth and Fred is kissing.""}","<img src=""stim_listA/kiss3.gif""</stim_listA>",is kissing,
null,"<div style=""font-size:60px;"">+</div>",,html-keyboard-response,224,1249246,0.0-15.0-0.19,86570,List2A,black,man,,,,null,,,,
null,"<img src=""stim_listA/meet4.gif""</stim_listA>",,html-keyboard-response,225,1251251,0.0-15.0-1.19,86570,List2A,black,man,,,,null,,,,
null,are meeting each other,,html-keyboard-response,226,1253254,0.0-15.0-2.19,86570,List2A,black,man,,,,null,,,,
8188,,,survey-text,227,1261444,0.0-15.0-3.19,86570,List2A,black,man,,,,,"{""Q0"":""Fred and Beth are meeting each other.""}","<img src=""stim_listA/meet4.gif""</stim_listA>",are meeting each other,
286377,"<img src='img/portrait_matrix_list2.JPG' style='width:900px;height:500px;''></img><p>If you have memorised all the portraits and names and are ready to start, press Continue.</p><p><strong>Please note: Your memory of these faces will be tested 4 times during this experiment.</strong></p>",0,html-button-response,228,1547826,0.0-16.0-0.0,86570,List2A,black,man,,,,,,,,
3823,"<img src=""portrait/BW1.jpg""style=""width:400px;height:400px;""></img>",0,html-button-response,229,1552656,0.0-16.0-1.0,86570,List2A,black,man,,TRUE,0,,,,,
null,CORRECT,,html-keyboard-response,230,1554165,0.0-16.0-2.0-0.0,86570,List2A,black,man,,,,null,,,,
2201,"<img src=""portrait/BM1.jpg""style=""width:400px;height:400px;""></img>",4,html-button-response,231,1556371,0.0-16.0-4.0,86570,List2A,black,man,,TRUE,4,,,,,
null,CORRECT,,html-keyboard-response,232,1557875,0.0-16.0-5.0-0.0,86570,List2A,black,man,,,,null,,,,
1608,"<img src=""portrait/BM2.jpg""style=""width:400px;height:400px;""></img>",5,html-button-response,233,1559486,0.0-16.0-7.0,86570,List2A,black,man,,TRUE,5,,,,,
null,CORRECT,,html-keyboard-response,234,1560991,0.0-16.0-8.0-0.0,86570,List2A,black,man,,,,null,,,,
3474,"<img src=""portrait/WW1.jpg""style=""width:400px;height:400px;""></img>",1,html-button-response,235,1564468,0.0-16.0-10.0,86570,List2A,black,man,,TRUE,1,,,,,
null,CORRECT,,html-keyboard-response,236,1565973,0.0-16.0-11.0-0.0,86570,List2A,black,man,,,,null,,,,
1743,"<img src=""portrait/BW2.jpg""style=""width:400px;height:400px;""></img>",2,html-button-response,237,1567719,0.0-16.0-13.0,86570,List2A,black,man,,TRUE,2,,,,,
null,CORRECT,,html-keyboard-response,238,1569223,0.0-16.0-14.0-0.0,86570,List2A,black,man,,,,null,,,,
5006,"<img src=""portrait/WW2.jpg""style=""width:400px;height:400px;""></img>",3,html-button-response,239,1574232,0.0-16.0-16.0,86570,List2A,black,man,,TRUE,3,,,,,
null,CORRECT,,html-keyboard-response,240,1575737,0.0-16.0-17.0-0.0,86570,List2A,black,man,,,,null,,,,
2224,"<img src=""portrait/WM2.jpg""style=""width:400px;height:400px;""></img>",7,html-button-response,241,1577965,0.0-16.0-19.0,86570,List2A,black,man,,TRUE,7,,,,,
null,CORRECT,,html-keyboard-response,242,1579470,0.0-16.0-20.0-0.0,86570,List2A,black,man,,,,null,,,,
2813,"<img src=""portrait/WM1.jpg""style=""width:400px;height:400px;""></img>",6,html-button-response,243,1582287,0.0-16.0-22.0,86570,List2A,black,man,,TRUE,6,,,,,
null,CORRECT,,html-keyboard-response,244,1583798,0.0-16.0-23.0-0.0,86570,List2A,black,man,,,,null,,,,
767,<p>You got 8 out of 8 right first time. Press Continue.</p>,0,html-button-response,245,1584568,0.0-16.0-25.0,86570,List2A,black,man,,,,,,,,
null,"<div style=""font-size:60px;"">+</div>",,html-keyboard-response,246,1586075,0.0-17.0-0.0,86570,List2A,black,man,,,,null,,,,
null,"<img src=""stim_listA/meet1.gif""</stim_listA>",,html-keyboard-response,247,1588077,0.0-17.0-1.0,86570,List2A,black,man,,,,null,,,,
null,is meeting,,html-keyboard-response,248,1590081,0.0-17.0-2.0,86570,List2A,black,man,,,,null,,,,
7698,,,survey-text,249,1597782,0.0-17.0-3.0,86570,List2A,black,man,,,,,"{""Q0"":""Jane is meeting Dave.""}","<img src=""stim_listA/meet1.gif""</stim_listA>",is meeting,
null,"<div style=""font-size:60px;"">+</div>",,html-keyboard-response,250,1598288,0.0-17.0-0.1,86570,List2A,black,man,,,,null,,,,
null,"<img src=""stim_listA/argue3.gif""</stim_listA>",,html-keyboard-response,251,1600290,0.0-17.0-1.1,86570,List2A,black,man,,,,null,,,,
null,is arguing with,,html-keyboard-response,252,1602291,0.0-17.0-2.1,86570,List2A,black,man,,,,null,,,,
8593,,,survey-text,253,1610886,0.0-17.0-3.1,86570,List2A,black,man,,,,,"{""Q0"":""Beth is arguing with Mike.""}","<img src=""stim_listA/argue3.gif""</stim_listA>",is arguing with,
null,"<div style=""font-size:60px;"">+</div>",,html-keyboard-response,254,1611390,0.0-17.0-0.2,86570,List2A,black,man,,,,null,,,,
null,"<img src=""stim_listA/talk3.gif""</stim_listA>",,html-keyboard-response,255,1613396,0.0-17.0-1.2,86570,List2A,black,man,,,,null,,,,
null,is talking to,,html-keyboard-response,256,1615399,0.0-17.0-2.2,86570,List2A,black,man,,,,null,,,,
5432,,,survey-text,257,1620832,0.0-17.0-3.2,86570,List2A,black,man,,,,,"{""Q0"":""Kate is talking to Fred.""}","<img src=""stim_listA/talk3.gif""</stim_listA>",is talking to,
null,"<div style=""font-size:60px;"">+</div>",,html-keyboard-response,258,1621334,0.0-17.0-0.3,86570,List2A,black,man,,,,null,,,,
null,"<img src=""stim_listA/touch3.gif""</stim_listA>",,html-keyboard-response,259,1623337,0.0-17.0-1.3,86570,List2A,black,man,,,,null,,,,
null,is touching,,html-keyboard-response,260,1625339,0.0-17.0-2.3,86570,List2A,black,man,,,,null,,,,
6221,,,survey-text,261,1631562,0.0-17.0-3.3,86570,List2A,black,man,,,,,"{""Q0"":""Kate is touching Mike.""}","<img src=""stim_listA/touch3.gif""</stim_listA>",is touching,
null,"<div style=""font-size:60px;"">+</div>",,html-keyboard-response,262,1632065,0.0-17.0-0.4,86570,List2A,black,man,,,,null,,,,
null,"<img src=""stim_listA/kiss4.gif""</stim_listA>",,html-keyboard-response,263,1634068,0.0-17.0-1.4,86570,List2A,black,man,,,,null,,,,
null,are kissing each other,,html-keyboard-response,264,1636071,0.0-17.0-2.4,86570,List2A,black,man,,,,null,,,,
11216,,,survey-text,265,1647288,0.0-17.0-3.4,86570,List2A,black,man,,,,,"{""Q0"":""Kate and Mike are kissing each other.""}","<img src=""stim_listA/kiss4.gif""</stim_listA>",are kissing each other,
null,"<div style=""font-size:60px;"">+</div>",,html-keyboard-response,266,1647791,0.0-17.0-0.5,86570,List2A,black,man,,,,null,,,,
null,"<img src=""stim_listA/shout8.gif""</stim_listA>",,html-keyboard-response,267,1649796,0.0-17.0-1.5,86570,List2A,black,man,,,,null,,,,
null,are shouting at each other,,html-keyboard-response,268,1651800,0.0-17.0-2.5,86570,List2A,black,man,,,,null,,,,
8877,,,survey-text,269,1660679,0.0-17.0-3.5,86570,List2A,black,man,,,,,"{""Q0"":""Kate and Jane are shouting at each other.""}","<img src=""stim_listA/shout8.gif""</stim_listA>",are shouting at each other,
null,"<div style=""font-size:60px;"">+</div>",,html-keyboard-response,270,1661183,0.0-17.0-0.6,86570,List2A,black,man,,,,null,,,,
null,"<img src=""stim_listA/talk4.gif""</stim_listA>",,html-keyboard-response,271,1663188,0.0-17.0-1.6,86570,List2A,black,man,,,,null,,,,
null,are talking to each other,,html-keyboard-response,272,1665194,0.0-17.0-2.6,86570,List2A,black,man,,,,null,,,,
10627,,,survey-text,273,1675823,0.0-17.0-3.6,86570,List2A,black,man,,,,,"{""Q0"":""Mike and Beth are talking to each other.""}","<img src=""stim_listA/talk4.gif""</stim_listA>",are talking to each other,
null,"<div style=""font-size:60px;"">+</div>",,html-keyboard-response,274,1676326,0.0-17.0-0.7,86570,List2A,black,man,,,,null,,,,
null,"<img src=""stim_listA/kiss5.gif""</stim_listA>",,html-keyboard-response,275,1678329,0.0-17.0-1.7,86570,List2A,black,man,,,,null,,,,
null,is kissing,,html-keyboard-response,276,1680331,0.0-17.0-2.7,86570,List2A,black,man,,,,null,,,,
6448,,,survey-text,277,1686781,0.0-17.0-3.7,86570,List2A,black,man,,,,,"{""Q0"":""Luke and Fred is kissing.""}","<img src=""stim_listA/kiss5.gif""</stim_listA>",is kissing,
null,"<div style=""font-size:60px;"">+</div>",,html-keyboard-response,278,1687284,0.0-17.0-0.8,86570,List2A,black,man,,,,null,,,,
null,"<img src=""stim_listA/dance8.gif""</stim_listA>",,html-keyboard-response,279,1689289,0.0-17.0-1.8,86570,List2A,black,man,,,,null,,,,
null,are dancing with each other,,html-keyboard-response,280,1691293,0.0-17.0-2.8,86570,List2A,black,man,,,,null,,,,
9461,,,survey-text,281,1700755,0.0-17.0-3.8,86570,List2A,black,man,,,,,"{""Q0"":""Jane and Beth are dancing with each other.""}","<img src=""stim_listA/dance8.gif""</stim_listA>",are dancing with each other,
null,"<div style=""font-size:60px;"">+</div>",,html-keyboard-response,282,1701258,0.0-17.0-0.9,86570,List2A,black,man,,,,null,,,,
null,"<img src=""stim_listA/meet6.gif""</stim_listA>",,html-keyboard-response,283,1703263,0.0-17.0-1.9,86570,List2A,black,man,,,,null,,,,
null,are meeting each other,,html-keyboard-response,284,1705265,0.0-17.0-2.9,86570,List2A,black,man,,,,null,,,,
7593,,,survey-text,285,1712861,0.0-17.0-3.9,86570,List2A,black,man,,,,,"{""Q0"":""Fred and Luke are meeting each other.""}","<img src=""stim_listA/meet6.gif""</stim_listA>",are meeting each other,
null,"<div style=""font-size:60px;"">+</div>",,html-keyboard-response,286,1713365,0.0-17.0-0.10,86570,List2A,black,man,,,,null,,,,
null,"<img src=""stim_listA/dance7.gif""</stim_listA>",,html-keyboard-response,287,1715370,0.0-17.0-1.10,86570,List2A,black,man,,,,null,,,,
null,is dancing with,,html-keyboard-response,288,1717372,0.0-17.0-2.10,86570,List2A,black,man,,,,null,,,,
7124,,,survey-text,289,1724498,0.0-17.0-3.10,86570,List2A,black,man,,,,,"{""Q0"":""Ruth is dancing with Kate.""}","<img src=""stim_listA/dance7.gif""</stim_listA>",is dancing with,
null,"<div style=""font-size:60px;"">+</div>",,html-keyboard-response,290,1725001,0.0-17.0-0.11,86570,List2A,black,man,,,,null,,,,
null,"<img src=""stim_listA/argue4.gif""</stim_listA>",,html-keyboard-response,291,1727008,0.0-17.0-1.11,86570,List2A,black,man,,,,null,,,,
null,are arguing with each other,,html-keyboard-response,292,1729010,0.0-17.0-2.11,86570,List2A,black,man,,,,null,,,,
13723,,,survey-text,293,1742735,0.0-17.0-3.11,86570,List2A,black,man,,,,,"{""Q0"":""Kate and Fred are arguing with each other.""}","<img src=""stim_listA/argue4.gif""</stim_listA>",are arguing with each other,
null,"<div style=""font-size:60px;"">+</div>",,html-keyboard-response,294,1743240,0.0-17.0-0.12,86570,List2A,black,man,,,,null,,,,
null,"<img src=""stim_listA/fight4.gif""</stim_listA>",,html-keyboard-response,295,1745246,0.0-17.0-1.12,86570,List2A,black,man,,,,null,,,,
null,are fighting each other,,html-keyboard-response,296,1747248,0.0-17.0-2.12,86570,List2A,black,man,,,,null,,,,
9585,,,survey-text,297,1756835,0.0-17.0-3.12,86570,List2A,black,man,,,,,"{""Q0"":""Beth and Fred are fighting with each other.""}","<img src=""stim_listA/fight4.gif""</stim_listA>",are fighting each other,
null,"<div style=""font-size:60px;"">+</div>",,html-keyboard-response,298,1757338,0.0-17.0-0.13,86570,List2A,black,man,,,,null,,,,
null,"<img src=""stim_listA/touch8.gif""</stim_listA>",,html-keyboard-response,299,1759341,0.0-17.0-1.13,86570,List2A,black,man,,,,null,,,,
null,are touching each other,,html-keyboard-response,300,1761343,0.0-17.0-2.13,86570,List2A,black,man,,,,null,,,,
8993,,,survey-text,301,1770338,0.0-17.0-3.13,86570,List2A,black,man,,,,,"{""Q0"":""Ruth and Beth are touching each other.""}","<img src=""stim_listA/touch8.gif""</stim_listA>",are touching each other,
null,"<div style=""font-size:60px;"">+</div>",,html-keyboard-response,302,1770842,0.0-17.0-0.14,86570,List2A,black,man,,,,null,,,,
null,"<img src=""stim_listA/fight3.gif""</stim_listA>",,html-keyboard-response,303,1772847,0.0-17.0-1.14,86570,List2A,black,man,,,,null,,,,
null,is fighting,,html-keyboard-response,304,1774850,0.0-17.0-2.14,86570,List2A,black,man,,,,null,,,,
8139,,,survey-text,305,1782990,0.0-17.0-3.14,86570,List2A,black,man,,,,,"{""Q0"":""Kate is fighting Mike.""}","<img src=""stim_listA/fight3.gif""</stim_listA>",is fighting,
null,"<div style=""font-size:60px;"">+</div>",,html-keyboard-response,306,1783493,0.0-17.0-0.15,86570,List2A,black,man,,,,null,,,,
null,"<img src=""stim_listA/marry6.gif""</stim_listA>",,html-keyboard-response,307,1785499,0.0-17.0-1.15,86570,List2A,black,man,,,,null,,,,
null,are marrying each other,,html-keyboard-response,308,1787502,0.0-17.0-2.15,86570,List2A,black,man,,,,null,,,,
8652,,,survey-text,309,1796156,0.0-17.0-3.15,86570,List2A,black,man,,,,,"{""Q0"":""Luke and Mike are marrying each other.""}","<img src=""stim_listA/marry6.gif""</stim_listA>",are marrying each other,
null,"<div style=""font-size:60px;"">+</div>",,html-keyboard-response,310,1796659,0.0-17.0-0.16,86570,List2A,black,man,,,,null,,,,
null,"<img src=""stim_listA/touch7.gif""</stim_listA>",,html-keyboard-response,311,1798664,0.0-17.0-1.16,86570,List2A,black,man,,,,null,,,,
null,is touching,,html-keyboard-response,312,1800666,0.0-17.0-2.16,86570,List2A,black,man,,,,null,,,,
5904,,,survey-text,313,1806571,0.0-17.0-3.16,86570,List2A,black,man,,,,,"{""Q0"":""Jane is touching Kate.""}","<img src=""stim_listA/touch7.gif""</stim_listA>",is touching,
null,"<div style=""font-size:60px;"">+</div>",,html-keyboard-response,314,1807074,0.0-17.0-0.17,86570,List2A,black,man,,,,null,,,,
null,"<img src=""stim_listA/meet8.gif""</stim_listA>",,html-keyboard-response,315,1809079,0.0-17.0-1.17,86570,List2A,black,man,,,,null,,,,
null,are meeting each other,,html-keyboard-response,316,1811082,0.0-17.0-2.17,86570,List2A,black,man,,,,null,,,,
7731,,,survey-text,317,1818815,0.0-17.0-3.17,86570,List2A,black,man,,,,,"{""Q0"":""Beth and Ruth are meeting each other.""}","<img src=""stim_listA/meet8.gif""</stim_listA>",are meeting each other,
null,"<div style=""font-size:60px;"">+</div>",,html-keyboard-response,318,1819317,0.0-17.0-0.18,86570,List2A,black,man,,,,null,,,,
null,"<img src=""stim_listA/argue2.gif""</stim_listA>",,html-keyboard-response,319,1821323,0.0-17.0-1.18,86570,List2A,black,man,,,,null,,,,
null,are arguing with each other,,html-keyboard-response,320,1823325,0.0-17.0-2.18,86570,List2A,black,man,,,,null,,,,
8938,,,survey-text,321,1832265,0.0-17.0-3.18,86570,List2A,black,man,,,,,"{""Q0"":""Jane and Luke are arguing with each other.""}","<img src=""stim_listA/argue2.gif""</stim_listA>",are arguing with each other,
null,"<div style=""font-size:60px;"">+</div>",,html-keyboard-response,322,1832769,0.0-17.0-0.19,86570,List2A,black,man,,,,null,,,,
null,"<img src=""stim_listA/fight6.gif""</stim_listA>",,html-keyboard-response,323,1834776,0.0-17.0-1.19,86570,List2A,black,man,,,,null,,,,
null,are fighting each other,,html-keyboard-response,324,1836782,0.0-17.0-2.19,86570,List2A,black,man,,,,null,,,,
7598,,,survey-text,325,1844382,0.0-17.0-3.19,86570,List2A,black,man,,,,,"{""Q0"":""Fred and Luke are fighting each other.""}","<img src=""stim_listA/fight6.gif""</stim_listA>",are fighting each other,
3878,"<img src='img/portrait_matrix_list2.JPG' style='width:900px;height:500px;''></img><p>If you have memorised all the portraits and names and are ready to start, press Continue.</p><p><strong>Please note: Your memory of these faces will be tested 4 times during this experiment.</strong></p>",0,html-button-response,326,1848264,0.0-18.0-0.0,86570,List2A,black,man,,,,,,,,
1680,"<img src=""portrait/BM1.jpg""style=""width:400px;height:400px;""></img>",4,html-button-response,327,1850948,0.0-18.0-1.0,86570,List2A,black,man,,TRUE,4,,,,,
null,CORRECT,,html-keyboard-response,328,1852453,0.0-18.0-2.0-0.0,86570,List2A,black,man,,,,null,,,,
1277,"<img src=""portrait/WW2.jpg""style=""width:400px;height:400px;""></img>",3,html-button-response,329,1853733,0.0-18.0-4.0,86570,List2A,black,man,,TRUE,3,,,,,
null,CORRECT,,html-keyboard-response,330,1855239,0.0-18.0-5.0-0.0,86570,List2A,black,man,,,,null,,,,
4490,"<img src=""portrait/BW1.jpg""style=""width:400px;height:400px;""></img>",0,html-button-response,331,1859732,0.0-18.0-7.0,86570,List2A,black,man,,TRUE,0,,,,,
null,CORRECT,,html-keyboard-response,332,1861237,0.0-18.0-8.0-0.0,86570,List2A,black,man,,,,null,,,,
1866,"<img src=""portrait/WM1.jpg""style=""width:400px;height:400px;""></img>",6,html-button-response,333,1863107,0.0-18.0-10.0,86570,List2A,black,man,,TRUE,6,,,,,
null,CORRECT,,html-keyboard-response,334,1864612,0.0-18.0-11.0-0.0,86570,List2A,black,man,,,,null,,,,
1342,"<img src=""portrait/WM2.jpg""style=""width:400px;height:400px;""></img>",7,html-button-response,335,1865958,0.0-18.0-13.0,86570,List2A,black,man,,TRUE,7,,,,,
null,CORRECT,,html-keyboard-response,336,1867462,0.0-18.0-14.0-0.0,86570,List2A,black,man,,,,null,,,,
1476,"<img src=""portrait/BW2.jpg""style=""width:400px;height:400px;""></img>",2,html-button-response,337,1868941,0.0-18.0-16.0,86570,List2A,black,man,,TRUE,2,,,,,
null,CORRECT,,html-keyboard-response,338,1870447,0.0-18.0-17.0-0.0,86570,List2A,black,man,,,,null,,,,
1574,"<img src=""portrait/WW1.jpg""style=""width:400px;height:400px;""></img>",1,html-button-response,339,1872025,0.0-18.0-19.0,86570,List2A,black,man,,TRUE,1,,,,,
null,CORRECT,,html-keyboard-response,340,1873530,0.0-18.0-20.0-0.0,86570,List2A,black,man,,,,null,,,,
2520,"<img src=""portrait/BM2.jpg""style=""width:400px;height:400px;""></img>",5,html-button-response,341,1876055,0.0-18.0-22.0,86570,List2A,black,man,,TRUE,5,,,,,
null,CORRECT,,html-keyboard-response,342,1877560,0.0-18.0-23.0-0.0,86570,List2A,black,man,,,,null,,,,
1242,<p>You got 8 out of 8 right first time. Press Continue.</p>,0,html-button-response,343,1878805,0.0-18.0-25.0,86570,List2A,black,man,,,,,,,,
null,"<div style=""font-size:60px;"">+</div>",,html-keyboard-response,344,1880310,0.0-19.0-0.0,86570,List2A,black,man,,,,null,,,,
null,"<img src=""stim_listA/talk5.gif""</stim_listA>",,html-keyboard-response,345,1882315,0.0-19.0-1.0,86570,List2A,black,man,,,,null,,,,
null,is talking to,,html-keyboard-response,346,1884317,0.0-19.0-2.0,86570,List2A,black,man,,,,null,,,,
6089,,,survey-text,347,1890409,0.0-19.0-3.0,86570,List2A,black,man,,,,,"{""Q0"":""Luke is talking to Mike. ""}","<img src=""stim_listA/talk5.gif""</stim_listA>",is talking to,
null,"<div style=""font-size:60px;"">+</div>",,html-keyboard-response,348,1890913,0.0-19.0-0.1,86570,List2A,black,man,,,,null,,,,
null,"<img src=""stim_listA/shout2.gif""</stim_listA>",,html-keyboard-response,349,1892918,0.0-19.0-1.1,86570,List2A,black,man,,,,null,,,,
null,are shouting at each other,,html-keyboard-response,350,1894921,0.0-19.0-2.1,86570,List2A,black,man,,,,null,,,,
9245,,,survey-text,351,1904168,0.0-19.0-3.1,86570,List2A,black,man,,,,,"{""Q0"":""Jane and Dave are shouting at each other.""}","<img src=""stim_listA/shout2.gif""</stim_listA>",are shouting at each other,
null,"<div style=""font-size:60px;"">+</div>",,html-keyboard-response,352,1904671,0.0-19.0-0.2,86570,List2A,black,man,,,,null,,,,
null,"<img src=""stim_listA/argue6.gif""</stim_listA>",,html-keyboard-response,353,1906673,0.0-19.0-1.2,86570,List2A,black,man,,,,null,,,,
null,are arguing with each other,,html-keyboard-response,354,1908679,0.0-19.0-2.2,86570,List2A,black,man,,,,null,,,,
9463,,,survey-text,355,1918142,0.0-19.0-3.2,86570,List2A,black,man,,,,,"{""Q0"":""Luke and Mike are arguing with each other.""}","<img src=""stim_listA/argue6.gif""</stim_listA>",are arguing with each other,
null,"<div style=""font-size:60px;"">+</div>",,html-keyboard-response,356,1918647,0.0-19.0-0.3,86570,List2A,black,man,,,,null,,,,
null,"<img src=""stim_listA/argue1.gif""</stim_listA>",,html-keyboard-response,357,1920652,0.0-19.0-1.3,86570,List2A,black,man,,,,null,,,,
null,is arguing with,,html-keyboard-response,358,1922654,0.0-19.0-2.3,86570,List2A,black,man,,,,null,,,,
8939,,,survey-text,359,1931595,0.0-19.0-3.3,86570,List2A,black,man,,,,,"{""Q0"":""Dave is arguing with Ruth.""}","<img src=""stim_listA/argue1.gif""</stim_listA>",is arguing with,
null,"<div style=""font-size:60px;"">+</div>",,html-keyboard-response,360,1932098,0.0-19.0-0.4,86570,List2A,black,man,,,,null,,,,
null,"<img src=""stim_listA/fight8.gif""</stim_listA>",,html-keyboard-response,361,1934105,0.0-19.0-1.4,86570,List2A,black,man,,,,null,,,,
null,are fighting each other,,html-keyboard-response,362,1936110,0.0-19.0-2.4,86570,List2A,black,man,,,,null,,,,
15067,,,survey-text,363,1951179,0.0-19.0-3.4,86570,List2A,black,man,,,,,"{""Q0"":""Beth and Ruth are fighting with each other.""}","<img src=""stim_listA/fight8.gif""</stim_listA>",are fighting each other,
null,"<div style=""font-size:60px;"">+</div>",,html-keyboard-response,364,1951681,0.0-19.0-0.5,86570,List2A,black,man,,,,null,,,,
null,"<img src=""stim_listA/hug7.gif""</stim_listA>",,html-keyboard-response,365,1953685,0.0-19.0-1.5,86570,List2A,black,man,,,,null,,,,
null,is hugging,,html-keyboard-response,366,1955687,0.0-19.0-2.5,86570,List2A,black,man,,,,null,,,,
6053,,,survey-text,367,1961742,0.0-19.0-3.5,86570,List2A,black,man,,,,,"{""Q0"":""Beth is hugging Ruth.""}","<img src=""stim_listA/hug7.gif""</stim_listA>",is hugging,
null,"<div style=""font-size:60px;"">+</div>",,html-keyboard-response,368,1962244,0.0-19.0-0.6,86570,List2A,black,man,,,,null,,,,
null,"<img src=""stim_listA/fight2.gif""</stim_listA>",,html-keyboard-response,369,1964249,0.0-19.0-1.6,86570,List2A,black,man,,,,null,,,,
null,are fighting each other,,html-keyboard-response,370,1966251,0.0-19.0-2.6,86570,List2A,black,man,,,,null,,,,
11436,,,survey-text,371,1977689,0.0-19.0-3.6,86570,List2A,black,man,,,,,"{""Q0"":""Luke and Ruth is fighting with each other.""}","<img src=""stim_listA/fight2.gif""</stim_listA>",are fighting each other,
null,"<div style=""font-size:60px;"">+</div>",,html-keyboard-response,372,1978192,0.0-19.0-0.7,86570,List2A,black,man,,,,null,,,,
null,"<img src=""stim_listA/kiss7.gif""</stim_listA>",,html-keyboard-response,373,1980197,0.0-19.0-1.7,86570,List2A,black,man,,,,null,,,,
null,is kissing,,html-keyboard-response,374,1982200,0.0-19.0-2.7,86570,List2A,black,man,,,,null,,,,
10471,,,survey-text,375,1992673,0.0-19.0-3.7,86570,List2A,black,man,,,,,"{""Q0"":""Beth is kissing Ruth.""}","<img src=""stim_listA/kiss7.gif""</stim_listA>",is kissing,
null,"<div style=""font-size:60px;"">+</div>",,html-keyboard-response,376,1993176,0.0-19.0-0.8,86570,List2A,black,man,,,,null,,,,
null,"<img src=""stim_listA/shout4.gif""</stim_listA>",,html-keyboard-response,377,1995181,0.0-19.0-1.8,86570,List2A,black,man,,,,null,,,,
null,are shouting at each other,,html-keyboard-response,378,1997184,0.0-19.0-2.8,86570,List2A,black,man,,,,null,,,,
8037,,,survey-text,379,2005223,0.0-19.0-3.8,86570,List2A,black,man,,,,,"{""Q0"":""Kate and Mike are shouting at each other.""}","<img src=""stim_listA/shout4.gif""</stim_listA>",are shouting at each other,
null,"<div style=""font-size:60px;"">+</div>",,html-keyboard-response,380,2005726,0.0-19.0-0.9,86570,List2A,black,man,,,,null,,,,
null,"<img src=""stim_listA/talk2.gif""</stim_listA>",,html-keyboard-response,381,2007730,0.0-19.0-1.9,86570,List2A,black,man,,,,null,,,,
null,are talking to each other,,html-keyboard-response,382,2009733,0.0-19.0-2.9,86570,List2A,black,man,,,,null,,,,
8588,,,survey-text,383,2018323,0.0-19.0-3.9,86570,List2A,black,man,,,,,"{""Q0"":""Dave and Ruth are talking to each other.""}","<img src=""stim_listA/talk2.gif""</stim_listA>",are talking to each other,
null,"<div style=""font-size:60px;"">+</div>",,html-keyboard-response,384,2018825,0.0-19.0-0.10,86570,List2A,black,man,,,,null,,,,
null,"<img src=""stim_listA/marry8.gif""</stim_listA>",,html-keyboard-response,385,2020830,0.0-19.0-1.10,86570,List2A,black,man,,,,null,,,,
null,are marrying each other,,html-keyboard-response,386,2022833,0.0-19.0-2.10,86570,List2A,black,man,,,,null,,,,
8763,,,survey-text,387,2031598,0.0-19.0-3.10,86570,List2A,black,man,,,,,"{""Q0"":""Kate and Ruth are marrying each other.""}","<img src=""stim_listA/marry8.gif""</stim_listA>",are marrying each other,
null,"<div style=""font-size:60px;"">+</div>",,html-keyboard-response,388,2032101,0.0-19.0-0.11,86570,List2A,black,man,,,,null,,,,
null,"<img src=""stim_listA/touch1.gif""</stim_listA>",,html-keyboard-response,389,2034106,0.0-19.0-1.11,86570,List2A,black,man,,,,null,,,,
null,is touching,,html-keyboard-response,390,2036109,0.0-19.0-2.11,86570,List2A,black,man,,,,null,,,,
5354,,,survey-text,391,2041466,0.0-19.0-3.11,86570,List2A,black,man,,,,,"{""Q0"":""Jane is touching Dave.""}","<img src=""stim_listA/touch1.gif""</stim_listA>",is touching,
null,"<div style=""font-size:60px;"">+</div>",,html-keyboard-response,392,2041969,0.0-19.0-0.12,86570,List2A,black,man,,,,null,,,,
null,"<img src=""stim_listA/shout5.gif""</stim_listA>",,html-keyboard-response,393,2043974,0.0-19.0-1.12,86570,List2A,black,man,,,,null,,,,
null,is shouting at,,html-keyboard-response,394,2045977,0.0-19.0-2.12,86570,List2A,black,man,,,,null,,,,
8091,,,survey-text,395,2054070,0.0-19.0-3.12,86570,List2A,black,man,,,,,"{""Q0"":""Fred is shouting at Luke.""}","<img src=""stim_listA/shout5.gif""</stim_listA>",is shouting at,
null,"<div style=""font-size:60px;"">+</div>",,html-keyboard-response,396,2054574,0.0-19.0-0.13,86570,List2A,black,man,,,,null,,,,
null,"<img src=""stim_listA/argue5.gif""</stim_listA>",,html-keyboard-response,397,2056577,0.0-19.0-1.13,86570,List2A,black,man,,,,null,,,,
null,is arguing with,,html-keyboard-response,398,2058580,0.0-19.0-2.13,86570,List2A,black,man,,,,null,,,,
6253,,,survey-text,399,2064836,0.0-19.0-3.13,86570,List2A,black,man,,,,,"{""Q0"":""Dave is arguing with Fred.""}","<img src=""stim_listA/argue5.gif""</stim_listA>",is arguing with,
null,"<div style=""font-size:60px;"">+</div>",,html-keyboard-response,400,2065339,0.0-19.0-0.14,86570,List2A,black,man,,,,null,,,,
null,"<img src=""stim_listA/marry1.gif""</stim_listA>",,html-keyboard-response,401,2067344,0.0-19.0-1.14,86570,List2A,black,man,,,,null,,,,
null,is marrying,,html-keyboard-response,402,2069347,0.0-19.0-2.14,86570,List2A,black,man,,,,null,,,,
5143,,,survey-text,403,2074492,0.0-19.0-3.14,86570,List2A,black,man,,,,,"{""Q0"":""Dave is marrying Ruth.""}","<img src=""stim_listA/marry1.gif""</stim_listA>",is marrying,
null,"<div style=""font-size:60px;"">+</div>",,html-keyboard-response,404,2074995,0.0-19.0-0.15,86570,List2A,black,man,,,,null,,,,
null,"<img src=""stim_listA/hug1.gif""</stim_listA>",,html-keyboard-response,405,2077000,0.0-19.0-1.15,86570,List2A,black,man,,,,null,,,,
null,is hugging,,html-keyboard-response,406,2079002,0.0-19.0-2.15,86570,List2A,black,man,,,,null,,,,
5226,,,survey-text,407,2084230,0.0-19.0-3.15,86570,List2A,black,man,,,,,"{""Q0"":""Luke is hugging Ruth.""}","<img src=""stim_listA/hug1.gif""</stim_listA>",is hugging,
null,"<div style=""font-size:60px;"">+</div>",,html-keyboard-response,408,2084732,0.0-19.0-0.16,86570,List2A,black,man,,,,null,,,,
null,"<img src=""stim_listA/kiss8.gif""</stim_listA>",,html-keyboard-response,409,2086735,0.0-19.0-1.16,86570,List2A,black,man,,,,null,,,,
null,are kissing each other,,html-keyboard-response,410,2088737,0.0-19.0-2.16,86570,List2A,black,man,,,,null,,,,
8026,,,survey-text,411,2096766,0.0-19.0-3.16,86570,List2A,black,man,,,,,"{""Q0"":""Kate and Jane are kissing each other.""}","<img src=""stim_listA/kiss8.gif""</stim_listA>",are kissing each other,
null,"<div style=""font-size:60px;"">+</div>",,html-keyboard-response,412,2097270,0.0-19.0-0.17,86570,List2A,black,man,,,,null,,,,
null,"<img src=""stim_listA/touch5.gif""</stim_listA>",,html-keyboard-response,413,2099273,0.0-19.0-1.17,86570,List2A,black,man,,,,null,,,,
null,is touching,,html-keyboard-response,414,2101275,0.0-19.0-2.17,86570,List2A,black,man,,,,null,,,,
5820,,,survey-text,415,2107097,0.0-19.0-3.17,86570,List2A,black,man,,,,,"{""Q0"":""Dave is touching Mike.""}","<img src=""stim_listA/touch5.gif""</stim_listA>",is touching,
null,"<div style=""font-size:60px;"">+</div>",,html-keyboard-response,416,2107602,0.0-19.0-0.18,86570,List2A,black,man,,,,null,,,,
null,"<img src=""stim_listA/marry7.gif""</stim_listA>",,html-keyboard-response,417,2109607,0.0-19.0-1.18,86570,List2A,black,man,,,,null,,,,
null,is marrying,,html-keyboard-response,418,2111609,0.0-19.0-2.18,86570,List2A,black,man,,,,null,,,,
5113,,,survey-text,419,2116724,0.0-19.0-3.18,86570,List2A,black,man,,,,,"{""Q0"":""Jane is marrying Beth.""}","<img src=""stim_listA/marry7.gif""</stim_listA>",is marrying,
null,"<div style=""font-size:60px;"">+</div>",,html-keyboard-response,420,2117228,0.0-19.0-0.19,86570,List2A,black,man,,,,null,,,,
null,"<img src=""stim_listA/talk8.gif""</stim_listA>",,html-keyboard-response,421,2119234,0.0-19.0-1.19,86570,List2A,black,man,,,,null,,,,
null,are talking to each other,,html-keyboard-response,422,2121236,0.0-19.0-2.19,86570,List2A,black,man,,,,null,,,,
10226,,,survey-text,423,2131464,0.0-19.0-3.19,86570,List2A,black,man,,,,,"{""Q0"":""Jane and Beth are talking to each other.""}","<img src=""stim_listA/talk8.gif""</stim_listA>",are talking to each other,
2465,<p>Thank you for completing that task.</p><p>The final part of this session is a short questionnaire.</p><p>Press Continue.</p>,0,html-button-response,424,2133932,0.0-20.0,86570,List2A,black,man,,,,,,,,
17501,,,survey-text,425,2152439,0.0-21.0,86570,List2A,black,man,,,,,"{""Q0"":""33"",""Q1"":""english"",""Q2"":""english"",""Q3"":""united states"",""Q4"":""black"",""Q5"":""male""}",,,demographics
18589,,,survey-likert,426,2171050,0.0-22.0,86570,List2A,black,man,,,,,"{""Q0"":5,""Q1"":5,""Q2"":5,""Q3"":5,""Q4"":5,""Q5"":5,""Q6"":5,""Q7"":5,""Q8"":5,""Q9"":5,""Q10"":5,""Q11"":5,""Q12"":5,""Q13"":5}",,,likert_race
10770,,,survey-likert,427,2181837,0.0-23.0,86570,List2A,black,man,,,,,"{""Q0"":5,""Q1"":5,""Q2"":5,""Q3"":5,""Q4"":5,""Q5"":5,""Q6"":5,""Q7"":5,""Q8"":5,""Q9"":5,""Q10"":5,""Q11"":5,""Q12"":5,""Q13"":5}",,,likert_gender
10448,,,survey-text,428,2192290,0.0-24.0,86570,List2A,black,man,,,,,"{""Q0"":""ccc""}",,,worker_id
2814,,,external-html,429,2195432,0.0-25.0,86570,List2A,black,man,debrief.html,,,,,,,
