rt,stimulus,button_pressed,trial_type,trial_index,time_elapsed,internal_node_id,subject,list,ppt_race,ppt_gender,url,first_guess,correct,key_press,responses,image_type,phrase_type,test_part
3568,Welcome to the experiment. Press Continue to begin.,0,html-button-response,0,3572,0.0-0.0,86898,List1A,black,man,,,,,,,,
56980,,,external-html,1,61723,0.0-1.0,86898,List1A,black,man,consent.html,,,,,,,
396827,"<p>On the next page, you will see portraits of 8 people and their names.</p><p>Your first task is to take a few minutes to memorise the names of these people.</p><p>You will have to recall their names during the rest of the experiment, so it is</p><p>essential that you try to memorise these people and their names as best as you can.</p><br><p><strong>You will then be tested on your memory of these names and portraits.</strong></p><br><p>The experiment will start after you have completed this memory test.</p><br><p>Ready?</p>",0,html-button-response,2,458552,0.0-2.0,86898,List1A,black,man,,,,,,,,
189374,"<img src='img/portrait_matrix_list1.JPG' style='width:900px;height:500px;''></img><p>If you have memorised all the portraits and names and are ready to start, press Continue.</p><p><strong>Please note: Your memory of these faces will be tested 4 times during this experiment.</strong></p>",0,html-button-response,3,648943,0.0-3.0-0.0,86898,List1A,black,man,,,,,,,,
8659,"<img src=""portrait/BM1.jpg""style=""width:400px;height:400px;""></img>",4,html-button-response,4,658605,0.0-3.0-1.0,86898,List1A,black,man,,TRUE,4,,,,,
null,CORRECT,,html-keyboard-response,5,660129,0.0-3.0-2.0-0.0,86898,List1A,black,man,,,,null,,,,
14455,"<img src=""portrait/WW2.jpg""style=""width:400px;height:400px;""></img>",3,html-button-response,6,674586,0.0-3.0-4.0,86898,List1A,black,man,,TRUE,3,,,,,
null,CORRECT,,html-keyboard-response,7,676110,0.0-3.0-5.0-0.0,86898,List1A,black,man,,,,null,,,,
3267,"<img src=""portrait/BM2.jpg""style=""width:400px;height:400px;""></img>",5,html-button-response,8,679378,0.0-3.0-7.0,86898,List1A,black,man,,TRUE,5,,,,,
null,CORRECT,,html-keyboard-response,9,680918,0.0-3.0-8.0-0.0,86898,List1A,black,man,,,,null,,,,
5129,"<img src=""portrait/BW2.jpg""style=""width:400px;height:400px;""></img>",2,html-button-response,10,686049,0.0-3.0-10.0,86898,List1A,black,man,,TRUE,2,,,,,
null,CORRECT,,html-keyboard-response,11,687578,0.0-3.0-11.0-0.0,86898,List1A,black,man,,,,null,,,,
6118,"<img src=""portrait/WW1.jpg""style=""width:400px;height:400px;""></img>",1,html-button-response,12,693699,0.0-3.0-13.0,86898,List1A,black,man,,TRUE,1,,,,,
null,CORRECT,,html-keyboard-response,13,695218,0.0-3.0-14.0-0.0,86898,List1A,black,man,,,,null,,,,
3415,"<img src=""portrait/WM1.jpg""style=""width:400px;height:400px;""></img>",6,html-button-response,14,698636,0.0-3.0-16.0,86898,List1A,black,man,,TRUE,6,,,,,
null,CORRECT,,html-keyboard-response,15,700158,0.0-3.0-17.0-0.0,86898,List1A,black,man,,,,null,,,,
2946,"<img src=""portrait/WM2.jpg""style=""width:400px;height:400px;""></img>",7,html-button-response,16,703106,0.0-3.0-19.0,86898,List1A,black,man,,TRUE,7,,,,,
null,CORRECT,,html-keyboard-response,17,704618,0.0-3.0-20.0-0.0,86898,List1A,black,man,,,,null,,,,
5831,"<img src=""portrait/BW1.jpg""style=""width:400px;height:400px;""></img>",0,html-button-response,18,710452,0.0-3.0-22.0,86898,List1A,black,man,,TRUE,0,,,,,
null,CORRECT,,html-keyboard-response,19,711970,0.0-3.0-23.0-0.0,86898,List1A,black,man,,,,null,,,,
2353,<p>You got 8 out of 8 right first time. Press Continue.</p>,0,html-button-response,20,714325,0.0-3.0-25.0,86898,List1A,black,man,,,,,,,,
24368,"<p>In this experiment, you will view photographs of the people from the memory game interacting.</p><p>By using the <strong>exact</strong> phrase given <i>after</i> the photograph appears and recalling the correct names of the people in the photographs, form a sentence describing the interaction. You do not need to capitalise names.</p><p>Type your answer in the space provided. Please complete every sentence before moving onto the next trial.</p><p>You will only have a few seconds to memorise each given photograph and phrase before you can respond, so try your best to focus.</p><p>An example is given below. Press 'Continue' when you are ready.</p><img src='img/speaking_example_v2.jpg' style='width:800px;height:460px;''></img>",0,html-button-response,21,739710,0.0-4.0,86898,List1A,black,man,,,,,,,,
2486,"<p>Before the experiment starts, you will watch two example trials. Press 'Continue'.</p>",0,html-button-response,22,743217,0.0-5.0,86898,List1A,black,man,,,,,,,,
null,<img src='img/speaking_WW.gif'></img>,,html-keyboard-response,23,746230,0.0-6.0,86898,List1A,black,man,,,,null,,,,
null,<p>is speaking to</p>,,html-keyboard-response,24,748240,0.0-7.0,86898,List1A,black,man,,,,null,,,,
6689,<p><b>Answer:</b> kate is speaking to beth</p>,0,html-button-response,25,754931,0.0-8.0,86898,List1A,black,man,,,,,,,,
null,<img src='img/pointing_BM.gif'></img>,,html-keyboard-response,26,757970,0.0-9.0,86898,List1A,black,man,,,,null,,,,
null,<p>are pointing at each other</p>,,html-keyboard-response,27,759973,0.0-10.0,86898,List1A,black,man,,,,null,,,,
6005,<p><b>Answer:</b> luke and dave are pointing at each other</p>,0,html-button-response,28,765980,0.0-11.0,86898,List1A,black,man,,,,,,,,
37109,"<p>Ready to start the experiment?</p><br><p><strong>Remember to describe the picture using a full sentence,</strong></p><p><strong>that combines the names of the people with the given phrase.</strong></p><p><strong>If you do not do this correctly you will not be paid.</strong></p><p><strong> You do not need to capitalise names or use punctuation.</strong></p><br><p>Press 'Continue' to begin.</p>",0,html-button-response,29,804101,0.0-12.0,86898,List1A,black,man,,,,,,,,
null,"<div style=""font-size:60px;"">+</div>",,html-keyboard-response,30,805603,0.0-13.0-0.0,86898,List1A,black,man,,,,null,,,,
null,"<img src=""stim_listA/talk8.gif""</stim_listA>",,html-keyboard-response,31,807622,0.0-13.0-1.0,86898,List1A,black,man,,,,null,,,,
null,are talking to each other,,html-keyboard-response,32,809643,0.0-13.0-2.0,86898,List1A,black,man,,,,null,,,,
32426,,,survey-text,33,842071,0.0-13.0-3.0,86898,List1A,black,man,,,,,"{""Q0"":""Ruth and Beth are talking to each other""}","<img src=""stim_listA/talk8.gif""</stim_listA>",are talking to each other,
null,"<div style=""font-size:60px;"">+</div>",,html-keyboard-response,34,842592,0.0-13.0-0.1,86898,List1A,black,man,,,,null,,,,
null,"<img src=""stim_listA/argue7.gif""</stim_listA>",,html-keyboard-response,35,844612,0.0-13.0-1.1,86898,List1A,black,man,,,,null,,,,
null,is arguing with,,html-keyboard-response,36,846614,0.0-13.0-2.1,86898,List1A,black,man,,,,null,,,,
50957,,,survey-text,37,897573,0.0-13.0-3.1,86898,List1A,black,man,,,,,"{""Q0"":""kate is arguing with ruth""}","<img src=""stim_listA/argue7.gif""</stim_listA>",is arguing with,
null,"<div style=""font-size:60px;"">+</div>",,html-keyboard-response,38,898083,0.0-13.0-0.2,86898,List1A,black,man,,,,null,,,,
null,"<img src=""stim_listA/fight6.gif""</stim_listA>",,html-keyboard-response,39,900103,0.0-13.0-1.2,86898,List1A,black,man,,,,null,,,,
null,are fighting each other,,html-keyboard-response,40,902112,0.0-13.0-2.2,86898,List1A,black,man,,,,null,,,,
28852,,,survey-text,41,930965,0.0-13.0-3.2,86898,List1A,black,man,,,,,"{""Q0"":""Luke and Fred are fighting each other ""}","<img src=""stim_listA/fight6.gif""</stim_listA>",are fighting each other,
null,"<div style=""font-size:60px;"">+</div>",,html-keyboard-response,42,931482,0.0-13.0-0.3,86898,List1A,black,man,,,,null,,,,
null,"<img src=""stim_listA/kiss5.gif""</stim_listA>",,html-keyboard-response,43,933493,0.0-13.0-1.3,86898,List1A,black,man,,,,null,,,,
null,is kissing,,html-keyboard-response,44,935502,0.0-13.0-2.3,86898,List1A,black,man,,,,null,,,,
14885,,,survey-text,45,950388,0.0-13.0-3.3,86898,List1A,black,man,,,,,"{""Q0"":""Luke is kissing Fred""}","<img src=""stim_listA/kiss5.gif""</stim_listA>",is kissing,
null,"<div style=""font-size:60px;"">+</div>",,html-keyboard-response,46,950903,0.0-13.0-0.4,86898,List1A,black,man,,,,null,,,,
null,"<img src=""stim_listA/shout4.gif""</stim_listA>",,html-keyboard-response,47,952923,0.0-13.0-1.4,86898,List1A,black,man,,,,null,,,,
null,are shouting at each other,,html-keyboard-response,48,954943,0.0-13.0-2.4,86898,List1A,black,man,,,,null,,,,
19416,,,survey-text,49,974360,0.0-13.0-3.4,86898,List1A,black,man,,,,,"{""Q0"":""Jane and Dave are shouting at each other""}","<img src=""stim_listA/shout4.gif""</stim_listA>",are shouting at each other,
null,"<div style=""font-size:60px;"">+</div>",,html-keyboard-response,50,974862,0.0-13.0-0.5,86898,List1A,black,man,,,,null,,,,
null,"<img src=""stim_listA/argue1.gif""</stim_listA>",,html-keyboard-response,51,976866,0.0-13.0-1.5,86898,List1A,black,man,,,,null,,,,
null,is arguing with,,html-keyboard-response,52,978887,0.0-13.0-2.5,86898,List1A,black,man,,,,null,,,,
60522,,,survey-text,53,1039410,0.0-13.0-3.5,86898,List1A,black,man,,,,,"{""Q0"":""Mike is arguing with Beth""}","<img src=""stim_listA/argue1.gif""</stim_listA>",is arguing with,
null,"<div style=""font-size:60px;"">+</div>",,html-keyboard-response,54,1039912,0.0-13.0-0.6,86898,List1A,black,man,,,,null,,,,
null,"<img src=""stim_listA/fight1.gif""</stim_listA>",,html-keyboard-response,55,1041933,0.0-13.0-1.6,86898,List1A,black,man,,,,null,,,,
null,is fighting,,html-keyboard-response,56,1043953,0.0-13.0-2.6,86898,List1A,black,man,,,,null,,,,
18045,,,survey-text,57,1061999,0.0-13.0-3.6,86898,List1A,black,man,,,,,"{""Q0"":""Kate is fighting Mike""}","<img src=""stim_listA/fight1.gif""</stim_listA>",is fighting,
null,"<div style=""font-size:60px;"">+</div>",,html-keyboard-response,58,1062503,0.0-13.0-0.7,86898,List1A,black,man,,,,null,,,,
null,"<img src=""stim_listA/marry3.gif""</stim_listA>",,html-keyboard-response,59,1064513,0.0-13.0-1.7,86898,List1A,black,man,,,,null,,,,
null,is marrying,,html-keyboard-response,60,1066514,0.0-13.0-2.7,86898,List1A,black,man,,,,null,,,,
9421,,,survey-text,61,1075937,0.0-13.0-3.7,86898,List1A,black,man,,,,,"{""Q0"":""Dave is marrying Ruth""}","<img src=""stim_listA/marry3.gif""</stim_listA>",is marrying,
null,"<div style=""font-size:60px;"">+</div>",,html-keyboard-response,62,1076442,0.0-13.0-0.8,86898,List1A,black,man,,,,null,,,,
null,"<img src=""stim_listA/hug7.gif""</stim_listA>",,html-keyboard-response,63,1078453,0.0-13.0-1.8,86898,List1A,black,man,,,,null,,,,
null,is hugging,,html-keyboard-response,64,1080463,0.0-13.0-2.8,86898,List1A,black,man,,,,null,,,,
9554,,,survey-text,65,1090019,0.0-13.0-3.8,86898,List1A,black,man,,,,,"{""Q0"":""Ruth is hugging Beth""}","<img src=""stim_listA/hug7.gif""</stim_listA>",is hugging,
null,"<div style=""font-size:60px;"">+</div>",,html-keyboard-response,66,1090524,0.0-13.0-0.9,86898,List1A,black,man,,,,null,,,,
null,"<img src=""stim_listA/talk3.gif""</stim_listA>",,html-keyboard-response,67,1092543,0.0-13.0-1.9,86898,List1A,black,man,,,,null,,,,
null,is talking to,,html-keyboard-response,68,1094553,0.0-13.0-2.9,86898,List1A,black,man,,,,null,,,,
9360,,,survey-text,69,1103915,0.0-13.0-3.9,86898,List1A,black,man,,,,,"{""Q0"":""Luke is talking to Jane""}","<img src=""stim_listA/talk3.gif""</stim_listA>",is talking to,
null,"<div style=""font-size:60px;"">+</div>",,html-keyboard-response,70,1104421,0.0-13.0-0.10,86898,List1A,black,man,,,,null,,,,
null,"<img src=""stim_listA/dance4.gif""</stim_listA>",,html-keyboard-response,71,1106441,0.0-13.0-1.10,86898,List1A,black,man,,,,null,,,,
null,are dancing with each other,,html-keyboard-response,72,1108461,0.0-13.0-2.10,86898,List1A,black,man,,,,null,,,,
13969,,,survey-text,73,1122431,0.0-13.0-3.10,86898,List1A,black,man,,,,,"{""Q0"":""Ruth and Dave are dancing with each other""}","<img src=""stim_listA/dance4.gif""</stim_listA>",are dancing with each other,
null,"<div style=""font-size:60px;"">+</div>",,html-keyboard-response,74,1122933,0.0-13.0-0.11,86898,List1A,black,man,,,,null,,,,
null,"<img src=""stim_listA/dance2.gif""</stim_listA>",,html-keyboard-response,75,1124941,0.0-13.0-1.11,86898,List1A,black,man,,,,null,,,,
null,are dancing with each other,,html-keyboard-response,76,1126943,0.0-13.0-2.11,86898,List1A,black,man,,,,null,,,,
23938,,,survey-text,77,1150882,0.0-13.0-3.11,86898,List1A,black,man,,,,,"{""Q0"":""Mike and Beth are dancing with each other""}","<img src=""stim_listA/dance2.gif""</stim_listA>",are dancing with each other,
null,"<div style=""font-size:60px;"">+</div>",,html-keyboard-response,78,1151401,0.0-13.0-0.12,86898,List1A,black,man,,,,null,,,,
null,"<img src=""stim_listA/touch3.gif""</stim_listA>",,html-keyboard-response,79,1153411,0.0-13.0-1.12,86898,List1A,black,man,,,,null,,,,
null,is touching,,html-keyboard-response,80,1155431,0.0-13.0-2.12,86898,List1A,black,man,,,,null,,,,
11524,,,survey-text,81,1166956,0.0-13.0-3.12,86898,List1A,black,man,,,,,"{""Q0"":""Dave is touching Jane""}","<img src=""stim_listA/touch3.gif""</stim_listA>",is touching,
null,"<div style=""font-size:60px;"">+</div>",,html-keyboard-response,82,1167462,0.0-13.0-0.13,86898,List1A,black,man,,,,null,,,,
null,"<img src=""stim_listA/shout2.gif""</stim_listA>",,html-keyboard-response,83,1169483,0.0-13.0-1.13,86898,List1A,black,man,,,,null,,,,
null,are shouting at each other,,html-keyboard-response,84,1171484,0.0-13.0-2.13,86898,List1A,black,man,,,,null,,,,
11995,,,survey-text,85,1183480,0.0-13.0-3.13,86898,List1A,black,man,,,,,"{""Q0"":""Kate and Mike are shouting at each other""}","<img src=""stim_listA/shout2.gif""</stim_listA>",are shouting at each other,
null,"<div style=""font-size:60px;"">+</div>",,html-keyboard-response,86,1183983,0.0-13.0-0.14,86898,List1A,black,man,,,,null,,,,
null,"<img src=""stim_listA/touch5.gif""</stim_listA>",,html-keyboard-response,87,1185986,0.0-13.0-1.14,86898,List1A,black,man,,,,null,,,,
null,is touching,,html-keyboard-response,88,1187987,0.0-13.0-2.14,86898,List1A,black,man,,,,null,,,,
6754,,,survey-text,89,1194742,0.0-13.0-3.14,86898,List1A,black,man,,,,,"{""Q0"":""Mike is touching Dave""}","<img src=""stim_listA/touch5.gif""</stim_listA>",is touching,
null,"<div style=""font-size:60px;"">+</div>",,html-keyboard-response,90,1195253,0.0-13.0-0.15,86898,List1A,black,man,,,,null,,,,
null,"<img src=""stim_listA/touch1.gif""</stim_listA>",,html-keyboard-response,91,1197263,0.0-13.0-1.15,86898,List1A,black,man,,,,null,,,,
null,is touching,,html-keyboard-response,92,1199283,0.0-13.0-2.15,86898,List1A,black,man,,,,null,,,,
6614,,,survey-text,93,1205898,0.0-13.0-3.15,86898,List1A,black,man,,,,,"{""Q0"":""Mike is touching Kate""}","<img src=""stim_listA/touch1.gif""</stim_listA>",is touching,
null,"<div style=""font-size:60px;"">+</div>",,html-keyboard-response,94,1206412,0.0-13.0-0.16,86898,List1A,black,man,,,,null,,,,
null,"<img src=""stim_listA/hug5.gif""</stim_listA>",,html-keyboard-response,95,1208423,0.0-13.0-1.16,86898,List1A,black,man,,,,null,,,,
null,is hugging,,html-keyboard-response,96,1210425,0.0-13.0-2.16,86898,List1A,black,man,,,,null,,,,
11801,,,survey-text,97,1222228,0.0-13.0-3.16,86898,List1A,black,man,,,,,"{""Q0"":""Fred is hugging Luke""}","<img src=""stim_listA/hug5.gif""</stim_listA>",is hugging,
null,"<div style=""font-size:60px;"">+</div>",,html-keyboard-response,98,1222740,0.0-13.0-0.17,86898,List1A,black,man,,,,null,,,,
null,"<img src=""stim_listA/hug8.gif""</stim_listA>",,html-keyboard-response,99,1224760,0.0-13.0-1.17,86898,List1A,black,man,,,,null,,,,
null,are hugging each other,,html-keyboard-response,100,1226763,0.0-13.0-2.17,86898,List1A,black,man,,,,null,,,,
10016,,,survey-text,101,1236781,0.0-13.0-3.17,86898,List1A,black,man,,,,,"{""Q0"":""Kate and Jane are hugging each other""}","<img src=""stim_listA/hug8.gif""</stim_listA>",are hugging each other,
null,"<div style=""font-size:60px;"">+</div>",,html-keyboard-response,102,1237291,0.0-13.0-0.18,86898,List1A,black,man,,,,null,,,,
null,"<img src=""stim_listA/kiss7.gif""</stim_listA>",,html-keyboard-response,103,1239301,0.0-13.0-1.18,86898,List1A,black,man,,,,null,,,,
null,is kissing,,html-keyboard-response,104,1241302,0.0-13.0-2.18,86898,List1A,black,man,,,,null,,,,
7601,,,survey-text,105,1248905,0.0-13.0-3.18,86898,List1A,black,man,,,,,"{""Q0"":""Beth is kissing Ruth""}","<img src=""stim_listA/kiss7.gif""</stim_listA>",is kissing,
null,"<div style=""font-size:60px;"">+</div>",,html-keyboard-response,106,1249410,0.0-13.0-0.19,86898,List1A,black,man,,,,null,,,,
null,"<img src=""stim_listA/meet1.gif""</stim_listA>",,html-keyboard-response,107,1251430,0.0-13.0-1.19,86898,List1A,black,man,,,,null,,,,
null,is meeting,,html-keyboard-response,108,1253450,0.0-13.0-2.19,86898,List1A,black,man,,,,null,,,,
10280,,,survey-text,109,1263732,0.0-13.0-3.19,86898,List1A,black,man,,,,,"{""Q0"":""Mike is meeting Kate""}","<img src=""stim_listA/meet1.gif""</stim_listA>",is meeting,
34228,"<img src='img/portrait_matrix_list1.JPG' style='width:900px;height:500px;''></img><p>If you have memorised all the portraits and names and are ready to start, press Continue.</p><p><strong>Please note: Your memory of these faces will be tested 4 times during this experiment.</strong></p>",0,html-button-response,110,1297960,0.0-14.0-0.0,86898,List1A,black,man,,,,,,,,
5281,"<img src=""portrait/BW1.jpg""style=""width:400px;height:400px;""></img>",0,html-button-response,111,1304244,0.0-14.0-1.0,86898,List1A,black,man,,TRUE,0,,,,,
null,CORRECT,,html-keyboard-response,112,1305762,0.0-14.0-2.0-0.0,86898,List1A,black,man,,,,null,,,,
3038,"<img src=""portrait/WM2.jpg""style=""width:400px;height:400px;""></img>",7,html-button-response,113,1308802,0.0-14.0-4.0,86898,List1A,black,man,,TRUE,7,,,,,
null,CORRECT,,html-keyboard-response,114,1310332,0.0-14.0-5.0-0.0,86898,List1A,black,man,,,,null,,,,
4369,"<img src=""portrait/BM1.jpg""style=""width:400px;height:400px;""></img>",4,html-button-response,115,1314703,0.0-14.0-7.0,86898,List1A,black,man,,TRUE,4,,,,,
null,CORRECT,,html-keyboard-response,116,1316242,0.0-14.0-8.0-0.0,86898,List1A,black,man,,,,null,,,,
2353,"<img src=""portrait/BM2.jpg""style=""width:400px;height:400px;""></img>",5,html-button-response,117,1318597,0.0-14.0-10.0,86898,List1A,black,man,,TRUE,5,,,,,
null,CORRECT,,html-keyboard-response,118,1320112,0.0-14.0-11.0-0.0,86898,List1A,black,man,,,,null,,,,
2804,"<img src=""portrait/BW2.jpg""style=""width:400px;height:400px;""></img>",2,html-button-response,119,1322918,0.0-14.0-13.0,86898,List1A,black,man,,TRUE,2,,,,,
null,CORRECT,,html-keyboard-response,120,1324442,0.0-14.0-14.0-0.0,86898,List1A,black,man,,,,null,,,,
2841,"<img src=""portrait/WM1.jpg""style=""width:400px;height:400px;""></img>",6,html-button-response,121,1327285,0.0-14.0-16.0,86898,List1A,black,man,,TRUE,6,,,,,
null,CORRECT,,html-keyboard-response,122,1328812,0.0-14.0-17.0-0.0,86898,List1A,black,man,,,,null,,,,
4625,"<img src=""portrait/WW2.jpg""style=""width:400px;height:400px;""></img>",3,html-button-response,123,1333439,0.0-14.0-19.0,86898,List1A,black,man,,TRUE,3,,,,,
null,CORRECT,,html-keyboard-response,124,1334962,0.0-14.0-20.0-0.0,86898,List1A,black,man,,,,null,,,,
6140,"<img src=""portrait/WW1.jpg""style=""width:400px;height:400px;""></img>",1,html-button-response,125,1341104,0.0-14.0-22.0,86898,List1A,black,man,,TRUE,1,,,,,
null,CORRECT,,html-keyboard-response,126,1342642,0.0-14.0-23.0-0.0,86898,List1A,black,man,,,,null,,,,
1797,<p>You got 8 out of 8 right first time. Press Continue.</p>,0,html-button-response,127,1344440,0.0-14.0-25.0,86898,List1A,black,man,,,,,,,,
null,"<div style=""font-size:60px;"">+</div>",,html-keyboard-response,128,1345962,0.0-15.0-0.0,86898,List1A,black,man,,,,null,,,,
null,"<img src=""stim_listA/meet2.gif""</stim_listA>",,html-keyboard-response,129,1347971,0.0-15.0-1.0,86898,List1A,black,man,,,,null,,,,
null,are meeting each other,,html-keyboard-response,130,1349982,0.0-15.0-2.0,86898,List1A,black,man,,,,null,,,,
11574,,,survey-text,131,1361557,0.0-15.0-3.0,86898,List1A,black,man,,,,,"{""Q0"":""Beth and Fred are meeting each other""}","<img src=""stim_listA/meet2.gif""</stim_listA>",are meeting each other,
null,"<div style=""font-size:60px;"">+</div>",,html-keyboard-response,132,1362061,0.0-15.0-0.1,86898,List1A,black,man,,,,null,,,,
null,"<img src=""stim_listA/talk7.gif""</stim_listA>",,html-keyboard-response,133,1364081,0.0-15.0-1.1,86898,List1A,black,man,,,,null,,,,
null,is talking to,,html-keyboard-response,134,1366083,0.0-15.0-2.1,86898,List1A,black,man,,,,null,,,,
8611,,,survey-text,135,1374696,0.0-15.0-3.1,86898,List1A,black,man,,,,,"{""Q0"":""Beth is talking to Jane""}","<img src=""stim_listA/talk7.gif""</stim_listA>",is talking to,
null,"<div style=""font-size:60px;"">+</div>",,html-keyboard-response,136,1375201,0.0-15.0-0.2,86898,List1A,black,man,,,,null,,,,
null,"<img src=""stim_listA/kiss6.gif""</stim_listA>",,html-keyboard-response,137,1377221,0.0-15.0-1.2,86898,List1A,black,man,,,,null,,,,
null,are kissing each other,,html-keyboard-response,138,1379231,0.0-15.0-2.2,86898,List1A,black,man,,,,null,,,,
15107,,,survey-text,139,1394339,0.0-15.0-3.2,86898,List1A,black,man,,,,,"{""Q0"":""Mike and Dave are kissing each other""}","<img src=""stim_listA/kiss6.gif""</stim_listA>",are kissing each other,
null,"<div style=""font-size:60px;"">+</div>",,html-keyboard-response,140,1394841,0.0-15.0-0.3,86898,List1A,black,man,,,,null,,,,
null,"<img src=""stim_listA/argue2.gif""</stim_listA>",,html-keyboard-response,141,1396856,0.0-15.0-1.3,86898,List1A,black,man,,,,null,,,,
null,are arguing with each other,,html-keyboard-response,142,1398871,0.0-15.0-2.3,86898,List1A,black,man,,,,null,,,,
25789,,,survey-text,143,1424662,0.0-15.0-3.3,86898,List1A,black,man,,,,,"{""Q0"":""Fred and Kate are arguing with each other""}","<img src=""stim_listA/argue2.gif""</stim_listA>",are arguing with each other,
null,"<div style=""font-size:60px;"">+</div>",,html-keyboard-response,144,1425170,0.0-15.0-0.4,86898,List1A,black,man,,,,null,,,,
null,"<img src=""stim_listA/hug1.gif""</stim_listA>",,html-keyboard-response,145,1427172,0.0-15.0-1.4,86898,List1A,black,man,,,,null,,,,
null,is hugging,,html-keyboard-response,146,1429174,0.0-15.0-2.4,86898,List1A,black,man,,,,null,,,,
8701,,,survey-text,147,1437876,0.0-15.0-3.4,86898,List1A,black,man,,,,,"{""Q0"":""Fred is hugging Beth""}","<img src=""stim_listA/hug1.gif""</stim_listA>",is hugging,
null,"<div style=""font-size:60px;"">+</div>",,html-keyboard-response,148,1438380,0.0-15.0-0.5,86898,List1A,black,man,,,,null,,,,
null,"<img src=""stim_listA/dance7.gif""</stim_listA>",,html-keyboard-response,149,1440390,0.0-15.0-1.5,86898,List1A,black,man,,,,null,,,,
null,is dancing with,,html-keyboard-response,150,1442393,0.0-15.0-2.5,86898,List1A,black,man,,,,null,,,,
14604,,,survey-text,151,1456999,0.0-15.0-3.5,86898,List1A,black,man,,,,,"{""Q0"":""Beth is dancing with Jane""}","<img src=""stim_listA/dance7.gif""</stim_listA>",is dancing with,
null,"<div style=""font-size:60px;"">+</div>",,html-keyboard-response,152,1457500,0.0-15.0-0.6,86898,List1A,black,man,,,,null,,,,
null,"<img src=""stim_listA/fight2.gif""</stim_listA>",,html-keyboard-response,153,1459510,0.0-15.0-1.6,86898,List1A,black,man,,,,null,,,,
null,are fighting each other,,html-keyboard-response,154,1461512,0.0-15.0-2.6,86898,List1A,black,man,,,,null,,,,
14440,,,survey-text,155,1475953,0.0-15.0-3.6,86898,List1A,black,man,,,,,"{""Q0"":""Beth and Fred are fighting each other""}","<img src=""stim_listA/fight2.gif""</stim_listA>",are fighting each other,
null,"<div style=""font-size:60px;"">+</div>",,html-keyboard-response,156,1476460,0.0-15.0-0.7,86898,List1A,black,man,,,,null,,,,
null,"<img src=""stim_listA/shout8.gif""</stim_listA>",,html-keyboard-response,157,1478470,0.0-15.0-1.7,86898,List1A,black,man,,,,null,,,,
null,are shouting at each other,,html-keyboard-response,158,1480472,0.0-15.0-2.7,86898,List1A,black,man,,,,null,,,,
10634,,,survey-text,159,1491108,0.0-15.0-3.7,86898,List1A,black,man,,,,,"{""Q0"":""Jane and Kate are shouting at each other""}","<img src=""stim_listA/shout8.gif""</stim_listA>",are shouting at each other,
null,"<div style=""font-size:60px;"">+</div>",,html-keyboard-response,160,1491611,0.0-15.0-0.8,86898,List1A,black,man,,,,null,,,,
null,"<img src=""stim_listA/hug3.gif""</stim_listA>",,html-keyboard-response,161,1493622,0.0-15.0-1.8,86898,List1A,black,man,,,,null,,,,
null,is hugging,,html-keyboard-response,162,1495623,0.0-15.0-2.8,86898,List1A,black,man,,,,null,,,,
9040,,,survey-text,163,1504665,0.0-15.0-3.8,86898,List1A,black,man,,,,,"{""Q0"":""Ruth is hugging Luke""}","<img src=""stim_listA/hug3.gif""</stim_listA>",is hugging,
null,"<div style=""font-size:60px;"">+</div>",,html-keyboard-response,164,1505172,0.0-15.0-0.9,86898,List1A,black,man,,,,null,,,,
null,"<img src=""stim_listA/meet5.gif""</stim_listA>",,html-keyboard-response,165,1507191,0.0-15.0-1.9,86898,List1A,black,man,,,,null,,,,
null,is meeting,,html-keyboard-response,166,1509211,0.0-15.0-2.9,86898,List1A,black,man,,,,null,,,,
6757,,,survey-text,167,1515970,0.0-15.0-3.9,86898,List1A,black,man,,,,,"{""Q0"":""Dave is meeting Mike""}","<img src=""stim_listA/meet5.gif""</stim_listA>",is meeting,
null,"<div style=""font-size:60px;"">+</div>",,html-keyboard-response,168,1516491,0.0-15.0-0.10,86898,List1A,black,man,,,,null,,,,
null,"<img src=""stim_listA/talk1.gif""</stim_listA>",,html-keyboard-response,169,1518511,0.0-15.0-1.10,86898,List1A,black,man,,,,null,,,,
null,is talking to,,html-keyboard-response,170,1520531,0.0-15.0-2.10,86898,List1A,black,man,,,,null,,,,
11955,,,survey-text,171,1532488,0.0-15.0-3.10,86898,List1A,black,man,,,,,"{""Q0"":""Fred is talking to Kate""}","<img src=""stim_listA/talk1.gif""</stim_listA>",is talking to,
null,"<div style=""font-size:60px;"">+</div>",,html-keyboard-response,172,1532991,0.0-15.0-0.11,86898,List1A,black,man,,,,null,,,,
null,"<img src=""stim_listA/shout3.gif""</stim_listA>",,html-keyboard-response,173,1534994,0.0-15.0-1.11,86898,List1A,black,man,,,,null,,,,
null,is shouting at,,html-keyboard-response,174,1536997,0.0-15.0-2.11,86898,List1A,black,man,,,,null,,,,
24418,,,survey-text,175,1561417,0.0-15.0-3.11,86898,List1A,black,man,,,,,"{""Q0"":""Luke is shouting at Ruth""}","<img src=""stim_listA/shout3.gif""</stim_listA>",is shouting at,
null,"<div style=""font-size:60px;"">+</div>",,html-keyboard-response,176,1561935,0.0-15.0-0.12,86898,List1A,black,man,,,,null,,,,
null,"<img src=""stim_listA/argue8.gif""</stim_listA>",,html-keyboard-response,177,1563945,0.0-15.0-1.12,86898,List1A,black,man,,,,null,,,,
null,are arguing with each other,,html-keyboard-response,178,1565947,0.0-15.0-2.12,86898,List1A,black,man,,,,null,,,,
12963,,,survey-text,179,1578911,0.0-15.0-3.12,86898,List1A,black,man,,,,,"{""Q0"":""Jane and Beth are arguing with each other""}","<img src=""stim_listA/argue8.gif""</stim_listA>",are arguing with each other,
null,"<div style=""font-size:60px;"">+</div>",,html-keyboard-response,180,1579415,0.0-15.0-0.13,86898,List1A,black,man,,,,null,,,,
null,"<img src=""stim_listA/marry2.gif""</stim_listA>",,html-keyboard-response,181,1581425,0.0-15.0-1.13,86898,List1A,black,man,,,,null,,,,
null,are marrying each other,,html-keyboard-response,182,1583445,0.0-15.0-2.13,86898,List1A,black,man,,,,null,,,,
21872,,,survey-text,183,1605319,0.0-15.0-3.13,86898,List1A,black,man,,,,,"{""Q0"":""Kate and Fred are marrying each other""}","<img src=""stim_listA/marry2.gif""</stim_listA>",are marrying each other,
null,"<div style=""font-size:60px;"">+</div>",,html-keyboard-response,184,1605839,0.0-15.0-0.14,86898,List1A,black,man,,,,null,,,,
null,"<img src=""stim_listA/talk5.gif""</stim_listA>",,html-keyboard-response,185,1607850,0.0-15.0-1.14,86898,List1A,black,man,,,,null,,,,
null,is talking to,,html-keyboard-response,186,1609859,0.0-15.0-2.14,86898,List1A,black,man,,,,null,,,,
18647,,,survey-text,187,1628507,0.0-15.0-3.14,86898,List1A,black,man,,,,,"{""Q0"":""Fred is talking to Dave""}","<img src=""stim_listA/talk5.gif""</stim_listA>",is talking to,
null,"<div style=""font-size:60px;"">+</div>",,html-keyboard-response,188,1629009,0.0-15.0-0.15,86898,List1A,black,man,,,,null,,,,
null,"<img src=""stim_listA/shout5.gif""</stim_listA>",,html-keyboard-response,189,1631030,0.0-15.0-1.15,86898,List1A,black,man,,,,null,,,,
null,is shouting at,,html-keyboard-response,190,1633031,0.0-15.0-2.15,86898,List1A,black,man,,,,null,,,,
8924,,,survey-text,191,1641957,0.0-15.0-3.15,86898,List1A,black,man,,,,,"{""Q0"":""Fred is shouting at Luke""}","<img src=""stim_listA/shout5.gif""</stim_listA>",is shouting at,
null,"<div style=""font-size:60px;"">+</div>",,html-keyboard-response,192,1642470,0.0-15.0-0.16,86898,List1A,black,man,,,,null,,,,
null,"<img src=""stim_listA/kiss3.gif""</stim_listA>",,html-keyboard-response,193,1644480,0.0-15.0-1.16,86898,List1A,black,man,,,,null,,,,
null,is kissing,,html-keyboard-response,194,1646489,0.0-15.0-2.16,86898,List1A,black,man,,,,null,,,,
8100,,,survey-text,195,1654590,0.0-15.0-3.16,86898,List1A,black,man,,,,,"{""Q0"":""Luke is kissing Ruth""}","<img src=""stim_listA/kiss3.gif""</stim_listA>",is kissing,
null,"<div style=""font-size:60px;"">+</div>",,html-keyboard-response,196,1655099,0.0-15.0-0.17,86898,List1A,black,man,,,,null,,,,
null,"<img src=""stim_listA/argue6.gif""</stim_listA>",,html-keyboard-response,197,1657119,0.0-15.0-1.17,86898,List1A,black,man,,,,null,,,,
null,are arguing with each other,,html-keyboard-response,198,1659129,0.0-15.0-2.17,86898,List1A,black,man,,,,null,,,,
13444,,,survey-text,199,1672575,0.0-15.0-3.17,86898,List1A,black,man,,,,,"{""Q0"":""Dave and Fred are arguing with each other""}","<img src=""stim_listA/argue6.gif""</stim_listA>",are arguing with each other,
null,"<div style=""font-size:60px;"">+</div>",,html-keyboard-response,200,1673091,0.0-15.0-0.18,86898,List1A,black,man,,,,null,,,,
null,"<img src=""stim_listA/kiss4.gif""</stim_listA>",,html-keyboard-response,201,1675101,0.0-15.0-1.18,86898,List1A,black,man,,,,null,,,,
null,are kissing each other,,html-keyboard-response,202,1677102,0.0-15.0-2.18,86898,List1A,black,man,,,,null,,,,
15539,,,survey-text,203,1692642,0.0-15.0-3.18,86898,List1A,black,man,,,,,"{""Q0"":""Dave and Jane are kissing each other""}","<img src=""stim_listA/kiss4.gif""</stim_listA>",are kissing each other,
null,"<div style=""font-size:60px;"">+</div>",,html-keyboard-response,204,1693151,0.0-15.0-0.19,86898,List1A,black,man,,,,null,,,,
null,"<img src=""stim_listA/talk6.gif""</stim_listA>",,html-keyboard-response,205,1695164,0.0-15.0-1.19,86898,List1A,black,man,,,,null,,,,
null,are talking to each other,,html-keyboard-response,206,1697181,0.0-15.0-2.19,86898,List1A,black,man,,,,null,,,,
9602,,,survey-text,207,1706785,0.0-15.0-3.19,86898,List1A,black,man,,,,,"{""Q0"":""Luke and Mike are talking to each other""}","<img src=""stim_listA/talk6.gif""</stim_listA>",are talking to each other,
165062,"<img src='img/portrait_matrix_list1.JPG' style='width:900px;height:500px;''></img><p>If you have memorised all the portraits and names and are ready to start, press Continue.</p><p><strong>Please note: Your memory of these faces will be tested 4 times during this experiment.</strong></p>",0,html-button-response,208,1871847,0.0-16.0-0.0,86898,List1A,black,man,,,,,,,,
11119,"<img src=""portrait/WW2.jpg""style=""width:400px;height:400px;""></img>",3,html-button-response,209,1883975,0.0-16.0-1.0,86898,List1A,black,man,,TRUE,3,,,,,
null,CORRECT,,html-keyboard-response,210,1885984,0.0-16.0-2.0-0.0,86898,List1A,black,man,,,,null,,,,
11406,"<img src=""portrait/WW1.jpg""style=""width:400px;height:400px;""></img>",1,html-button-response,211,1897393,0.0-16.0-4.0,86898,List1A,black,man,,TRUE,1,,,,,
null,CORRECT,,html-keyboard-response,212,1898915,0.0-16.0-5.0-0.0,86898,List1A,black,man,,,,null,,,,
4583,"<img src=""portrait/BW1.jpg""style=""width:400px;height:400px;""></img>",0,html-button-response,213,1903502,0.0-16.0-7.0,86898,List1A,black,man,,TRUE,0,,,,,
null,CORRECT,,html-keyboard-response,214,1905024,0.0-16.0-8.0-0.0,86898,List1A,black,man,,,,null,,,,
3469,"<img src=""portrait/WM2.jpg""style=""width:400px;height:400px;""></img>",7,html-button-response,215,1908496,0.0-16.0-10.0,86898,List1A,black,man,,TRUE,7,,,,,
null,CORRECT,,html-keyboard-response,216,1910024,0.0-16.0-11.0-0.0,86898,List1A,black,man,,,,null,,,,
2052,"<img src=""portrait/WM1.jpg""style=""width:400px;height:400px;""></img>",6,html-button-response,217,1912077,0.0-16.0-13.0,86898,List1A,black,man,,TRUE,6,,,,,
null,CORRECT,,html-keyboard-response,218,1913605,0.0-16.0-14.0-0.0,86898,List1A,black,man,,,,null,,,,
2822,"<img src=""portrait/BM2.jpg""style=""width:400px;height:400px;""></img>",5,html-button-response,219,1916430,0.0-16.0-16.0,86898,List1A,black,man,,TRUE,5,,,,,
null,CORRECT,,html-keyboard-response,220,1917964,0.0-16.0-17.0-0.0,86898,List1A,black,man,,,,null,,,,
1541,"<img src=""portrait/BM1.jpg""style=""width:400px;height:400px;""></img>",4,html-button-response,221,1919507,0.0-16.0-19.0,86898,List1A,black,man,,TRUE,4,,,,,
null,CORRECT,,html-keyboard-response,222,1921026,0.0-16.0-20.0-0.0,86898,List1A,black,man,,,,null,,,,
2198,"<img src=""portrait/BW2.jpg""style=""width:400px;height:400px;""></img>",2,html-button-response,223,1923226,0.0-16.0-22.0,86898,List1A,black,man,,TRUE,2,,,,,
null,CORRECT,,html-keyboard-response,224,1924734,0.0-16.0-23.0-0.0,86898,List1A,black,man,,,,null,,,,
1680,<p>You got 8 out of 8 right first time. Press Continue.</p>,0,html-button-response,225,1926417,0.0-16.0-25.0,86898,List1A,black,man,,,,,,,,
null,"<div style=""font-size:60px;"">+</div>",,html-keyboard-response,226,1927938,0.0-17.0-0.0,86898,List1A,black,man,,,,null,,,,
null,"<img src=""stim_listA/touch4.gif""</stim_listA>",,html-keyboard-response,227,1929944,0.0-17.0-1.0,86898,List1A,black,man,,,,null,,,,
null,are touching each other,,html-keyboard-response,228,1931971,0.0-17.0-2.0,86898,List1A,black,man,,,,null,,,,
14448,,,survey-text,229,1946421,0.0-17.0-3.0,86898,List1A,black,man,,,,,"{""Q0"":""Ruth and Luke are touching each other""}","<img src=""stim_listA/touch4.gif""</stim_listA>",are touching each other,
null,"<div style=""font-size:60px;"">+</div>",,html-keyboard-response,230,1946941,0.0-17.0-0.1,86898,List1A,black,man,,,,null,,,,
null,"<img src=""stim_listA/shout7.gif""</stim_listA>",,html-keyboard-response,231,1948961,0.0-17.0-1.1,86898,List1A,black,man,,,,null,,,,
null,is shouting at,,html-keyboard-response,232,1950970,0.0-17.0-2.1,86898,List1A,black,man,,,,null,,,,
9796,,,survey-text,233,1960767,0.0-17.0-3.1,86898,List1A,black,man,,,,,"{""Q0"":""Beth is shouting at Ruth""}","<img src=""stim_listA/shout7.gif""</stim_listA>",is shouting at,
null,"<div style=""font-size:60px;"">+</div>",,html-keyboard-response,234,1961271,0.0-17.0-0.2,86898,List1A,black,man,,,,null,,,,
null,"<img src=""stim_listA/touch6.gif""</stim_listA>",,html-keyboard-response,235,1963285,0.0-17.0-1.2,86898,List1A,black,man,,,,null,,,,
null,are touching each other,,html-keyboard-response,236,1965291,0.0-17.0-2.2,86898,List1A,black,man,,,,null,,,,
11744,,,survey-text,237,1977037,0.0-17.0-3.2,86898,List1A,black,man,,,,,"{""Q0"":""Luke and Fred are touching each other""}","<img src=""stim_listA/touch6.gif""</stim_listA>",are touching each other,
null,"<div style=""font-size:60px;"">+</div>",,html-keyboard-response,238,1977544,0.0-17.0-0.3,86898,List1A,black,man,,,,null,,,,
null,"<img src=""stim_listA/dance5.gif""</stim_listA>",,html-keyboard-response,239,1979561,0.0-17.0-1.3,86898,List1A,black,man,,,,null,,,,
null,is dancing with,,html-keyboard-response,240,1981562,0.0-17.0-2.3,86898,List1A,black,man,,,,null,,,,
10223,,,survey-text,241,1991787,0.0-17.0-3.3,86898,List1A,black,man,,,,,"{""Q0"":""Fred is dancing with Dave""}","<img src=""stim_listA/dance5.gif""</stim_listA>",is dancing with,
null,"<div style=""font-size:60px;"">+</div>",,html-keyboard-response,242,1992290,0.0-17.0-0.4,86898,List1A,black,man,,,,null,,,,
null,"<img src=""stim_listA/fight3.gif""</stim_listA>",,html-keyboard-response,243,1994301,0.0-17.0-1.4,86898,List1A,black,man,,,,null,,,,
null,is fighting,,html-keyboard-response,244,1996320,0.0-17.0-2.4,86898,List1A,black,man,,,,null,,,,
8435,,,survey-text,245,2004757,0.0-17.0-3.4,86898,List1A,black,man,,,,,"{""Q0"":""Dave is fighting Jane""}","<img src=""stim_listA/fight3.gif""</stim_listA>",is fighting,
null,"<div style=""font-size:60px;"">+</div>",,html-keyboard-response,246,2005261,0.0-17.0-0.5,86898,List1A,black,man,,,,null,,,,
null,"<img src=""stim_listA/meet6.gif""</stim_listA>",,html-keyboard-response,247,2007270,0.0-17.0-1.5,86898,List1A,black,man,,,,null,,,,
null,are meeting each other,,html-keyboard-response,248,2009274,0.0-17.0-2.5,86898,List1A,black,man,,,,null,,,,
15878,,,survey-text,249,2025153,0.0-17.0-3.5,86898,List1A,black,man,,,,,"{""Q0"":""Luke and Fred are meeting each other""}","<img src=""stim_listA/meet6.gif""</stim_listA>",are meeting each other,
null,"<div style=""font-size:60px;"">+</div>",,html-keyboard-response,250,2025670,0.0-17.0-0.6,86898,List1A,black,man,,,,null,,,,
null,"<img src=""stim_listA/argue5.gif""</stim_listA>",,html-keyboard-response,251,2027690,0.0-17.0-1.6,86898,List1A,black,man,,,,null,,,,
null,is arguing with,,html-keyboard-response,252,2029700,0.0-17.0-2.6,86898,List1A,black,man,,,,null,,,,
9542,,,survey-text,253,2039245,0.0-17.0-3.6,86898,List1A,black,man,,,,,"{""Q0"":""Mike is arguing with Luke""}","<img src=""stim_listA/argue5.gif""</stim_listA>",is arguing with,
null,"<div style=""font-size:60px;"">+</div>",,html-keyboard-response,254,2039751,0.0-17.0-0.7,86898,List1A,black,man,,,,null,,,,
null,"<img src=""stim_listA/meet3.gif""</stim_listA>",,html-keyboard-response,255,2041770,0.0-17.0-1.7,86898,List1A,black,man,,,,null,,,,
null,is meeting,,html-keyboard-response,256,2043791,0.0-17.0-2.7,86898,List1A,black,man,,,,null,,,,
8445,,,survey-text,257,2052237,0.0-17.0-3.7,86898,List1A,black,man,,,,,"{""Q0"":""Dave is meeting Jane""}","<img src=""stim_listA/meet3.gif""</stim_listA>",is meeting,
null,"<div style=""font-size:60px;"">+</div>",,html-keyboard-response,258,2052740,0.0-17.0-0.8,86898,List1A,black,man,,,,null,,,,
null,"<img src=""stim_listA/dance6.gif""</stim_listA>",,html-keyboard-response,259,2054743,0.0-17.0-1.8,86898,List1A,black,man,,,,null,,,,
null,are dancing with each other,,html-keyboard-response,260,2056745,0.0-17.0-2.8,86898,List1A,black,man,,,,null,,,,
17054,,,survey-text,261,2073801,0.0-17.0-3.8,86898,List1A,black,man,,,,,"{""Q0"":""Mike and Luke are dancing with each other""}","<img src=""stim_listA/dance6.gif""</stim_listA>",are dancing with each other,
null,"<div style=""font-size:60px;"">+</div>",,html-keyboard-response,262,2074320,0.0-17.0-0.9,86898,List1A,black,man,,,,null,,,,
null,"<img src=""stim_listA/shout1.gif""</stim_listA>",,html-keyboard-response,263,2076340,0.0-17.0-1.9,86898,List1A,black,man,,,,null,,,,
null,is shouting at,,html-keyboard-response,264,2078360,0.0-17.0-2.9,86898,List1A,black,man,,,,null,,,,
12224,,,survey-text,265,2090585,0.0-17.0-3.9,86898,List1A,black,man,,,,,"{""Q0"":""Fred is shouting at Beth""}","<img src=""stim_listA/shout1.gif""</stim_listA>",is shouting at,
null,"<div style=""font-size:60px;"">+</div>",,html-keyboard-response,266,2091090,0.0-17.0-0.10,86898,List1A,black,man,,,,null,,,,
null,"<img src=""stim_listA/kiss1.gif""</stim_listA>",,html-keyboard-response,267,2093110,0.0-17.0-1.10,86898,List1A,black,man,,,,null,,,,
null,is kissing,,html-keyboard-response,268,2095120,0.0-17.0-2.10,86898,List1A,black,man,,,,null,,,,
11644,,,survey-text,269,2106766,0.0-17.0-3.10,86898,List1A,black,man,,,,,"{""Q0"":""Fred is kissing Beth""}","<img src=""stim_listA/kiss1.gif""</stim_listA>",is kissing,
null,"<div style=""font-size:60px;"">+</div>",,html-keyboard-response,270,2107270,0.0-17.0-0.11,86898,List1A,black,man,,,,null,,,,
null,"<img src=""stim_listA/dance1.gif""</stim_listA>",,html-keyboard-response,271,2109290,0.0-17.0-1.11,86898,List1A,black,man,,,,null,,,,
null,is dancing with,,html-keyboard-response,272,2111311,0.0-17.0-2.11,86898,List1A,black,man,,,,null,,,,
7986,,,survey-text,273,2119299,0.0-17.0-3.11,86898,List1A,black,man,,,,,"{""Q0"":""Fred is dancing with Kate""}","<img src=""stim_listA/dance1.gif""</stim_listA>",is dancing with,
null,"<div style=""font-size:60px;"">+</div>",,html-keyboard-response,274,2119802,0.0-17.0-0.12,86898,List1A,black,man,,,,null,,,,
null,"<img src=""stim_listA/kiss2.gif""</stim_listA>",,html-keyboard-response,275,2121822,0.0-17.0-1.12,86898,List1A,black,man,,,,null,,,,
null,are kissing each other,,html-keyboard-response,276,2123834,0.0-17.0-2.12,86898,List1A,black,man,,,,null,,,,
12697,,,survey-text,277,2136533,0.0-17.0-3.12,86898,List1A,black,man,,,,,"{""Q0"":""Mike and Kate are kissing each other""}","<img src=""stim_listA/kiss2.gif""</stim_listA>",are kissing each other,
null,"<div style=""font-size:60px;"">+</div>",,html-keyboard-response,278,2137034,0.0-17.0-0.13,86898,List1A,black,man,,,,null,,,,
null,"<img src=""stim_listA/fight7.gif""</stim_listA>",,html-keyboard-response,279,2139042,0.0-17.0-1.13,86898,List1A,black,man,,,,null,,,,
null,is fighting,,html-keyboard-response,280,2141062,0.0-17.0-2.13,86898,List1A,black,man,,,,null,,,,
8191,,,survey-text,281,2149255,0.0-17.0-3.13,86898,List1A,black,man,,,,,"{""Q0"":""Kate is fighting Jane""}","<img src=""stim_listA/fight7.gif""</stim_listA>",is fighting,
null,"<div style=""font-size:60px;"">+</div>",,html-keyboard-response,282,2149758,0.0-17.0-0.14,86898,List1A,black,man,,,,null,,,,
null,"<img src=""stim_listA/hug6.gif""</stim_listA>",,html-keyboard-response,283,2151761,0.0-17.0-1.14,86898,List1A,black,man,,,,null,,,,
null,are hugging each other,,html-keyboard-response,284,2153771,0.0-17.0-2.14,86898,List1A,black,man,,,,null,,,,
43493,,,survey-text,285,2197266,0.0-17.0-3.14,86898,List1A,black,man,,,,,"{""Q0"":""(No photo) is fighting each other""}","<img src=""stim_listA/hug6.gif""</stim_listA>",are hugging each other,
null,"<div style=""font-size:60px;"">+</div>",,html-keyboard-response,286,2197774,0.0-17.0-0.15,86898,List1A,black,man,,,,null,,,,
null,"<img src=""stim_listA/dance8.gif""</stim_listA>",,html-keyboard-response,287,2199794,0.0-17.0-1.15,86898,List1A,black,man,,,,null,,,,
null,are dancing with each other,,html-keyboard-response,288,2201795,0.0-17.0-2.15,86898,List1A,black,man,,,,null,,,,
22628,,,survey-text,289,2224425,0.0-17.0-3.15,86898,List1A,black,man,,,,,"{""Q0"":""Kate and Ruth are dancing with each other""}","<img src=""stim_listA/dance8.gif""</stim_listA>",are dancing with each other,
null,"<div style=""font-size:60px;"">+</div>",,html-keyboard-response,290,2224944,0.0-17.0-0.16,86898,List1A,black,man,,,,null,,,,
null,"<img src=""stim_listA/shout6.gif""</stim_listA>",,html-keyboard-response,291,2226954,0.0-17.0-1.16,86898,List1A,black,man,,,,null,,,,
null,are shouting at each other,,html-keyboard-response,292,2228964,0.0-17.0-2.16,86898,List1A,black,man,,,,null,,,,
16989,,,survey-text,293,2245954,0.0-17.0-3.16,86898,List1A,black,man,,,,,"{""Q0"":""Dave and Mike are shouting at each other""}","<img src=""stim_listA/shout6.gif""</stim_listA>",are shouting at each other,
null,"<div style=""font-size:60px;"">+</div>",,html-keyboard-response,294,2246467,0.0-17.0-0.17,86898,List1A,black,man,,,,null,,,,
null,"<img src=""stim_listA/touch8.gif""</stim_listA>",,html-keyboard-response,295,2248487,0.0-17.0-1.17,86898,List1A,black,man,,,,null,,,,
null,are touching each other,,html-keyboard-response,296,2250490,0.0-17.0-2.17,86898,List1A,black,man,,,,null,,,,
20576,,,survey-text,297,2271068,0.0-17.0-3.17,86898,List1A,black,man,,,,,"{""Q0"":""Beth and Ruth are touching each other""}","<img src=""stim_listA/touch8.gif""</stim_listA>",are touching each other,
null,"<div style=""font-size:60px;"">+</div>",,html-keyboard-response,298,2271587,0.0-17.0-0.18,86898,List1A,black,man,,,,null,,,,
null,"<img src=""stim_listA/touch7.gif""</stim_listA>",,html-keyboard-response,299,2273607,0.0-17.0-1.18,86898,List1A,black,man,,,,null,,,,
null,is touching,,html-keyboard-response,300,2275608,0.0-17.0-2.18,86898,List1A,black,man,,,,null,,,,
7920,,,survey-text,301,2283529,0.0-17.0-3.18,86898,List1A,black,man,,,,,"{""Q0"":""Kate is touching Jane""}","<img src=""stim_listA/touch7.gif""</stim_listA>",is touching,
null,"<div style=""font-size:60px;"">+</div>",,html-keyboard-response,302,2284036,0.0-17.0-0.19,86898,List1A,black,man,,,,null,,,,
null,"<img src=""stim_listA/argue4.gif""</stim_listA>",,html-keyboard-response,303,2286047,0.0-17.0-1.19,86898,List1A,black,man,,,,null,,,,
null,are arguing with each other,,html-keyboard-response,304,2288067,0.0-17.0-2.19,86898,List1A,black,man,,,,null,,,,
110087,,,survey-text,305,2398156,0.0-17.0-3.19,86898,List1A,black,man,,,,,"{""Q0"":""Jane and Luke are arguing with each other""}","<img src=""stim_listA/argue4.gif""</stim_listA>",are arguing with each other,
69889,"<img src='img/portrait_matrix_list1.JPG' style='width:900px;height:500px;''></img><p>If you have memorised all the portraits and names and are ready to start, press Continue.</p><p><strong>Please note: Your memory of these faces will be tested 4 times during this experiment.</strong></p>",0,html-button-response,306,2468046,0.0-18.0-0.0,86898,List1A,black,man,,,,,,,,
24160,"<img src=""portrait/BW1.jpg""style=""width:400px;height:400px;""></img>",0,html-button-response,307,2493212,0.0-18.0-1.0,86898,List1A,black,man,,TRUE,0,,,,,
null,CORRECT,,html-keyboard-response,308,2494739,0.0-18.0-2.0-0.0,86898,List1A,black,man,,,,null,,,,
23304,"<img src=""portrait/BW2.jpg""style=""width:400px;height:400px;""></img>",2,html-button-response,309,2518046,0.0-18.0-4.0,86898,List1A,black,man,,TRUE,2,,,,,
null,CORRECT,,html-keyboard-response,310,2519569,0.0-18.0-5.0-0.0,86898,List1A,black,man,,,,null,,,,
3306,"<img src=""portrait/BM1.jpg""style=""width:400px;height:400px;""></img>",4,html-button-response,311,2522878,0.0-18.0-7.0,86898,List1A,black,man,,TRUE,4,,,,,
null,CORRECT,,html-keyboard-response,312,2524409,0.0-18.0-8.0-0.0,86898,List1A,black,man,,,,null,,,,
4093,"<img src=""portrait/WW1.jpg""style=""width:400px;height:400px;""></img>",1,html-button-response,313,2528505,0.0-18.0-10.0,86898,List1A,black,man,,TRUE,1,,,,,
null,CORRECT,,html-keyboard-response,314,2530030,0.0-18.0-11.0-0.0,86898,List1A,black,man,,,,null,,,,
2510,"<img src=""portrait/WM1.jpg""style=""width:400px;height:400px;""></img>",6,html-button-response,315,2532542,0.0-18.0-13.0,86898,List1A,black,man,,TRUE,6,,,,,
null,CORRECT,,html-keyboard-response,316,2534070,0.0-18.0-14.0-0.0,86898,List1A,black,man,,,,null,,,,
1547,"<img src=""portrait/WM2.jpg""style=""width:400px;height:400px;""></img>",7,html-button-response,317,2535619,0.0-18.0-16.0,86898,List1A,black,man,,TRUE,7,,,,,
null,CORRECT,,html-keyboard-response,318,2537150,0.0-18.0-17.0-0.0,86898,List1A,black,man,,,,null,,,,
2688,"<img src=""portrait/WW2.jpg""style=""width:400px;height:400px;""></img>",3,html-button-response,319,2539839,0.0-18.0-19.0,86898,List1A,black,man,,TRUE,3,,,,,
null,CORRECT,,html-keyboard-response,320,2541370,0.0-18.0-20.0-0.0,86898,List1A,black,man,,,,null,,,,
1040,"<img src=""portrait/BM2.jpg""style=""width:400px;height:400px;""></img>",5,html-button-response,321,2542413,0.0-18.0-22.0,86898,List1A,black,man,,TRUE,5,,,,,
null,CORRECT,,html-keyboard-response,322,2543930,0.0-18.0-23.0-0.0,86898,List1A,black,man,,,,null,,,,
2304,<p>You got 8 out of 8 right first time. Press Continue.</p>,0,html-button-response,323,2546237,0.0-18.0-25.0,86898,List1A,black,man,,,,,,,,
null,"<div style=""font-size:60px;"">+</div>",,html-keyboard-response,324,2547750,0.0-19.0-0.0,86898,List1A,black,man,,,,null,,,,
null,"<img src=""stim_listA/talk4.gif""</stim_listA>",,html-keyboard-response,325,2549770,0.0-19.0-1.0,86898,List1A,black,man,,,,null,,,,
null,are talking to each other,,html-keyboard-response,326,2551790,0.0-19.0-2.0,86898,List1A,black,man,,,,null,,,,
14927,,,survey-text,327,2566718,0.0-19.0-3.0,86898,List1A,black,man,,,,,"{""Q0"":""Dave and Ruth are talking to each other""}","<img src=""stim_listA/talk4.gif""</stim_listA>",are talking to each other,
null,"<div style=""font-size:60px;"">+</div>",,html-keyboard-response,328,2567230,0.0-19.0-0.1,86898,List1A,black,man,,,,null,,,,
null,"<img src=""stim_listA/dance3.gif""</stim_listA>",,html-keyboard-response,329,2569237,0.0-19.0-1.1,86898,List1A,black,man,,,,null,,,,
null,is dancing with,,html-keyboard-response,330,2571240,0.0-19.0-2.1,86898,List1A,black,man,,,,null,,,,
27921,,,survey-text,331,2599163,0.0-19.0-3.1,86898,List1A,black,man,,,,,"{""Q0"":""Luke is dancing with Jane""}","<img src=""stim_listA/dance3.gif""</stim_listA>",is dancing with,
null,"<div style=""font-size:60px;"">+</div>",,html-keyboard-response,332,2599678,0.0-19.0-0.2,86898,List1A,black,man,,,,null,,,,
null,"<img src=""stim_listA/touch2.gif""</stim_listA>",,html-keyboard-response,333,2601689,0.0-19.0-1.2,86898,List1A,black,man,,,,null,,,,
null,are touching each other,,html-keyboard-response,334,2603708,0.0-19.0-2.2,86898,List1A,black,man,,,,null,,,,
18214,,,survey-text,335,2621924,0.0-19.0-3.2,86898,List1A,black,man,,,,,"{""Q0"":""Fred and Beth are touching each other""}","<img src=""stim_listA/touch2.gif""</stim_listA>",are touching each other,
null,"<div style=""font-size:60px;"">+</div>",,html-keyboard-response,336,2622427,0.0-19.0-0.3,86898,List1A,black,man,,,,null,,,,
null,"<img src=""stim_listA/marry6.gif""</stim_listA>",,html-keyboard-response,337,2624431,0.0-19.0-1.3,86898,List1A,black,man,,,,null,,,,
null,are marrying each other,,html-keyboard-response,338,2626438,0.0-19.0-2.3,86898,List1A,black,man,,,,null,,,,
11558,,,survey-text,339,2637997,0.0-19.0-3.3,86898,List1A,black,man,,,,,"{""Q0"":""Dave and Fred are marrying each other""}","<img src=""stim_listA/marry6.gif""</stim_listA>",are marrying each other,
null,"<div style=""font-size:60px;"">+</div>",,html-keyboard-response,340,2638500,0.0-19.0-0.4,86898,List1A,black,man,,,,null,,,,
null,"<img src=""stim_listA/talk2.gif""</stim_listA>",,html-keyboard-response,341,2640505,0.0-19.0-1.4,86898,List1A,black,man,,,,null,,,,
null,are talking to each other,,html-keyboard-response,342,2642508,0.0-19.0-2.4,86898,List1A,black,man,,,,null,,,,
13805,,,survey-text,343,2656314,0.0-19.0-3.4,86898,List1A,black,man,,,,,"{""Q0"":""Beth and Mike are talking to each other""}","<img src=""stim_listA/talk2.gif""</stim_listA>",are talking to each other,
null,"<div style=""font-size:60px;"">+</div>",,html-keyboard-response,344,2656818,0.0-19.0-0.5,86898,List1A,black,man,,,,null,,,,
null,"<img src=""stim_listA/fight4.gif""</stim_listA>",,html-keyboard-response,345,2658824,0.0-19.0-1.5,86898,List1A,black,man,,,,null,,,,
null,are fighting each other,,html-keyboard-response,346,2660830,0.0-19.0-2.5,86898,List1A,black,man,,,,null,,,,
15883,,,survey-text,347,2676715,0.0-19.0-3.5,86898,List1A,black,man,,,,,"{""Q0"":""Ruth and Luke are fighting each other""}","<img src=""stim_listA/fight4.gif""</stim_listA>",are fighting each other,
null,"<div style=""font-size:60px;"">+</div>",,html-keyboard-response,348,2677220,0.0-19.0-0.6,86898,List1A,black,man,,,,null,,,,
null,"<img src=""stim_listA/meet4.gif""</stim_listA>",,html-keyboard-response,349,2679230,0.0-19.0-1.6,86898,List1A,black,man,,,,null,,,,
null,are meeting each other,,html-keyboard-response,350,2681249,0.0-19.0-2.6,86898,List1A,black,man,,,,null,,,,
12773,,,survey-text,351,2694023,0.0-19.0-3.6,86898,List1A,black,man,,,,,"{""Q0"":""Luke and Ruth are meeting each other""}","<img src=""stim_listA/meet4.gif""</stim_listA>",are meeting each other,
null,"<div style=""font-size:60px;"">+</div>",,html-keyboard-response,352,2694540,0.0-19.0-0.7,86898,List1A,black,man,,,,null,,,,
null,"<img src=""stim_listA/hug4.gif""</stim_listA>",,html-keyboard-response,353,2696549,0.0-19.0-1.7,86898,List1A,black,man,,,,null,,,,
null,are hugging each other,,html-keyboard-response,354,2698553,0.0-19.0-2.7,86898,List1A,black,man,,,,null,,,,
10495,,,survey-text,355,2709050,0.0-19.0-3.7,86898,List1A,black,man,,,,,"{""Q0"":""Jane and Dave are hugging each other""}","<img src=""stim_listA/hug4.gif""</stim_listA>",are hugging each other,
null,"<div style=""font-size:60px;"">+</div>",,html-keyboard-response,356,2709563,0.0-19.0-0.8,86898,List1A,black,man,,,,null,,,,
null,"<img src=""stim_listA/marry5.gif""</stim_listA>",,html-keyboard-response,357,2711570,0.0-19.0-1.8,86898,List1A,black,man,,,,null,,,,
null,is marrying,,html-keyboard-response,358,2713590,0.0-19.0-2.8,86898,List1A,black,man,,,,null,,,,
7592,,,survey-text,359,2721183,0.0-19.0-3.8,86898,List1A,black,man,,,,,"{""Q0"":""Luke is marrying Mike""}","<img src=""stim_listA/marry5.gif""</stim_listA>",is marrying,
null,"<div style=""font-size:60px;"">+</div>",,html-keyboard-response,360,2721686,0.0-19.0-0.9,86898,List1A,black,man,,,,null,,,,
null,"<img src=""stim_listA/meet8.gif""</stim_listA>",,html-keyboard-response,361,2723689,0.0-19.0-1.9,86898,List1A,black,man,,,,null,,,,
null,are meeting each other,,html-keyboard-response,362,2725693,0.0-19.0-2.9,86898,List1A,black,man,,,,null,,,,
54454,,,survey-text,363,2780149,0.0-19.0-3.9,86898,List1A,black,man,,,,,"{""Q0"":""is meeting each other""}","<img src=""stim_listA/meet8.gif""</stim_listA>",are meeting each other,
null,"<div style=""font-size:60px;"">+</div>",,html-keyboard-response,364,2780659,0.0-19.0-0.10,86898,List1A,black,man,,,,null,,,,
null,"<img src=""stim_listA/marry1.gif""</stim_listA>",,html-keyboard-response,365,2782679,0.0-19.0-1.10,86898,List1A,black,man,,,,null,,,,
null,is marrying,,html-keyboard-response,366,2784681,0.0-19.0-2.10,86898,List1A,black,man,,,,null,,,,
15070,,,survey-text,367,2799752,0.0-19.0-3.10,86898,List1A,black,man,,,,,"{""Q0"":""Mike is marrying Beth""}","<img src=""stim_listA/marry1.gif""</stim_listA>",is marrying,
null,"<div style=""font-size:60px;"">+</div>",,html-keyboard-response,368,2800269,0.0-19.0-0.11,86898,List1A,black,man,,,,null,,,,
null,"<img src=""stim_listA/meet7.gif""</stim_listA>",,html-keyboard-response,369,2802289,0.0-19.0-1.11,86898,List1A,black,man,,,,null,,,,
null,is meeting,,html-keyboard-response,370,2804292,0.0-19.0-2.11,86898,List1A,black,man,,,,null,,,,
10026,,,survey-text,371,2814320,0.0-19.0-3.11,86898,List1A,black,man,,,,,"{""Q0"":""Jane is meeting Kate""}","<img src=""stim_listA/meet7.gif""</stim_listA>",is meeting,
null,"<div style=""font-size:60px;"">+</div>",,html-keyboard-response,372,2814828,0.0-19.0-0.12,86898,List1A,black,man,,,,null,,,,
null,"<img src=""stim_listA/argue3.gif""</stim_listA>",,html-keyboard-response,373,2816848,0.0-19.0-1.12,86898,List1A,black,man,,,,null,,,,
null,is arguing with,,html-keyboard-response,374,2818853,0.0-19.0-2.12,86898,List1A,black,man,,,,null,,,,
11262,,,survey-text,375,2830116,0.0-19.0-3.12,86898,List1A,black,man,,,,,"{""Q0"":""Ruth is arguing with Dave""}","<img src=""stim_listA/argue3.gif""</stim_listA>",is arguing with,
null,"<div style=""font-size:60px;"">+</div>",,html-keyboard-response,376,2830619,0.0-19.0-0.13,86898,List1A,black,man,,,,null,,,,
null,"<img src=""stim_listA/fight8.gif""</stim_listA>",,html-keyboard-response,377,2832639,0.0-19.0-1.13,86898,List1A,black,man,,,,null,,,,
null,are fighting each other,,html-keyboard-response,378,2834644,0.0-19.0-2.13,86898,List1A,black,man,,,,null,,,,
10945,,,survey-text,379,2845591,0.0-19.0-3.13,86898,List1A,black,man,,,,,"{""Q0"":""Ruth and Beth are fighting each other""}","<img src=""stim_listA/fight8.gif""</stim_listA>",are fighting each other,
null,"<div style=""font-size:60px;"">+</div>",,html-keyboard-response,380,2846109,0.0-19.0-0.14,86898,List1A,black,man,,,,null,,,,
null,"<img src=""stim_listA/hug2.gif""</stim_listA>",,html-keyboard-response,381,2848119,0.0-19.0-1.14,86898,List1A,black,man,,,,null,,,,
null,are hugging each other,,html-keyboard-response,382,2850123,0.0-19.0-2.14,86898,List1A,black,man,,,,null,,,,
14474,,,survey-text,383,2864598,0.0-19.0-3.14,86898,List1A,black,man,,,,,"{""Q0"":""Kate and Mike are hugging each other""}","<img src=""stim_listA/hug2.gif""</stim_listA>",are hugging each other,
null,"<div style=""font-size:60px;"">+</div>",,html-keyboard-response,384,2865119,0.0-19.0-0.15,86898,List1A,black,man,,,,null,,,,
null,"<img src=""stim_listA/marry4.gif""</stim_listA>",,html-keyboard-response,385,2867139,0.0-19.0-1.15,86898,List1A,black,man,,,,null,,,,
null,are marrying each other,,html-keyboard-response,386,2869149,0.0-19.0-2.15,86898,List1A,black,man,,,,null,,,,
17454,,,survey-text,387,2886605,0.0-19.0-3.15,86898,List1A,black,man,,,,,"{""Q0"":""Jane and Luke are marrying each other""}","<img src=""stim_listA/marry4.gif""</stim_listA>",are marrying each other,
null,"<div style=""font-size:60px;"">+</div>",,html-keyboard-response,388,2887109,0.0-19.0-0.16,86898,List1A,black,man,,,,null,,,,
null,"<img src=""stim_listA/fight5.gif""</stim_listA>",,html-keyboard-response,389,2889116,0.0-19.0-1.16,86898,List1A,black,man,,,,null,,,,
null,is fighting,,html-keyboard-response,390,2891129,0.0-19.0-2.16,86898,List1A,black,man,,,,null,,,,
10079,,,survey-text,391,2901210,0.0-19.0-3.16,86898,List1A,black,man,,,,,"{""Q0"":""Mike is fighting Dave""}","<img src=""stim_listA/fight5.gif""</stim_listA>",is fighting,
null,"<div style=""font-size:60px;"">+</div>",,html-keyboard-response,392,2901729,0.0-19.0-0.17,86898,List1A,black,man,,,,null,,,,
null,"<img src=""stim_listA/kiss8.gif""</stim_listA>",,html-keyboard-response,393,2903739,0.0-19.0-1.17,86898,List1A,black,man,,,,null,,,,
null,are kissing each other,,html-keyboard-response,394,2905749,0.0-19.0-2.17,86898,List1A,black,man,,,,null,,,,
10499,,,survey-text,395,2916250,0.0-19.0-3.17,86898,List1A,black,man,,,,,"{""Q0"":""Jane and Kate are kissing each other""}","<img src=""stim_listA/kiss8.gif""</stim_listA>",are kissing each other,
null,"<div style=""font-size:60px;"">+</div>",,html-keyboard-response,396,2916759,0.0-19.0-0.18,86898,List1A,black,man,,,,null,,,,
null,"<img src=""stim_listA/marry7.gif""</stim_listA>",,html-keyboard-response,397,2918769,0.0-19.0-1.18,86898,List1A,black,man,,,,null,,,,
null,is marrying,,html-keyboard-response,398,2920789,0.0-19.0-2.18,86898,List1A,black,man,,,,null,,,,
10902,,,survey-text,399,2931693,0.0-19.0-3.18,86898,List1A,black,man,,,,,"{""Q0"":""Kate is marrying Ruth""}","<img src=""stim_listA/marry7.gif""</stim_listA>",is marrying,
null,"<div style=""font-size:60px;"">+</div>",,html-keyboard-response,400,2932199,0.0-19.0-0.19,86898,List1A,black,man,,,,null,,,,
null,"<img src=""stim_listA/marry8.gif""</stim_listA>",,html-keyboard-response,401,2934208,0.0-19.0-1.19,86898,List1A,black,man,,,,null,,,,
null,are marrying each other,,html-keyboard-response,402,2936211,0.0-19.0-2.19,86898,List1A,black,man,,,,null,,,,
10559,,,survey-text,403,2946770,0.0-19.0-3.19,86898,List1A,black,man,,,,,"{""Q0"":""Beth and Jane are marrying each other""}","<img src=""stim_listA/marry8.gif""</stim_listA>",are marrying each other,
2066,<p>Thank you for completing that task.</p><p>The final part of this session is a short questionnaire.</p><p>Press Continue.</p>,0,html-button-response,404,2948838,0.0-20.0,86898,List1A,black,man,,,,,,,,
41162,,,survey-text,405,2991008,0.0-21.0,86898,List1A,black,man,,,,,"{""Q0"":""24"",""Q1"":""English"",""Q2"":""English"",""Q3"":""United States of America"",""Q4"":""Black/African-American"",""Q5"":""Male""}",,,demographics
125514,,,survey-likert,406,3116529,0.0-22.0,86898,List1A,black,man,,,,,"{""Q0"":3,""Q1"":4,""Q2"":4,""Q3"":4,""Q4"":5,""Q5"":3,""Q6"":5,""Q7"":0,""Q8"":3,""Q9"":2,""Q10"":4,""Q11"":2,""Q12"":5,""Q13"":3}",,,likert_race
65768,,,survey-likert,407,3182302,0.0-23.0,86898,List1A,black,man,,,,,"{""Q0"":4,""Q1"":2,""Q2"":3,""Q3"":5,""Q4"":4,""Q5"":3,""Q6"":3,""Q7"":2,""Q8"":6,""Q9"":6,""Q10"":4,""Q11"":4,""Q12"":3,""Q13"":2}",,,likert_gender
13866,,,survey-text,408,3196170,0.0-24.0,86898,List1A,black,man,,,,,"{""Q0"":""ccc""}",,,worker_id
37847,,,external-html,409,3234461,0.0-25.0,86898,List1A,black,man,debrief.html,,,,,,,
