rt,stimulus,button_pressed,trial_type,trial_index,time_elapsed,internal_node_id,subject,list,ppt_race,ppt_gender,url,first_guess,correct,key_press,responses,image_type,phrase_type,test_part
3197,Welcome to the experiment. Press Continue to begin.,0,html-button-response,0,3224,0.0-0.0,87096,List2A,black,man,,,,,,,,
67581,,,external-html,1,71932,0.0-1.0,87096,List2A,black,man,consent.html,,,,,,,
28302,"<p>On the next page, you will see portraits of 8 people and their names.</p><p>Your first task is to take a few minutes to memorise the names of these people.</p><p>You will have to recall their names during the rest of the experiment, so it is</p><p>essential that you try to memorise these people and their names as best as you can.</p><br><p><strong>You will then be tested on your memory of these names and portraits.</strong></p><br><p>The experiment will start after you have completed this memory test.</p><br><p>Ready?</p>",0,html-button-response,2,100236,0.0-2.0,87096,List2A,black,man,,,,,,,,
156384,"<img src='img/portrait_matrix_list2.JPG' style='width:900px;height:500px;''></img><p>If you have memorised all the portraits and names and are ready to start, press Continue.</p><p><strong>Please note: Your memory of these faces will be tested 4 times during this experiment.</strong></p>",0,html-button-response,3,257625,0.0-3.0-0.0,87096,List2A,black,man,,,,,,,,
8323,"<img src=""portrait/BM1.jpg""style=""width:400px;height:400px;""></img>",4,html-button-response,4,266950,0.0-3.0-1.0,87096,List2A,black,man,,TRUE,4,,,,,
null,CORRECT,,html-keyboard-response,5,268461,0.0-3.0-2.0-0.0,87096,List2A,black,man,,,,null,,,,
1693,"<img src=""portrait/BW2.jpg""style=""width:400px;height:400px;""></img>",2,html-button-response,6,270156,0.0-3.0-4.0,87096,List2A,black,man,,TRUE,2,,,,,
null,CORRECT,,html-keyboard-response,7,271659,0.0-3.0-5.0-0.0,87096,List2A,black,man,,,,null,,,,
3320,"<img src=""portrait/WM2.jpg""style=""width:400px;height:400px;""></img>",7,html-button-response,8,274981,0.0-3.0-7.0,87096,List2A,black,man,,TRUE,7,,,,,
null,CORRECT,,html-keyboard-response,9,276484,0.0-3.0-8.0-0.0,87096,List2A,black,man,,,,null,,,,
2399,"<img src=""portrait/BM2.jpg""style=""width:400px;height:400px;""></img>",5,html-button-response,10,278885,0.0-3.0-10.0,87096,List2A,black,man,,TRUE,5,,,,,
null,CORRECT,,html-keyboard-response,11,280390,0.0-3.0-11.0-0.0,87096,List2A,black,man,,,,null,,,,
2421,"<img src=""portrait/BW1.jpg""style=""width:400px;height:400px;""></img>",0,html-button-response,12,282813,0.0-3.0-13.0,87096,List2A,black,man,,TRUE,0,,,,,
null,CORRECT,,html-keyboard-response,13,284316,0.0-3.0-14.0-0.0,87096,List2A,black,man,,,,null,,,,
3040,"<img src=""portrait/WW1.jpg""style=""width:400px;height:400px;""></img>",1,html-button-response,14,287358,0.0-3.0-16.0,87096,List2A,black,man,,TRUE,1,,,,,
null,CORRECT,,html-keyboard-response,15,288860,0.0-3.0-17.0-0.0,87096,List2A,black,man,,,,null,,,,
1324,"<img src=""portrait/WW2.jpg""style=""width:400px;height:400px;""></img>",3,html-button-response,16,290185,0.0-3.0-19.0,87096,List2A,black,man,,TRUE,3,,,,,
null,CORRECT,,html-keyboard-response,17,291689,0.0-3.0-20.0-0.0,87096,List2A,black,man,,,,null,,,,
2236,"<img src=""portrait/WM1.jpg""style=""width:400px;height:400px;""></img>",6,html-button-response,18,293926,0.0-3.0-22.0,87096,List2A,black,man,,TRUE,6,,,,,
null,CORRECT,,html-keyboard-response,19,295434,0.0-3.0-23.0-0.0,87096,List2A,black,man,,,,null,,,,
1881,<p>You got 8 out of 8 right first time. Press Continue.</p>,0,html-button-response,20,297317,0.0-3.0-25.0,87096,List2A,black,man,,,,,,,,
70505,"<p>In this experiment, you will view photographs of the people from the memory game interacting.</p><p>By using the <strong>exact</strong> phrase given <i>after</i> the photograph appears and recalling the correct names of the people in the photographs, form a sentence describing the interaction. You do not need to capitalise names.</p><p>Type your answer in the space provided. Please complete every sentence before moving onto the next trial.</p><p>You will only have a few seconds to memorise each given photograph and phrase before you can respond, so try your best to focus.</p><p>An example is given below. Press 'Continue' when you are ready.</p><img src='img/speaking_example_v2.jpg' style='width:800px;height:460px;''></img>",0,html-button-response,21,368826,0.0-4.0,87096,List2A,black,man,,,,,,,,
5737,"<p>Before the experiment starts, you will watch two example trials. Press 'Continue'.</p>",0,html-button-response,22,375564,0.0-5.0,87096,List2A,black,man,,,,,,,,
null,<img src='img/speaking_WW.gif'></img>,,html-keyboard-response,23,378569,0.0-6.0,87096,List2A,black,man,,,,null,,,,
null,<p>is speaking to</p>,,html-keyboard-response,24,380572,0.0-7.0,87096,List2A,black,man,,,,null,,,,
3442,<p><b>Answer:</b> jane is speaking to ruth</p>,0,html-button-response,25,384014,0.0-8.0,87096,List2A,black,man,,,,,,,,
null,<img src='img/pointing_BM.gif'></img>,,html-keyboard-response,26,387019,0.0-9.0,87096,List2A,black,man,,,,null,,,,
null,<p>are pointing at each other</p>,,html-keyboard-response,27,389022,0.0-10.0,87096,List2A,black,man,,,,null,,,,
6701,<p><b>Answer:</b> fred and mike are pointing at each other</p>,0,html-button-response,28,395724,0.0-11.0,87096,List2A,black,man,,,,,,,,
27433,"<p>Ready to start the experiment?</p><br><p><strong>Remember to describe the picture using a full sentence,</strong></p><p><strong>that combines the names of the people with the given phrase.</strong></p><p><strong>If you do not do this correctly you will not be paid.</strong></p><p><strong> You do not need to capitalise names or use punctuation.</strong></p><br><p>Press 'Continue' to begin.</p>",0,html-button-response,29,424161,0.0-12.0,87096,List2A,black,man,,,,,,,,
null,"<div style=""font-size:60px;"">+</div>",,html-keyboard-response,30,425667,0.0-13.0-0.0,87096,List2A,black,man,,,,null,,,,
null,"<img src=""stim_listA/touch6.gif""</stim_listA>",,html-keyboard-response,31,427668,0.0-13.0-1.0,87096,List2A,black,man,,,,null,,,,
null,are touching each other,,html-keyboard-response,32,429671,0.0-13.0-2.0,87096,List2A,black,man,,,,null,,,,
13883,,,survey-text,33,443556,0.0-13.0-3.0,87096,List2A,black,man,,,,,"{""Q0"":""luke and fred are touching each other""}","<img src=""stim_listA/touch6.gif""</stim_listA>",are touching each other,
null,"<div style=""font-size:60px;"">+</div>",,html-keyboard-response,34,444059,0.0-13.0-0.1,87096,List2A,black,man,,,,null,,,,
null,"<img src=""stim_listA/hug7.gif""</stim_listA>",,html-keyboard-response,35,446064,0.0-13.0-1.1,87096,List2A,black,man,,,,null,,,,
null,is hugging,,html-keyboard-response,36,448070,0.0-13.0-2.1,87096,List2A,black,man,,,,null,,,,
7680,,,survey-text,37,455751,0.0-13.0-3.1,87096,List2A,black,man,,,,,"{""Q0"":""ruth is hugging beth""}","<img src=""stim_listA/hug7.gif""</stim_listA>",is hugging,
null,"<div style=""font-size:60px;"">+</div>",,html-keyboard-response,38,456255,0.0-13.0-0.2,87096,List2A,black,man,,,,null,,,,
null,"<img src=""stim_listA/dance6.gif""</stim_listA>",,html-keyboard-response,39,458257,0.0-13.0-1.2,87096,List2A,black,man,,,,null,,,,
null,are dancing with each other,,html-keyboard-response,40,460262,0.0-13.0-2.2,87096,List2A,black,man,,,,null,,,,
10971,,,survey-text,41,471234,0.0-13.0-3.2,87096,List2A,black,man,,,,,"{""Q0"":""mike and dave are dancing with each other""}","<img src=""stim_listA/dance6.gif""</stim_listA>",are dancing with each other,
null,"<div style=""font-size:60px;"">+</div>",,html-keyboard-response,42,471735,0.0-13.0-0.3,87096,List2A,black,man,,,,null,,,,
null,"<img src=""stim_listA/shout7.gif""</stim_listA>",,html-keyboard-response,43,473736,0.0-13.0-1.3,87096,List2A,black,man,,,,null,,,,
null,is shouting at,,html-keyboard-response,44,475740,0.0-13.0-2.3,87096,List2A,black,man,,,,null,,,,
31545,,,survey-text,45,507285,0.0-13.0-3.3,87096,List2A,black,man,,,,,"{""Q0"":""beth is shouting at ruth""}","<img src=""stim_listA/shout7.gif""</stim_listA>",is shouting at,
null,"<div style=""font-size:60px;"">+</div>",,html-keyboard-response,46,507786,0.0-13.0-0.4,87096,List2A,black,man,,,,null,,,,
null,"<img src=""stim_listA/talk5.gif""</stim_listA>",,html-keyboard-response,47,509792,0.0-13.0-1.4,87096,List2A,black,man,,,,null,,,,
null,is talking to,,html-keyboard-response,48,511796,0.0-13.0-2.4,87096,List2A,black,man,,,,null,,,,
20080,,,survey-text,49,531878,0.0-13.0-3.4,87096,List2A,black,man,,,,,"{""Q0"":""luke is talking to mike""}","<img src=""stim_listA/talk5.gif""</stim_listA>",is talking to,
null,"<div style=""font-size:60px;"">+</div>",,html-keyboard-response,50,532382,0.0-13.0-0.5,87096,List2A,black,man,,,,null,,,,
null,"<img src=""stim_listA/argue1.gif""</stim_listA>",,html-keyboard-response,51,534385,0.0-13.0-1.5,87096,List2A,black,man,,,,null,,,,
null,is arguing with,,html-keyboard-response,52,536385,0.0-13.0-2.5,87096,List2A,black,man,,,,null,,,,
11983,,,survey-text,53,548370,0.0-13.0-3.5,87096,List2A,black,man,,,,,"{""Q0"":""ruth is arguing with dave""}","<img src=""stim_listA/argue1.gif""</stim_listA>",is arguing with,
null,"<div style=""font-size:60px;"">+</div>",,html-keyboard-response,54,548871,0.0-13.0-0.6,87096,List2A,black,man,,,,null,,,,
null,"<img src=""stim_listA/hug2.gif""</stim_listA>",,html-keyboard-response,55,550873,0.0-13.0-1.6,87096,List2A,black,man,,,,null,,,,
null,are hugging each other,,html-keyboard-response,56,552874,0.0-13.0-2.6,87096,List2A,black,man,,,,null,,,,
6736,,,survey-text,57,559611,0.0-13.0-3.6,87096,List2A,black,man,,,,,"{""Q0"":""dave and jane are hugging each other""}","<img src=""stim_listA/hug2.gif""</stim_listA>",are hugging each other,
null,"<div style=""font-size:60px;"">+</div>",,html-keyboard-response,58,560112,0.0-13.0-0.7,87096,List2A,black,man,,,,null,,,,
null,"<img src=""stim_listA/hug1.gif""</stim_listA>",,html-keyboard-response,59,562115,0.0-13.0-1.7,87096,List2A,black,man,,,,null,,,,
null,is hugging,,html-keyboard-response,60,564116,0.0-13.0-2.7,87096,List2A,black,man,,,,null,,,,
8278,,,survey-text,61,572395,0.0-13.0-3.7,87096,List2A,black,man,,,,,"{""Q0"":""ruth is hugging luke""}","<img src=""stim_listA/hug1.gif""</stim_listA>",is hugging,
null,"<div style=""font-size:60px;"">+</div>",,html-keyboard-response,62,572900,0.0-13.0-0.8,87096,List2A,black,man,,,,null,,,,
null,"<img src=""stim_listA/fight3.gif""</stim_listA>",,html-keyboard-response,63,574901,0.0-13.0-1.8,87096,List2A,black,man,,,,null,,,,
null,is fighting,,html-keyboard-response,64,576902,0.0-13.0-2.8,87096,List2A,black,man,,,,null,,,,
5887,,,survey-text,65,582790,0.0-13.0-3.8,87096,List2A,black,man,,,,,"{""Q0"":""kate is fighting mike""}","<img src=""stim_listA/fight3.gif""</stim_listA>",is fighting,
null,"<div style=""font-size:60px;"">+</div>",,html-keyboard-response,66,583295,0.0-13.0-0.9,87096,List2A,black,man,,,,null,,,,
null,"<img src=""stim_listA/dance1.gif""</stim_listA>",,html-keyboard-response,67,585296,0.0-13.0-1.9,87096,List2A,black,man,,,,null,,,,
null,is dancing with,,html-keyboard-response,68,587297,0.0-13.0-2.9,87096,List2A,black,man,,,,null,,,,
82513,,,survey-text,69,669811,0.0-13.0-3.9,87096,List2A,black,man,,,,,"{""Q0"":""jane is dancing with luke""}","<img src=""stim_listA/dance1.gif""</stim_listA>",is dancing with,
null,"<div style=""font-size:60px;"">+</div>",,html-keyboard-response,70,670318,0.0-13.0-0.10,87096,List2A,black,man,,,,null,,,,
null,"<img src=""stim_listA/marry3.gif""</stim_listA>",,html-keyboard-response,71,672323,0.0-13.0-1.10,87096,List2A,black,man,,,,null,,,,
null,is marrying,,html-keyboard-response,72,674326,0.0-13.0-2.10,87096,List2A,black,man,,,,null,,,,
28299,,,survey-text,73,702625,0.0-13.0-3.10,87096,List2A,black,man,,,,,"{""Q0"":""mike is marrying kate""}","<img src=""stim_listA/marry3.gif""</stim_listA>",is marrying,
null,"<div style=""font-size:60px;"">+</div>",,html-keyboard-response,74,703130,0.0-13.0-0.11,87096,List2A,black,man,,,,null,,,,
null,"<img src=""stim_listA/meet5.gif""</stim_listA>",,html-keyboard-response,75,705136,0.0-13.0-1.11,87096,List2A,black,man,,,,null,,,,
null,is meeting,,html-keyboard-response,76,707137,0.0-13.0-2.11,87096,List2A,black,man,,,,null,,,,
6913,,,survey-text,77,714051,0.0-13.0-3.11,87096,List2A,black,man,,,,,"{""Q0"":""dave is meeting mike""}","<img src=""stim_listA/meet5.gif""</stim_listA>",is meeting,
null,"<div style=""font-size:60px;"">+</div>",,html-keyboard-response,78,714555,0.0-13.0-0.12,87096,List2A,black,man,,,,null,,,,
null,"<img src=""stim_listA/meet3.gif""</stim_listA>",,html-keyboard-response,79,716561,0.0-13.0-1.12,87096,List2A,black,man,,,,null,,,,
null,is meeting,,html-keyboard-response,80,718563,0.0-13.0-2.12,87096,List2A,black,man,,,,null,,,,
4368,,,survey-text,81,722933,0.0-13.0-3.12,87096,List2A,black,man,,,,,"{""Q0"":""mike is meeting kate""}","<img src=""stim_listA/meet3.gif""</stim_listA>",is meeting,
null,"<div style=""font-size:60px;"">+</div>",,html-keyboard-response,82,723437,0.0-13.0-0.13,87096,List2A,black,man,,,,null,,,,
null,"<img src=""stim_listA/argue4.gif""</stim_listA>",,html-keyboard-response,83,725439,0.0-13.0-1.13,87096,List2A,black,man,,,,null,,,,
null,are arguing with each other,,html-keyboard-response,84,727440,0.0-13.0-2.13,87096,List2A,black,man,,,,null,,,,
9299,,,survey-text,85,736741,0.0-13.0-3.13,87096,List2A,black,man,,,,,"{""Q0"":""kate and fred are arguing with each other""}","<img src=""stim_listA/argue4.gif""</stim_listA>",are arguing with each other,
null,"<div style=""font-size:60px;"">+</div>",,html-keyboard-response,86,737245,0.0-13.0-0.14,87096,List2A,black,man,,,,null,,,,
null,"<img src=""stim_listA/touch2.gif""</stim_listA>",,html-keyboard-response,87,739251,0.0-13.0-1.14,87096,List2A,black,man,,,,null,,,,
null,are touching each other,,html-keyboard-response,88,741254,0.0-13.0-2.14,87096,List2A,black,man,,,,null,,,,
6956,,,survey-text,89,748211,0.0-13.0-3.14,87096,List2A,black,man,,,,,"{""Q0"":""ruth and luke are touching each other""}","<img src=""stim_listA/touch2.gif""</stim_listA>",are touching each other,
null,"<div style=""font-size:60px;"">+</div>",,html-keyboard-response,90,748715,0.0-13.0-0.15,87096,List2A,black,man,,,,null,,,,
null,"<img src=""stim_listA/argue2.gif""</stim_listA>",,html-keyboard-response,91,750720,0.0-13.0-1.15,87096,List2A,black,man,,,,null,,,,
null,are arguing with each other,,html-keyboard-response,92,752724,0.0-13.0-2.15,87096,List2A,black,man,,,,null,,,,
8439,,,survey-text,93,761164,0.0-13.0-3.15,87096,List2A,black,man,,,,,"{""Q0"":""jane and luke are arguing with each other""}","<img src=""stim_listA/argue2.gif""</stim_listA>",are arguing with each other,
null,"<div style=""font-size:60px;"">+</div>",,html-keyboard-response,94,761667,0.0-13.0-0.16,87096,List2A,black,man,,,,null,,,,
null,"<img src=""stim_listA/touch7.gif""</stim_listA>",,html-keyboard-response,95,763672,0.0-13.0-1.16,87096,List2A,black,man,,,,null,,,,
null,is touching,,html-keyboard-response,96,765676,0.0-13.0-2.16,87096,List2A,black,man,,,,null,,,,
7690,,,survey-text,97,773368,0.0-13.0-3.16,87096,List2A,black,man,,,,,"{""Q0"":""jane is touching kate""}","<img src=""stim_listA/touch7.gif""</stim_listA>",is touching,
null,"<div style=""font-size:60px;"">+</div>",,html-keyboard-response,98,773874,0.0-13.0-0.17,87096,List2A,black,man,,,,null,,,,
null,"<img src=""stim_listA/marry2.gif""</stim_listA>",,html-keyboard-response,99,775876,0.0-13.0-1.17,87096,List2A,black,man,,,,null,,,,
null,are marrying each other,,html-keyboard-response,100,777878,0.0-13.0-2.17,87096,List2A,black,man,,,,null,,,,
11290,,,survey-text,101,789168,0.0-13.0-3.17,87096,List2A,black,man,,,,,"{""Q0"":""jane and luke are marrying each other""}","<img src=""stim_listA/marry2.gif""</stim_listA>",are marrying each other,
null,"<div style=""font-size:60px;"">+</div>",,html-keyboard-response,102,789673,0.0-13.0-0.18,87096,List2A,black,man,,,,null,,,,
null,"<img src=""stim_listA/meet4.gif""</stim_listA>",,html-keyboard-response,103,791677,0.0-13.0-1.18,87096,List2A,black,man,,,,null,,,,
null,are meeting each other,,html-keyboard-response,104,793681,0.0-13.0-2.18,87096,List2A,black,man,,,,null,,,,
118989,,,survey-text,105,912672,0.0-13.0-3.18,87096,List2A,black,man,,,,,"{""Q0"":""fred and beth are meeting each other""}","<img src=""stim_listA/meet4.gif""</stim_listA>",are meeting each other,
null,"<div style=""font-size:60px;"">+</div>",,html-keyboard-response,106,913174,0.0-13.0-0.19,87096,List2A,black,man,,,,null,,,,
null,"<img src=""stim_listA/talk7.gif""</stim_listA>",,html-keyboard-response,107,915180,0.0-13.0-1.19,87096,List2A,black,man,,,,null,,,,
null,is talking to,,html-keyboard-response,108,917181,0.0-13.0-2.19,87096,List2A,black,man,,,,null,,,,
5445,,,survey-text,109,922628,0.0-13.0-3.19,87096,List2A,black,man,,,,,"{""Q0"":""ruth is talking to kate""}","<img src=""stim_listA/talk7.gif""</stim_listA>",is talking to,
17313,"<img src='img/portrait_matrix_list2.JPG' style='width:900px;height:500px;''></img><p>If you have memorised all the portraits and names and are ready to start, press Continue.</p><p><strong>Please note: Your memory of these faces will be tested 4 times during this experiment.</strong></p>",0,html-button-response,110,939942,0.0-14.0-0.0,87096,List2A,black,man,,,,,,,,
1835,"<img src=""portrait/WW2.jpg""style=""width:400px;height:400px;""></img>",3,html-button-response,111,942782,0.0-14.0-1.0,87096,List2A,black,man,,TRUE,3,,,,,
null,CORRECT,,html-keyboard-response,112,944291,0.0-14.0-2.0-0.0,87096,List2A,black,man,,,,null,,,,
1837,"<img src=""portrait/BM2.jpg""style=""width:400px;height:400px;""></img>",5,html-button-response,113,946130,0.0-14.0-4.0,87096,List2A,black,man,,TRUE,5,,,,,
null,CORRECT,,html-keyboard-response,114,947636,0.0-14.0-5.0-0.0,87096,List2A,black,man,,,,null,,,,
3305,"<img src=""portrait/WM1.jpg""style=""width:400px;height:400px;""></img>",6,html-button-response,115,950944,0.0-14.0-7.0,87096,List2A,black,man,,TRUE,6,,,,,
null,CORRECT,,html-keyboard-response,116,952453,0.0-14.0-8.0-0.0,87096,List2A,black,man,,,,null,,,,
6215,"<img src=""portrait/BW1.jpg""style=""width:400px;height:400px;""></img>",0,html-button-response,117,958670,0.0-14.0-10.0,87096,List2A,black,man,,TRUE,0,,,,,
null,CORRECT,,html-keyboard-response,118,960179,0.0-14.0-11.0-0.0,87096,List2A,black,man,,,,null,,,,
2165,"<img src=""portrait/WM2.jpg""style=""width:400px;height:400px;""></img>",7,html-button-response,119,962346,0.0-14.0-13.0,87096,List2A,black,man,,TRUE,7,,,,,
null,CORRECT,,html-keyboard-response,120,963851,0.0-14.0-14.0-0.0,87096,List2A,black,man,,,,null,,,,
1836,"<img src=""portrait/BW2.jpg""style=""width:400px;height:400px;""></img>",2,html-button-response,121,965689,0.0-14.0-16.0,87096,List2A,black,man,,TRUE,2,,,,,
null,CORRECT,,html-keyboard-response,122,967194,0.0-14.0-17.0-0.0,87096,List2A,black,man,,,,null,,,,
1467,"<img src=""portrait/BM1.jpg""style=""width:400px;height:400px;""></img>",4,html-button-response,123,968663,0.0-14.0-19.0,87096,List2A,black,man,,TRUE,4,,,,,
null,CORRECT,,html-keyboard-response,124,970169,0.0-14.0-20.0-0.0,87096,List2A,black,man,,,,null,,,,
1346,"<img src=""portrait/WW1.jpg""style=""width:400px;height:400px;""></img>",1,html-button-response,125,971517,0.0-14.0-22.0,87096,List2A,black,man,,TRUE,1,,,,,
null,CORRECT,,html-keyboard-response,126,973022,0.0-14.0-23.0-0.0,87096,List2A,black,man,,,,null,,,,
1328,<p>You got 8 out of 8 right first time. Press Continue.</p>,0,html-button-response,127,974352,0.0-14.0-25.0,87096,List2A,black,man,,,,,,,,
null,"<div style=""font-size:60px;"">+</div>",,html-keyboard-response,128,975860,0.0-15.0-0.0,87096,List2A,black,man,,,,null,,,,
null,"<img src=""stim_listA/marry4.gif""</stim_listA>",,html-keyboard-response,129,977862,0.0-15.0-1.0,87096,List2A,black,man,,,,null,,,,
null,are marrying each other,,html-keyboard-response,130,979863,0.0-15.0-2.0,87096,List2A,black,man,,,,null,,,,
6748,,,survey-text,131,986613,0.0-15.0-3.0,87096,List2A,black,man,,,,,"{""Q0"":""kate and fred are marrying each other""}","<img src=""stim_listA/marry4.gif""</stim_listA>",are marrying each other,
null,"<div style=""font-size:60px;"">+</div>",,html-keyboard-response,132,987116,0.0-15.0-0.1,87096,List2A,black,man,,,,null,,,,
null,"<img src=""stim_listA/fight6.gif""</stim_listA>",,html-keyboard-response,133,989117,0.0-15.0-1.1,87096,List2A,black,man,,,,null,,,,
null,are fighting each other,,html-keyboard-response,134,991118,0.0-15.0-2.1,87096,List2A,black,man,,,,null,,,,
5889,,,survey-text,135,997009,0.0-15.0-3.1,87096,List2A,black,man,,,,,"{""Q0"":""luke and fred are fighting each other""}","<img src=""stim_listA/fight6.gif""</stim_listA>",are fighting each other,
null,"<div style=""font-size:60px;"">+</div>",,html-keyboard-response,136,997515,0.0-15.0-0.2,87096,List2A,black,man,,,,null,,,,
null,"<img src=""stim_listA/meet6.gif""</stim_listA>",,html-keyboard-response,137,999520,0.0-15.0-1.2,87096,List2A,black,man,,,,null,,,,
null,are meeting each other,,html-keyboard-response,138,1001521,0.0-15.0-2.2,87096,List2A,black,man,,,,null,,,,
5734,,,survey-text,139,1007257,0.0-15.0-3.2,87096,List2A,black,man,,,,,"{""Q0"":""luke and fred are meeting each other""}","<img src=""stim_listA/meet6.gif""</stim_listA>",are meeting each other,
null,"<div style=""font-size:60px;"">+</div>",,html-keyboard-response,140,1007763,0.0-15.0-0.3,87096,List2A,black,man,,,,null,,,,
null,"<img src=""stim_listA/marry7.gif""</stim_listA>",,html-keyboard-response,141,1009768,0.0-15.0-1.3,87096,List2A,black,man,,,,null,,,,
null,is marrying,,html-keyboard-response,142,1011772,0.0-15.0-2.3,87096,List2A,black,man,,,,null,,,,
5091,,,survey-text,143,1016865,0.0-15.0-3.3,87096,List2A,black,man,,,,,"{""Q0"":""ruth is marrying beth""}","<img src=""stim_listA/marry7.gif""</stim_listA>",is marrying,
null,"<div style=""font-size:60px;"">+</div>",,html-keyboard-response,144,1017367,0.0-15.0-0.4,87096,List2A,black,man,,,,null,,,,
null,"<img src=""stim_listA/shout4.gif""</stim_listA>",,html-keyboard-response,145,1019373,0.0-15.0-1.4,87096,List2A,black,man,,,,null,,,,
null,are shouting at each other,,html-keyboard-response,146,1021374,0.0-15.0-2.4,87096,List2A,black,man,,,,null,,,,
7157,,,survey-text,147,1028533,0.0-15.0-3.4,87096,List2A,black,man,,,,,"{""Q0"":""kate and mike are shouting at each other""}","<img src=""stim_listA/shout4.gif""</stim_listA>",are shouting at each other,
null,"<div style=""font-size:60px;"">+</div>",,html-keyboard-response,148,1029037,0.0-15.0-0.5,87096,List2A,black,man,,,,null,,,,
null,"<img src=""stim_listA/hug4.gif""</stim_listA>",,html-keyboard-response,149,1031039,0.0-15.0-1.5,87096,List2A,black,man,,,,null,,,,
null,are hugging each other,,html-keyboard-response,150,1033043,0.0-15.0-2.5,87096,List2A,black,man,,,,null,,,,
5577,,,survey-text,151,1038622,0.0-15.0-3.5,87096,List2A,black,man,,,,,"{""Q0"":""mike and kate are hugging each other""}","<img src=""stim_listA/hug4.gif""</stim_listA>",are hugging each other,
null,"<div style=""font-size:60px;"">+</div>",,html-keyboard-response,152,1039126,0.0-15.0-0.6,87096,List2A,black,man,,,,null,,,,
null,"<img src=""stim_listA/fight8.gif""</stim_listA>",,html-keyboard-response,153,1041128,0.0-15.0-1.6,87096,List2A,black,man,,,,null,,,,
null,are fighting each other,,html-keyboard-response,154,1043133,0.0-15.0-2.6,87096,List2A,black,man,,,,null,,,,
7297,,,survey-text,155,1050432,0.0-15.0-3.6,87096,List2A,black,man,,,,,"{""Q0"":""beth and ruth are fighting each other""}","<img src=""stim_listA/fight8.gif""</stim_listA>",are fighting each other,
null,"<div style=""font-size:60px;"">+</div>",,html-keyboard-response,156,1050936,0.0-15.0-0.7,87096,List2A,black,man,,,,null,,,,
null,"<img src=""stim_listA/kiss4.gif""</stim_listA>",,html-keyboard-response,157,1052940,0.0-15.0-1.7,87096,List2A,black,man,,,,null,,,,
null,are kissing each other,,html-keyboard-response,158,1054941,0.0-15.0-2.7,87096,List2A,black,man,,,,null,,,,
6181,,,survey-text,159,1061123,0.0-15.0-3.7,87096,List2A,black,man,,,,,"{""Q0"":""kate and mike are kissing each other""}","<img src=""stim_listA/kiss4.gif""</stim_listA>",are kissing each other,
null,"<div style=""font-size:60px;"">+</div>",,html-keyboard-response,160,1061625,0.0-15.0-0.8,87096,List2A,black,man,,,,null,,,,
null,"<img src=""stim_listA/dance7.gif""</stim_listA>",,html-keyboard-response,161,1063627,0.0-15.0-1.8,87096,List2A,black,man,,,,null,,,,
null,is dancing with,,html-keyboard-response,162,1065630,0.0-15.0-2.8,87096,List2A,black,man,,,,null,,,,
5756,,,survey-text,163,1071387,0.0-15.0-3.8,87096,List2A,black,man,,,,,"{""Q0"":""ruth is dancing with kate""}","<img src=""stim_listA/dance7.gif""</stim_listA>",is dancing with,
null,"<div style=""font-size:60px;"">+</div>",,html-keyboard-response,164,1071892,0.0-15.0-0.9,87096,List2A,black,man,,,,null,,,,
null,"<img src=""stim_listA/touch3.gif""</stim_listA>",,html-keyboard-response,165,1073896,0.0-15.0-1.9,87096,List2A,black,man,,,,null,,,,
null,is touching,,html-keyboard-response,166,1075897,0.0-15.0-2.9,87096,List2A,black,man,,,,null,,,,
4982,,,survey-text,167,1080880,0.0-15.0-3.9,87096,List2A,black,man,,,,,"{""Q0"":""mike is touching kate""}","<img src=""stim_listA/touch3.gif""</stim_listA>",is touching,
null,"<div style=""font-size:60px;"">+</div>",,html-keyboard-response,168,1081383,0.0-15.0-0.10,87096,List2A,black,man,,,,null,,,,
null,"<img src=""stim_listA/fight2.gif""</stim_listA>",,html-keyboard-response,169,1083389,0.0-15.0-1.10,87096,List2A,black,man,,,,null,,,,
null,are fighting each other,,html-keyboard-response,170,1085390,0.0-15.0-2.10,87096,List2A,black,man,,,,null,,,,
11661,,,survey-text,171,1097053,0.0-15.0-3.10,87096,List2A,black,man,,,,,"{""Q0"":""luke and ruth are fighting each other""}","<img src=""stim_listA/fight2.gif""</stim_listA>",are fighting each other,
null,"<div style=""font-size:60px;"">+</div>",,html-keyboard-response,172,1097555,0.0-15.0-0.11,87096,List2A,black,man,,,,null,,,,
null,"<img src=""stim_listA/argue3.gif""</stim_listA>",,html-keyboard-response,173,1099560,0.0-15.0-1.11,87096,List2A,black,man,,,,null,,,,
null,is arguing with,,html-keyboard-response,174,1101563,0.0-15.0-2.11,87096,List2A,black,man,,,,null,,,,
6285,,,survey-text,175,1107848,0.0-15.0-3.11,87096,List2A,black,man,,,,,"{""Q0"":""mike is arguing with beth""}","<img src=""stim_listA/argue3.gif""</stim_listA>",is arguing with,
null,"<div style=""font-size:60px;"">+</div>",,html-keyboard-response,176,1108350,0.0-15.0-0.12,87096,List2A,black,man,,,,null,,,,
null,"<img src=""stim_listA/argue5.gif""</stim_listA>",,html-keyboard-response,177,1110352,0.0-15.0-1.12,87096,List2A,black,man,,,,null,,,,
null,is arguing with,,html-keyboard-response,178,1112357,0.0-15.0-2.12,87096,List2A,black,man,,,,null,,,,
9516,,,survey-text,179,1121874,0.0-15.0-3.12,87096,List2A,black,man,,,,,"{""Q0"":""dave is arguing with fred""}","<img src=""stim_listA/argue5.gif""</stim_listA>",is arguing with,
null,"<div style=""font-size:60px;"">+</div>",,html-keyboard-response,180,1122378,0.0-15.0-0.13,87096,List2A,black,man,,,,null,,,,
null,"<img src=""stim_listA/fight7.gif""</stim_listA>",,html-keyboard-response,181,1124383,0.0-15.0-1.13,87096,List2A,black,man,,,,null,,,,
null,is fighting,,html-keyboard-response,182,1126384,0.0-15.0-2.13,87096,List2A,black,man,,,,null,,,,
3839,,,survey-text,183,1130225,0.0-15.0-3.13,87096,List2A,black,man,,,,,"{""Q0"":""jane is fighting kate""}","<img src=""stim_listA/fight7.gif""</stim_listA>",is fighting,
null,"<div style=""font-size:60px;"">+</div>",,html-keyboard-response,184,1130729,0.0-15.0-0.14,87096,List2A,black,man,,,,null,,,,
null,"<img src=""stim_listA/marry1.gif""</stim_listA>",,html-keyboard-response,185,1132734,0.0-15.0-1.14,87096,List2A,black,man,,,,null,,,,
null,is marrying,,html-keyboard-response,186,1134736,0.0-15.0-2.14,87096,List2A,black,man,,,,null,,,,
4602,,,survey-text,187,1139340,0.0-15.0-3.14,87096,List2A,black,man,,,,,"{""Q0"":""dave is marrying ruth""}","<img src=""stim_listA/marry1.gif""</stim_listA>",is marrying,
null,"<div style=""font-size:60px;"">+</div>",,html-keyboard-response,188,1139846,0.0-15.0-0.15,87096,List2A,black,man,,,,null,,,,
null,"<img src=""stim_listA/fight1.gif""</stim_listA>",,html-keyboard-response,189,1141849,0.0-15.0-1.15,87096,List2A,black,man,,,,null,,,,
null,is fighting,,html-keyboard-response,190,1143852,0.0-15.0-2.15,87096,List2A,black,man,,,,null,,,,
10015,,,survey-text,191,1153868,0.0-15.0-3.15,87096,List2A,black,man,,,,,"{""Q0"":""jane is fighting dave""}","<img src=""stim_listA/fight1.gif""</stim_listA>",is fighting,
null,"<div style=""font-size:60px;"">+</div>",,html-keyboard-response,192,1154371,0.0-15.0-0.16,87096,List2A,black,man,,,,null,,,,
null,"<img src=""stim_listA/dance3.gif""</stim_listA>",,html-keyboard-response,193,1156376,0.0-15.0-1.16,87096,List2A,black,man,,,,null,,,,
null,is dancing with,,html-keyboard-response,194,1158377,0.0-15.0-2.16,87096,List2A,black,man,,,,null,,,,
7543,,,survey-text,195,1165922,0.0-15.0-3.16,87096,List2A,black,man,,,,,"{""Q0"":""fred is dancing with kate""}","<img src=""stim_listA/dance3.gif""</stim_listA>",is dancing with,
null,"<div style=""font-size:60px;"">+</div>",,html-keyboard-response,196,1166427,0.0-15.0-0.17,87096,List2A,black,man,,,,null,,,,
null,"<img src=""stim_listA/touch4.gif""</stim_listA>",,html-keyboard-response,197,1168430,0.0-15.0-1.17,87096,List2A,black,man,,,,null,,,,
null,are touching each other,,html-keyboard-response,198,1170434,0.0-15.0-2.17,87096,List2A,black,man,,,,null,,,,
6999,,,survey-text,199,1177435,0.0-15.0-3.17,87096,List2A,black,man,,,,,"{""Q0"":""beth and fred are touching each other""}","<img src=""stim_listA/touch4.gif""</stim_listA>",are touching each other,
null,"<div style=""font-size:60px;"">+</div>",,html-keyboard-response,200,1177939,0.0-15.0-0.18,87096,List2A,black,man,,,,null,,,,
null,"<img src=""stim_listA/dance8.gif""</stim_listA>",,html-keyboard-response,201,1179944,0.0-15.0-1.18,87096,List2A,black,man,,,,null,,,,
null,are dancing with each other,,html-keyboard-response,202,1181945,0.0-15.0-2.18,87096,List2A,black,man,,,,null,,,,
6597,,,survey-text,203,1188543,0.0-15.0-3.18,87096,List2A,black,man,,,,,"{""Q0"":""jane and beth are dancing with each other""}","<img src=""stim_listA/dance8.gif""</stim_listA>",are dancing with each other,
null,"<div style=""font-size:60px;"">+</div>",,html-keyboard-response,204,1189047,0.0-15.0-0.19,87096,List2A,black,man,,,,null,,,,
null,"<img src=""stim_listA/hug5.gif""</stim_listA>",,html-keyboard-response,205,1191050,0.0-15.0-1.19,87096,List2A,black,man,,,,null,,,,
null,is hugging,,html-keyboard-response,206,1193053,0.0-15.0-2.19,87096,List2A,black,man,,,,null,,,,
8117,,,survey-text,207,1201172,0.0-15.0-3.19,87096,List2A,black,man,,,,,"{""Q0"":""luke is hugging fred""}","<img src=""stim_listA/hug5.gif""</stim_listA>",is hugging,
2457,"<img src='img/portrait_matrix_list2.JPG' style='width:900px;height:500px;''></img><p>If you have memorised all the portraits and names and are ready to start, press Continue.</p><p><strong>Please note: Your memory of these faces will be tested 4 times during this experiment.</strong></p>",0,html-button-response,208,1203632,0.0-16.0-0.0,87096,List2A,black,man,,,,,,,,
1522,"<img src=""portrait/WM2.jpg""style=""width:400px;height:400px;""></img>",7,html-button-response,209,1206158,0.0-16.0-1.0,87096,List2A,black,man,,TRUE,7,,,,,
null,CORRECT,,html-keyboard-response,210,1207666,0.0-16.0-2.0-0.0,87096,List2A,black,man,,,,null,,,,
1528,"<img src=""portrait/BM1.jpg""style=""width:400px;height:400px;""></img>",4,html-button-response,211,1209196,0.0-16.0-4.0,87096,List2A,black,man,,TRUE,4,,,,,
null,CORRECT,,html-keyboard-response,212,1210703,0.0-16.0-5.0-0.0,87096,List2A,black,man,,,,null,,,,
1200,"<img src=""portrait/WW2.jpg""style=""width:400px;height:400px;""></img>",3,html-button-response,213,1211904,0.0-16.0-7.0,87096,List2A,black,man,,TRUE,3,,,,,
null,CORRECT,,html-keyboard-response,214,1213410,0.0-16.0-8.0-0.0,87096,List2A,black,man,,,,null,,,,
1295,"<img src=""portrait/WW1.jpg""style=""width:400px;height:400px;""></img>",1,html-button-response,215,1214706,0.0-16.0-10.0,87096,List2A,black,man,,TRUE,1,,,,,
null,CORRECT,,html-keyboard-response,216,1216213,0.0-16.0-11.0-0.0,87096,List2A,black,man,,,,null,,,,
3767,"<img src=""portrait/BM2.jpg""style=""width:400px;height:400px;""></img>",5,html-button-response,217,1219981,0.0-16.0-13.0,87096,List2A,black,man,,TRUE,5,,,,,
null,CORRECT,,html-keyboard-response,218,1221488,0.0-16.0-14.0-0.0,87096,List2A,black,man,,,,null,,,,
3014,"<img src=""portrait/BW2.jpg""style=""width:400px;height:400px;""></img>",2,html-button-response,219,1224504,0.0-16.0-16.0,87096,List2A,black,man,,TRUE,2,,,,,
null,CORRECT,,html-keyboard-response,220,1226013,0.0-16.0-17.0-0.0,87096,List2A,black,man,,,,null,,,,
3325,"<img src=""portrait/WM1.jpg""style=""width:400px;height:400px;""></img>",6,html-button-response,221,1229340,0.0-16.0-19.0,87096,List2A,black,man,,TRUE,6,,,,,
null,CORRECT,,html-keyboard-response,222,1230847,0.0-16.0-20.0-0.0,87096,List2A,black,man,,,,null,,,,
1671,"<img src=""portrait/BW1.jpg""style=""width:400px;height:400px;""></img>",0,html-button-response,223,1232520,0.0-16.0-22.0,87096,List2A,black,man,,TRUE,0,,,,,
null,CORRECT,,html-keyboard-response,224,1234026,0.0-16.0-23.0-0.0,87096,List2A,black,man,,,,null,,,,
4005,<p>You got 8 out of 8 right first time. Press Continue.</p>,0,html-button-response,225,1238032,0.0-16.0-25.0,87096,List2A,black,man,,,,,,,,
null,"<div style=""font-size:60px;"">+</div>",,html-keyboard-response,226,1239536,0.0-17.0-0.0,87096,List2A,black,man,,,,null,,,,
null,"<img src=""stim_listA/shout1.gif""</stim_listA>",,html-keyboard-response,227,1241538,0.0-17.0-1.0,87096,List2A,black,man,,,,null,,,,
null,is shouting at,,html-keyboard-response,228,1243540,0.0-17.0-2.0,87096,List2A,black,man,,,,null,,,,
5131,,,survey-text,229,1248671,0.0-17.0-3.0,87096,List2A,black,man,,,,,"{""Q0"":""luke is shouting at ruth""}","<img src=""stim_listA/shout1.gif""</stim_listA>",is shouting at,
null,"<div style=""font-size:60px;"">+</div>",,html-keyboard-response,230,1249173,0.0-17.0-0.1,87096,List2A,black,man,,,,null,,,,
null,"<img src=""stim_listA/argue8.gif""</stim_listA>",,html-keyboard-response,231,1251178,0.0-17.0-1.1,87096,List2A,black,man,,,,null,,,,
null,are arguing with each other,,html-keyboard-response,232,1253179,0.0-17.0-2.1,87096,List2A,black,man,,,,null,,,,
7297,,,survey-text,233,1260478,0.0-17.0-3.1,87096,List2A,black,man,,,,,"{""Q0"":""kate and ruth are arguing with each other""}","<img src=""stim_listA/argue8.gif""</stim_listA>",are arguing with each other,
null,"<div style=""font-size:60px;"">+</div>",,html-keyboard-response,234,1260981,0.0-17.0-0.2,87096,List2A,black,man,,,,null,,,,
null,"<img src=""stim_listA/marry8.gif""</stim_listA>",,html-keyboard-response,235,1262984,0.0-17.0-1.2,87096,List2A,black,man,,,,null,,,,
null,are marrying each other,,html-keyboard-response,236,1264985,0.0-17.0-2.2,87096,List2A,black,man,,,,null,,,,
6544,,,survey-text,237,1271531,0.0-17.0-3.2,87096,List2A,black,man,,,,,"{""Q0"":""kate and ruth are marrying each other""}","<img src=""stim_listA/marry8.gif""</stim_listA>",are marrying each other,
null,"<div style=""font-size:60px;"">+</div>",,html-keyboard-response,238,1272037,0.0-17.0-0.3,87096,List2A,black,man,,,,null,,,,
null,"<img src=""stim_listA/kiss3.gif""</stim_listA>",,html-keyboard-response,239,1274039,0.0-17.0-1.3,87096,List2A,black,man,,,,null,,,,
null,is kissing,,html-keyboard-response,240,1276040,0.0-17.0-2.3,87096,List2A,black,man,,,,null,,,,
9595,,,survey-text,241,1285637,0.0-17.0-3.3,87096,List2A,black,man,,,,,"{""Q0"":""beth is kissing fred""}","<img src=""stim_listA/kiss3.gif""</stim_listA>",is kissing,
null,"<div style=""font-size:60px;"">+</div>",,html-keyboard-response,242,1286143,0.0-17.0-0.4,87096,List2A,black,man,,,,null,,,,
null,"<img src=""stim_listA/marry5.gif""</stim_listA>",,html-keyboard-response,243,1288148,0.0-17.0-1.4,87096,List2A,black,man,,,,null,,,,
null,is marrying,,html-keyboard-response,244,1290150,0.0-17.0-2.4,87096,List2A,black,man,,,,null,,,,
6574,,,survey-text,245,1296725,0.0-17.0-3.4,87096,List2A,black,man,,,,,"{""Q0"":""dave is marrying fred""}","<img src=""stim_listA/marry5.gif""</stim_listA>",is marrying,
null,"<div style=""font-size:60px;"">+</div>",,html-keyboard-response,246,1297230,0.0-17.0-0.5,87096,List2A,black,man,,,,null,,,,
null,"<img src=""stim_listA/kiss6.gif""</stim_listA>",,html-keyboard-response,247,1299232,0.0-17.0-1.5,87096,List2A,black,man,,,,null,,,,
null,are kissing each other,,html-keyboard-response,248,1301234,0.0-17.0-2.5,87096,List2A,black,man,,,,null,,,,
91335,,,survey-text,249,1392571,0.0-17.0-3.5,87096,List2A,black,man,,,,,"{""Q0"":""mike and dave are kissing each other""}","<img src=""stim_listA/kiss6.gif""</stim_listA>",are kissing each other,
null,"<div style=""font-size:60px;"">+</div>",,html-keyboard-response,250,1393074,0.0-17.0-0.6,87096,List2A,black,man,,,,null,,,,
null,"<img src=""stim_listA/hug8.gif""</stim_listA>",,html-keyboard-response,251,1395078,0.0-17.0-1.6,87096,List2A,black,man,,,,null,,,,
null,are hugging each other,,html-keyboard-response,252,1397083,0.0-17.0-2.6,87096,List2A,black,man,,,,null,,,,
5815,,,survey-text,253,1402900,0.0-17.0-3.6,87096,List2A,black,man,,,,,"{""Q0"":""jane and kate are hugging each other""}","<img src=""stim_listA/hug8.gif""</stim_listA>",are hugging each other,
null,"<div style=""font-size:60px;"">+</div>",,html-keyboard-response,254,1403407,0.0-17.0-0.7,87096,List2A,black,man,,,,null,,,,
null,"<img src=""stim_listA/talk1.gif""</stim_listA>",,html-keyboard-response,255,1405410,0.0-17.0-1.7,87096,List2A,black,man,,,,null,,,,
null,is talking to,,html-keyboard-response,256,1407415,0.0-17.0-2.7,87096,List2A,black,man,,,,null,,,,
8730,,,survey-text,257,1416147,0.0-17.0-3.7,87096,List2A,black,man,,,,,"{""Q0"":""jane is talking to luke""}","<img src=""stim_listA/talk1.gif""</stim_listA>",is talking to,
null,"<div style=""font-size:60px;"">+</div>",,html-keyboard-response,258,1416651,0.0-17.0-0.8,87096,List2A,black,man,,,,null,,,,
null,"<img src=""stim_listA/shout8.gif""</stim_listA>",,html-keyboard-response,259,1418657,0.0-17.0-1.8,87096,List2A,black,man,,,,null,,,,
null,are shouting at each other,,html-keyboard-response,260,1420658,0.0-17.0-2.8,87096,List2A,black,man,,,,null,,,,
6294,,,survey-text,261,1426954,0.0-17.0-3.8,87096,List2A,black,man,,,,,"{""Q0"":""kate and jane are shouting at each other""}","<img src=""stim_listA/shout8.gif""</stim_listA>",are shouting at each other,
null,"<div style=""font-size:60px;"">+</div>",,html-keyboard-response,262,1427460,0.0-17.0-0.9,87096,List2A,black,man,,,,null,,,,
null,"<img src=""stim_listA/dance4.gif""</stim_listA>",,html-keyboard-response,263,1429464,0.0-17.0-1.9,87096,List2A,black,man,,,,null,,,,
null,are dancing with each other,,html-keyboard-response,264,1431469,0.0-17.0-2.9,87096,List2A,black,man,,,,null,,,,
7113,,,survey-text,265,1438584,0.0-17.0-3.9,87096,List2A,black,man,,,,,"{""Q0"":""beth and mike are dancing with each other""}","<img src=""stim_listA/dance4.gif""</stim_listA>",are dancing with each other,
null,"<div style=""font-size:60px;"">+</div>",,html-keyboard-response,266,1439088,0.0-17.0-0.10,87096,List2A,black,man,,,,null,,,,
null,"<img src=""stim_listA/meet2.gif""</stim_listA>",,html-keyboard-response,267,1441092,0.0-17.0-1.10,87096,List2A,black,man,,,,null,,,,
null,are meeting each other,,html-keyboard-response,268,1443094,0.0-17.0-2.10,87096,List2A,black,man,,,,null,,,,
5433,,,survey-text,269,1448529,0.0-17.0-3.10,87096,List2A,black,man,,,,,"{""Q0"":""ruth and luke are meeting each other""}","<img src=""stim_listA/meet2.gif""</stim_listA>",are meeting each other,
null,"<div style=""font-size:60px;"">+</div>",,html-keyboard-response,270,1449033,0.0-17.0-0.11,87096,List2A,black,man,,,,null,,,,
null,"<img src=""stim_listA/shout2.gif""</stim_listA>",,html-keyboard-response,271,1451037,0.0-17.0-1.11,87096,List2A,black,man,,,,null,,,,
null,are shouting at each other,,html-keyboard-response,272,1453043,0.0-17.0-2.11,87096,List2A,black,man,,,,null,,,,
6206,,,survey-text,273,1459251,0.0-17.0-3.11,87096,List2A,black,man,,,,,"{""Q0"":""jane and dave are shouting at each other""}","<img src=""stim_listA/shout2.gif""</stim_listA>",are shouting at each other,
null,"<div style=""font-size:60px;"">+</div>",,html-keyboard-response,274,1459753,0.0-17.0-0.12,87096,List2A,black,man,,,,null,,,,
null,"<img src=""stim_listA/marry6.gif""</stim_listA>",,html-keyboard-response,275,1461756,0.0-17.0-1.12,87096,List2A,black,man,,,,null,,,,
null,are marrying each other,,html-keyboard-response,276,1463761,0.0-17.0-2.12,87096,List2A,black,man,,,,null,,,,
5398,,,survey-text,277,1469159,0.0-17.0-3.12,87096,List2A,black,man,,,,,"{""Q0"":""mike and luke are marrying each other""}","<img src=""stim_listA/marry6.gif""</stim_listA>",are marrying each other,
null,"<div style=""font-size:60px;"">+</div>",,html-keyboard-response,278,1469661,0.0-17.0-0.13,87096,List2A,black,man,,,,null,,,,
null,"<img src=""stim_listA/hug6.gif""</stim_listA>",,html-keyboard-response,279,1471665,0.0-17.0-1.13,87096,List2A,black,man,,,,null,,,,
null,are hugging each other,,html-keyboard-response,280,1473668,0.0-17.0-2.13,87096,List2A,black,man,,,,null,,,,
44220,,,survey-text,281,1517890,0.0-17.0-3.13,87096,List2A,black,man,,,,,"{""Q0"":""mike and dave are hugging each other""}","<img src=""stim_listA/hug6.gif""</stim_listA>",are hugging each other,
null,"<div style=""font-size:60px;"">+</div>",,html-keyboard-response,282,1518394,0.0-17.0-0.14,87096,List2A,black,man,,,,null,,,,
null,"<img src=""stim_listA/dance5.gif""</stim_listA>",,html-keyboard-response,283,1520400,0.0-17.0-1.14,87096,List2A,black,man,,,,null,,,,
null,is dancing with,,html-keyboard-response,284,1522402,0.0-17.0-2.14,87096,List2A,black,man,,,,null,,,,
6318,,,survey-text,285,1528722,0.0-17.0-3.14,87096,List2A,black,man,,,,,"{""Q0"":""luke is dancing with mike""}","<img src=""stim_listA/dance5.gif""</stim_listA>",is dancing with,
null,"<div style=""font-size:60px;"">+</div>",,html-keyboard-response,286,1529228,0.0-17.0-0.15,87096,List2A,black,man,,,,null,,,,
null,"<img src=""stim_listA/fight4.gif""</stim_listA>",,html-keyboard-response,287,1531232,0.0-17.0-1.15,87096,List2A,black,man,,,,null,,,,
null,are fighting each other,,html-keyboard-response,288,1533236,0.0-17.0-2.15,87096,List2A,black,man,,,,null,,,,
9433,,,survey-text,289,1542671,0.0-17.0-3.15,87096,List2A,black,man,,,,,"{""Q0"":""beth and fred are fighting each other""}","<img src=""stim_listA/fight4.gif""</stim_listA>",are fighting each other,
null,"<div style=""font-size:60px;"">+</div>",,html-keyboard-response,290,1543177,0.0-17.0-0.16,87096,List2A,black,man,,,,null,,,,
null,"<img src=""stim_listA/kiss7.gif""</stim_listA>",,html-keyboard-response,291,1545182,0.0-17.0-1.16,87096,List2A,black,man,,,,null,,,,
null,is kissing,,html-keyboard-response,292,1547186,0.0-17.0-2.16,87096,List2A,black,man,,,,null,,,,
5528,,,survey-text,293,1552715,0.0-17.0-3.16,87096,List2A,black,man,,,,,"{""Q0"":""ruth is kissing beth""}","<img src=""stim_listA/kiss7.gif""</stim_listA>",is kissing,
null,"<div style=""font-size:60px;"">+</div>",,html-keyboard-response,294,1553219,0.0-17.0-0.17,87096,List2A,black,man,,,,null,,,,
null,"<img src=""stim_listA/touch1.gif""</stim_listA>",,html-keyboard-response,295,1555223,0.0-17.0-1.17,87096,List2A,black,man,,,,null,,,,
null,is touching,,html-keyboard-response,296,1557226,0.0-17.0-2.17,87096,List2A,black,man,,,,null,,,,
5865,,,survey-text,297,1563093,0.0-17.0-3.17,87096,List2A,black,man,,,,,"{""Q0"":""dave is touching jane""}","<img src=""stim_listA/touch1.gif""</stim_listA>",is touching,
null,"<div style=""font-size:60px;"">+</div>",,html-keyboard-response,298,1563594,0.0-17.0-0.18,87096,List2A,black,man,,,,null,,,,
null,"<img src=""stim_listA/touch5.gif""</stim_listA>",,html-keyboard-response,299,1565598,0.0-17.0-1.18,87096,List2A,black,man,,,,null,,,,
null,is touching,,html-keyboard-response,300,1567599,0.0-17.0-2.18,87096,List2A,black,man,,,,null,,,,
7099,,,survey-text,301,1574701,0.0-17.0-3.18,87096,List2A,black,man,,,,,"{""Q0"":""mike is touching dave""}","<img src=""stim_listA/touch5.gif""</stim_listA>",is touching,
null,"<div style=""font-size:60px;"">+</div>",,html-keyboard-response,302,1575207,0.0-17.0-0.19,87096,List2A,black,man,,,,null,,,,
null,"<img src=""stim_listA/talk2.gif""</stim_listA>",,html-keyboard-response,303,1577211,0.0-17.0-1.19,87096,List2A,black,man,,,,null,,,,
null,are talking to each other,,html-keyboard-response,304,1579212,0.0-17.0-2.19,87096,List2A,black,man,,,,null,,,,
7282,,,survey-text,305,1586494,0.0-17.0-3.19,87096,List2A,black,man,,,,,"{""Q0"":""ruth and dave are talking to each other""}","<img src=""stim_listA/talk2.gif""</stim_listA>",are talking to each other,
1989,"<img src='img/portrait_matrix_list2.JPG' style='width:900px;height:500px;''></img><p>If you have memorised all the portraits and names and are ready to start, press Continue.</p><p><strong>Please note: Your memory of these faces will be tested 4 times during this experiment.</strong></p>",0,html-button-response,306,1588485,0.0-18.0-0.0,87096,List2A,black,man,,,,,,,,
1455,"<img src=""portrait/BW2.jpg""style=""width:400px;height:400px;""></img>",2,html-button-response,307,1590947,0.0-18.0-1.0,87096,List2A,black,man,,TRUE,2,,,,,
null,CORRECT,,html-keyboard-response,308,1592450,0.0-18.0-2.0-0.0,87096,List2A,black,man,,,,null,,,,
2267,"<img src=""portrait/WM1.jpg""style=""width:400px;height:400px;""></img>",6,html-button-response,309,1594719,0.0-18.0-4.0,87096,List2A,black,man,,TRUE,6,,,,,
null,CORRECT,,html-keyboard-response,310,1596228,0.0-18.0-5.0-0.0,87096,List2A,black,man,,,,null,,,,
1494,"<img src=""portrait/WW1.jpg""style=""width:400px;height:400px;""></img>",1,html-button-response,311,1597725,0.0-18.0-7.0,87096,List2A,black,man,,TRUE,1,,,,,
null,CORRECT,,html-keyboard-response,312,1599228,0.0-18.0-8.0-0.0,87096,List2A,black,man,,,,null,,,,
1178,"<img src=""portrait/WW2.jpg""style=""width:400px;height:400px;""></img>",3,html-button-response,313,1600408,0.0-18.0-10.0,87096,List2A,black,man,,TRUE,3,,,,,
null,CORRECT,,html-keyboard-response,314,1601912,0.0-18.0-11.0-0.0,87096,List2A,black,man,,,,null,,,,
1962,"<img src=""portrait/BM1.jpg""style=""width:400px;height:400px;""></img>",4,html-button-response,315,1603876,0.0-18.0-13.0,87096,List2A,black,man,,TRUE,4,,,,,
null,CORRECT,,html-keyboard-response,316,1605382,0.0-18.0-14.0-0.0,87096,List2A,black,man,,,,null,,,,
11148,"<img src=""portrait/BW1.jpg""style=""width:400px;height:400px;""></img>",0,html-button-response,317,1616532,0.0-18.0-16.0,87096,List2A,black,man,,TRUE,0,,,,,
null,CORRECT,,html-keyboard-response,318,1618038,0.0-18.0-17.0-0.0,87096,List2A,black,man,,,,null,,,,
1605,"<img src=""portrait/BM2.jpg""style=""width:400px;height:400px;""></img>",5,html-button-response,319,1619645,0.0-18.0-19.0,87096,List2A,black,man,,TRUE,5,,,,,
null,CORRECT,,html-keyboard-response,320,1621154,0.0-18.0-20.0-0.0,87096,List2A,black,man,,,,null,,,,
2794,"<img src=""portrait/WM2.jpg""style=""width:400px;height:400px;""></img>",7,html-button-response,321,1623949,0.0-18.0-22.0,87096,List2A,black,man,,TRUE,7,,,,,
null,CORRECT,,html-keyboard-response,322,1625451,0.0-18.0-23.0-0.0,87096,List2A,black,man,,,,null,,,,
879,<p>You got 8 out of 8 right first time. Press Continue.</p>,0,html-button-response,323,1626332,0.0-18.0-25.0,87096,List2A,black,man,,,,,,,,
null,"<div style=""font-size:60px;"">+</div>",,html-keyboard-response,324,1627837,0.0-19.0-0.0,87096,List2A,black,man,,,,null,,,,
null,"<img src=""stim_listA/dance2.gif""</stim_listA>",,html-keyboard-response,325,1629840,0.0-19.0-1.0,87096,List2A,black,man,,,,null,,,,
null,are dancing with each other,,html-keyboard-response,326,1631842,0.0-19.0-2.0,87096,List2A,black,man,,,,null,,,,
7465,,,survey-text,327,1639310,0.0-19.0-3.0,87096,List2A,black,man,,,,,"{""Q0"":""ruth and dave are dancing with each other""}","<img src=""stim_listA/dance2.gif""</stim_listA>",are dancing with each other,
null,"<div style=""font-size:60px;"">+</div>",,html-keyboard-response,328,1639815,0.0-19.0-0.1,87096,List2A,black,man,,,,null,,,,
null,"<img src=""stim_listA/talk4.gif""</stim_listA>",,html-keyboard-response,329,1641816,0.0-19.0-1.1,87096,List2A,black,man,,,,null,,,,
null,are talking to each other,,html-keyboard-response,330,1643819,0.0-19.0-2.1,87096,List2A,black,man,,,,null,,,,
7164,,,survey-text,331,1650985,0.0-19.0-3.1,87096,List2A,black,man,,,,,"{""Q0"":""beth and mike are talking to each other""}","<img src=""stim_listA/talk4.gif""</stim_listA>",are talking to each other,
null,"<div style=""font-size:60px;"">+</div>",,html-keyboard-response,332,1651489,0.0-19.0-0.2,87096,List2A,black,man,,,,null,,,,
null,"<img src=""stim_listA/touch8.gif""</stim_listA>",,html-keyboard-response,333,1653491,0.0-19.0-1.2,87096,List2A,black,man,,,,null,,,,
null,are touching each other,,html-keyboard-response,334,1655495,0.0-19.0-2.2,87096,List2A,black,man,,,,null,,,,
6335,,,survey-text,335,1661831,0.0-19.0-3.2,87096,List2A,black,man,,,,,"{""Q0"":""beth and ruth are touching each other""}","<img src=""stim_listA/touch8.gif""</stim_listA>",are touching each other,
null,"<div style=""font-size:60px;"">+</div>",,html-keyboard-response,336,1662336,0.0-19.0-0.3,87096,List2A,black,man,,,,null,,,,
null,"<img src=""stim_listA/shout6.gif""</stim_listA>",,html-keyboard-response,337,1664339,0.0-19.0-1.3,87096,List2A,black,man,,,,null,,,,
null,are shouting at each other,,html-keyboard-response,338,1666340,0.0-19.0-2.3,87096,List2A,black,man,,,,null,,,,
5161,,,survey-text,339,1671501,0.0-19.0-3.3,87096,List2A,black,man,,,,,"{""Q0"":""mike and dave are shouting at each other""}","<img src=""stim_listA/shout6.gif""</stim_listA>",are shouting at each other,
null,"<div style=""font-size:60px;"">+</div>",,html-keyboard-response,340,1672003,0.0-19.0-0.4,87096,List2A,black,man,,,,null,,,,
null,"<img src=""stim_listA/fight5.gif""</stim_listA>",,html-keyboard-response,341,1674008,0.0-19.0-1.4,87096,List2A,black,man,,,,null,,,,
null,is fighting,,html-keyboard-response,342,1676010,0.0-19.0-2.4,87096,List2A,black,man,,,,null,,,,
3793,,,survey-text,343,1679803,0.0-19.0-3.4,87096,List2A,black,man,,,,,"{""Q0"":""dave is fighting mike""}","<img src=""stim_listA/fight5.gif""</stim_listA>",is fighting,
null,"<div style=""font-size:60px;"">+</div>",,html-keyboard-response,344,1680305,0.0-19.0-0.5,87096,List2A,black,man,,,,null,,,,
null,"<img src=""stim_listA/meet7.gif""</stim_listA>",,html-keyboard-response,345,1682310,0.0-19.0-1.5,87096,List2A,black,man,,,,null,,,,
null,is meeting,,html-keyboard-response,346,1684312,0.0-19.0-2.5,87096,List2A,black,man,,,,null,,,,
6719,,,survey-text,347,1691033,0.0-19.0-3.5,87096,List2A,black,man,,,,,"{""Q0"":""jane is meeting kate""}","<img src=""stim_listA/meet7.gif""</stim_listA>",is meeting,
null,"<div style=""font-size:60px;"">+</div>",,html-keyboard-response,348,1691536,0.0-19.0-0.6,87096,List2A,black,man,,,,null,,,,
null,"<img src=""stim_listA/kiss1.gif""</stim_listA>",,html-keyboard-response,349,1693537,0.0-19.0-1.6,87096,List2A,black,man,,,,null,,,,
null,is kissing,,html-keyboard-response,350,1695538,0.0-19.0-2.6,87096,List2A,black,man,,,,null,,,,
9968,,,survey-text,351,1705507,0.0-19.0-3.6,87096,List2A,black,man,,,,,"{""Q0"":""luke is kissing ruth""}","<img src=""stim_listA/kiss1.gif""</stim_listA>",is kissing,
null,"<div style=""font-size:60px;"">+</div>",,html-keyboard-response,352,1706012,0.0-19.0-0.7,87096,List2A,black,man,,,,null,,,,
null,"<img src=""stim_listA/kiss8.gif""</stim_listA>",,html-keyboard-response,353,1708017,0.0-19.0-1.7,87096,List2A,black,man,,,,null,,,,
null,are kissing each other,,html-keyboard-response,354,1710021,0.0-19.0-2.7,87096,List2A,black,man,,,,null,,,,
10271,,,survey-text,355,1720293,0.0-19.0-3.7,87096,List2A,black,man,,,,,"{""Q0"":""kate and jane are kissing each other""}","<img src=""stim_listA/kiss8.gif""</stim_listA>",are kissing each other,
null,"<div style=""font-size:60px;"">+</div>",,html-keyboard-response,356,1720798,0.0-19.0-0.8,87096,List2A,black,man,,,,null,,,,
null,"<img src=""stim_listA/argue7.gif""</stim_listA>",,html-keyboard-response,357,1722801,0.0-19.0-1.8,87096,List2A,black,man,,,,null,,,,
null,is arguing with,,html-keyboard-response,358,1724804,0.0-19.0-2.8,87096,List2A,black,man,,,,null,,,,
8950,,,survey-text,359,1733756,0.0-19.0-3.8,87096,List2A,black,man,,,,,"{""Q0"":""jane is arguing with beth""}","<img src=""stim_listA/argue7.gif""</stim_listA>",is arguing with,
null,"<div style=""font-size:60px;"">+</div>",,html-keyboard-response,360,1734260,0.0-19.0-0.9,87096,List2A,black,man,,,,null,,,,
null,"<img src=""stim_listA/talk6.gif""</stim_listA>",,html-keyboard-response,361,1736264,0.0-19.0-1.9,87096,List2A,black,man,,,,null,,,,
null,are talking to each other,,html-keyboard-response,362,1738269,0.0-19.0-2.9,87096,List2A,black,man,,,,null,,,,
7583,,,survey-text,363,1745854,0.0-19.0-3.9,87096,List2A,black,man,,,,,"{""Q0"":""fred and dave are talking to each other""}","<img src=""stim_listA/talk6.gif""</stim_listA>",are talking to each other,
null,"<div style=""font-size:60px;"">+</div>",,html-keyboard-response,364,1746359,0.0-19.0-0.10,87096,List2A,black,man,,,,null,,,,
null,"<img src=""stim_listA/talk3.gif""</stim_listA>",,html-keyboard-response,365,1748363,0.0-19.0-1.10,87096,List2A,black,man,,,,null,,,,
null,is talking to,,html-keyboard-response,366,1750365,0.0-19.0-2.10,87096,List2A,black,man,,,,null,,,,
4679,,,survey-text,367,1755045,0.0-19.0-3.10,87096,List2A,black,man,,,,,"{""Q0"":""fred is talking to kate""}","<img src=""stim_listA/talk3.gif""</stim_listA>",is talking to,
null,"<div style=""font-size:60px;"">+</div>",,html-keyboard-response,368,1755549,0.0-19.0-0.11,87096,List2A,black,man,,,,null,,,,
null,"<img src=""stim_listA/shout5.gif""</stim_listA>",,html-keyboard-response,369,1757552,0.0-19.0-1.11,87096,List2A,black,man,,,,null,,,,
null,is shouting at,,html-keyboard-response,370,1759558,0.0-19.0-2.11,87096,List2A,black,man,,,,null,,,,
9392,,,survey-text,371,1768951,0.0-19.0-3.11,87096,List2A,black,man,,,,,"{""Q0"":""luke is shouting at fred""}","<img src=""stim_listA/shout5.gif""</stim_listA>",is shouting at,
null,"<div style=""font-size:60px;"">+</div>",,html-keyboard-response,372,1769452,0.0-19.0-0.12,87096,List2A,black,man,,,,null,,,,
null,"<img src=""stim_listA/kiss5.gif""</stim_listA>",,html-keyboard-response,373,1771457,0.0-19.0-1.12,87096,List2A,black,man,,,,null,,,,
null,is kissing,,html-keyboard-response,374,1773458,0.0-19.0-2.12,87096,List2A,black,man,,,,null,,,,
7772,,,survey-text,375,1781232,0.0-19.0-3.12,87096,List2A,black,man,,,,,"{""Q0"":""luke is kissing fred""}","<img src=""stim_listA/kiss5.gif""</stim_listA>",is kissing,
null,"<div style=""font-size:60px;"">+</div>",,html-keyboard-response,376,1781735,0.0-19.0-0.13,87096,List2A,black,man,,,,null,,,,
null,"<img src=""stim_listA/meet8.gif""</stim_listA>",,html-keyboard-response,377,1783740,0.0-19.0-1.13,87096,List2A,black,man,,,,null,,,,
null,are meeting each other,,html-keyboard-response,378,1785741,0.0-19.0-2.13,87096,List2A,black,man,,,,null,,,,
61409,,,survey-text,379,1847151,0.0-19.0-3.13,87096,List2A,black,man,,,,,"{""Q0"":""beth and ruth are meeting each other""}","<img src=""stim_listA/meet8.gif""</stim_listA>",are meeting each other,
null,"<div style=""font-size:60px;"">+</div>",,html-keyboard-response,380,1847657,0.0-19.0-0.14,87096,List2A,black,man,,,,null,,,,
null,"<img src=""stim_listA/argue6.gif""</stim_listA>",,html-keyboard-response,381,1849663,0.0-19.0-1.14,87096,List2A,black,man,,,,null,,,,
null,are arguing with each other,,html-keyboard-response,382,1851664,0.0-19.0-2.14,87096,List2A,black,man,,,,null,,,,
14675,,,survey-text,383,1866342,0.0-19.0-3.14,87096,List2A,black,man,,,,,"{""Q0"":""mike and luke are arguing with each other""}","<img src=""stim_listA/argue6.gif""</stim_listA>",are arguing with each other,
null,"<div style=""font-size:60px;"">+</div>",,html-keyboard-response,384,1866846,0.0-19.0-0.15,87096,List2A,black,man,,,,null,,,,
null,"<img src=""stim_listA/hug3.gif""</stim_listA>",,html-keyboard-response,385,1868852,0.0-19.0-1.15,87096,List2A,black,man,,,,null,,,,
null,is hugging,,html-keyboard-response,386,1870852,0.0-19.0-2.15,87096,List2A,black,man,,,,null,,,,
4709,,,survey-text,387,1875562,0.0-19.0-3.15,87096,List2A,black,man,,,,,"{""Q0"":""beth is hugging fred""}","<img src=""stim_listA/hug3.gif""</stim_listA>",is hugging,
null,"<div style=""font-size:60px;"">+</div>",,html-keyboard-response,388,1876066,0.0-19.0-0.16,87096,List2A,black,man,,,,null,,,,
null,"<img src=""stim_listA/meet1.gif""</stim_listA>",,html-keyboard-response,389,1878072,0.0-19.0-1.16,87096,List2A,black,man,,,,null,,,,
null,is meeting,,html-keyboard-response,390,1880076,0.0-19.0-2.16,87096,List2A,black,man,,,,null,,,,
48826,,,survey-text,391,1928903,0.0-19.0-3.16,87096,List2A,black,man,,,,,"{""Q0"":""dave is meeting jane""}","<img src=""stim_listA/meet1.gif""</stim_listA>",is meeting,
null,"<div style=""font-size:60px;"">+</div>",,html-keyboard-response,392,1929408,0.0-19.0-0.17,87096,List2A,black,man,,,,null,,,,
null,"<img src=""stim_listA/shout3.gif""</stim_listA>",,html-keyboard-response,393,1931413,0.0-19.0-1.17,87096,List2A,black,man,,,,null,,,,
null,is shouting at,,html-keyboard-response,394,1933416,0.0-19.0-2.17,87096,List2A,black,man,,,,null,,,,
7091,,,survey-text,395,1940508,0.0-19.0-3.17,87096,List2A,black,man,,,,,"{""Q0"":""beth is shouting at fred""}","<img src=""stim_listA/shout3.gif""</stim_listA>",is shouting at,
null,"<div style=""font-size:60px;"">+</div>",,html-keyboard-response,396,1941012,0.0-19.0-0.18,87096,List2A,black,man,,,,null,,,,
null,"<img src=""stim_listA/talk8.gif""</stim_listA>",,html-keyboard-response,397,1943017,0.0-19.0-1.18,87096,List2A,black,man,,,,null,,,,
null,are talking to each other,,html-keyboard-response,398,1945021,0.0-19.0-2.18,87096,List2A,black,man,,,,null,,,,
5541,,,survey-text,399,1950564,0.0-19.0-3.18,87096,List2A,black,man,,,,,"{""Q0"":""beth and jane are talking to each other""}","<img src=""stim_listA/talk8.gif""</stim_listA>",are talking to each other,
null,"<div style=""font-size:60px;"">+</div>",,html-keyboard-response,400,1951068,0.0-19.0-0.19,87096,List2A,black,man,,,,null,,,,
null,"<img src=""stim_listA/kiss2.gif""</stim_listA>",,html-keyboard-response,401,1953070,0.0-19.0-1.19,87096,List2A,black,man,,,,null,,,,
null,are kissing each other,,html-keyboard-response,402,1955071,0.0-19.0-2.19,87096,List2A,black,man,,,,null,,,,
6416,,,survey-text,403,1961488,0.0-19.0-3.19,87096,List2A,black,man,,,,,"{""Q0"":""jane and dave are kissing each other""}","<img src=""stim_listA/kiss2.gif""</stim_listA>",are kissing each other,
4040,<p>Thank you for completing that task.</p><p>The final part of this session is a short questionnaire.</p><p>Press Continue.</p>,0,html-button-response,404,1965529,0.0-20.0,87096,List2A,black,man,,,,,,,,
19036,,,survey-text,405,1985573,0.0-21.0,87096,List2A,black,man,,,,,"{""Q0"":""22"",""Q1"":""English"",""Q2"":""English"",""Q3"":""England"",""Q4"":""Black"",""Q5"":""Male""}",,,demographics
97468,,,survey-likert,406,2083047,0.0-22.0,87096,List2A,black,man,,,,,"{""Q0"":1,""Q1"":5,""Q2"":2,""Q3"":3,""Q4"":3,""Q5"":3,""Q6"":4,""Q7"":4,""Q8"":3,""Q9"":4,""Q10"":1,""Q11"":1,""Q12"":4,""Q13"":1}",,,likert_race
78332,,,survey-likert,407,2161386,0.0-23.0,87096,List2A,black,man,,,,,"{""Q0"":3,""Q1"":2,""Q2"":3,""Q3"":5,""Q4"":4,""Q5"":5,""Q6"":4,""Q7"":1,""Q8"":4,""Q9"":4,""Q10"":2,""Q11"":2,""Q12"":2,""Q13"":4}",,,likert_gender
26764,,,survey-text,408,2188156,0.0-24.0,87096,List2A,black,man,,,,,"{""Q0"":""ccc""}",,,worker_id
93304,,,external-html,409,2281600,0.0-25.0,87096,List2A,black,man,debrief.html,,,,,,,
