rt,stimulus,button_pressed,trial_type,trial_index,time_elapsed,internal_node_id,subject,list,ppt_race,ppt_gender,url,first_guess,correct,key_press,responses,image_type,phrase_type,test_part
2943,Welcome to the experiment. Press Continue to begin.,0,html-button-response,0,2947,0.0-0.0,87700,List2A,white,man,,,,,,,,
9287,,,external-html,1,13285,0.0-1.0,87700,List2A,white,man,consent.html,,,,,,,
20656,"<p>On the next page, you will see portraits of 8 people and their names.</p><p>Your first task is to take a few minutes to memorise the names of these people.</p><p>You will have to recall their names during the rest of the experiment, so it is</p><p>essential that you try to memorise these people and their names as best as you can.</p><br><p><strong>You will then be tested on your memory of these names and portraits.</strong></p><br><p>The experiment will start after you have completed this memory test.</p><br><p>Ready?</p>",0,html-button-response,2,33945,0.0-2.0,87700,List2A,white,man,,,,,,,,
40786,"<img src='img/portrait_matrix_list2.JPG' style='width:900px;height:500px;''></img><p>If you have memorised all the portraits and names and are ready to start, press Continue.</p><p><strong>Please note: Your memory of these faces will be tested 4 times during this experiment.</strong></p>",0,html-button-response,3,75751,0.0-3.0-0.0,87700,List2A,white,man,,,,,,,,
2966,"<img src=""portrait/WM1.jpg""style=""width:400px;height:400px;""></img>",6,html-button-response,4,79723,0.0-3.0-1.0,87700,List2A,white,man,,TRUE,6,,,,,
null,CORRECT,,html-keyboard-response,5,81265,0.0-3.0-2.0-0.0,87700,List2A,white,man,,,,null,,,,
14438,"<img src=""portrait/WW2.jpg""style=""width:400px;height:400px;""></img>",3,html-button-response,6,95707,0.0-3.0-4.0,87700,List2A,white,man,,TRUE,3,,,,,
null,CORRECT,,html-keyboard-response,7,97229,0.0-3.0-5.0-0.0,87700,List2A,white,man,,,,null,,,,
3572,"<img src=""portrait/BM1.jpg""style=""width:400px;height:400px;""></img>",4,html-button-response,8,100807,0.0-3.0-7.0,87700,List2A,white,man,,TRUE,4,,,,,
null,CORRECT,,html-keyboard-response,9,102358,0.0-3.0-8.0-0.0,87700,List2A,white,man,,,,null,,,,
3060,"<img src=""portrait/WM2.jpg""style=""width:400px;height:400px;""></img>",7,html-button-response,10,105422,0.0-3.0-10.0,87700,List2A,white,man,,TRUE,7,,,,,
null,CORRECT,,html-keyboard-response,11,106961,0.0-3.0-11.0-0.0,87700,List2A,white,man,,,,null,,,,
3859,"<img src=""portrait/BW2.jpg""style=""width:400px;height:400px;""></img>",2,html-button-response,12,110825,0.0-3.0-13.0,87700,List2A,white,man,,TRUE,2,,,,,
null,CORRECT,,html-keyboard-response,13,112358,0.0-3.0-14.0-0.0,87700,List2A,white,man,,,,null,,,,
3160,"<img src=""portrait/BM2.jpg""style=""width:400px;height:400px;""></img>",5,html-button-response,14,115522,0.0-3.0-16.0,87700,List2A,white,man,,TRUE,5,,,,,
null,CORRECT,,html-keyboard-response,15,117063,0.0-3.0-17.0-0.0,87700,List2A,white,man,,,,null,,,,
4343,"<img src=""portrait/WW1.jpg""style=""width:400px;height:400px;""></img>",1,html-button-response,16,121410,0.0-3.0-19.0,87700,List2A,white,man,,TRUE,1,,,,,
null,CORRECT,,html-keyboard-response,17,122955,0.0-3.0-20.0-0.0,87700,List2A,white,man,,,,null,,,,
4617,"<img src=""portrait/BW1.jpg""style=""width:400px;height:400px;""></img>",0,html-button-response,18,127577,0.0-3.0-22.0,87700,List2A,white,man,,TRUE,0,,,,,
null,CORRECT,,html-keyboard-response,19,129114,0.0-3.0-23.0-0.0,87700,List2A,white,man,,,,null,,,,
2227,<p>You got 8 out of 8 right first time. Press Continue.</p>,0,html-button-response,20,131344,0.0-3.0-25.0,87700,List2A,white,man,,,,,,,,
33218,"<p>In this experiment, you will view photographs of the people from the memory game interacting.</p><p>By using the <strong>exact</strong> phrase given <i>after</i> the photograph appears and recalling the correct names of the people in the photographs, form a sentence describing the interaction. You do not need to capitalise names.</p><p>Type your answer in the space provided. Please complete every sentence before moving onto the next trial.</p><p>You will only have a few seconds to memorise each given photograph and phrase before you can respond, so try your best to focus.</p><p>An example is given below. Press 'Continue' when you are ready.</p><img src='img/speaking_example_v2.jpg' style='width:800px;height:460px;''></img>",0,html-button-response,21,165594,0.0-4.0,87700,List2A,white,man,,,,,,,,
6859,"<p>Before the experiment starts, you will watch two example trials. Press 'Continue'.</p>",0,html-button-response,22,173467,0.0-5.0,87700,List2A,white,man,,,,,,,,
null,<img src='img/speaking_WW.gif'></img>,,html-keyboard-response,23,176508,0.0-6.0,87700,List2A,white,man,,,,null,,,,
null,<p>is speaking to</p>,,html-keyboard-response,24,178512,0.0-7.0,87700,List2A,white,man,,,,null,,,,
4191,<p><b>Answer:</b> jane is speaking to ruth</p>,0,html-button-response,25,182706,0.0-8.0,87700,List2A,white,man,,,,,,,,
null,<img src='img/pointing_BM.gif'></img>,,html-keyboard-response,26,185745,0.0-9.0,87700,List2A,white,man,,,,null,,,,
null,<p>are pointing at each other</p>,,html-keyboard-response,27,187744,0.0-10.0,87700,List2A,white,man,,,,null,,,,
6164,<p><b>Answer:</b> fred and mike are pointing at each other</p>,0,html-button-response,28,193910,0.0-11.0,87700,List2A,white,man,,,,,,,,
16374,"<p>Ready to start the experiment?</p><br><p><strong>Remember to describe the picture using a full sentence,</strong></p><p><strong>that combines the names of the people with the given phrase.</strong></p><p><strong>If you do not do this correctly you will not be paid.</strong></p><p><strong> You do not need to capitalise names or use punctuation.</strong></p><br><p>Press 'Continue' to begin.</p>",0,html-button-response,29,211303,0.0-12.0,87700,List2A,white,man,,,,,,,,
null,"<div style=""font-size:60px;"">+</div>",,html-keyboard-response,30,212830,0.0-13.0-0.0,87700,List2A,white,man,,,,null,,,,
null,"<img src=""stim_listA/fight6.gif""</stim_listA>",,html-keyboard-response,31,214837,0.0-13.0-1.0,87700,List2A,white,man,,,,null,,,,
null,are fighting each other,,html-keyboard-response,32,216855,0.0-13.0-2.0,87700,List2A,white,man,,,,null,,,,
18685,,,survey-text,33,235543,0.0-13.0-3.0,87700,List2A,white,man,,,,,"{""Q0"":""fred and luke are fighting each other""}","<img src=""stim_listA/fight6.gif""</stim_listA>",are fighting each other,
null,"<div style=""font-size:60px;"">+</div>",,html-keyboard-response,34,236053,0.0-13.0-0.1,87700,List2A,white,man,,,,null,,,,
null,"<img src=""stim_listA/dance2.gif""</stim_listA>",,html-keyboard-response,35,238078,0.0-13.0-1.1,87700,List2A,white,man,,,,null,,,,
null,are dancing with each other,,html-keyboard-response,36,240061,0.0-13.0-2.1,87700,List2A,white,man,,,,null,,,,
22653,,,survey-text,37,262717,0.0-13.0-3.1,87700,List2A,white,man,,,,,"{""Q0"":""dave and ruth are dancing with each other""}","<img src=""stim_listA/dance2.gif""</stim_listA>",are dancing with each other,
null,"<div style=""font-size:60px;"">+</div>",,html-keyboard-response,38,263239,0.0-13.0-0.2,87700,List2A,white,man,,,,null,,,,
null,"<img src=""stim_listA/marry3.gif""</stim_listA>",,html-keyboard-response,39,265255,0.0-13.0-1.2,87700,List2A,white,man,,,,null,,,,
null,is marrying,,html-keyboard-response,40,267262,0.0-13.0-2.2,87700,List2A,white,man,,,,null,,,,
12842,,,survey-text,41,280107,0.0-13.0-3.2,87700,List2A,white,man,,,,,"{""Q0"":""mike is marrying beth""}","<img src=""stim_listA/marry3.gif""</stim_listA>",is marrying,
null,"<div style=""font-size:60px;"">+</div>",,html-keyboard-response,42,280631,0.0-13.0-0.3,87700,List2A,white,man,,,,null,,,,
null,"<img src=""stim_listA/talk4.gif""</stim_listA>",,html-keyboard-response,43,282647,0.0-13.0-1.3,87700,List2A,white,man,,,,null,,,,
null,are talking to each other,,html-keyboard-response,44,284650,0.0-13.0-2.3,87700,List2A,white,man,,,,null,,,,
13777,,,survey-text,45,298431,0.0-13.0-3.3,87700,List2A,white,man,,,,,"{""Q0"":""beth and mike are talking to each other""}","<img src=""stim_listA/talk4.gif""</stim_listA>",are talking to each other,
null,"<div style=""font-size:60px;"">+</div>",,html-keyboard-response,46,298948,0.0-13.0-0.4,87700,List2A,white,man,,,,null,,,,
null,"<img src=""stim_listA/kiss4.gif""</stim_listA>",,html-keyboard-response,47,300966,0.0-13.0-1.4,87700,List2A,white,man,,,,null,,,,
null,are kissing each other,,html-keyboard-response,48,302952,0.0-13.0-2.4,87700,List2A,white,man,,,,null,,,,
12587,,,survey-text,49,315544,0.0-13.0-3.4,87700,List2A,white,man,,,,,"{""Q0"":""mike and kate are kissing each other""}","<img src=""stim_listA/kiss4.gif""</stim_listA>",are kissing each other,
null,"<div style=""font-size:60px;"">+</div>",,html-keyboard-response,50,316067,0.0-13.0-0.5,87700,List2A,white,man,,,,null,,,,
null,"<img src=""stim_listA/shout3.gif""</stim_listA>",,html-keyboard-response,51,318097,0.0-13.0-1.5,87700,List2A,white,man,,,,null,,,,
null,is shouting at,,html-keyboard-response,52,320084,0.0-13.0-2.5,87700,List2A,white,man,,,,null,,,,
11352,,,survey-text,53,331438,0.0-13.0-3.5,87700,List2A,white,man,,,,,"{""Q0"":""fred is shouting at beth""}","<img src=""stim_listA/shout3.gif""</stim_listA>",is shouting at,
null,"<div style=""font-size:60px;"">+</div>",,html-keyboard-response,54,331954,0.0-13.0-0.6,87700,List2A,white,man,,,,null,,,,
null,"<img src=""stim_listA/talk8.gif""</stim_listA>",,html-keyboard-response,55,333972,0.0-13.0-1.6,87700,List2A,white,man,,,,null,,,,
null,are talking to each other,,html-keyboard-response,56,335962,0.0-13.0-2.6,87700,List2A,white,man,,,,null,,,,
16079,,,survey-text,57,352044,0.0-13.0-3.6,87700,List2A,white,man,,,,,"{""Q0"":""beth and jane are talking to each other""}","<img src=""stim_listA/talk8.gif""</stim_listA>",are talking to each other,
null,"<div style=""font-size:60px;"">+</div>",,html-keyboard-response,58,352554,0.0-13.0-0.7,87700,List2A,white,man,,,,null,,,,
null,"<img src=""stim_listA/dance1.gif""</stim_listA>",,html-keyboard-response,59,354573,0.0-13.0-1.7,87700,List2A,white,man,,,,null,,,,
null,is dancing with,,html-keyboard-response,60,356575,0.0-13.0-2.7,87700,List2A,white,man,,,,null,,,,
10463,,,survey-text,61,367040,0.0-13.0-3.7,87700,List2A,white,man,,,,,"{""Q0"":""jane is dancing with luke""}","<img src=""stim_listA/dance1.gif""</stim_listA>",is dancing with,
null,"<div style=""font-size:60px;"">+</div>",,html-keyboard-response,62,367564,0.0-13.0-0.8,87700,List2A,white,man,,,,null,,,,
null,"<img src=""stim_listA/hug6.gif""</stim_listA>",,html-keyboard-response,63,369584,0.0-13.0-1.8,87700,List2A,white,man,,,,null,,,,
null,are hugging each other,,html-keyboard-response,64,371588,0.0-13.0-2.8,87700,List2A,white,man,,,,null,,,,
17763,,,survey-text,65,389355,0.0-13.0-3.8,87700,List2A,white,man,,,,,"{""Q0"":""mike and dave are hugging each other""}","<img src=""stim_listA/hug6.gif""</stim_listA>",are hugging each other,
null,"<div style=""font-size:60px;"">+</div>",,html-keyboard-response,66,389887,0.0-13.0-0.9,87700,List2A,white,man,,,,null,,,,
null,"<img src=""stim_listA/shout2.gif""</stim_listA>",,html-keyboard-response,67,391903,0.0-13.0-1.9,87700,List2A,white,man,,,,null,,,,
null,are shouting at each other,,html-keyboard-response,68,393910,0.0-13.0-2.9,87700,List2A,white,man,,,,null,,,,
11375,,,survey-text,69,405289,0.0-13.0-3.9,87700,List2A,white,man,,,,,"{""Q0"":""dave and jane are shouting at each other""}","<img src=""stim_listA/shout2.gif""</stim_listA>",are shouting at each other,
null,"<div style=""font-size:60px;"">+</div>",,html-keyboard-response,70,405802,0.0-13.0-0.10,87700,List2A,white,man,,,,null,,,,
null,"<img src=""stim_listA/argue7.gif""</stim_listA>",,html-keyboard-response,71,407826,0.0-13.0-1.10,87700,List2A,white,man,,,,null,,,,
null,is arguing with,,html-keyboard-response,72,409831,0.0-13.0-2.10,87700,List2A,white,man,,,,null,,,,
27869,,,survey-text,73,437705,0.0-13.0-3.10,87700,List2A,white,man,,,,,"{""Q0"":""ruth and kate are dancing with each other""}","<img src=""stim_listA/argue7.gif""</stim_listA>",is arguing with,
null,"<div style=""font-size:60px;"">+</div>",,html-keyboard-response,74,438212,0.0-13.0-0.11,87700,List2A,white,man,,,,null,,,,
null,"<img src=""stim_listA/hug1.gif""</stim_listA>",,html-keyboard-response,75,440221,0.0-13.0-1.11,87700,List2A,white,man,,,,null,,,,
null,is hugging,,html-keyboard-response,76,442235,0.0-13.0-2.11,87700,List2A,white,man,,,,null,,,,
9779,,,survey-text,77,452018,0.0-13.0-3.11,87700,List2A,white,man,,,,,"{""Q0"":""luke is hugging ruth""}","<img src=""stim_listA/hug1.gif""</stim_listA>",is hugging,
null,"<div style=""font-size:60px;"">+</div>",,html-keyboard-response,78,452530,0.0-13.0-0.12,87700,List2A,white,man,,,,null,,,,
null,"<img src=""stim_listA/meet2.gif""</stim_listA>",,html-keyboard-response,79,454551,0.0-13.0-1.12,87700,List2A,white,man,,,,null,,,,
null,are meeting each other,,html-keyboard-response,80,456552,0.0-13.0-2.12,87700,List2A,white,man,,,,null,,,,
19844,,,survey-text,81,476401,0.0-13.0-3.12,87700,List2A,white,man,,,,,"{""Q0"":""luke and ruth are meeting each other""}","<img src=""stim_listA/meet2.gif""</stim_listA>",are meeting each other,
null,"<div style=""font-size:60px;"">+</div>",,html-keyboard-response,82,476913,0.0-13.0-0.13,87700,List2A,white,man,,,,null,,,,
null,"<img src=""stim_listA/meet1.gif""</stim_listA>",,html-keyboard-response,83,478932,0.0-13.0-1.13,87700,List2A,white,man,,,,null,,,,
null,is meeting,,html-keyboard-response,84,480937,0.0-13.0-2.13,87700,List2A,white,man,,,,null,,,,
14416,,,survey-text,85,495356,0.0-13.0-3.13,87700,List2A,white,man,,,,,"{""Q0"":""dave is meeting jane""}","<img src=""stim_listA/meet1.gif""</stim_listA>",is meeting,
null,"<div style=""font-size:60px;"">+</div>",,html-keyboard-response,86,495866,0.0-13.0-0.14,87700,List2A,white,man,,,,null,,,,
null,"<img src=""stim_listA/kiss2.gif""</stim_listA>",,html-keyboard-response,87,497879,0.0-13.0-1.14,87700,List2A,white,man,,,,null,,,,
null,are kissing each other,,html-keyboard-response,88,499898,0.0-13.0-2.14,87700,List2A,white,man,,,,null,,,,
12707,,,survey-text,89,512610,0.0-13.0-3.14,87700,List2A,white,man,,,,,"{""Q0"":""dave and ruth are kissing each other""}","<img src=""stim_listA/kiss2.gif""</stim_listA>",are kissing each other,
null,"<div style=""font-size:60px;"">+</div>",,html-keyboard-response,90,513118,0.0-13.0-0.15,87700,List2A,white,man,,,,null,,,,
null,"<img src=""stim_listA/meet7.gif""</stim_listA>",,html-keyboard-response,91,515128,0.0-13.0-1.15,87700,List2A,white,man,,,,null,,,,
null,is meeting,,html-keyboard-response,92,517130,0.0-13.0-2.15,87700,List2A,white,man,,,,null,,,,
8604,,,survey-text,93,525734,0.0-13.0-3.15,87700,List2A,white,man,,,,,"{""Q0"":""jane is meeting kate""}","<img src=""stim_listA/meet7.gif""</stim_listA>",is meeting,
null,"<div style=""font-size:60px;"">+</div>",,html-keyboard-response,94,526237,0.0-13.0-0.16,87700,List2A,white,man,,,,null,,,,
null,"<img src=""stim_listA/dance6.gif""</stim_listA>",,html-keyboard-response,95,528254,0.0-13.0-1.16,87700,List2A,white,man,,,,null,,,,
null,are dancing with each other,,html-keyboard-response,96,530256,0.0-13.0-2.16,87700,List2A,white,man,,,,null,,,,
14744,,,survey-text,97,545003,0.0-13.0-3.16,87700,List2A,white,man,,,,,"{""Q0"":""dave and fred are dancing with each other""}","<img src=""stim_listA/dance6.gif""</stim_listA>",are dancing with each other,
null,"<div style=""font-size:60px;"">+</div>",,html-keyboard-response,98,545531,0.0-13.0-0.17,87700,List2A,white,man,,,,null,,,,
null,"<img src=""stim_listA/hug3.gif""</stim_listA>",,html-keyboard-response,99,547551,0.0-13.0-1.17,87700,List2A,white,man,,,,null,,,,
null,is hugging,,html-keyboard-response,100,549541,0.0-13.0-2.17,87700,List2A,white,man,,,,null,,,,
10130,,,survey-text,101,559674,0.0-13.0-3.17,87700,List2A,white,man,,,,,"{""Q0"":""fred is hugging beth""}","<img src=""stim_listA/hug3.gif""</stim_listA>",is hugging,
null,"<div style=""font-size:60px;"">+</div>",,html-keyboard-response,102,560196,0.0-13.0-0.18,87700,List2A,white,man,,,,null,,,,
null,"<img src=""stim_listA/shout5.gif""</stim_listA>",,html-keyboard-response,103,562219,0.0-13.0-1.18,87700,List2A,white,man,,,,null,,,,
null,is shouting at,,html-keyboard-response,104,564199,0.0-13.0-2.18,87700,List2A,white,man,,,,null,,,,
9792,,,survey-text,105,573992,0.0-13.0-3.18,87700,List2A,white,man,,,,,"{""Q0"":""luke is shouting at fred""}","<img src=""stim_listA/shout5.gif""</stim_listA>",is shouting at,
null,"<div style=""font-size:60px;"">+</div>",,html-keyboard-response,106,574525,0.0-13.0-0.19,87700,List2A,white,man,,,,null,,,,
null,"<img src=""stim_listA/touch2.gif""</stim_listA>",,html-keyboard-response,107,576560,0.0-13.0-1.19,87700,List2A,white,man,,,,null,,,,
null,are touching each other,,html-keyboard-response,108,578559,0.0-13.0-2.19,87700,List2A,white,man,,,,null,,,,
16468,,,survey-text,109,595029,0.0-13.0-3.19,87700,List2A,white,man,,,,,"{""Q0"":""luke is touching ruth""}","<img src=""stim_listA/touch2.gif""</stim_listA>",are touching each other,
14838,"<img src='img/portrait_matrix_list2.JPG' style='width:900px;height:500px;''></img><p>If you have memorised all the portraits and names and are ready to start, press Continue.</p><p><strong>Please note: Your memory of these faces will be tested 4 times during this experiment.</strong></p>",0,html-button-response,110,609874,0.0-14.0-0.0,87700,List2A,white,man,,,,,,,,
5197,"<img src=""portrait/BW2.jpg""style=""width:400px;height:400px;""></img>",2,html-button-response,111,616087,0.0-14.0-1.0,87700,List2A,white,man,,TRUE,2,,,,,
null,CORRECT,,html-keyboard-response,112,617642,0.0-14.0-2.0-0.0,87700,List2A,white,man,,,,null,,,,
5260,"<img src=""portrait/BM2.jpg""style=""width:400px;height:400px;""></img>",5,html-button-response,113,622907,0.0-14.0-4.0,87700,List2A,white,man,,TRUE,5,,,,,
null,CORRECT,,html-keyboard-response,114,624454,0.0-14.0-5.0-0.0,87700,List2A,white,man,,,,null,,,,
4337,"<img src=""portrait/WW2.jpg""style=""width:400px;height:400px;""></img>",3,html-button-response,115,628798,0.0-14.0-7.0,87700,List2A,white,man,,TRUE,3,,,,,
null,CORRECT,,html-keyboard-response,116,630339,0.0-14.0-8.0-0.0,87700,List2A,white,man,,,,null,,,,
2506,"<img src=""portrait/WW1.jpg""style=""width:400px;height:400px;""></img>",1,html-button-response,117,632850,0.0-14.0-10.0,87700,List2A,white,man,,TRUE,1,,,,,
null,CORRECT,,html-keyboard-response,118,634381,0.0-14.0-11.0-0.0,87700,List2A,white,man,,,,null,,,,
2270,"<img src=""portrait/WM2.jpg""style=""width:400px;height:400px;""></img>",7,html-button-response,119,636658,0.0-14.0-13.0,87700,List2A,white,man,,TRUE,7,,,,,
null,CORRECT,,html-keyboard-response,120,638180,0.0-14.0-14.0-0.0,87700,List2A,white,man,,,,null,,,,
3307,"<img src=""portrait/WM1.jpg""style=""width:400px;height:400px;""></img>",6,html-button-response,121,641493,0.0-14.0-16.0,87700,List2A,white,man,,TRUE,6,,,,,
null,CORRECT,,html-keyboard-response,122,643013,0.0-14.0-17.0-0.0,87700,List2A,white,man,,,,null,,,,
2244,"<img src=""portrait/BM1.jpg""style=""width:400px;height:400px;""></img>",4,html-button-response,123,645263,0.0-14.0-19.0,87700,List2A,white,man,,TRUE,4,,,,,
null,CORRECT,,html-keyboard-response,124,646782,0.0-14.0-20.0-0.0,87700,List2A,white,man,,,,null,,,,
3242,"<img src=""portrait/BW1.jpg""style=""width:400px;height:400px;""></img>",0,html-button-response,125,650029,0.0-14.0-22.0,87700,List2A,white,man,,TRUE,0,,,,,
null,CORRECT,,html-keyboard-response,126,651544,0.0-14.0-23.0-0.0,87700,List2A,white,man,,,,null,,,,
2178,<p>You got 8 out of 8 right first time. Press Continue.</p>,0,html-button-response,127,653727,0.0-14.0-25.0,87700,List2A,white,man,,,,,,,,
null,"<div style=""font-size:60px;"">+</div>",,html-keyboard-response,128,655261,0.0-15.0-0.0,87700,List2A,white,man,,,,null,,,,
null,"<img src=""stim_listA/fight7.gif""</stim_listA>",,html-keyboard-response,129,657283,0.0-15.0-1.0,87700,List2A,white,man,,,,null,,,,
null,is fighting,,html-keyboard-response,130,659268,0.0-15.0-2.0,87700,List2A,white,man,,,,null,,,,
9857,,,survey-text,131,669131,0.0-15.0-3.0,87700,List2A,white,man,,,,,"{""Q0"":""jane is fighting kate""}","<img src=""stim_listA/fight7.gif""</stim_listA>",is fighting,
null,"<div style=""font-size:60px;"">+</div>",,html-keyboard-response,132,669661,0.0-15.0-0.1,87700,List2A,white,man,,,,null,,,,
null,"<img src=""stim_listA/touch3.gif""</stim_listA>",,html-keyboard-response,133,671684,0.0-15.0-1.1,87700,List2A,white,man,,,,null,,,,
null,is touching,,html-keyboard-response,134,673679,0.0-15.0-2.1,87700,List2A,white,man,,,,null,,,,
6691,,,survey-text,135,680372,0.0-15.0-3.1,87700,List2A,white,man,,,,,"{""Q0"":""kate is touching mike""}","<img src=""stim_listA/touch3.gif""</stim_listA>",is touching,
null,"<div style=""font-size:60px;"">+</div>",,html-keyboard-response,136,680892,0.0-15.0-0.2,87700,List2A,white,man,,,,null,,,,
null,"<img src=""stim_listA/dance3.gif""</stim_listA>",,html-keyboard-response,137,682908,0.0-15.0-1.2,87700,List2A,white,man,,,,null,,,,
null,is dancing with,,html-keyboard-response,138,684914,0.0-15.0-2.2,87700,List2A,white,man,,,,null,,,,
9099,,,survey-text,139,694018,0.0-15.0-3.2,87700,List2A,white,man,,,,,"{""Q0"":""fred is dancing with kate""}","<img src=""stim_listA/dance3.gif""</stim_listA>",is dancing with,
null,"<div style=""font-size:60px;"">+</div>",,html-keyboard-response,140,694536,0.0-15.0-0.3,87700,List2A,white,man,,,,null,,,,
null,"<img src=""stim_listA/kiss6.gif""</stim_listA>",,html-keyboard-response,141,696550,0.0-15.0-1.3,87700,List2A,white,man,,,,null,,,,
null,are kissing each other,,html-keyboard-response,142,698552,0.0-15.0-2.3,87700,List2A,white,man,,,,null,,,,
11083,,,survey-text,143,709641,0.0-15.0-3.3,87700,List2A,white,man,,,,,"{""Q0"":""mike and dave are kissing each other""}","<img src=""stim_listA/kiss6.gif""</stim_listA>",are kissing each other,
null,"<div style=""font-size:60px;"">+</div>",,html-keyboard-response,144,710152,0.0-15.0-0.4,87700,List2A,white,man,,,,null,,,,
null,"<img src=""stim_listA/talk3.gif""</stim_listA>",,html-keyboard-response,145,712182,0.0-15.0-1.4,87700,List2A,white,man,,,,null,,,,
null,is talking to,,html-keyboard-response,146,714186,0.0-15.0-2.4,87700,List2A,white,man,,,,null,,,,
12700,,,survey-text,147,726891,0.0-15.0-3.4,87700,List2A,white,man,,,,,"{""Q0"":""fred is talking to kate""}","<img src=""stim_listA/talk3.gif""</stim_listA>",is talking to,
null,"<div style=""font-size:60px;"">+</div>",,html-keyboard-response,148,727409,0.0-15.0-0.5,87700,List2A,white,man,,,,null,,,,
null,"<img src=""stim_listA/marry5.gif""</stim_listA>",,html-keyboard-response,149,729425,0.0-15.0-1.5,87700,List2A,white,man,,,,null,,,,
null,is marrying,,html-keyboard-response,150,731416,0.0-15.0-2.5,87700,List2A,white,man,,,,null,,,,
7566,,,survey-text,151,738987,0.0-15.0-3.5,87700,List2A,white,man,,,,,"{""Q0"":""fred is marrying dave""}","<img src=""stim_listA/marry5.gif""</stim_listA>",is marrying,
null,"<div style=""font-size:60px;"">+</div>",,html-keyboard-response,152,739493,0.0-15.0-0.6,87700,List2A,white,man,,,,null,,,,
null,"<img src=""stim_listA/meet3.gif""</stim_listA>",,html-keyboard-response,153,741508,0.0-15.0-1.6,87700,List2A,white,man,,,,null,,,,
null,is meeting,,html-keyboard-response,154,743501,0.0-15.0-2.6,87700,List2A,white,man,,,,null,,,,
9078,,,survey-text,155,752583,0.0-15.0-3.6,87700,List2A,white,man,,,,,"{""Q0"":""mike is meeting kate""}","<img src=""stim_listA/meet3.gif""</stim_listA>",is meeting,
null,"<div style=""font-size:60px;"">+</div>",,html-keyboard-response,156,753112,0.0-15.0-0.7,87700,List2A,white,man,,,,null,,,,
null,"<img src=""stim_listA/dance7.gif""</stim_listA>",,html-keyboard-response,157,755128,0.0-15.0-1.7,87700,List2A,white,man,,,,null,,,,
null,is dancing with,,html-keyboard-response,158,757143,0.0-15.0-2.7,87700,List2A,white,man,,,,null,,,,
9770,,,survey-text,159,766920,0.0-15.0-3.7,87700,List2A,white,man,,,,,"{""Q0"":""kate is dancing with ruth""}","<img src=""stim_listA/dance7.gif""</stim_listA>",is dancing with,
null,"<div style=""font-size:60px;"">+</div>",,html-keyboard-response,160,767447,0.0-15.0-0.8,87700,List2A,white,man,,,,null,,,,
null,"<img src=""stim_listA/argue3.gif""</stim_listA>",,html-keyboard-response,161,769458,0.0-15.0-1.8,87700,List2A,white,man,,,,null,,,,
null,is arguing with,,html-keyboard-response,162,771471,0.0-15.0-2.8,87700,List2A,white,man,,,,null,,,,
16065,,,survey-text,163,787540,0.0-15.0-3.8,87700,List2A,white,man,,,,,"{""Q0"":""beth is arguing with mike""}","<img src=""stim_listA/argue3.gif""</stim_listA>",is arguing with,
null,"<div style=""font-size:60px;"">+</div>",,html-keyboard-response,164,788056,0.0-15.0-0.9,87700,List2A,white,man,,,,null,,,,
null,"<img src=""stim_listA/argue6.gif""</stim_listA>",,html-keyboard-response,165,790076,0.0-15.0-1.9,87700,List2A,white,man,,,,null,,,,
null,are arguing with each other,,html-keyboard-response,166,792063,0.0-15.0-2.9,87700,List2A,white,man,,,,null,,,,
11207,,,survey-text,167,803275,0.0-15.0-3.9,87700,List2A,white,man,,,,,"{""Q0"":""luke and mike are arguing with each other""}","<img src=""stim_listA/argue6.gif""</stim_listA>",are arguing with each other,
null,"<div style=""font-size:60px;"">+</div>",,html-keyboard-response,168,803812,0.0-15.0-0.10,87700,List2A,white,man,,,,null,,,,
null,"<img src=""stim_listA/fight1.gif""</stim_listA>",,html-keyboard-response,169,805835,0.0-15.0-1.10,87700,List2A,white,man,,,,null,,,,
null,is fighting,,html-keyboard-response,170,807841,0.0-15.0-2.10,87700,List2A,white,man,,,,null,,,,
7483,,,survey-text,171,815329,0.0-15.0-3.10,87700,List2A,white,man,,,,,"{""Q0"":""dave is fighting jane""}","<img src=""stim_listA/fight1.gif""</stim_listA>",is fighting,
null,"<div style=""font-size:60px;"">+</div>",,html-keyboard-response,172,815842,0.0-15.0-0.11,87700,List2A,white,man,,,,null,,,,
null,"<img src=""stim_listA/fight4.gif""</stim_listA>",,html-keyboard-response,173,817853,0.0-15.0-1.11,87700,List2A,white,man,,,,null,,,,
null,are fighting each other,,html-keyboard-response,174,819861,0.0-15.0-2.11,87700,List2A,white,man,,,,null,,,,
14593,,,survey-text,175,834457,0.0-15.0-3.11,87700,List2A,white,man,,,,,"{""Q0"":""beth and fred are fighting each other""}","<img src=""stim_listA/fight4.gif""</stim_listA>",are fighting each other,
null,"<div style=""font-size:60px;"">+</div>",,html-keyboard-response,176,834973,0.0-15.0-0.12,87700,List2A,white,man,,,,null,,,,
null,"<img src=""stim_listA/argue5.gif""</stim_listA>",,html-keyboard-response,177,836993,0.0-15.0-1.12,87700,List2A,white,man,,,,null,,,,
null,is arguing with,,html-keyboard-response,178,838990,0.0-15.0-2.12,87700,List2A,white,man,,,,null,,,,
15572,,,survey-text,179,854564,0.0-15.0-3.12,87700,List2A,white,man,,,,,"{""Q0"":""fred is fighting with dave""}","<img src=""stim_listA/argue5.gif""</stim_listA>",is arguing with,
null,"<div style=""font-size:60px;"">+</div>",,html-keyboard-response,180,855091,0.0-15.0-0.13,87700,List2A,white,man,,,,null,,,,
null,"<img src=""stim_listA/kiss5.gif""</stim_listA>",,html-keyboard-response,181,857108,0.0-15.0-1.13,87700,List2A,white,man,,,,null,,,,
null,is kissing,,html-keyboard-response,182,859106,0.0-15.0-2.13,87700,List2A,white,man,,,,null,,,,
13331,,,survey-text,183,872440,0.0-15.0-3.13,87700,List2A,white,man,,,,,"{""Q0"":""fred is kissing luke""}","<img src=""stim_listA/kiss5.gif""</stim_listA>",is kissing,
null,"<div style=""font-size:60px;"">+</div>",,html-keyboard-response,184,872966,0.0-15.0-0.14,87700,List2A,white,man,,,,null,,,,
null,"<img src=""stim_listA/fight2.gif""</stim_listA>",,html-keyboard-response,185,874981,0.0-15.0-1.14,87700,List2A,white,man,,,,null,,,,
null,are fighting each other,,html-keyboard-response,186,876985,0.0-15.0-2.14,87700,List2A,white,man,,,,null,,,,
13227,,,survey-text,187,890217,0.0-15.0-3.14,87700,List2A,white,man,,,,,"{""Q0"":""ruth and luke are fighting each other""}","<img src=""stim_listA/fight2.gif""</stim_listA>",are fighting each other,
null,"<div style=""font-size:60px;"">+</div>",,html-keyboard-response,188,890733,0.0-15.0-0.15,87700,List2A,white,man,,,,null,,,,
null,"<img src=""stim_listA/marry7.gif""</stim_listA>",,html-keyboard-response,189,892747,0.0-15.0-1.15,87700,List2A,white,man,,,,null,,,,
null,is marrying,,html-keyboard-response,190,894752,0.0-15.0-2.15,87700,List2A,white,man,,,,null,,,,
8416,,,survey-text,191,903174,0.0-15.0-3.15,87700,List2A,white,man,,,,,"{""Q0"":""beth is marrying jane""}","<img src=""stim_listA/marry7.gif""</stim_listA>",is marrying,
null,"<div style=""font-size:60px;"">+</div>",,html-keyboard-response,192,903686,0.0-15.0-0.16,87700,List2A,white,man,,,,null,,,,
null,"<img src=""stim_listA/touch7.gif""</stim_listA>",,html-keyboard-response,193,905710,0.0-15.0-1.16,87700,List2A,white,man,,,,null,,,,
null,is touching,,html-keyboard-response,194,907705,0.0-15.0-2.16,87700,List2A,white,man,,,,null,,,,
10343,,,survey-text,195,918054,0.0-15.0-3.16,87700,List2A,white,man,,,,,"{""Q0"":""kate is touching jane""}","<img src=""stim_listA/touch7.gif""</stim_listA>",is touching,
null,"<div style=""font-size:60px;"">+</div>",,html-keyboard-response,196,918566,0.0-15.0-0.17,87700,List2A,white,man,,,,null,,,,
null,"<img src=""stim_listA/talk1.gif""</stim_listA>",,html-keyboard-response,197,920585,0.0-15.0-1.17,87700,List2A,white,man,,,,null,,,,
null,is talking to,,html-keyboard-response,198,922569,0.0-15.0-2.17,87700,List2A,white,man,,,,null,,,,
6989,,,survey-text,199,929562,0.0-15.0-3.17,87700,List2A,white,man,,,,,"{""Q0"":""jane is talking to luke""}","<img src=""stim_listA/talk1.gif""</stim_listA>",is talking to,
null,"<div style=""font-size:60px;"">+</div>",,html-keyboard-response,200,930074,0.0-15.0-0.18,87700,List2A,white,man,,,,null,,,,
null,"<img src=""stim_listA/touch6.gif""</stim_listA>",,html-keyboard-response,201,932097,0.0-15.0-1.18,87700,List2A,white,man,,,,null,,,,
null,are touching each other,,html-keyboard-response,202,934078,0.0-15.0-2.18,87700,List2A,white,man,,,,null,,,,
19100,,,survey-text,203,953182,0.0-15.0-3.18,87700,List2A,white,man,,,,,"{""Q0"":""luke and fred are touching each other""}","<img src=""stim_listA/touch6.gif""</stim_listA>",are touching each other,
null,"<div style=""font-size:60px;"">+</div>",,html-keyboard-response,204,953710,0.0-15.0-0.19,87700,List2A,white,man,,,,null,,,,
null,"<img src=""stim_listA/marry8.gif""</stim_listA>",,html-keyboard-response,205,955733,0.0-15.0-1.19,87700,List2A,white,man,,,,null,,,,
null,are marrying each other,,html-keyboard-response,206,957735,0.0-15.0-2.19,87700,List2A,white,man,,,,null,,,,
11134,,,survey-text,207,968874,0.0-15.0-3.19,87700,List2A,white,man,,,,,"{""Q0"":""beth and ruth are marrying each other""}","<img src=""stim_listA/marry8.gif""</stim_listA>",are marrying each other,
3580,"<img src='img/portrait_matrix_list2.JPG' style='width:900px;height:500px;''></img><p>If you have memorised all the portraits and names and are ready to start, press Continue.</p><p><strong>Please note: Your memory of these faces will be tested 4 times during this experiment.</strong></p>",0,html-button-response,208,972459,0.0-16.0-0.0,87700,List2A,white,man,,,,,,,,
3717,"<img src=""portrait/BM1.jpg""style=""width:400px;height:400px;""></img>",4,html-button-response,209,977202,0.0-16.0-1.0,87700,List2A,white,man,,TRUE,4,,,,,
null,CORRECT,,html-keyboard-response,210,978733,0.0-16.0-2.0-0.0,87700,List2A,white,man,,,,null,,,,
1511,"<img src=""portrait/WW2.jpg""style=""width:400px;height:400px;""></img>",3,html-button-response,211,980250,0.0-16.0-4.0,87700,List2A,white,man,,TRUE,3,,,,,
null,CORRECT,,html-keyboard-response,212,981782,0.0-16.0-5.0-0.0,87700,List2A,white,man,,,,null,,,,
1814,"<img src=""portrait/WM2.jpg""style=""width:400px;height:400px;""></img>",7,html-button-response,213,983601,0.0-16.0-7.0,87700,List2A,white,man,,TRUE,7,,,,,
null,CORRECT,,html-keyboard-response,214,985123,0.0-16.0-8.0-0.0,87700,List2A,white,man,,,,null,,,,
4920,"<img src=""portrait/BW1.jpg""style=""width:400px;height:400px;""></img>",0,html-button-response,215,990047,0.0-16.0-10.0,87700,List2A,white,man,,TRUE,0,,,,,
null,CORRECT,,html-keyboard-response,216,991585,0.0-16.0-11.0-0.0,87700,List2A,white,man,,,,null,,,,
1878,"<img src=""portrait/BW2.jpg""style=""width:400px;height:400px;""></img>",2,html-button-response,217,993470,0.0-16.0-13.0,87700,List2A,white,man,,TRUE,2,,,,,
null,CORRECT,,html-keyboard-response,218,995007,0.0-16.0-14.0-0.0,87700,List2A,white,man,,,,null,,,,
2079,"<img src=""portrait/WM1.jpg""style=""width:400px;height:400px;""></img>",6,html-button-response,219,997093,0.0-16.0-16.0,87700,List2A,white,man,,TRUE,6,,,,,
null,CORRECT,,html-keyboard-response,220,998630,0.0-16.0-17.0-0.0,87700,List2A,white,man,,,,null,,,,
1931,"<img src=""portrait/WW1.jpg""style=""width:400px;height:400px;""></img>",1,html-button-response,221,1000570,0.0-16.0-19.0,87700,List2A,white,man,,TRUE,1,,,,,
null,CORRECT,,html-keyboard-response,222,1002076,0.0-16.0-20.0-0.0,87700,List2A,white,man,,,,null,,,,
1264,"<img src=""portrait/BM2.jpg""style=""width:400px;height:400px;""></img>",5,html-button-response,223,1003345,0.0-16.0-22.0,87700,List2A,white,man,,TRUE,5,,,,,
null,CORRECT,,html-keyboard-response,224,1004887,0.0-16.0-23.0-0.0,87700,List2A,white,man,,,,null,,,,
1603,<p>You got 8 out of 8 right first time. Press Continue.</p>,0,html-button-response,225,1006496,0.0-16.0-25.0,87700,List2A,white,man,,,,,,,,
null,"<div style=""font-size:60px;"">+</div>",,html-keyboard-response,226,1008033,0.0-17.0-0.0,87700,List2A,white,man,,,,null,,,,
null,"<img src=""stim_listA/hug8.gif""</stim_listA>",,html-keyboard-response,227,1010055,0.0-17.0-1.0,87700,List2A,white,man,,,,null,,,,
null,are hugging each other,,html-keyboard-response,228,1012043,0.0-17.0-2.0,87700,List2A,white,man,,,,null,,,,
11530,,,survey-text,229,1023577,0.0-17.0-3.0,87700,List2A,white,man,,,,,"{""Q0"":""jane and kate are hugging each other""}","<img src=""stim_listA/hug8.gif""</stim_listA>",are hugging each other,
null,"<div style=""font-size:60px;"">+</div>",,html-keyboard-response,230,1024114,0.0-17.0-0.1,87700,List2A,white,man,,,,null,,,,
null,"<img src=""stim_listA/talk2.gif""</stim_listA>",,html-keyboard-response,231,1026130,0.0-17.0-1.1,87700,List2A,white,man,,,,null,,,,
null,are talking to each other,,html-keyboard-response,232,1028134,0.0-17.0-2.1,87700,List2A,white,man,,,,null,,,,
12106,,,survey-text,233,1040243,0.0-17.0-3.1,87700,List2A,white,man,,,,,"{""Q0"":""dave and ruth are talking to each other""}","<img src=""stim_listA/talk2.gif""</stim_listA>",are talking to each other,
null,"<div style=""font-size:60px;"">+</div>",,html-keyboard-response,234,1040763,0.0-17.0-0.2,87700,List2A,white,man,,,,null,,,,
null,"<img src=""stim_listA/hug2.gif""</stim_listA>",,html-keyboard-response,235,1042784,0.0-17.0-1.2,87700,List2A,white,man,,,,null,,,,
null,are hugging each other,,html-keyboard-response,236,1044780,0.0-17.0-2.2,87700,List2A,white,man,,,,null,,,,
11892,,,survey-text,237,1056674,0.0-17.0-3.2,87700,List2A,white,man,,,,,"{""Q0"":""dave and jane are hugging each other ""}","<img src=""stim_listA/hug2.gif""</stim_listA>",are hugging each other,
null,"<div style=""font-size:60px;"">+</div>",,html-keyboard-response,238,1057185,0.0-17.0-0.3,87700,List2A,white,man,,,,null,,,,
null,"<img src=""stim_listA/argue2.gif""</stim_listA>",,html-keyboard-response,239,1059192,0.0-17.0-1.3,87700,List2A,white,man,,,,null,,,,
null,are arguing with each other,,html-keyboard-response,240,1061210,0.0-17.0-2.3,87700,List2A,white,man,,,,null,,,,
14061,,,survey-text,241,1075272,0.0-17.0-3.3,87700,List2A,white,man,,,,,"{""Q0"":""luke and jane are arguing witheach other""}","<img src=""stim_listA/argue2.gif""</stim_listA>",are arguing with each other,
null,"<div style=""font-size:60px;"">+</div>",,html-keyboard-response,242,1075788,0.0-17.0-0.4,87700,List2A,white,man,,,,null,,,,
null,"<img src=""stim_listA/hug7.gif""</stim_listA>",,html-keyboard-response,243,1077808,0.0-17.0-1.4,87700,List2A,white,man,,,,null,,,,
null,is hugging,,html-keyboard-response,244,1079794,0.0-17.0-2.4,87700,List2A,white,man,,,,null,,,,
7204,,,survey-text,245,1087003,0.0-17.0-3.4,87700,List2A,white,man,,,,,"{""Q0"":""ruth is hugging beth""}","<img src=""stim_listA/hug7.gif""</stim_listA>",is hugging,
null,"<div style=""font-size:60px;"">+</div>",,html-keyboard-response,246,1087528,0.0-17.0-0.5,87700,List2A,white,man,,,,null,,,,
null,"<img src=""stim_listA/meet8.gif""</stim_listA>",,html-keyboard-response,247,1089559,0.0-17.0-1.5,87700,List2A,white,man,,,,null,,,,
null,are meeting each other,,html-keyboard-response,248,1091533,0.0-17.0-2.5,87700,List2A,white,man,,,,null,,,,
18149,,,survey-text,249,1109685,0.0-17.0-3.5,87700,List2A,white,man,,,,,"{""Q0"":""ruth and beth are meeting each other""}","<img src=""stim_listA/meet8.gif""</stim_listA>",are meeting each other,
null,"<div style=""font-size:60px;"">+</div>",,html-keyboard-response,250,1110207,0.0-17.0-0.6,87700,List2A,white,man,,,,null,,,,
null,"<img src=""stim_listA/shout1.gif""</stim_listA>",,html-keyboard-response,251,1112215,0.0-17.0-1.6,87700,List2A,white,man,,,,null,,,,
null,is shouting at,,html-keyboard-response,252,1114223,0.0-17.0-2.6,87700,List2A,white,man,,,,null,,,,
6745,,,survey-text,253,1120972,0.0-17.0-3.6,87700,List2A,white,man,,,,,"{""Q0"":""luke is shouting at ruth""}","<img src=""stim_listA/shout1.gif""</stim_listA>",is shouting at,
null,"<div style=""font-size:60px;"">+</div>",,html-keyboard-response,254,1121492,0.0-17.0-0.7,87700,List2A,white,man,,,,null,,,,
null,"<img src=""stim_listA/argue8.gif""</stim_listA>",,html-keyboard-response,255,1123506,0.0-17.0-1.7,87700,List2A,white,man,,,,null,,,,
null,are arguing with each other,,html-keyboard-response,256,1125498,0.0-17.0-2.7,87700,List2A,white,man,,,,null,,,,
13770,,,survey-text,257,1139271,0.0-17.0-3.7,87700,List2A,white,man,,,,,"{""Q0"":""ruth and kate are arguing with each other""}","<img src=""stim_listA/argue8.gif""</stim_listA>",are arguing with each other,
null,"<div style=""font-size:60px;"">+</div>",,html-keyboard-response,258,1139785,0.0-17.0-0.8,87700,List2A,white,man,,,,null,,,,
null,"<img src=""stim_listA/shout7.gif""</stim_listA>",,html-keyboard-response,259,1141805,0.0-17.0-1.8,87700,List2A,white,man,,,,null,,,,
null,is shouting at,,html-keyboard-response,260,1143794,0.0-17.0-2.8,87700,List2A,white,man,,,,null,,,,
56916,,,survey-text,261,1200714,0.0-17.0-3.8,87700,List2A,white,man,,,,,"{""Q0"":""beth is shouting at ruth""}","<img src=""stim_listA/shout7.gif""</stim_listA>",is shouting at,
null,"<div style=""font-size:60px;"">+</div>",,html-keyboard-response,262,1201247,0.0-17.0-0.9,87700,List2A,white,man,,,,null,,,,
null,"<img src=""stim_listA/talk7.gif""</stim_listA>",,html-keyboard-response,263,1203267,0.0-17.0-1.9,87700,List2A,white,man,,,,null,,,,
null,is talking to,,html-keyboard-response,264,1205261,0.0-17.0-2.9,87700,List2A,white,man,,,,null,,,,
65882,,,survey-text,265,1271146,0.0-17.0-3.9,87700,List2A,white,man,,,,,"{""Q0"":""kate is talking to ruth""}","<img src=""stim_listA/talk7.gif""</stim_listA>",is talking to,
null,"<div style=""font-size:60px;"">+</div>",,html-keyboard-response,266,1271653,0.0-17.0-0.10,87700,List2A,white,man,,,,null,,,,
null,"<img src=""stim_listA/meet4.gif""</stim_listA>",,html-keyboard-response,267,1273673,0.0-17.0-1.10,87700,List2A,white,man,,,,null,,,,
null,are meeting each other,,html-keyboard-response,268,1275692,0.0-17.0-2.10,87700,List2A,white,man,,,,null,,,,
12705,,,survey-text,269,1288400,0.0-17.0-3.10,87700,List2A,white,man,,,,,"{""Q0"":""beth and fred are meeting each other""}","<img src=""stim_listA/meet4.gif""</stim_listA>",are meeting each other,
null,"<div style=""font-size:60px;"">+</div>",,html-keyboard-response,270,1288929,0.0-17.0-0.11,87700,List2A,white,man,,,,null,,,,
null,"<img src=""stim_listA/argue4.gif""</stim_listA>",,html-keyboard-response,271,1290960,0.0-17.0-1.11,87700,List2A,white,man,,,,null,,,,
null,are arguing with each other,,html-keyboard-response,272,1292954,0.0-17.0-2.11,87700,List2A,white,man,,,,null,,,,
15310,,,survey-text,273,1308268,0.0-17.0-3.11,87700,List2A,white,man,,,,,"{""Q0"":""fred and kate ae arguing with each other""}","<img src=""stim_listA/argue4.gif""</stim_listA>",are arguing with each other,
null,"<div style=""font-size:60px;"">+</div>",,html-keyboard-response,274,1308780,0.0-17.0-0.12,87700,List2A,white,man,,,,null,,,,
null,"<img src=""stim_listA/talk5.gif""</stim_listA>",,html-keyboard-response,275,1310796,0.0-17.0-1.12,87700,List2A,white,man,,,,null,,,,
null,is talking to,,html-keyboard-response,276,1312804,0.0-17.0-2.12,87700,List2A,white,man,,,,null,,,,
8422,,,survey-text,277,1321230,0.0-17.0-3.12,87700,List2A,white,man,,,,,"{""Q0"":""luke is talking to mike""}","<img src=""stim_listA/talk5.gif""</stim_listA>",is talking to,
null,"<div style=""font-size:60px;"">+</div>",,html-keyboard-response,278,1321742,0.0-17.0-0.13,87700,List2A,white,man,,,,null,,,,
null,"<img src=""stim_listA/kiss1.gif""</stim_listA>",,html-keyboard-response,279,1323762,0.0-17.0-1.13,87700,List2A,white,man,,,,null,,,,
null,is kissing,,html-keyboard-response,280,1325760,0.0-17.0-2.13,87700,List2A,white,man,,,,null,,,,
7355,,,survey-text,281,1333117,0.0-17.0-3.13,87700,List2A,white,man,,,,,"{""Q0"":""luke is kissing ruth""}","<img src=""stim_listA/kiss1.gif""</stim_listA>",is kissing,
null,"<div style=""font-size:60px;"">+</div>",,html-keyboard-response,282,1333637,0.0-17.0-0.14,87700,List2A,white,man,,,,null,,,,
null,"<img src=""stim_listA/dance4.gif""</stim_listA>",,html-keyboard-response,283,1335647,0.0-17.0-1.14,87700,List2A,white,man,,,,null,,,,
null,are dancing with each other,,html-keyboard-response,284,1337657,0.0-17.0-2.14,87700,List2A,white,man,,,,null,,,,
16257,,,survey-text,285,1353921,0.0-17.0-3.14,87700,List2A,white,man,,,,,"{""Q0"":""betha and mike are dancing with each other""}","<img src=""stim_listA/dance4.gif""</stim_listA>",are dancing with each other,
null,"<div style=""font-size:60px;"">+</div>",,html-keyboard-response,286,1354436,0.0-17.0-0.15,87700,List2A,white,man,,,,null,,,,
null,"<img src=""stim_listA/dance8.gif""</stim_listA>",,html-keyboard-response,287,1356453,0.0-17.0-1.15,87700,List2A,white,man,,,,null,,,,
null,are dancing with each other,,html-keyboard-response,288,1358454,0.0-17.0-2.15,87700,List2A,white,man,,,,null,,,,
10773,,,survey-text,289,1369233,0.0-17.0-3.15,87700,List2A,white,man,,,,,"{""Q0"":""beth and jane are dancing with each other""}","<img src=""stim_listA/dance8.gif""</stim_listA>",are dancing with each other,
null,"<div style=""font-size:60px;"">+</div>",,html-keyboard-response,290,1369745,0.0-17.0-0.16,87700,List2A,white,man,,,,null,,,,
null,"<img src=""stim_listA/touch8.gif""</stim_listA>",,html-keyboard-response,291,1371769,0.0-17.0-1.16,87700,List2A,white,man,,,,null,,,,
null,are touching each other,,html-keyboard-response,292,1373776,0.0-17.0-2.16,87700,List2A,white,man,,,,null,,,,
12072,,,survey-text,293,1385853,0.0-17.0-3.16,87700,List2A,white,man,,,,,"{""Q0"":""ruth and beth are touching each other""}","<img src=""stim_listA/touch8.gif""</stim_listA>",are touching each other,
null,"<div style=""font-size:60px;"">+</div>",,html-keyboard-response,294,1386374,0.0-17.0-0.17,87700,List2A,white,man,,,,null,,,,
null,"<img src=""stim_listA/dance5.gif""</stim_listA>",,html-keyboard-response,295,1388394,0.0-17.0-1.17,87700,List2A,white,man,,,,null,,,,
null,is dancing with,,html-keyboard-response,296,1390377,0.0-17.0-2.17,87700,List2A,white,man,,,,null,,,,
13074,,,survey-text,297,1403453,0.0-17.0-3.17,87700,List2A,white,man,,,,,"{""Q0"":""mike is dancing with luke""}","<img src=""stim_listA/dance5.gif""</stim_listA>",is dancing with,
null,"<div style=""font-size:60px;"">+</div>",,html-keyboard-response,298,1403967,0.0-17.0-0.18,87700,List2A,white,man,,,,null,,,,
null,"<img src=""stim_listA/touch5.gif""</stim_listA>",,html-keyboard-response,299,1405977,0.0-17.0-1.18,87700,List2A,white,man,,,,null,,,,
null,is touching,,html-keyboard-response,300,1407985,0.0-17.0-2.18,87700,List2A,white,man,,,,null,,,,
10546,,,survey-text,301,1418536,0.0-17.0-3.18,87700,List2A,white,man,,,,,"{""Q0"":""dave is touching mike""}","<img src=""stim_listA/touch5.gif""</stim_listA>",is touching,
null,"<div style=""font-size:60px;"">+</div>",,html-keyboard-response,302,1419051,0.0-17.0-0.19,87700,List2A,white,man,,,,null,,,,
null,"<img src=""stim_listA/touch4.gif""</stim_listA>",,html-keyboard-response,303,1421071,0.0-17.0-1.19,87700,List2A,white,man,,,,null,,,,
null,are touching each other,,html-keyboard-response,304,1423071,0.0-17.0-2.19,87700,List2A,white,man,,,,null,,,,
14930,,,survey-text,305,1438005,0.0-17.0-3.19,87700,List2A,white,man,,,,,"{""Q0"":""fred and beth are touching each other""}","<img src=""stim_listA/touch4.gif""</stim_listA>",are touching each other,
6066,"<img src='img/portrait_matrix_list2.JPG' style='width:900px;height:500px;''></img><p>If you have memorised all the portraits and names and are ready to start, press Continue.</p><p><strong>Please note: Your memory of these faces will be tested 4 times during this experiment.</strong></p>",0,html-button-response,306,1444078,0.0-18.0-0.0,87700,List2A,white,man,,,,,,,,
2259,"<img src=""portrait/BW1.jpg""style=""width:400px;height:400px;""></img>",0,html-button-response,307,1447357,0.0-18.0-1.0,87700,List2A,white,man,,TRUE,0,,,,,
null,CORRECT,,html-keyboard-response,308,1448882,0.0-18.0-2.0-0.0,87700,List2A,white,man,,,,null,,,,
2605,"<img src=""portrait/BM1.jpg""style=""width:400px;height:400px;""></img>",4,html-button-response,309,1451491,0.0-18.0-4.0,87700,List2A,white,man,,TRUE,4,,,,,
null,CORRECT,,html-keyboard-response,310,1453027,0.0-18.0-5.0-0.0,87700,List2A,white,man,,,,null,,,,
4682,"<img src=""portrait/WM2.jpg""style=""width:400px;height:400px;""></img>",7,html-button-response,311,1457715,0.0-18.0-7.0,87700,List2A,white,man,,TRUE,7,,,,,
null,CORRECT,,html-keyboard-response,312,1459261,0.0-18.0-8.0-0.0,87700,List2A,white,man,,,,null,,,,
4990,"<img src=""portrait/WW2.jpg""style=""width:400px;height:400px;""></img>",3,html-button-response,313,1464257,0.0-18.0-10.0,87700,List2A,white,man,,TRUE,3,,,,,
null,CORRECT,,html-keyboard-response,314,1465771,0.0-18.0-11.0-0.0,87700,List2A,white,man,,,,null,,,,
3440,"<img src=""portrait/BM2.jpg""style=""width:400px;height:400px;""></img>",5,html-button-response,315,1469216,0.0-18.0-13.0,87700,List2A,white,man,,TRUE,5,,,,,
null,CORRECT,,html-keyboard-response,316,1470749,0.0-18.0-14.0-0.0,87700,List2A,white,man,,,,null,,,,
2001,"<img src=""portrait/WM1.jpg""style=""width:400px;height:400px;""></img>",6,html-button-response,317,1472759,0.0-18.0-16.0,87700,List2A,white,man,,TRUE,6,,,,,
null,CORRECT,,html-keyboard-response,318,1474274,0.0-18.0-17.0-0.0,87700,List2A,white,man,,,,null,,,,
2811,"<img src=""portrait/WW1.jpg""style=""width:400px;height:400px;""></img>",1,html-button-response,319,1477092,0.0-18.0-19.0,87700,List2A,white,man,,TRUE,1,,,,,
null,CORRECT,,html-keyboard-response,320,1478633,0.0-18.0-20.0-0.0,87700,List2A,white,man,,,,null,,,,
2008,"<img src=""portrait/BW2.jpg""style=""width:400px;height:400px;""></img>",2,html-button-response,321,1480648,0.0-18.0-22.0,87700,List2A,white,man,,TRUE,2,,,,,
null,CORRECT,,html-keyboard-response,322,1482161,0.0-18.0-23.0-0.0,87700,List2A,white,man,,,,null,,,,
1526,<p>You got 8 out of 8 right first time. Press Continue.</p>,0,html-button-response,323,1483691,0.0-18.0-25.0,87700,List2A,white,man,,,,,,,,
null,"<div style=""font-size:60px;"">+</div>",,html-keyboard-response,324,1485246,0.0-19.0-0.0,87700,List2A,white,man,,,,null,,,,
null,"<img src=""stim_listA/talk6.gif""</stim_listA>",,html-keyboard-response,325,1487279,0.0-19.0-1.0,87700,List2A,white,man,,,,null,,,,
null,are talking to each other,,html-keyboard-response,326,1489270,0.0-19.0-2.0,87700,List2A,white,man,,,,null,,,,
13299,,,survey-text,327,1502573,0.0-19.0-3.0,87700,List2A,white,man,,,,,"{""Q0"":""fred and luke are talking to each other""}","<img src=""stim_listA/talk6.gif""</stim_listA>",are talking to each other,
null,"<div style=""font-size:60px;"">+</div>",,html-keyboard-response,328,1503093,0.0-19.0-0.1,87700,List2A,white,man,,,,null,,,,
null,"<img src=""stim_listA/meet6.gif""</stim_listA>",,html-keyboard-response,329,1505101,0.0-19.0-1.1,87700,List2A,white,man,,,,null,,,,
null,are meeting each other,,html-keyboard-response,330,1507111,0.0-19.0-2.1,87700,List2A,white,man,,,,null,,,,
9897,,,survey-text,331,1517012,0.0-19.0-3.1,87700,List2A,white,man,,,,,"{""Q0"":""luke and fred are meeting each other""}","<img src=""stim_listA/meet6.gif""</stim_listA>",are meeting each other,
null,"<div style=""font-size:60px;"">+</div>",,html-keyboard-response,332,1517528,0.0-19.0-0.2,87700,List2A,white,man,,,,null,,,,
null,"<img src=""stim_listA/meet5.gif""</stim_listA>",,html-keyboard-response,333,1519541,0.0-19.0-1.2,87700,List2A,white,man,,,,null,,,,
null,is meeting,,html-keyboard-response,334,1521540,0.0-19.0-2.2,87700,List2A,white,man,,,,null,,,,
6094,,,survey-text,335,1527637,0.0-19.0-3.2,87700,List2A,white,man,,,,,"{""Q0"":""dave is meeting mike""}","<img src=""stim_listA/meet5.gif""</stim_listA>",is meeting,
null,"<div style=""font-size:60px;"">+</div>",,html-keyboard-response,336,1528152,0.0-19.0-0.3,87700,List2A,white,man,,,,null,,,,
null,"<img src=""stim_listA/shout6.gif""</stim_listA>",,html-keyboard-response,337,1530167,0.0-19.0-1.3,87700,List2A,white,man,,,,null,,,,
null,are shouting at each other,,html-keyboard-response,338,1532172,0.0-19.0-2.3,87700,List2A,white,man,,,,null,,,,
9117,,,survey-text,339,1541292,0.0-19.0-3.3,87700,List2A,white,man,,,,,"{""Q0"":""mike and dave are shouting at each other""}","<img src=""stim_listA/shout6.gif""</stim_listA>",are shouting at each other,
null,"<div style=""font-size:60px;"">+</div>",,html-keyboard-response,340,1541812,0.0-19.0-0.4,87700,List2A,white,man,,,,null,,,,
null,"<img src=""stim_listA/marry2.gif""</stim_listA>",,html-keyboard-response,341,1543828,0.0-19.0-1.4,87700,List2A,white,man,,,,null,,,,
null,are marrying each other,,html-keyboard-response,342,1545836,0.0-19.0-2.4,87700,List2A,white,man,,,,null,,,,
8749,,,survey-text,343,1554588,0.0-19.0-3.4,87700,List2A,white,man,,,,,"{""Q0"":""jane and luke are marrying each other""}","<img src=""stim_listA/marry2.gif""</stim_listA>",are marrying each other,
null,"<div style=""font-size:60px;"">+</div>",,html-keyboard-response,344,1555102,0.0-19.0-0.5,87700,List2A,white,man,,,,null,,,,
null,"<img src=""stim_listA/argue1.gif""</stim_listA>",,html-keyboard-response,345,1557119,0.0-19.0-1.5,87700,List2A,white,man,,,,null,,,,
null,is arguing with,,html-keyboard-response,346,1559120,0.0-19.0-2.5,87700,List2A,white,man,,,,null,,,,
9529,,,survey-text,347,1568655,0.0-19.0-3.5,87700,List2A,white,man,,,,,"{""Q0"":""dave is arguing with ruth""}","<img src=""stim_listA/argue1.gif""</stim_listA>",is arguing with,
null,"<div style=""font-size:60px;"">+</div>",,html-keyboard-response,348,1569167,0.0-19.0-0.6,87700,List2A,white,man,,,,null,,,,
null,"<img src=""stim_listA/fight3.gif""</stim_listA>",,html-keyboard-response,349,1571185,0.0-19.0-1.6,87700,List2A,white,man,,,,null,,,,
null,is fighting,,html-keyboard-response,350,1573181,0.0-19.0-2.6,87700,List2A,white,man,,,,null,,,,
14699,,,survey-text,351,1587882,0.0-19.0-3.6,87700,List2A,white,man,,,,,"{""Q0"":""dave is fighting luke""}","<img src=""stim_listA/fight3.gif""</stim_listA>",is fighting,
null,"<div style=""font-size:60px;"">+</div>",,html-keyboard-response,352,1588412,0.0-19.0-0.7,87700,List2A,white,man,,,,null,,,,
null,"<img src=""stim_listA/marry1.gif""</stim_listA>",,html-keyboard-response,353,1590416,0.0-19.0-1.7,87700,List2A,white,man,,,,null,,,,
null,is marrying,,html-keyboard-response,354,1592427,0.0-19.0-2.7,87700,List2A,white,man,,,,null,,,,
6494,,,survey-text,355,1598924,0.0-19.0-3.7,87700,List2A,white,man,,,,,"{""Q0"":""dave is marrying ruth""}","<img src=""stim_listA/marry1.gif""</stim_listA>",is marrying,
null,"<div style=""font-size:60px;"">+</div>",,html-keyboard-response,356,1599434,0.0-19.0-0.8,87700,List2A,white,man,,,,null,,,,
null,"<img src=""stim_listA/fight8.gif""</stim_listA>",,html-keyboard-response,357,1601447,0.0-19.0-1.8,87700,List2A,white,man,,,,null,,,,
null,are fighting each other,,html-keyboard-response,358,1603439,0.0-19.0-2.8,87700,List2A,white,man,,,,null,,,,
8106,,,survey-text,359,1611549,0.0-19.0-3.8,87700,List2A,white,man,,,,,"{""Q0"":""ruth and beth are fighting""}","<img src=""stim_listA/fight8.gif""</stim_listA>",are fighting each other,
null,"<div style=""font-size:60px;"">+</div>",,html-keyboard-response,360,1612065,0.0-19.0-0.9,87700,List2A,white,man,,,,null,,,,
null,"<img src=""stim_listA/shout4.gif""</stim_listA>",,html-keyboard-response,361,1614084,0.0-19.0-1.9,87700,List2A,white,man,,,,null,,,,
null,are shouting at each other,,html-keyboard-response,362,1616086,0.0-19.0-2.9,87700,List2A,white,man,,,,null,,,,
15657,,,survey-text,363,1631747,0.0-19.0-3.9,87700,List2A,white,man,,,,,"{""Q0"":""kate and mike are shouting at each other""}","<img src=""stim_listA/shout4.gif""</stim_listA>",are shouting at each other,
null,"<div style=""font-size:60px;"">+</div>",,html-keyboard-response,364,1632262,0.0-19.0-0.10,87700,List2A,white,man,,,,null,,,,
null,"<img src=""stim_listA/kiss8.gif""</stim_listA>",,html-keyboard-response,365,1634280,0.0-19.0-1.10,87700,List2A,white,man,,,,null,,,,
null,are kissing each other,,html-keyboard-response,366,1636286,0.0-19.0-2.10,87700,List2A,white,man,,,,null,,,,
12138,,,survey-text,367,1648431,0.0-19.0-3.10,87700,List2A,white,man,,,,,"{""Q0"":""kate and jane are kissing each other""}","<img src=""stim_listA/kiss8.gif""</stim_listA>",are kissing each other,
null,"<div style=""font-size:60px;"">+</div>",,html-keyboard-response,368,1648941,0.0-19.0-0.11,87700,List2A,white,man,,,,null,,,,
null,"<img src=""stim_listA/kiss7.gif""</stim_listA>",,html-keyboard-response,369,1650960,0.0-19.0-1.11,87700,List2A,white,man,,,,null,,,,
null,is kissing,,html-keyboard-response,370,1652947,0.0-19.0-2.11,87700,List2A,white,man,,,,null,,,,
13018,,,survey-text,371,1665969,0.0-19.0-3.11,87700,List2A,white,man,,,,,"{""Q0"":""beth is kissing ruth""}","<img src=""stim_listA/kiss7.gif""</stim_listA>",is kissing,
null,"<div style=""font-size:60px;"">+</div>",,html-keyboard-response,372,1666495,0.0-19.0-0.12,87700,List2A,white,man,,,,null,,,,
null,"<img src=""stim_listA/marry4.gif""</stim_listA>",,html-keyboard-response,373,1668509,0.0-19.0-1.12,87700,List2A,white,man,,,,null,,,,
null,are marrying each other,,html-keyboard-response,374,1670512,0.0-19.0-2.12,87700,List2A,white,man,,,,null,,,,
10557,,,survey-text,375,1681072,0.0-19.0-3.12,87700,List2A,white,man,,,,,"{""Q0"":""kate and fred are marrying each other""}","<img src=""stim_listA/marry4.gif""</stim_listA>",are marrying each other,
null,"<div style=""font-size:60px;"">+</div>",,html-keyboard-response,376,1681601,0.0-19.0-0.13,87700,List2A,white,man,,,,null,,,,
null,"<img src=""stim_listA/fight5.gif""</stim_listA>",,html-keyboard-response,377,1683621,0.0-19.0-1.13,87700,List2A,white,man,,,,null,,,,
null,is fighting,,html-keyboard-response,378,1685609,0.0-19.0-2.13,87700,List2A,white,man,,,,null,,,,
6051,,,survey-text,379,1691663,0.0-19.0-3.13,87700,List2A,white,man,,,,,"{""Q0"":""dave is fighting mike""}","<img src=""stim_listA/fight5.gif""</stim_listA>",is fighting,
null,"<div style=""font-size:60px;"">+</div>",,html-keyboard-response,380,1692190,0.0-19.0-0.14,87700,List2A,white,man,,,,null,,,,
null,"<img src=""stim_listA/hug4.gif""</stim_listA>",,html-keyboard-response,381,1694211,0.0-19.0-1.14,87700,List2A,white,man,,,,null,,,,
null,are hugging each other,,html-keyboard-response,382,1696214,0.0-19.0-2.14,87700,List2A,white,man,,,,null,,,,
10270,,,survey-text,383,1706489,0.0-19.0-3.14,87700,List2A,white,man,,,,,"{""Q0"":""mike and kate are hugging each other""}","<img src=""stim_listA/hug4.gif""</stim_listA>",are hugging each other,
null,"<div style=""font-size:60px;"">+</div>",,html-keyboard-response,384,1707020,0.0-19.0-0.15,87700,List2A,white,man,,,,null,,,,
null,"<img src=""stim_listA/hug5.gif""</stim_listA>",,html-keyboard-response,385,1709031,0.0-19.0-1.15,87700,List2A,white,man,,,,null,,,,
null,is hugging,,html-keyboard-response,386,1711046,0.0-19.0-2.15,87700,List2A,white,man,,,,null,,,,
7015,,,survey-text,387,1718065,0.0-19.0-3.15,87700,List2A,white,man,,,,,"{""Q0"":""luke is higging fred""}","<img src=""stim_listA/hug5.gif""</stim_listA>",is hugging,
null,"<div style=""font-size:60px;"">+</div>",,html-keyboard-response,388,1718576,0.0-19.0-0.16,87700,List2A,white,man,,,,null,,,,
null,"<img src=""stim_listA/kiss3.gif""</stim_listA>",,html-keyboard-response,389,1720597,0.0-19.0-1.16,87700,List2A,white,man,,,,null,,,,
null,is kissing,,html-keyboard-response,390,1722600,0.0-19.0-2.16,87700,List2A,white,man,,,,null,,,,
7051,,,survey-text,391,1729655,0.0-19.0-3.16,87700,List2A,white,man,,,,,"{""Q0"":""fred is kissing beth""}","<img src=""stim_listA/kiss3.gif""</stim_listA>",is kissing,
null,"<div style=""font-size:60px;"">+</div>",,html-keyboard-response,392,1730178,0.0-19.0-0.17,87700,List2A,white,man,,,,null,,,,
null,"<img src=""stim_listA/shout8.gif""</stim_listA>",,html-keyboard-response,393,1732203,0.0-19.0-1.17,87700,List2A,white,man,,,,null,,,,
null,are shouting at each other,,html-keyboard-response,394,1734191,0.0-19.0-2.17,87700,List2A,white,man,,,,null,,,,
15502,,,survey-text,395,1749698,0.0-19.0-3.17,87700,List2A,white,man,,,,,"{""Q0"":""beth and jane are shouting at each other""}","<img src=""stim_listA/shout8.gif""</stim_listA>",are shouting at each other,
null,"<div style=""font-size:60px;"">+</div>",,html-keyboard-response,396,1750219,0.0-19.0-0.18,87700,List2A,white,man,,,,null,,,,
null,"<img src=""stim_listA/touch1.gif""</stim_listA>",,html-keyboard-response,397,1752228,0.0-19.0-1.18,87700,List2A,white,man,,,,null,,,,
null,is touching,,html-keyboard-response,398,1754221,0.0-19.0-2.18,87700,List2A,white,man,,,,null,,,,
8772,,,survey-text,399,1762997,0.0-19.0-3.18,87700,List2A,white,man,,,,,"{""Q0"":""mike is touching jane""}","<img src=""stim_listA/touch1.gif""</stim_listA>",is touching,
null,"<div style=""font-size:60px;"">+</div>",,html-keyboard-response,400,1763534,0.0-19.0-0.19,87700,List2A,white,man,,,,null,,,,
null,"<img src=""stim_listA/marry6.gif""</stim_listA>",,html-keyboard-response,401,1765545,0.0-19.0-1.19,87700,List2A,white,man,,,,null,,,,
null,are marrying each other,,html-keyboard-response,402,1767566,0.0-19.0-2.19,87700,List2A,white,man,,,,null,,,,
9445,,,survey-text,403,1777014,0.0-19.0-3.19,87700,List2A,white,man,,,,,"{""Q0"":""luke and mike are marrying each other""}","<img src=""stim_listA/marry6.gif""</stim_listA>",are marrying each other,
4603,<p>Thank you for completing that task.</p><p>The final part of this session is a short questionnaire.</p><p>Press Continue.</p>,0,html-button-response,404,1781624,0.0-20.0,87700,List2A,white,man,,,,,,,,
22257,,,survey-text,405,1804887,0.0-21.0,87700,List2A,white,man,,,,,"{""Q0"":""18"",""Q1"":""english"",""Q2"":""english"",""Q3"":""england"",""Q4"":""white"",""Q5"":""male""}",,,demographics
63124,,,survey-likert,406,1868023,0.0-22.0,87700,List2A,white,man,,,,,"{""Q0"":4,""Q1"":4,""Q2"":4,""Q3"":5,""Q4"":2,""Q5"":5,""Q6"":4,""Q7"":3,""Q8"":2,""Q9"":2,""Q10"":1,""Q11"":2,""Q12"":3,""Q13"":2}",,,likert_race
47502,,,survey-likert,407,1915530,0.0-23.0,87700,List2A,white,man,,,,,"{""Q0"":5,""Q1"":5,""Q2"":5,""Q3"":5,""Q4"":2,""Q5"":5,""Q6"":4,""Q7"":4,""Q8"":4,""Q9"":5,""Q10"":4,""Q11"":4,""Q12"":3,""Q13"":""""}",,,likert_gender
11665,,,survey-text,408,1927201,0.0-24.0,87700,List2A,white,man,,,,,"{""Q0"":""ccc""}",,,worker_id
34295,,,external-html,409,1961568,0.0-25.0,87700,List2A,white,man,debrief.html,,,,,,,
