rt,stimulus,button_pressed,trial_type,trial_index,time_elapsed,internal_node_id,subject,list,ppt_race,ppt_gender,url,first_guess,correct,key_press,responses,image_type,phrase_type,test_part
519231,Welcome to the experiment. Press Continue to begin.,0,html-button-response,0,519254,0.0-0.0,88432,List2A,white,man,,,,,,,,
85763,,,external-html,1,607366,0.0-1.0,88432,List2A,white,man,consent.html,,,,,,,
15353,"<p>On the next page, you will see portraits of 8 people and their names.</p><p>Your first task is to take a few minutes to memorise the names of these people.</p><p>You will have to recall their names during the rest of the experiment, so it is</p><p>essential that you try to memorise these people and their names as best as you can.</p><br><p><strong>You will then be tested on your memory of these names and portraits.</strong></p><br><p>The experiment will start after you have completed this memory test.</p><br><p>Ready?</p>",0,html-button-response,2,622721,0.0-2.0,88432,List2A,white,man,,,,,,,,
200139,"<img src='img/portrait_matrix_list2.JPG' style='width:900px;height:500px;''></img><p>If you have memorised all the portraits and names and are ready to start, press Continue.</p><p><strong>Please note: Your memory of these faces will be tested 4 times during this experiment.</strong></p>",0,html-button-response,3,823864,0.0-3.0-0.0,88432,List2A,white,man,,,,,,,,
11495,"<img src=""portrait/BW1.jpg""style=""width:400px;height:400px;""></img>",0,html-button-response,4,836377,0.0-3.0-1.0,88432,List2A,white,man,,TRUE,0,,,,,
null,CORRECT,,html-keyboard-response,5,837892,0.0-3.0-2.0-0.0,88432,List2A,white,man,,,,null,,,,
17888,"<img src=""portrait/WW1.jpg""style=""width:400px;height:400px;""></img>",1,html-button-response,6,855783,0.0-3.0-4.0,88432,List2A,white,man,,TRUE,1,,,,,
null,CORRECT,,html-keyboard-response,7,857297,0.0-3.0-5.0-0.0,88432,List2A,white,man,,,,null,,,,
10792,"<img src=""portrait/WM1.jpg""style=""width:400px;height:400px;""></img>",7,html-button-response,8,868090,0.0-3.0-7.0,88432,List2A,white,man,,TRUE,6,,,,,
4266,"<img src=""portrait/WM1.jpg""style=""width:400px;height:400px;""></img>",6,html-button-response,9,873371,0.0-3.0-9.0-0.0,88432,List2A,white,man,,FALSE,6,,,,,
null,CORRECT,,html-keyboard-response,10,874891,0.0-3.0-9.0-1.0-0.0,88432,List2A,white,man,,,,null,,,,
6696,"<img src=""portrait/BW2.jpg""style=""width:400px;height:400px;""></img>",2,html-button-response,11,881589,0.0-3.0-10.0,88432,List2A,white,man,,TRUE,2,,,,,
null,CORRECT,,html-keyboard-response,12,883104,0.0-3.0-11.0-0.0,88432,List2A,white,man,,,,null,,,,
7279,"<img src=""portrait/WM2.jpg""style=""width:400px;height:400px;""></img>",7,html-button-response,13,890385,0.0-3.0-13.0,88432,List2A,white,man,,TRUE,7,,,,,
null,CORRECT,,html-keyboard-response,14,891891,0.0-3.0-14.0-0.0,88432,List2A,white,man,,,,null,,,,
12100,"<img src=""portrait/BM1.jpg""style=""width:400px;height:400px;""></img>",4,html-button-response,15,903993,0.0-3.0-16.0,88432,List2A,white,man,,TRUE,4,,,,,
null,CORRECT,,html-keyboard-response,16,905510,0.0-3.0-17.0-0.0,88432,List2A,white,man,,,,null,,,,
3388,"<img src=""portrait/BM2.jpg""style=""width:400px;height:400px;""></img>",5,html-button-response,17,908901,0.0-3.0-19.0,88432,List2A,white,man,,TRUE,5,,,,,
null,CORRECT,,html-keyboard-response,18,910422,0.0-3.0-20.0-0.0,88432,List2A,white,man,,,,null,,,,
3390,"<img src=""portrait/WW2.jpg""style=""width:400px;height:400px;""></img>",3,html-button-response,19,913814,0.0-3.0-22.0,88432,List2A,white,man,,TRUE,3,,,,,
null,CORRECT,,html-keyboard-response,20,915318,0.0-3.0-23.0-0.0,88432,List2A,white,man,,,,null,,,,
2321,<p>You got 7 out of 8 right first time. Press Continue.</p>,0,html-button-response,21,917641,0.0-3.0-25.0,88432,List2A,white,man,,,,,,,,
3835,"As you did not score 100%, the memory game will repeat. Press Continue.",0,html-button-response,22,922487,0.0-3.0-26.0-0.0,88432,List2A,white,man,,,,,,,,
12216,"<img src='img/portrait_matrix_list2.JPG' style='width:900px;height:500px;''></img><p>If you have memorised all the portraits and names and are ready to start, press Continue.</p><p><strong>Please note: Your memory of these faces will be tested 4 times during this experiment.</strong></p>",0,html-button-response,23,935713,0.0-3.1-0.1,88432,List2A,white,man,,,,,,,,
5622,"<img src=""portrait/BW1.jpg""style=""width:400px;height:400px;""></img>",0,html-button-response,24,942348,0.0-3.1-1.1,88432,List2A,white,man,,TRUE,0,,,,,
null,CORRECT,,html-keyboard-response,25,943858,0.0-3.1-2.1-0.1,88432,List2A,white,man,,,,null,,,,
10600,"<img src=""portrait/WW1.jpg""style=""width:400px;height:400px;""></img>",1,html-button-response,26,954460,0.0-3.1-4.1,88432,List2A,white,man,,TRUE,1,,,,,
null,CORRECT,,html-keyboard-response,27,955982,0.0-3.1-5.1-0.1,88432,List2A,white,man,,,,null,,,,
4547,"<img src=""portrait/WM1.jpg""style=""width:400px;height:400px;""></img>",6,html-button-response,28,960532,0.0-3.1-7.1,88432,List2A,white,man,,TRUE,6,,,,,
null,CORRECT,,html-keyboard-response,29,962035,0.0-3.1-8.1-0.1,88432,List2A,white,man,,,,null,,,,
5537,"<img src=""portrait/BW2.jpg""style=""width:400px;height:400px;""></img>",2,html-button-response,30,967574,0.0-3.1-10.1,88432,List2A,white,man,,TRUE,2,,,,,
null,CORRECT,,html-keyboard-response,31,969082,0.0-3.1-11.1-0.1,88432,List2A,white,man,,,,null,,,,
3700,"<img src=""portrait/WM2.jpg""style=""width:400px;height:400px;""></img>",7,html-button-response,32,972784,0.0-3.1-13.1,88432,List2A,white,man,,TRUE,7,,,,,
null,CORRECT,,html-keyboard-response,33,974300,0.0-3.1-14.1-0.1,88432,List2A,white,man,,,,null,,,,
2527,"<img src=""portrait/BM1.jpg""style=""width:400px;height:400px;""></img>",4,html-button-response,34,976830,0.0-3.1-16.1,88432,List2A,white,man,,TRUE,4,,,,,
null,CORRECT,,html-keyboard-response,35,978341,0.0-3.1-17.1-0.1,88432,List2A,white,man,,,,null,,,,
1537,"<img src=""portrait/BM2.jpg""style=""width:400px;height:400px;""></img>",5,html-button-response,36,979881,0.0-3.1-19.1,88432,List2A,white,man,,TRUE,5,,,,,
null,CORRECT,,html-keyboard-response,37,981394,0.0-3.1-20.1-0.1,88432,List2A,white,man,,,,null,,,,
2017,"<img src=""portrait/WW2.jpg""style=""width:400px;height:400px;""></img>",3,html-button-response,38,983412,0.0-3.1-22.1,88432,List2A,white,man,,TRUE,3,,,,,
null,CORRECT,,html-keyboard-response,39,984932,0.0-3.1-23.1-0.1,88432,List2A,white,man,,,,null,,,,
1418,<p>You got 8 out of 8 right first time. Press Continue.</p>,0,html-button-response,40,986353,0.0-3.1-25.1,88432,List2A,white,man,,,,,,,,
54211,"<p>In this experiment, you will view photographs of the people from the memory game interacting.</p><p>By using the <strong>exact</strong> phrase given <i>after</i> the photograph appears and recalling the correct names of the people in the photographs, form a sentence describing the interaction. You do not need to capitalise names.</p><p>Type your answer in the space provided. Please complete every sentence before moving onto the next trial.</p><p>You will only have a few seconds to memorise each given photograph and phrase before you can respond, so try your best to focus.</p><p>An example is given below. Press 'Continue' when you are ready.</p><img src='img/speaking_example_v2.jpg' style='width:800px;height:460px;''></img>",0,html-button-response,41,1041581,0.0-4.0,88432,List2A,white,man,,,,,,,,
2790,"<p>Before the experiment starts, you will watch two example trials. Press 'Continue'.</p>",0,html-button-response,42,1045374,0.0-5.0,88432,List2A,white,man,,,,,,,,
null,<img src='img/speaking_WW.gif'></img>,,html-keyboard-response,43,1048396,0.0-6.0,88432,List2A,white,man,,,,null,,,,
null,<p>is speaking to</p>,,html-keyboard-response,44,1050406,0.0-7.0,88432,List2A,white,man,,,,null,,,,
5315,<p><b>Answer:</b> jane is speaking to ruth</p>,0,html-button-response,45,1055723,0.0-8.0,88432,List2A,white,man,,,,,,,,
null,<img src='img/pointing_BM.gif'></img>,,html-keyboard-response,46,1058738,0.0-9.0,88432,List2A,white,man,,,,null,,,,
null,<p>are pointing at each other</p>,,html-keyboard-response,47,1060749,0.0-10.0,88432,List2A,white,man,,,,null,,,,
5672,<p><b>Answer:</b> fred and mike are pointing at each other</p>,0,html-button-response,48,1066422,0.0-11.0,88432,List2A,white,man,,,,,,,,
19085,"<p>Ready to start the experiment?</p><br><p><strong>Remember to describe the picture using a full sentence,</strong></p><p><strong>that combines the names of the people with the given phrase.</strong></p><p><strong>If you do not do this correctly you will not be paid.</strong></p><p><strong> You do not need to capitalise names or use punctuation.</strong></p><br><p>Press 'Continue' to begin.</p>",0,html-button-response,49,1086523,0.0-12.0,88432,List2A,white,man,,,,,,,,
null,"<div style=""font-size:60px;"">+</div>",,html-keyboard-response,50,1088025,0.0-13.0-0.0,88432,List2A,white,man,,,,null,,,,
null,"<img src=""stim_listA/meet5.gif""</stim_listA>",,html-keyboard-response,51,1090029,0.0-13.0-1.0,88432,List2A,white,man,,,,null,,,,
null,is meeting,,html-keyboard-response,52,1092031,0.0-13.0-2.0,88432,List2A,white,man,,,,null,,,,
13148,,,survey-text,53,1105180,0.0-13.0-3.0,88432,List2A,white,man,,,,,"{""Q0"":""Dave is meeting Mike""}","<img src=""stim_listA/meet5.gif""</stim_listA>",is meeting,
null,"<div style=""font-size:60px;"">+</div>",,html-keyboard-response,54,1105687,0.0-13.0-0.1,88432,List2A,white,man,,,,null,,,,
null,"<img src=""stim_listA/dance2.gif""</stim_listA>",,html-keyboard-response,55,1107697,0.0-13.0-1.1,88432,List2A,white,man,,,,null,,,,
null,are dancing with each other,,html-keyboard-response,56,1109702,0.0-13.0-2.1,88432,List2A,white,man,,,,null,,,,
25975,,,survey-text,57,1135678,0.0-13.0-3.1,88432,List2A,white,man,,,,,"{""Q0"":""Ruth and Dave are dancing with each other""}","<img src=""stim_listA/dance2.gif""</stim_listA>",are dancing with each other,
null,"<div style=""font-size:60px;"">+</div>",,html-keyboard-response,58,1136195,0.0-13.0-0.2,88432,List2A,white,man,,,,null,,,,
null,"<img src=""stim_listA/meet6.gif""</stim_listA>",,html-keyboard-response,59,1138202,0.0-13.0-1.2,88432,List2A,white,man,,,,null,,,,
null,are meeting each other,,html-keyboard-response,60,1140203,0.0-13.0-2.2,88432,List2A,white,man,,,,null,,,,
22539,,,survey-text,61,1162744,0.0-13.0-3.2,88432,List2A,white,man,,,,,"{""Q0"":""Mike and Luke are meeting each other""}","<img src=""stim_listA/meet6.gif""</stim_listA>",are meeting each other,
null,"<div style=""font-size:60px;"">+</div>",,html-keyboard-response,62,1163245,0.0-13.0-0.3,88432,List2A,white,man,,,,null,,,,
null,"<img src=""stim_listA/dance8.gif""</stim_listA>",,html-keyboard-response,63,1165248,0.0-13.0-1.3,88432,List2A,white,man,,,,null,,,,
null,are dancing with each other,,html-keyboard-response,64,1167250,0.0-13.0-2.3,88432,List2A,white,man,,,,null,,,,
21371,,,survey-text,65,1188622,0.0-13.0-3.3,88432,List2A,white,man,,,,,"{""Q0"":""Beth and Jane are dancing with each other""}","<img src=""stim_listA/dance8.gif""</stim_listA>",are dancing with each other,
null,"<div style=""font-size:60px;"">+</div>",,html-keyboard-response,66,1189123,0.0-13.0-0.4,88432,List2A,white,man,,,,null,,,,
null,"<img src=""stim_listA/meet1.gif""</stim_listA>",,html-keyboard-response,67,1191126,0.0-13.0-1.4,88432,List2A,white,man,,,,null,,,,
null,is meeting,,html-keyboard-response,68,1193129,0.0-13.0-2.4,88432,List2A,white,man,,,,null,,,,
7895,,,survey-text,69,1201026,0.0-13.0-3.4,88432,List2A,white,man,,,,,"{""Q0"":""Dave is meeting Jane""}","<img src=""stim_listA/meet1.gif""</stim_listA>",is meeting,
null,"<div style=""font-size:60px;"">+</div>",,html-keyboard-response,70,1201533,0.0-13.0-0.5,88432,List2A,white,man,,,,null,,,,
null,"<img src=""stim_listA/kiss7.gif""</stim_listA>",,html-keyboard-response,71,1203550,0.0-13.0-1.5,88432,List2A,white,man,,,,null,,,,
null,is kissing,,html-keyboard-response,72,1205557,0.0-13.0-2.5,88432,List2A,white,man,,,,null,,,,
23625,,,survey-text,73,1229183,0.0-13.0-3.5,88432,List2A,white,man,,,,,"{""Q0"":""Ruth is Kissing Beth""}","<img src=""stim_listA/kiss7.gif""</stim_listA>",is kissing,
null,"<div style=""font-size:60px;"">+</div>",,html-keyboard-response,74,1229699,0.0-13.0-0.6,88432,List2A,white,man,,,,null,,,,
null,"<img src=""stim_listA/touch3.gif""</stim_listA>",,html-keyboard-response,75,1231711,0.0-13.0-1.6,88432,List2A,white,man,,,,null,,,,
null,is touching,,html-keyboard-response,76,1233722,0.0-13.0-2.6,88432,List2A,white,man,,,,null,,,,
9741,,,survey-text,77,1243465,0.0-13.0-3.6,88432,List2A,white,man,,,,,"{""Q0"":""Mike is touching Kate""}","<img src=""stim_listA/touch3.gif""</stim_listA>",is touching,
null,"<div style=""font-size:60px;"">+</div>",,html-keyboard-response,78,1243970,0.0-13.0-0.7,88432,List2A,white,man,,,,null,,,,
null,"<img src=""stim_listA/fight4.gif""</stim_listA>",,html-keyboard-response,79,1245980,0.0-13.0-1.7,88432,List2A,white,man,,,,null,,,,
null,are fighting each other,,html-keyboard-response,80,1247981,0.0-13.0-2.7,88432,List2A,white,man,,,,null,,,,
14898,,,survey-text,81,1262880,0.0-13.0-3.7,88432,List2A,white,man,,,,,"{""Q0"":""Beth and Fred are fighting each other""}","<img src=""stim_listA/fight4.gif""</stim_listA>",are fighting each other,
null,"<div style=""font-size:60px;"">+</div>",,html-keyboard-response,82,1263396,0.0-13.0-0.8,88432,List2A,white,man,,,,null,,,,
null,"<img src=""stim_listA/hug3.gif""</stim_listA>",,html-keyboard-response,83,1265401,0.0-13.0-1.8,88432,List2A,white,man,,,,null,,,,
null,is hugging,,html-keyboard-response,84,1267413,0.0-13.0-2.8,88432,List2A,white,man,,,,null,,,,
10138,,,survey-text,85,1277552,0.0-13.0-3.8,88432,List2A,white,man,,,,,"{""Q0"":""Fred is Hugging Beth""}","<img src=""stim_listA/hug3.gif""</stim_listA>",is hugging,
null,"<div style=""font-size:60px;"">+</div>",,html-keyboard-response,86,1278054,0.0-13.0-0.9,88432,List2A,white,man,,,,null,,,,
null,"<img src=""stim_listA/meet2.gif""</stim_listA>",,html-keyboard-response,87,1280057,0.0-13.0-1.9,88432,List2A,white,man,,,,null,,,,
null,are meeting each other,,html-keyboard-response,88,1282059,0.0-13.0-2.9,88432,List2A,white,man,,,,null,,,,
14027,,,survey-text,89,1296087,0.0-13.0-3.9,88432,List2A,white,man,,,,,"{""Q0"":""Ruth and Luke are meeting each other""}","<img src=""stim_listA/meet2.gif""</stim_listA>",are meeting each other,
null,"<div style=""font-size:60px;"">+</div>",,html-keyboard-response,90,1296593,0.0-13.0-0.10,88432,List2A,white,man,,,,null,,,,
null,"<img src=""stim_listA/fight5.gif""</stim_listA>",,html-keyboard-response,91,1298596,0.0-13.0-1.10,88432,List2A,white,man,,,,null,,,,
null,is fighting,,html-keyboard-response,92,1300604,0.0-13.0-2.10,88432,List2A,white,man,,,,null,,,,
6938,,,survey-text,93,1307543,0.0-13.0-3.10,88432,List2A,white,man,,,,,"{""Q0"":""Dave is fighting Mike""}","<img src=""stim_listA/fight5.gif""</stim_listA>",is fighting,
null,"<div style=""font-size:60px;"">+</div>",,html-keyboard-response,94,1308045,0.0-13.0-0.11,88432,List2A,white,man,,,,null,,,,
null,"<img src=""stim_listA/fight6.gif""</stim_listA>",,html-keyboard-response,95,1310048,0.0-13.0-1.11,88432,List2A,white,man,,,,null,,,,
null,are fighting each other,,html-keyboard-response,96,1312049,0.0-13.0-2.11,88432,List2A,white,man,,,,null,,,,
10768,,,survey-text,97,1322819,0.0-13.0-3.11,88432,List2A,white,man,,,,,"{""Q0"":""Fred and Mike are fighting each other""}","<img src=""stim_listA/fight6.gif""</stim_listA>",are fighting each other,
null,"<div style=""font-size:60px;"">+</div>",,html-keyboard-response,98,1323320,0.0-13.0-0.12,88432,List2A,white,man,,,,null,,,,
null,"<img src=""stim_listA/marry7.gif""</stim_listA>",,html-keyboard-response,99,1325333,0.0-13.0-1.12,88432,List2A,white,man,,,,null,,,,
null,is marrying,,html-keyboard-response,100,1327338,0.0-13.0-2.12,88432,List2A,white,man,,,,null,,,,
23310,,,survey-text,101,1350649,0.0-13.0-3.12,88432,List2A,white,man,,,,,"{""Q0"":""Jane is marrying Beth""}","<img src=""stim_listA/marry7.gif""</stim_listA>",is marrying,
null,"<div style=""font-size:60px;"">+</div>",,html-keyboard-response,102,1351161,0.0-13.0-0.13,88432,List2A,white,man,,,,null,,,,
null,"<img src=""stim_listA/argue3.gif""</stim_listA>",,html-keyboard-response,103,1353167,0.0-13.0-1.13,88432,List2A,white,man,,,,null,,,,
null,is arguing with,,html-keyboard-response,104,1355169,0.0-13.0-2.13,88432,List2A,white,man,,,,null,,,,
8501,,,survey-text,105,1363671,0.0-13.0-3.13,88432,List2A,white,man,,,,,"{""Q0"":""Beth is arguing with Mike""}","<img src=""stim_listA/argue3.gif""</stim_listA>",is arguing with,
null,"<div style=""font-size:60px;"">+</div>",,html-keyboard-response,106,1364173,0.0-13.0-0.14,88432,List2A,white,man,,,,null,,,,
null,"<img src=""stim_listA/argue5.gif""</stim_listA>",,html-keyboard-response,107,1366175,0.0-13.0-1.14,88432,List2A,white,man,,,,null,,,,
null,is arguing with,,html-keyboard-response,108,1368176,0.0-13.0-2.14,88432,List2A,white,man,,,,null,,,,
8644,,,survey-text,109,1376822,0.0-13.0-3.14,88432,List2A,white,man,,,,,"{""Q0"":""Dave is arguing with Fred""}","<img src=""stim_listA/argue5.gif""</stim_listA>",is arguing with,
null,"<div style=""font-size:60px;"">+</div>",,html-keyboard-response,110,1377332,0.0-13.0-0.15,88432,List2A,white,man,,,,null,,,,
null,"<img src=""stim_listA/hug5.gif""</stim_listA>",,html-keyboard-response,111,1379344,0.0-13.0-1.15,88432,List2A,white,man,,,,null,,,,
null,is hugging,,html-keyboard-response,112,1381345,0.0-13.0-2.15,88432,List2A,white,man,,,,null,,,,
9828,,,survey-text,113,1391174,0.0-13.0-3.15,88432,List2A,white,man,,,,,"{""Q0"":""Fred is hugging Luke""}","<img src=""stim_listA/hug5.gif""</stim_listA>",is hugging,
null,"<div style=""font-size:60px;"">+</div>",,html-keyboard-response,114,1391683,0.0-13.0-0.16,88432,List2A,white,man,,,,null,,,,
null,"<img src=""stim_listA/talk4.gif""</stim_listA>",,html-keyboard-response,115,1393690,0.0-13.0-1.16,88432,List2A,white,man,,,,null,,,,
null,are talking to each other,,html-keyboard-response,116,1395698,0.0-13.0-2.16,88432,List2A,white,man,,,,null,,,,
12341,,,survey-text,117,1408039,0.0-13.0-3.16,88432,List2A,white,man,,,,,"{""Q0"":""Mike and Beth are talking to each other""}","<img src=""stim_listA/talk4.gif""</stim_listA>",are talking to each other,
null,"<div style=""font-size:60px;"">+</div>",,html-keyboard-response,118,1408551,0.0-13.0-0.17,88432,List2A,white,man,,,,null,,,,
null,"<img src=""stim_listA/marry2.gif""</stim_listA>",,html-keyboard-response,119,1410566,0.0-13.0-1.17,88432,List2A,white,man,,,,null,,,,
null,are marrying each other,,html-keyboard-response,120,1412583,0.0-13.0-2.17,88432,List2A,white,man,,,,null,,,,
22187,,,survey-text,121,1434772,0.0-13.0-3.17,88432,List2A,white,man,,,,,"{""Q0"":""The picture didn't appear sorry""}","<img src=""stim_listA/marry2.gif""</stim_listA>",are marrying each other,
null,"<div style=""font-size:60px;"">+</div>",,html-keyboard-response,122,1435281,0.0-13.0-0.18,88432,List2A,white,man,,,,null,,,,
null,"<img src=""stim_listA/dance5.gif""</stim_listA>",,html-keyboard-response,123,1437291,0.0-13.0-1.18,88432,List2A,white,man,,,,null,,,,
null,is dancing with,,html-keyboard-response,124,1439299,0.0-13.0-2.18,88432,List2A,white,man,,,,null,,,,
9024,,,survey-text,125,1448324,0.0-13.0-3.18,88432,List2A,white,man,,,,,"{""Q0"":""Luke is dancing with Mike""}","<img src=""stim_listA/dance5.gif""</stim_listA>",is dancing with,
null,"<div style=""font-size:60px;"">+</div>",,html-keyboard-response,126,1448834,0.0-13.0-0.19,88432,List2A,white,man,,,,null,,,,
null,"<img src=""stim_listA/talk3.gif""</stim_listA>",,html-keyboard-response,127,1450844,0.0-13.0-1.19,88432,List2A,white,man,,,,null,,,,
null,is talking to,,html-keyboard-response,128,1452853,0.0-13.0-2.19,88432,List2A,white,man,,,,null,,,,
10331,,,survey-text,129,1463186,0.0-13.0-3.19,88432,List2A,white,man,,,,,"{""Q0"":""Fred is talking to Kate""}","<img src=""stim_listA/talk3.gif""</stim_listA>",is talking to,
18272,"<img src='img/portrait_matrix_list2.JPG' style='width:900px;height:500px;''></img><p>If you have memorised all the portraits and names and are ready to start, press Continue.</p><p><strong>Please note: Your memory of these faces will be tested 4 times during this experiment.</strong></p>",0,html-button-response,130,1481460,0.0-14.0-0.0,88432,List2A,white,man,,,,,,,,
2345,"<img src=""portrait/WM1.jpg""style=""width:400px;height:400px;""></img>",6,html-button-response,131,1484810,0.0-14.0-1.0,88432,List2A,white,man,,TRUE,6,,,,,
null,CORRECT,,html-keyboard-response,132,1486315,0.0-14.0-2.0-0.0,88432,List2A,white,man,,,,null,,,,
3488,"<img src=""portrait/WW1.jpg""style=""width:400px;height:400px;""></img>",1,html-button-response,133,1489806,0.0-14.0-4.0,88432,List2A,white,man,,TRUE,1,,,,,
null,CORRECT,,html-keyboard-response,134,1491320,0.0-14.0-5.0-0.0,88432,List2A,white,man,,,,null,,,,
6835,"<img src=""portrait/BW1.jpg""style=""width:400px;height:400px;""></img>",0,html-button-response,135,1498159,0.0-14.0-7.0,88432,List2A,white,man,,TRUE,0,,,,,
null,CORRECT,,html-keyboard-response,136,1499667,0.0-14.0-8.0-0.0,88432,List2A,white,man,,,,null,,,,
2151,"<img src=""portrait/WW2.jpg""style=""width:400px;height:400px;""></img>",3,html-button-response,137,1501819,0.0-14.0-10.0,88432,List2A,white,man,,TRUE,3,,,,,
null,CORRECT,,html-keyboard-response,138,1503325,0.0-14.0-11.0-0.0,88432,List2A,white,man,,,,null,,,,
2066,"<img src=""portrait/WM2.jpg""style=""width:400px;height:400px;""></img>",7,html-button-response,139,1505393,0.0-14.0-13.0,88432,List2A,white,man,,TRUE,7,,,,,
null,CORRECT,,html-keyboard-response,140,1506917,0.0-14.0-14.0-0.0,88432,List2A,white,man,,,,null,,,,
3130,"<img src=""portrait/BM1.jpg""style=""width:400px;height:400px;""></img>",4,html-button-response,141,1510049,0.0-14.0-16.0,88432,List2A,white,man,,TRUE,4,,,,,
null,CORRECT,,html-keyboard-response,142,1511562,0.0-14.0-17.0-0.0,88432,List2A,white,man,,,,null,,,,
3986,"<img src=""portrait/BM2.jpg""style=""width:400px;height:400px;""></img>",5,html-button-response,143,1515550,0.0-14.0-19.0,88432,List2A,white,man,,TRUE,5,,,,,
null,CORRECT,,html-keyboard-response,144,1517059,0.0-14.0-20.0-0.0,88432,List2A,white,man,,,,null,,,,
2280,"<img src=""portrait/BW2.jpg""style=""width:400px;height:400px;""></img>",2,html-button-response,145,1519341,0.0-14.0-22.0,88432,List2A,white,man,,TRUE,2,,,,,
null,CORRECT,,html-keyboard-response,146,1520851,0.0-14.0-23.0-0.0,88432,List2A,white,man,,,,null,,,,
1506,<p>You got 8 out of 8 right first time. Press Continue.</p>,0,html-button-response,147,1522358,0.0-14.0-25.0,88432,List2A,white,man,,,,,,,,
null,"<div style=""font-size:60px;"">+</div>",,html-keyboard-response,148,1523870,0.0-15.0-0.0,88432,List2A,white,man,,,,null,,,,
null,"<img src=""stim_listA/meet3.gif""</stim_listA>",,html-keyboard-response,149,1525888,0.0-15.0-1.0,88432,List2A,white,man,,,,null,,,,
null,is meeting,,html-keyboard-response,150,1527890,0.0-15.0-2.0,88432,List2A,white,man,,,,null,,,,
6326,,,survey-text,151,1534218,0.0-15.0-3.0,88432,List2A,white,man,,,,,"{""Q0"":""Mike is meeting Kate""}","<img src=""stim_listA/meet3.gif""</stim_listA>",is meeting,
null,"<div style=""font-size:60px;"">+</div>",,html-keyboard-response,152,1534720,0.0-15.0-0.1,88432,List2A,white,man,,,,null,,,,
null,"<img src=""stim_listA/kiss1.gif""</stim_listA>",,html-keyboard-response,153,1536726,0.0-15.0-1.1,88432,List2A,white,man,,,,null,,,,
null,is kissing,,html-keyboard-response,154,1538727,0.0-15.0-2.1,88432,List2A,white,man,,,,null,,,,
6374,,,survey-text,155,1545102,0.0-15.0-3.1,88432,List2A,white,man,,,,,"{""Q0"":""Luke is kissing Ruth""}","<img src=""stim_listA/kiss1.gif""</stim_listA>",is kissing,
null,"<div style=""font-size:60px;"">+</div>",,html-keyboard-response,156,1545616,0.0-15.0-0.2,88432,List2A,white,man,,,,null,,,,
null,"<img src=""stim_listA/marry1.gif""</stim_listA>",,html-keyboard-response,157,1547624,0.0-15.0-1.2,88432,List2A,white,man,,,,null,,,,
null,is marrying,,html-keyboard-response,158,1549626,0.0-15.0-2.2,88432,List2A,white,man,,,,null,,,,
6443,,,survey-text,159,1556070,0.0-15.0-3.2,88432,List2A,white,man,,,,,"{""Q0"":""Dave is marrying Ruth""}","<img src=""stim_listA/marry1.gif""</stim_listA>",is marrying,
null,"<div style=""font-size:60px;"">+</div>",,html-keyboard-response,160,1556585,0.0-15.0-0.3,88432,List2A,white,man,,,,null,,,,
null,"<img src=""stim_listA/marry8.gif""</stim_listA>",,html-keyboard-response,161,1558593,0.0-15.0-1.3,88432,List2A,white,man,,,,null,,,,
null,are marrying each other,,html-keyboard-response,162,1560596,0.0-15.0-2.3,88432,List2A,white,man,,,,null,,,,
11880,,,survey-text,163,1572477,0.0-15.0-3.3,88432,List2A,white,man,,,,,"{""Q0"":""Kate and Ruth are marrying each other""}","<img src=""stim_listA/marry8.gif""</stim_listA>",are marrying each other,
null,"<div style=""font-size:60px;"">+</div>",,html-keyboard-response,164,1572982,0.0-15.0-0.4,88432,List2A,white,man,,,,null,,,,
null,"<img src=""stim_listA/fight8.gif""</stim_listA>",,html-keyboard-response,165,1574985,0.0-15.0-1.4,88432,List2A,white,man,,,,null,,,,
null,are fighting each other,,html-keyboard-response,166,1576987,0.0-15.0-2.4,88432,List2A,white,man,,,,null,,,,
14167,,,survey-text,167,1591156,0.0-15.0-3.4,88432,List2A,white,man,,,,,"{""Q0"":""Beth and Ruth are fighting each other""}","<img src=""stim_listA/fight8.gif""</stim_listA>",are fighting each other,
null,"<div style=""font-size:60px;"">+</div>",,html-keyboard-response,168,1591666,0.0-15.0-0.5,88432,List2A,white,man,,,,null,,,,
null,"<img src=""stim_listA/fight7.gif""</stim_listA>",,html-keyboard-response,169,1593682,0.0-15.0-1.5,88432,List2A,white,man,,,,null,,,,
null,is fighting,,html-keyboard-response,170,1595684,0.0-15.0-2.5,88432,List2A,white,man,,,,null,,,,
10887,,,survey-text,171,1606573,0.0-15.0-3.5,88432,List2A,white,man,,,,,"{""Q0"":""Jane is fighting Kate""}","<img src=""stim_listA/fight7.gif""</stim_listA>",is fighting,
null,"<div style=""font-size:60px;"">+</div>",,html-keyboard-response,172,1607075,0.0-15.0-0.6,88432,List2A,white,man,,,,null,,,,
null,"<img src=""stim_listA/meet4.gif""</stim_listA>",,html-keyboard-response,173,1609077,0.0-15.0-1.6,88432,List2A,white,man,,,,null,,,,
null,are meeting each other,,html-keyboard-response,174,1611079,0.0-15.0-2.6,88432,List2A,white,man,,,,null,,,,
11082,,,survey-text,175,1622163,0.0-15.0-3.6,88432,List2A,white,man,,,,,"{""Q0"":""Fred and Beth are meeting each other""}","<img src=""stim_listA/meet4.gif""</stim_listA>",are meeting each other,
null,"<div style=""font-size:60px;"">+</div>",,html-keyboard-response,176,1622667,0.0-15.0-0.7,88432,List2A,white,man,,,,null,,,,
null,"<img src=""stim_listA/hug2.gif""</stim_listA>",,html-keyboard-response,177,1624681,0.0-15.0-1.7,88432,List2A,white,man,,,,null,,,,
null,are hugging each other,,html-keyboard-response,178,1626688,0.0-15.0-2.7,88432,List2A,white,man,,,,null,,,,
13093,,,survey-text,179,1639783,0.0-15.0-3.7,88432,List2A,white,man,,,,,"{""Q0"":""Jane and Dave are hugging each other""}","<img src=""stim_listA/hug2.gif""</stim_listA>",are hugging each other,
null,"<div style=""font-size:60px;"">+</div>",,html-keyboard-response,180,1640298,0.0-15.0-0.8,88432,List2A,white,man,,,,null,,,,
null,"<img src=""stim_listA/talk8.gif""</stim_listA>",,html-keyboard-response,181,1642305,0.0-15.0-1.8,88432,List2A,white,man,,,,null,,,,
null,are talking to each other,,html-keyboard-response,182,1644307,0.0-15.0-2.8,88432,List2A,white,man,,,,null,,,,
8229,,,survey-text,183,1652537,0.0-15.0-3.8,88432,List2A,white,man,,,,,"{""Q0"":""Beth and Jane are talking to each other""}","<img src=""stim_listA/talk8.gif""</stim_listA>",are talking to each other,
null,"<div style=""font-size:60px;"">+</div>",,html-keyboard-response,184,1653039,0.0-15.0-0.9,88432,List2A,white,man,,,,null,,,,
null,"<img src=""stim_listA/kiss6.gif""</stim_listA>",,html-keyboard-response,185,1655043,0.0-15.0-1.9,88432,List2A,white,man,,,,null,,,,
null,are kissing each other,,html-keyboard-response,186,1657045,0.0-15.0-2.9,88432,List2A,white,man,,,,null,,,,
12548,,,survey-text,187,1669595,0.0-15.0-3.9,88432,List2A,white,man,,,,,"{""Q0"":""Mike and Dave are Kissing each other""}","<img src=""stim_listA/kiss6.gif""</stim_listA>",are kissing each other,
null,"<div style=""font-size:60px;"">+</div>",,html-keyboard-response,188,1670109,0.0-15.0-0.10,88432,List2A,white,man,,,,null,,,,
null,"<img src=""stim_listA/touch1.gif""</stim_listA>",,html-keyboard-response,189,1672113,0.0-15.0-1.10,88432,List2A,white,man,,,,null,,,,
null,is touching,,html-keyboard-response,190,1674115,0.0-15.0-2.10,88432,List2A,white,man,,,,null,,,,
8831,,,survey-text,191,1682947,0.0-15.0-3.10,88432,List2A,white,man,,,,,"{""Q0"":""Dave is touching Jane""}","<img src=""stim_listA/touch1.gif""</stim_listA>",is touching,
null,"<div style=""font-size:60px;"">+</div>",,html-keyboard-response,192,1683461,0.0-15.0-0.11,88432,List2A,white,man,,,,null,,,,
null,"<img src=""stim_listA/hug6.gif""</stim_listA>",,html-keyboard-response,193,1685468,0.0-15.0-1.11,88432,List2A,white,man,,,,null,,,,
null,are hugging each other,,html-keyboard-response,194,1687478,0.0-15.0-2.11,88432,List2A,white,man,,,,null,,,,
11466,,,survey-text,195,1698946,0.0-15.0-3.11,88432,List2A,white,man,,,,,"{""Q0"":""Mike and Dave are hugging each other""}","<img src=""stim_listA/hug6.gif""</stim_listA>",are hugging each other,
null,"<div style=""font-size:60px;"">+</div>",,html-keyboard-response,196,1699452,0.0-15.0-0.12,88432,List2A,white,man,,,,null,,,,
null,"<img src=""stim_listA/shout8.gif""</stim_listA>",,html-keyboard-response,197,1701469,0.0-15.0-1.12,88432,List2A,white,man,,,,null,,,,
null,are shouting at each other,,html-keyboard-response,198,1703471,0.0-15.0-2.12,88432,List2A,white,man,,,,null,,,,
15981,,,survey-text,199,1719453,0.0-15.0-3.12,88432,List2A,white,man,,,,,"{""Q0"":""Kate and Jane are shouting at each other""}","<img src=""stim_listA/shout8.gif""</stim_listA>",are shouting at each other,
null,"<div style=""font-size:60px;"">+</div>",,html-keyboard-response,200,1719958,0.0-15.0-0.13,88432,List2A,white,man,,,,null,,,,
null,"<img src=""stim_listA/marry6.gif""</stim_listA>",,html-keyboard-response,201,1721970,0.0-15.0-1.13,88432,List2A,white,man,,,,null,,,,
null,are marrying each other,,html-keyboard-response,202,1723971,0.0-15.0-2.13,88432,List2A,white,man,,,,null,,,,
19403,,,survey-text,203,1743376,0.0-15.0-3.13,88432,List2A,white,man,,,,,"{""Q0"":""Mike and Luke are marrying each other""}","<img src=""stim_listA/marry6.gif""</stim_listA>",are marrying each other,
null,"<div style=""font-size:60px;"">+</div>",,html-keyboard-response,204,1743878,0.0-15.0-0.14,88432,List2A,white,man,,,,null,,,,
null,"<img src=""stim_listA/fight1.gif""</stim_listA>",,html-keyboard-response,205,1745886,0.0-15.0-1.14,88432,List2A,white,man,,,,null,,,,
null,is fighting,,html-keyboard-response,206,1747889,0.0-15.0-2.14,88432,List2A,white,man,,,,null,,,,
7526,,,survey-text,207,1755417,0.0-15.0-3.14,88432,List2A,white,man,,,,,"{""Q0"":""Dave is fighting Jane""}","<img src=""stim_listA/fight1.gif""</stim_listA>",is fighting,
null,"<div style=""font-size:60px;"">+</div>",,html-keyboard-response,208,1755930,0.0-15.0-0.15,88432,List2A,white,man,,,,null,,,,
null,"<img src=""stim_listA/shout6.gif""</stim_listA>",,html-keyboard-response,209,1757938,0.0-15.0-1.15,88432,List2A,white,man,,,,null,,,,
null,are shouting at each other,,html-keyboard-response,210,1759948,0.0-15.0-2.15,88432,List2A,white,man,,,,null,,,,
11380,,,survey-text,211,1771330,0.0-15.0-3.15,88432,List2A,white,man,,,,,"{""Q0"":""Mike and Dave are shouting at each other""}","<img src=""stim_listA/shout6.gif""</stim_listA>",are shouting at each other,
null,"<div style=""font-size:60px;"">+</div>",,html-keyboard-response,212,1771842,0.0-15.0-0.16,88432,List2A,white,man,,,,null,,,,
null,"<img src=""stim_listA/shout5.gif""</stim_listA>",,html-keyboard-response,213,1773853,0.0-15.0-1.16,88432,List2A,white,man,,,,null,,,,
null,is shouting at,,html-keyboard-response,214,1775855,0.0-15.0-2.16,88432,List2A,white,man,,,,null,,,,
6568,,,survey-text,215,1782425,0.0-15.0-3.16,88432,List2A,white,man,,,,,"{""Q0"":""Luke is shouting at Fred""}","<img src=""stim_listA/shout5.gif""</stim_listA>",is shouting at,
null,"<div style=""font-size:60px;"">+</div>",,html-keyboard-response,216,1782937,0.0-15.0-0.17,88432,List2A,white,man,,,,null,,,,
null,"<img src=""stim_listA/kiss3.gif""</stim_listA>",,html-keyboard-response,217,1784949,0.0-15.0-1.17,88432,List2A,white,man,,,,null,,,,
null,is kissing,,html-keyboard-response,218,1786950,0.0-15.0-2.17,88432,List2A,white,man,,,,null,,,,
6012,,,survey-text,219,1792963,0.0-15.0-3.17,88432,List2A,white,man,,,,,"{""Q0"":""Fred is kissing Beth""}","<img src=""stim_listA/kiss3.gif""</stim_listA>",is kissing,
null,"<div style=""font-size:60px;"">+</div>",,html-keyboard-response,220,1793470,0.0-15.0-0.18,88432,List2A,white,man,,,,null,,,,
null,"<img src=""stim_listA/talk7.gif""</stim_listA>",,html-keyboard-response,221,1795487,0.0-15.0-1.18,88432,List2A,white,man,,,,null,,,,
null,is talking to,,html-keyboard-response,222,1797496,0.0-15.0-2.18,88432,List2A,white,man,,,,null,,,,
7487,,,survey-text,223,1804985,0.0-15.0-3.18,88432,List2A,white,man,,,,,"{""Q0"":""Ruth is talking to Kate""}","<img src=""stim_listA/talk7.gif""</stim_listA>",is talking to,
null,"<div style=""font-size:60px;"">+</div>",,html-keyboard-response,224,1805500,0.0-15.0-0.19,88432,List2A,white,man,,,,null,,,,
null,"<img src=""stim_listA/hug1.gif""</stim_listA>",,html-keyboard-response,225,1807505,0.0-15.0-1.19,88432,List2A,white,man,,,,null,,,,
null,is hugging,,html-keyboard-response,226,1809518,0.0-15.0-2.19,88432,List2A,white,man,,,,null,,,,
6990,,,survey-text,227,1816509,0.0-15.0-3.19,88432,List2A,white,man,,,,,"{""Q0"":""Luke is hugging Ruth""}","<img src=""stim_listA/hug1.gif""</stim_listA>",is hugging,
2557,"<img src='img/portrait_matrix_list2.JPG' style='width:900px;height:500px;''></img><p>If you have memorised all the portraits and names and are ready to start, press Continue.</p><p><strong>Please note: Your memory of these faces will be tested 4 times during this experiment.</strong></p>",0,html-button-response,228,1819068,0.0-16.0-0.0,88432,List2A,white,man,,,,,,,,
1710,"<img src=""portrait/BW1.jpg""style=""width:400px;height:400px;""></img>",0,html-button-response,229,1821782,0.0-16.0-1.0,88432,List2A,white,man,,TRUE,0,,,,,
null,CORRECT,,html-keyboard-response,230,1823303,0.0-16.0-2.0-0.0,88432,List2A,white,man,,,,null,,,,
2346,"<img src=""portrait/BM1.jpg""style=""width:400px;height:400px;""></img>",4,html-button-response,231,1825651,0.0-16.0-4.0,88432,List2A,white,man,,TRUE,4,,,,,
null,CORRECT,,html-keyboard-response,232,1827158,0.0-16.0-5.0-0.0,88432,List2A,white,man,,,,null,,,,
2179,"<img src=""portrait/BW2.jpg""style=""width:400px;height:400px;""></img>",2,html-button-response,233,1829339,0.0-16.0-7.0,88432,List2A,white,man,,TRUE,2,,,,,
null,CORRECT,,html-keyboard-response,234,1830861,0.0-16.0-8.0-0.0,88432,List2A,white,man,,,,null,,,,
3612,"<img src=""portrait/BM2.jpg""style=""width:400px;height:400px;""></img>",5,html-button-response,235,1834475,0.0-16.0-10.0,88432,List2A,white,man,,TRUE,5,,,,,
null,CORRECT,,html-keyboard-response,236,1835985,0.0-16.0-11.0-0.0,88432,List2A,white,man,,,,null,,,,
1548,"<img src=""portrait/WW2.jpg""style=""width:400px;height:400px;""></img>",3,html-button-response,237,1837536,0.0-16.0-13.0,88432,List2A,white,man,,TRUE,3,,,,,
null,CORRECT,,html-keyboard-response,238,1839041,0.0-16.0-14.0-0.0,88432,List2A,white,man,,,,null,,,,
2782,"<img src=""portrait/WM2.jpg""style=""width:400px;height:400px;""></img>",7,html-button-response,239,1841826,0.0-16.0-16.0,88432,List2A,white,man,,TRUE,7,,,,,
null,CORRECT,,html-keyboard-response,240,1843354,0.0-16.0-17.0-0.0,88432,List2A,white,man,,,,null,,,,
2087,"<img src=""portrait/WM1.jpg""style=""width:400px;height:400px;""></img>",6,html-button-response,241,1845444,0.0-16.0-19.0,88432,List2A,white,man,,TRUE,6,,,,,
null,CORRECT,,html-keyboard-response,242,1846971,0.0-16.0-20.0-0.0,88432,List2A,white,man,,,,null,,,,
2339,"<img src=""portrait/WW1.jpg""style=""width:400px;height:400px;""></img>",1,html-button-response,243,1849311,0.0-16.0-22.0,88432,List2A,white,man,,TRUE,1,,,,,
null,CORRECT,,html-keyboard-response,244,1850837,0.0-16.0-23.0-0.0,88432,List2A,white,man,,,,null,,,,
1384,<p>You got 8 out of 8 right first time. Press Continue.</p>,0,html-button-response,245,1852222,0.0-16.0-25.0,88432,List2A,white,man,,,,,,,,
null,"<div style=""font-size:60px;"">+</div>",,html-keyboard-response,246,1853739,0.0-17.0-0.0,88432,List2A,white,man,,,,null,,,,
null,"<img src=""stim_listA/dance3.gif""</stim_listA>",,html-keyboard-response,247,1855742,0.0-17.0-1.0,88432,List2A,white,man,,,,null,,,,
null,is dancing with,,html-keyboard-response,248,1857744,0.0-17.0-2.0,88432,List2A,white,man,,,,null,,,,
8548,,,survey-text,249,1866293,0.0-17.0-3.0,88432,List2A,white,man,,,,,"{""Q0"":""Fred is dancing with Kate""}","<img src=""stim_listA/dance3.gif""</stim_listA>",is dancing with,
null,"<div style=""font-size:60px;"">+</div>",,html-keyboard-response,250,1866808,0.0-17.0-0.1,88432,List2A,white,man,,,,null,,,,
null,"<img src=""stim_listA/talk5.gif""</stim_listA>",,html-keyboard-response,251,1868825,0.0-17.0-1.1,88432,List2A,white,man,,,,null,,,,
null,is talking to,,html-keyboard-response,252,1870827,0.0-17.0-2.1,88432,List2A,white,man,,,,null,,,,
7874,,,survey-text,253,1878703,0.0-17.0-3.1,88432,List2A,white,man,,,,,"{""Q0"":""Luke is talking to Mike""}","<img src=""stim_listA/talk5.gif""</stim_listA>",is talking to,
null,"<div style=""font-size:60px;"">+</div>",,html-keyboard-response,254,1879218,0.0-17.0-0.2,88432,List2A,white,man,,,,null,,,,
null,"<img src=""stim_listA/marry4.gif""</stim_listA>",,html-keyboard-response,255,1881220,0.0-17.0-1.2,88432,List2A,white,man,,,,null,,,,
null,are marrying each other,,html-keyboard-response,256,1883230,0.0-17.0-2.2,88432,List2A,white,man,,,,null,,,,
13863,,,survey-text,257,1897094,0.0-17.0-3.2,88432,List2A,white,man,,,,,"{""Q0"":""Fred and Kate are marrying each other""}","<img src=""stim_listA/marry4.gif""</stim_listA>",are marrying each other,
null,"<div style=""font-size:60px;"">+</div>",,html-keyboard-response,258,1897602,0.0-17.0-0.3,88432,List2A,white,man,,,,null,,,,
null,"<img src=""stim_listA/kiss4.gif""</stim_listA>",,html-keyboard-response,259,1899610,0.0-17.0-1.3,88432,List2A,white,man,,,,null,,,,
null,are kissing each other,,html-keyboard-response,260,1901612,0.0-17.0-2.3,88432,List2A,white,man,,,,null,,,,
8544,,,survey-text,261,1910157,0.0-17.0-3.3,88432,List2A,white,man,,,,,"{""Q0"":""Kate and Mike are kissing each other""}","<img src=""stim_listA/kiss4.gif""</stim_listA>",are kissing each other,
null,"<div style=""font-size:60px;"">+</div>",,html-keyboard-response,262,1910662,0.0-17.0-0.4,88432,List2A,white,man,,,,null,,,,
null,"<img src=""stim_listA/fight3.gif""</stim_listA>",,html-keyboard-response,263,1912665,0.0-17.0-1.4,88432,List2A,white,man,,,,null,,,,
null,is fighting,,html-keyboard-response,264,1914667,0.0-17.0-2.4,88432,List2A,white,man,,,,null,,,,
6917,,,survey-text,265,1921585,0.0-17.0-3.4,88432,List2A,white,man,,,,,"{""Q0"":""Mike is fighting Kate""}","<img src=""stim_listA/fight3.gif""</stim_listA>",is fighting,
null,"<div style=""font-size:60px;"">+</div>",,html-keyboard-response,266,1922087,0.0-17.0-0.5,88432,List2A,white,man,,,,null,,,,
null,"<img src=""stim_listA/touch7.gif""</stim_listA>",,html-keyboard-response,267,1924091,0.0-17.0-1.5,88432,List2A,white,man,,,,null,,,,
null,is touching,,html-keyboard-response,268,1926092,0.0-17.0-2.5,88432,List2A,white,man,,,,null,,,,
9058,,,survey-text,269,1935152,0.0-17.0-3.5,88432,List2A,white,man,,,,,"{""Q0"":""Jane is touching Kate""}","<img src=""stim_listA/touch7.gif""</stim_listA>",is touching,
null,"<div style=""font-size:60px;"">+</div>",,html-keyboard-response,270,1935664,0.0-17.0-0.6,88432,List2A,white,man,,,,null,,,,
null,"<img src=""stim_listA/dance7.gif""</stim_listA>",,html-keyboard-response,271,1937670,0.0-17.0-1.6,88432,List2A,white,man,,,,null,,,,
null,is dancing with,,html-keyboard-response,272,1939675,0.0-17.0-2.6,88432,List2A,white,man,,,,null,,,,
9155,,,survey-text,273,1948832,0.0-17.0-3.6,88432,List2A,white,man,,,,,"{""Q0"":""Ruth is dancing with Kate""}","<img src=""stim_listA/dance7.gif""</stim_listA>",is dancing with,
null,"<div style=""font-size:60px;"">+</div>",,html-keyboard-response,274,1949337,0.0-17.0-0.7,88432,List2A,white,man,,,,null,,,,
null,"<img src=""stim_listA/kiss5.gif""</stim_listA>",,html-keyboard-response,275,1951342,0.0-17.0-1.7,88432,List2A,white,man,,,,null,,,,
null,is kissing,,html-keyboard-response,276,1953344,0.0-17.0-2.7,88432,List2A,white,man,,,,null,,,,
7033,,,survey-text,277,1960379,0.0-17.0-3.7,88432,List2A,white,man,,,,,"{""Q0"":""Luke is kissing Fred""}","<img src=""stim_listA/kiss5.gif""</stim_listA>",is kissing,
null,"<div style=""font-size:60px;"">+</div>",,html-keyboard-response,278,1960880,0.0-17.0-0.8,88432,List2A,white,man,,,,null,,,,
null,"<img src=""stim_listA/argue4.gif""</stim_listA>",,html-keyboard-response,279,1962887,0.0-17.0-1.8,88432,List2A,white,man,,,,null,,,,
null,are arguing with each other,,html-keyboard-response,280,1964908,0.0-17.0-2.8,88432,List2A,white,man,,,,null,,,,
9179,,,survey-text,281,1974088,0.0-17.0-3.8,88432,List2A,white,man,,,,,"{""Q0"":""Kate and Fred are arguing with each other""}","<img src=""stim_listA/argue4.gif""</stim_listA>",are arguing with each other,
null,"<div style=""font-size:60px;"">+</div>",,html-keyboard-response,282,1974605,0.0-17.0-0.9,88432,List2A,white,man,,,,null,,,,
null,"<img src=""stim_listA/touch4.gif""</stim_listA>",,html-keyboard-response,283,1976610,0.0-17.0-1.9,88432,List2A,white,man,,,,null,,,,
null,are touching each other,,html-keyboard-response,284,1978612,0.0-17.0-2.9,88432,List2A,white,man,,,,null,,,,
28958,,,survey-text,285,2007571,0.0-17.0-3.9,88432,List2A,white,man,,,,,"{""Q0"":""Beth and Fred are touching each other""}","<img src=""stim_listA/touch4.gif""</stim_listA>",are touching each other,
null,"<div style=""font-size:60px;"">+</div>",,html-keyboard-response,286,2008073,0.0-17.0-0.10,88432,List2A,white,man,,,,null,,,,
null,"<img src=""stim_listA/touch6.gif""</stim_listA>",,html-keyboard-response,287,2010076,0.0-17.0-1.10,88432,List2A,white,man,,,,null,,,,
null,are touching each other,,html-keyboard-response,288,2012079,0.0-17.0-2.10,88432,List2A,white,man,,,,null,,,,
10014,,,survey-text,289,2022095,0.0-17.0-3.10,88432,List2A,white,man,,,,,"{""Q0"":""The picture didn't show up sorry""}","<img src=""stim_listA/touch6.gif""</stim_listA>",are touching each other,
null,"<div style=""font-size:60px;"">+</div>",,html-keyboard-response,290,2022604,0.0-17.0-0.11,88432,List2A,white,man,,,,null,,,,
null,"<img src=""stim_listA/talk6.gif""</stim_listA>",,html-keyboard-response,291,2024614,0.0-17.0-1.11,88432,List2A,white,man,,,,null,,,,
null,are talking to each other,,html-keyboard-response,292,2026617,0.0-17.0-2.11,88432,List2A,white,man,,,,null,,,,
12717,,,survey-text,293,2039336,0.0-17.0-3.11,88432,List2A,white,man,,,,,"{""Q0"":""Fred and Dave are talking to each other""}","<img src=""stim_listA/talk6.gif""</stim_listA>",are talking to each other,
null,"<div style=""font-size:60px;"">+</div>",,html-keyboard-response,294,2039841,0.0-17.0-0.12,88432,List2A,white,man,,,,null,,,,
null,"<img src=""stim_listA/hug7.gif""</stim_listA>",,html-keyboard-response,295,2041848,0.0-17.0-1.12,88432,List2A,white,man,,,,null,,,,
null,is hugging,,html-keyboard-response,296,2043850,0.0-17.0-2.12,88432,List2A,white,man,,,,null,,,,
6779,,,survey-text,297,2050630,0.0-17.0-3.12,88432,List2A,white,man,,,,,"{""Q0"":""Ruth is hugging Beth""}","<img src=""stim_listA/hug7.gif""</stim_listA>",is hugging,
null,"<div style=""font-size:60px;"">+</div>",,html-keyboard-response,298,2051144,0.0-17.0-0.13,88432,List2A,white,man,,,,null,,,,
null,"<img src=""stim_listA/argue7.gif""</stim_listA>",,html-keyboard-response,299,2053148,0.0-17.0-1.13,88432,List2A,white,man,,,,null,,,,
null,is arguing with,,html-keyboard-response,300,2055149,0.0-17.0-2.13,88432,List2A,white,man,,,,null,,,,
9845,,,survey-text,301,2064995,0.0-17.0-3.13,88432,List2A,white,man,,,,,"{""Q0"":""Jane is arguing with Beth""}","<img src=""stim_listA/argue7.gif""</stim_listA>",is arguing with,
null,"<div style=""font-size:60px;"">+</div>",,html-keyboard-response,302,2065508,0.0-17.0-0.14,88432,List2A,white,man,,,,null,,,,
null,"<img src=""stim_listA/argue1.gif""</stim_listA>",,html-keyboard-response,303,2067515,0.0-17.0-1.14,88432,List2A,white,man,,,,null,,,,
null,is arguing with,,html-keyboard-response,304,2069516,0.0-17.0-2.14,88432,List2A,white,man,,,,null,,,,
7470,,,survey-text,305,2076988,0.0-17.0-3.14,88432,List2A,white,man,,,,,"{""Q0"":""Dave is arguing with Ruth""}","<img src=""stim_listA/argue1.gif""</stim_listA>",is arguing with,
null,"<div style=""font-size:60px;"">+</div>",,html-keyboard-response,306,2077489,0.0-17.0-0.15,88432,List2A,white,man,,,,null,,,,
null,"<img src=""stim_listA/hug8.gif""</stim_listA>",,html-keyboard-response,307,2079504,0.0-17.0-1.15,88432,List2A,white,man,,,,null,,,,
null,are hugging each other,,html-keyboard-response,308,2081507,0.0-17.0-2.15,88432,List2A,white,man,,,,null,,,,
11391,,,survey-text,309,2092899,0.0-17.0-3.15,88432,List2A,white,man,,,,,"{""Q0"":""Jane and Kate are hugging each other""}","<img src=""stim_listA/hug8.gif""</stim_listA>",are hugging each other,
null,"<div style=""font-size:60px;"">+</div>",,html-keyboard-response,310,2093414,0.0-17.0-0.16,88432,List2A,white,man,,,,null,,,,
null,"<img src=""stim_listA/argue2.gif""</stim_listA>",,html-keyboard-response,311,2095424,0.0-17.0-1.16,88432,List2A,white,man,,,,null,,,,
null,are arguing with each other,,html-keyboard-response,312,2097431,0.0-17.0-2.16,88432,List2A,white,man,,,,null,,,,
10152,,,survey-text,313,2107584,0.0-17.0-3.16,88432,List2A,white,man,,,,,"{""Q0"":""Jane and Luke are arguing with each other""}","<img src=""stim_listA/argue2.gif""</stim_listA>",are arguing with each other,
null,"<div style=""font-size:60px;"">+</div>",,html-keyboard-response,314,2108086,0.0-17.0-0.17,88432,List2A,white,man,,,,null,,,,
null,"<img src=""stim_listA/shout4.gif""</stim_listA>",,html-keyboard-response,315,2110089,0.0-17.0-1.17,88432,List2A,white,man,,,,null,,,,
null,are shouting at each other,,html-keyboard-response,316,2112091,0.0-17.0-2.17,88432,List2A,white,man,,,,null,,,,
10799,,,survey-text,317,2122891,0.0-17.0-3.17,88432,List2A,white,man,,,,,"{""Q0"":""Jane and Mike are shouting at each other""}","<img src=""stim_listA/shout4.gif""</stim_listA>",are shouting at each other,
null,"<div style=""font-size:60px;"">+</div>",,html-keyboard-response,318,2123408,0.0-17.0-0.18,88432,List2A,white,man,,,,null,,,,
null,"<img src=""stim_listA/shout3.gif""</stim_listA>",,html-keyboard-response,319,2125412,0.0-17.0-1.18,88432,List2A,white,man,,,,null,,,,
null,is shouting at,,html-keyboard-response,320,2127416,0.0-17.0-2.18,88432,List2A,white,man,,,,null,,,,
7270,,,survey-text,321,2134686,0.0-17.0-3.18,88432,List2A,white,man,,,,,"{""Q0"":""Fred is shouting at Beth""}","<img src=""stim_listA/shout3.gif""</stim_listA>",is shouting at,
null,"<div style=""font-size:60px;"">+</div>",,html-keyboard-response,322,2135195,0.0-17.0-0.19,88432,List2A,white,man,,,,null,,,,
null,"<img src=""stim_listA/talk1.gif""</stim_listA>",,html-keyboard-response,323,2137204,0.0-17.0-1.19,88432,List2A,white,man,,,,null,,,,
null,is talking to,,html-keyboard-response,324,2139206,0.0-17.0-2.19,88432,List2A,white,man,,,,null,,,,
8590,,,survey-text,325,2147798,0.0-17.0-3.19,88432,List2A,white,man,,,,,"{""Q0"":""Luke is talking to Jane""}","<img src=""stim_listA/talk1.gif""</stim_listA>",is talking to,
3236,"<img src='img/portrait_matrix_list2.JPG' style='width:900px;height:500px;''></img><p>If you have memorised all the portraits and names and are ready to start, press Continue.</p><p><strong>Please note: Your memory of these faces will be tested 4 times during this experiment.</strong></p>",0,html-button-response,326,2151035,0.0-18.0-0.0,88432,List2A,white,man,,,,,,,,
2140,"<img src=""portrait/WM2.jpg""style=""width:400px;height:400px;""></img>",7,html-button-response,327,2154179,0.0-18.0-1.0,88432,List2A,white,man,,TRUE,7,,,,,
null,CORRECT,,html-keyboard-response,328,2155689,0.0-18.0-2.0-0.0,88432,List2A,white,man,,,,null,,,,
2234,"<img src=""portrait/WW1.jpg""style=""width:400px;height:400px;""></img>",1,html-button-response,329,2157926,0.0-18.0-4.0,88432,List2A,white,man,,TRUE,1,,,,,
null,CORRECT,,html-keyboard-response,330,2159447,0.0-18.0-5.0-0.0,88432,List2A,white,man,,,,null,,,,
2484,"<img src=""portrait/BM1.jpg""style=""width:400px;height:400px;""></img>",5,html-button-response,331,2161934,0.0-18.0-7.0,88432,List2A,white,man,,TRUE,4,,,,,
3841,"<img src=""portrait/BM1.jpg""style=""width:400px;height:400px;""></img>",4,html-button-response,332,2166779,0.0-18.0-9.0-0.0,88432,List2A,white,man,,FALSE,4,,,,,
null,CORRECT,,html-keyboard-response,333,2168282,0.0-18.0-9.0-1.0-0.0,88432,List2A,white,man,,,,null,,,,
1874,"<img src=""portrait/BW1.jpg""style=""width:400px;height:400px;""></img>",0,html-button-response,334,2170157,0.0-18.0-10.0,88432,List2A,white,man,,TRUE,0,,,,,
null,CORRECT,,html-keyboard-response,335,2171675,0.0-18.0-11.0-0.0,88432,List2A,white,man,,,,null,,,,
2230,"<img src=""portrait/BW2.jpg""style=""width:400px;height:400px;""></img>",2,html-button-response,336,2173907,0.0-18.0-13.0,88432,List2A,white,man,,TRUE,2,,,,,
null,CORRECT,,html-keyboard-response,337,2175420,0.0-18.0-14.0-0.0,88432,List2A,white,man,,,,null,,,,
1791,"<img src=""portrait/BM2.jpg""style=""width:400px;height:400px;""></img>",5,html-button-response,338,2177213,0.0-18.0-16.0,88432,List2A,white,man,,TRUE,5,,,,,
null,CORRECT,,html-keyboard-response,339,2178727,0.0-18.0-17.0-0.0,88432,List2A,white,man,,,,null,,,,
1696,"<img src=""portrait/WW2.jpg""style=""width:400px;height:400px;""></img>",3,html-button-response,340,2180426,0.0-18.0-19.0,88432,List2A,white,man,,TRUE,3,,,,,
null,CORRECT,,html-keyboard-response,341,2181942,0.0-18.0-20.0-0.0,88432,List2A,white,man,,,,null,,,,
2129,"<img src=""portrait/WM1.jpg""style=""width:400px;height:400px;""></img>",6,html-button-response,342,2184074,0.0-18.0-22.0,88432,List2A,white,man,,TRUE,6,,,,,
null,CORRECT,,html-keyboard-response,343,2185582,0.0-18.0-23.0-0.0,88432,List2A,white,man,,,,null,,,,
1349,<p>You got 7 out of 8 right first time. Press Continue.</p>,0,html-button-response,344,2186933,0.0-18.0-25.0,88432,List2A,white,man,,,,,,,,
1891,"As you did not score 100%, the memory game will repeat. Press Continue.",0,html-button-response,345,2189838,0.0-18.0-26.0-0.0,88432,List2A,white,man,,,,,,,,
1494,"<img src='img/portrait_matrix_list2.JPG' style='width:900px;height:500px;''></img><p>If you have memorised all the portraits and names and are ready to start, press Continue.</p><p><strong>Please note: Your memory of these faces will be tested 4 times during this experiment.</strong></p>",0,html-button-response,346,2192336,0.0-18.1-0.1,88432,List2A,white,man,,,,,,,,
1768,"<img src=""portrait/WM2.jpg""style=""width:400px;height:400px;""></img>",7,html-button-response,347,2195116,0.0-18.1-1.1,88432,List2A,white,man,,TRUE,7,,,,,
null,CORRECT,,html-keyboard-response,348,2196624,0.0-18.1-2.1-0.1,88432,List2A,white,man,,,,null,,,,
2061,"<img src=""portrait/WW1.jpg""style=""width:400px;height:400px;""></img>",1,html-button-response,349,2198688,0.0-18.1-4.1,88432,List2A,white,man,,TRUE,1,,,,,
null,CORRECT,,html-keyboard-response,350,2200191,0.0-18.1-5.1-0.1,88432,List2A,white,man,,,,null,,,,
1263,"<img src=""portrait/BM1.jpg""style=""width:400px;height:400px;""></img>",4,html-button-response,351,2201457,0.0-18.1-7.1,88432,List2A,white,man,,TRUE,4,,,,,
null,CORRECT,,html-keyboard-response,352,2202976,0.0-18.1-8.1-0.1,88432,List2A,white,man,,,,null,,,,
2510,"<img src=""portrait/BW1.jpg""style=""width:400px;height:400px;""></img>",0,html-button-response,353,2205489,0.0-18.1-10.1,88432,List2A,white,man,,TRUE,0,,,,,
null,CORRECT,,html-keyboard-response,354,2207002,0.0-18.1-11.1-0.1,88432,List2A,white,man,,,,null,,,,
1782,"<img src=""portrait/BW2.jpg""style=""width:400px;height:400px;""></img>",2,html-button-response,355,2208787,0.0-18.1-13.1,88432,List2A,white,man,,TRUE,2,,,,,
null,CORRECT,,html-keyboard-response,356,2210302,0.0-18.1-14.1-0.1,88432,List2A,white,man,,,,null,,,,
1773,"<img src=""portrait/BM2.jpg""style=""width:400px;height:400px;""></img>",5,html-button-response,357,2212078,0.0-18.1-16.1,88432,List2A,white,man,,TRUE,5,,,,,
null,CORRECT,,html-keyboard-response,358,2213591,0.0-18.1-17.1-0.1,88432,List2A,white,man,,,,null,,,,
1412,"<img src=""portrait/WW2.jpg""style=""width:400px;height:400px;""></img>",3,html-button-response,359,2215005,0.0-18.1-19.1,88432,List2A,white,man,,TRUE,3,,,,,
null,CORRECT,,html-keyboard-response,360,2216517,0.0-18.1-20.1-0.1,88432,List2A,white,man,,,,null,,,,
1639,"<img src=""portrait/WM1.jpg""style=""width:400px;height:400px;""></img>",6,html-button-response,361,2218159,0.0-18.1-22.1,88432,List2A,white,man,,TRUE,6,,,,,
null,CORRECT,,html-keyboard-response,362,2219683,0.0-18.1-23.1-0.1,88432,List2A,white,man,,,,null,,,,
1332,<p>You got 8 out of 8 right first time. Press Continue.</p>,0,html-button-response,363,2221017,0.0-18.1-25.1,88432,List2A,white,man,,,,,,,,
null,"<div style=""font-size:60px;"">+</div>",,html-keyboard-response,364,2222530,0.0-19.0-0.0,88432,List2A,white,man,,,,null,,,,
null,"<img src=""stim_listA/touch8.gif""</stim_listA>",,html-keyboard-response,365,2224538,0.0-19.0-1.0,88432,List2A,white,man,,,,null,,,,
null,are touching each other,,html-keyboard-response,366,2226552,0.0-19.0-2.0,88432,List2A,white,man,,,,null,,,,
16916,,,survey-text,367,2243469,0.0-19.0-3.0,88432,List2A,white,man,,,,,"{""Q0"":""Beth and Ruth are touching each other""}","<img src=""stim_listA/touch8.gif""</stim_listA>",are touching each other,
null,"<div style=""font-size:60px;"">+</div>",,html-keyboard-response,368,2243984,0.0-19.0-0.1,88432,List2A,white,man,,,,null,,,,
null,"<img src=""stim_listA/argue6.gif""</stim_listA>",,html-keyboard-response,369,2245986,0.0-19.0-1.1,88432,List2A,white,man,,,,null,,,,
null,are arguing with each other,,html-keyboard-response,370,2247988,0.0-19.0-2.1,88432,List2A,white,man,,,,null,,,,
10771,,,survey-text,371,2258759,0.0-19.0-3.1,88432,List2A,white,man,,,,,"{""Q0"":""Mike and Luke are arguing with each other""}","<img src=""stim_listA/argue6.gif""</stim_listA>",are arguing with each other,
null,"<div style=""font-size:60px;"">+</div>",,html-keyboard-response,372,2259262,0.0-19.0-0.2,88432,List2A,white,man,,,,null,,,,
null,"<img src=""stim_listA/touch2.gif""</stim_listA>",,html-keyboard-response,373,2261271,0.0-19.0-1.2,88432,List2A,white,man,,,,null,,,,
null,are touching each other,,html-keyboard-response,374,2263272,0.0-19.0-2.2,88432,List2A,white,man,,,,null,,,,
12761,,,survey-text,375,2276035,0.0-19.0-3.2,88432,List2A,white,man,,,,,"{""Q0"":""Ruth and Luke are touching each other""}","<img src=""stim_listA/touch2.gif""</stim_listA>",are touching each other,
null,"<div style=""font-size:60px;"">+</div>",,html-keyboard-response,376,2276545,0.0-19.0-0.3,88432,List2A,white,man,,,,null,,,,
null,"<img src=""stim_listA/fight2.gif""</stim_listA>",,html-keyboard-response,377,2278557,0.0-19.0-1.3,88432,List2A,white,man,,,,null,,,,
null,are fighting each other,,html-keyboard-response,378,2280566,0.0-19.0-2.3,88432,List2A,white,man,,,,null,,,,
8216,,,survey-text,379,2288784,0.0-19.0-3.3,88432,List2A,white,man,,,,,"{""Q0"":""Ruth and Luke are fighting each other""}","<img src=""stim_listA/fight2.gif""</stim_listA>",are fighting each other,
null,"<div style=""font-size:60px;"">+</div>",,html-keyboard-response,380,2289296,0.0-19.0-0.4,88432,List2A,white,man,,,,null,,,,
null,"<img src=""stim_listA/meet8.gif""</stim_listA>",,html-keyboard-response,381,2291307,0.0-19.0-1.4,88432,List2A,white,man,,,,null,,,,
null,are meeting each other,,html-keyboard-response,382,2293310,0.0-19.0-2.4,88432,List2A,white,man,,,,null,,,,
10626,,,survey-text,383,2303937,0.0-19.0-3.4,88432,List2A,white,man,,,,,"{""Q0"":""Beth and Ruth are fighting each other""}","<img src=""stim_listA/meet8.gif""</stim_listA>",are meeting each other,
null,"<div style=""font-size:60px;"">+</div>",,html-keyboard-response,384,2304447,0.0-19.0-0.5,88432,List2A,white,man,,,,null,,,,
null,"<img src=""stim_listA/touch5.gif""</stim_listA>",,html-keyboard-response,385,2306455,0.0-19.0-1.5,88432,List2A,white,man,,,,null,,,,
null,is touching,,html-keyboard-response,386,2308457,0.0-19.0-2.5,88432,List2A,white,man,,,,null,,,,
6748,,,survey-text,387,2315206,0.0-19.0-3.5,88432,List2A,white,man,,,,,"{""Q0"":""Dave is touching Mike""}","<img src=""stim_listA/touch5.gif""</stim_listA>",is touching,
null,"<div style=""font-size:60px;"">+</div>",,html-keyboard-response,388,2315715,0.0-19.0-0.6,88432,List2A,white,man,,,,null,,,,
null,"<img src=""stim_listA/marry5.gif""</stim_listA>",,html-keyboard-response,389,2317717,0.0-19.0-1.6,88432,List2A,white,man,,,,null,,,,
null,is marrying,,html-keyboard-response,390,2319719,0.0-19.0-2.6,88432,List2A,white,man,,,,null,,,,
5760,,,survey-text,391,2325481,0.0-19.0-3.6,88432,List2A,white,man,,,,,"{""Q0"":""Dave is marrying Fred""}","<img src=""stim_listA/marry5.gif""</stim_listA>",is marrying,
null,"<div style=""font-size:60px;"">+</div>",,html-keyboard-response,392,2325983,0.0-19.0-0.7,88432,List2A,white,man,,,,null,,,,
null,"<img src=""stim_listA/dance4.gif""</stim_listA>",,html-keyboard-response,393,2327988,0.0-19.0-1.7,88432,List2A,white,man,,,,null,,,,
null,are dancing with each other,,html-keyboard-response,394,2329990,0.0-19.0-2.7,88432,List2A,white,man,,,,null,,,,
9493,,,survey-text,395,2339485,0.0-19.0-3.7,88432,List2A,white,man,,,,,"{""Q0"":""Beth and Mike are dancing with each other""}","<img src=""stim_listA/dance4.gif""</stim_listA>",are dancing with each other,
null,"<div style=""font-size:60px;"">+</div>",,html-keyboard-response,396,2339986,0.0-19.0-0.8,88432,List2A,white,man,,,,null,,,,
null,"<img src=""stim_listA/shout2.gif""</stim_listA>",,html-keyboard-response,397,2341990,0.0-19.0-1.8,88432,List2A,white,man,,,,null,,,,
null,are shouting at each other,,html-keyboard-response,398,2343991,0.0-19.0-2.8,88432,List2A,white,man,,,,null,,,,
10449,,,survey-text,399,2354441,0.0-19.0-3.8,88432,List2A,white,man,,,,,"{""Q0"":""Jane and Dave are shouting at each other""}","<img src=""stim_listA/shout2.gif""</stim_listA>",are shouting at each other,
null,"<div style=""font-size:60px;"">+</div>",,html-keyboard-response,400,2354949,0.0-19.0-0.9,88432,List2A,white,man,,,,null,,,,
null,"<img src=""stim_listA/meet7.gif""</stim_listA>",,html-keyboard-response,401,2356959,0.0-19.0-1.9,88432,List2A,white,man,,,,null,,,,
null,is meeting,,html-keyboard-response,402,2358973,0.0-19.0-2.9,88432,List2A,white,man,,,,null,,,,
7008,,,survey-text,403,2365984,0.0-19.0-3.9,88432,List2A,white,man,,,,,"{""Q0"":""Jane is meeting Kate""}","<img src=""stim_listA/meet7.gif""</stim_listA>",is meeting,
null,"<div style=""font-size:60px;"">+</div>",,html-keyboard-response,404,2366487,0.0-19.0-0.10,88432,List2A,white,man,,,,null,,,,
null,"<img src=""stim_listA/hug4.gif""</stim_listA>",,html-keyboard-response,405,2368491,0.0-19.0-1.10,88432,List2A,white,man,,,,null,,,,
null,are hugging each other,,html-keyboard-response,406,2370495,0.0-19.0-2.10,88432,List2A,white,man,,,,null,,,,
11070,,,survey-text,407,2381566,0.0-19.0-3.10,88432,List2A,white,man,,,,,"{""Q0"":""Kate and Mike are hugging each other""}","<img src=""stim_listA/hug4.gif""</stim_listA>",are hugging each other,
null,"<div style=""font-size:60px;"">+</div>",,html-keyboard-response,408,2382067,0.0-19.0-0.11,88432,List2A,white,man,,,,null,,,,
null,"<img src=""stim_listA/marry3.gif""</stim_listA>",,html-keyboard-response,409,2384071,0.0-19.0-1.11,88432,List2A,white,man,,,,null,,,,
null,is marrying,,html-keyboard-response,410,2386073,0.0-19.0-2.11,88432,List2A,white,man,,,,null,,,,
6668,,,survey-text,411,2392743,0.0-19.0-3.11,88432,List2A,white,man,,,,,"{""Q0"":""Mike is marrying Beth""}","<img src=""stim_listA/marry3.gif""</stim_listA>",is marrying,
null,"<div style=""font-size:60px;"">+</div>",,html-keyboard-response,412,2393244,0.0-19.0-0.12,88432,List2A,white,man,,,,null,,,,
null,"<img src=""stim_listA/shout7.gif""</stim_listA>",,html-keyboard-response,413,2395261,0.0-19.0-1.12,88432,List2A,white,man,,,,null,,,,
null,is shouting at,,html-keyboard-response,414,2397264,0.0-19.0-2.12,88432,List2A,white,man,,,,null,,,,
8591,,,survey-text,415,2405856,0.0-19.0-3.12,88432,List2A,white,man,,,,,"{""Q0"":""Ruth is shouting at Beth""}","<img src=""stim_listA/shout7.gif""</stim_listA>",is shouting at,
null,"<div style=""font-size:60px;"">+</div>",,html-keyboard-response,416,2406364,0.0-19.0-0.13,88432,List2A,white,man,,,,null,,,,
null,"<img src=""stim_listA/talk2.gif""</stim_listA>",,html-keyboard-response,417,2408367,0.0-19.0-1.13,88432,List2A,white,man,,,,null,,,,
null,are talking to each other,,html-keyboard-response,418,2410370,0.0-19.0-2.13,88432,List2A,white,man,,,,null,,,,
10344,,,survey-text,419,2420715,0.0-19.0-3.13,88432,List2A,white,man,,,,,"{""Q0"":""Ruth and Dave are talking to each other""}","<img src=""stim_listA/talk2.gif""</stim_listA>",are talking to each other,
null,"<div style=""font-size:60px;"">+</div>",,html-keyboard-response,420,2421216,0.0-19.0-0.14,88432,List2A,white,man,,,,null,,,,
null,"<img src=""stim_listA/kiss2.gif""</stim_listA>",,html-keyboard-response,421,2423229,0.0-19.0-1.14,88432,List2A,white,man,,,,null,,,,
null,are kissing each other,,html-keyboard-response,422,2425231,0.0-19.0-2.14,88432,List2A,white,man,,,,null,,,,
8627,,,survey-text,423,2433860,0.0-19.0-3.14,88432,List2A,white,man,,,,,"{""Q0"":""Jane and Dave are kissing each other""}","<img src=""stim_listA/kiss2.gif""</stim_listA>",are kissing each other,
null,"<div style=""font-size:60px;"">+</div>",,html-keyboard-response,424,2434364,0.0-19.0-0.15,88432,List2A,white,man,,,,null,,,,
null,"<img src=""stim_listA/argue8.gif""</stim_listA>",,html-keyboard-response,425,2436371,0.0-19.0-1.15,88432,List2A,white,man,,,,null,,,,
null,are arguing with each other,,html-keyboard-response,426,2438385,0.0-19.0-2.15,88432,List2A,white,man,,,,null,,,,
14460,,,survey-text,427,2452849,0.0-19.0-3.15,88432,List2A,white,man,,,,,"{""Q0"":""Kate and Ruth are arguing with each other""}","<img src=""stim_listA/argue8.gif""</stim_listA>",are arguing with each other,
null,"<div style=""font-size:60px;"">+</div>",,html-keyboard-response,428,2453357,0.0-19.0-0.16,88432,List2A,white,man,,,,null,,,,
null,"<img src=""stim_listA/kiss8.gif""</stim_listA>",,html-keyboard-response,429,2455364,0.0-19.0-1.16,88432,List2A,white,man,,,,null,,,,
null,are kissing each other,,html-keyboard-response,430,2457365,0.0-19.0-2.16,88432,List2A,white,man,,,,null,,,,
16234,,,survey-text,431,2473600,0.0-19.0-3.16,88432,List2A,white,man,,,,,"{""Q0"":""Kate and Jane are kissing each other""}","<img src=""stim_listA/kiss8.gif""</stim_listA>",are kissing each other,
null,"<div style=""font-size:60px;"">+</div>",,html-keyboard-response,432,2474102,0.0-19.0-0.17,88432,List2A,white,man,,,,null,,,,
null,"<img src=""stim_listA/shout1.gif""</stim_listA>",,html-keyboard-response,433,2476104,0.0-19.0-1.17,88432,List2A,white,man,,,,null,,,,
null,is shouting at,,html-keyboard-response,434,2478107,0.0-19.0-2.17,88432,List2A,white,man,,,,null,,,,
12773,,,survey-text,435,2490883,0.0-19.0-3.17,88432,List2A,white,man,,,,,"{""Q0"":""Luke is shouting at Ruth""}","<img src=""stim_listA/shout1.gif""</stim_listA>",is shouting at,
null,"<div style=""font-size:60px;"">+</div>",,html-keyboard-response,436,2491399,0.0-19.0-0.18,88432,List2A,white,man,,,,null,,,,
null,"<img src=""stim_listA/dance6.gif""</stim_listA>",,html-keyboard-response,437,2493410,0.0-19.0-1.18,88432,List2A,white,man,,,,null,,,,
null,are dancing with each other,,html-keyboard-response,438,2495421,0.0-19.0-2.18,88432,List2A,white,man,,,,null,,,,
20064,,,survey-text,439,2515487,0.0-19.0-3.18,88432,List2A,white,man,,,,,"{""Q0"":""Fred and Dave are dancing with each other""}","<img src=""stim_listA/dance6.gif""</stim_listA>",are dancing with each other,
null,"<div style=""font-size:60px;"">+</div>",,html-keyboard-response,440,2515989,0.0-19.0-0.19,88432,List2A,white,man,,,,null,,,,
null,"<img src=""stim_listA/dance1.gif""</stim_listA>",,html-keyboard-response,441,2517991,0.0-19.0-1.19,88432,List2A,white,man,,,,null,,,,
null,is dancing with,,html-keyboard-response,442,2519993,0.0-19.0-2.19,88432,List2A,white,man,,,,null,,,,
10840,,,survey-text,443,2530835,0.0-19.0-3.19,88432,List2A,white,man,,,,,"{""Q0"":""Luke is dancing with Jane""}","<img src=""stim_listA/dance1.gif""</stim_listA>",is dancing with,
3018,<p>Thank you for completing that task.</p><p>The final part of this session is a short questionnaire.</p><p>Press Continue.</p>,0,html-button-response,444,2533855,0.0-20.0,88432,List2A,white,man,,,,,,,,
44850,,,survey-text,445,2579708,0.0-21.0,88432,List2A,white,man,,,,,"{""Q0"":""23"",""Q1"":""English"",""Q2"":""English"",""Q3"":""New Zealand"",""Q4"":""European"",""Q5"":""Male""}",,,demographics
85431,,,survey-likert,446,2665147,0.0-22.0,88432,List2A,white,man,,,,,"{""Q0"":3,""Q1"":2,""Q2"":2,""Q3"":5,""Q4"":3,""Q5"":5,""Q6"":3,""Q7"":1,""Q8"":1,""Q9"":2,""Q10"":1,""Q11"":1,""Q12"":2,""Q13"":4}",,,likert_race
76263,,,survey-likert,447,2741420,0.0-23.0,88432,List2A,white,man,,,,,"{""Q0"":4,""Q1"":4,""Q2"":5,""Q3"":6,""Q4"":4,""Q5"":5,""Q6"":5,""Q7"":4,""Q8"":4,""Q9"":4,""Q10"":3,""Q11"":3,""Q12"":4,""Q13"":4}",,,likert_gender
10666,,,survey-text,448,2752092,0.0-24.0,88432,List2A,white,man,,,,,"{""Q0"":""ccc""}",,,worker_id
46815,,,external-html,449,2799498,0.0-25.0,88432,List2A,white,man,debrief.html,,,,,,,
