rt,stimulus,button_pressed,trial_type,trial_index,time_elapsed,internal_node_id,subject,list,ppt_race,ppt_gender,url,first_guess,correct,key_press,responses,image_type,phrase_type,test_part
2304,Welcome to the experiment. Press Continue to begin.,0,html-button-response,0,2313,0.0-0.0,88461,List2A,white,woman,,,,,,,,
19075,,,external-html,1,22500,0.0-1.0,88461,List2A,white,woman,consent.html,,,,,,,
11819,"<p>On the next page, you will see portraits of 8 people and their names.</p><p>Your first task is to take a few minutes to memorise the names of these people.</p><p>You will have to recall their names during the rest of the experiment, so it is</p><p>essential that you try to memorise these people and their names as best as you can.</p><br><p><strong>You will then be tested on your memory of these names and portraits.</strong></p><br><p>The experiment will start after you have completed this memory test.</p><br><p>Ready?</p>",0,html-button-response,2,34325,0.0-2.0,88461,List2A,white,woman,,,,,,,,
70610,"<img src='img/portrait_matrix_list2.JPG' style='width:900px;height:500px;''></img><p>If you have memorised all the portraits and names and are ready to start, press Continue.</p><p><strong>Please note: Your memory of these faces will be tested 4 times during this experiment.</strong></p>",0,html-button-response,3,105944,0.0-3.0-0.0,88461,List2A,white,woman,,,,,,,,
3196,"<img src=""portrait/BM2.jpg""style=""width:400px;height:400px;""></img>",5,html-button-response,4,110158,0.0-3.0-1.0,88461,List2A,white,woman,,TRUE,5,,,,,
null,CORRECT,,html-keyboard-response,5,111688,0.0-3.0-2.0-0.0,88461,List2A,white,woman,,,,null,,,,
4128,"<img src=""portrait/BM1.jpg""style=""width:400px;height:400px;""></img>",4,html-button-response,6,115828,0.0-3.0-4.0,88461,List2A,white,woman,,TRUE,4,,,,,
null,CORRECT,,html-keyboard-response,7,117345,0.0-3.0-5.0-0.0,88461,List2A,white,woman,,,,null,,,,
1624,"<img src=""portrait/WW2.jpg""style=""width:400px;height:400px;""></img>",3,html-button-response,8,118981,0.0-3.0-7.0,88461,List2A,white,woman,,TRUE,3,,,,,
null,CORRECT,,html-keyboard-response,9,120485,0.0-3.0-8.0-0.0,88461,List2A,white,woman,,,,null,,,,
2632,"<img src=""portrait/WM1.jpg""style=""width:400px;height:400px;""></img>",6,html-button-response,10,123123,0.0-3.0-10.0,88461,List2A,white,woman,,TRUE,6,,,,,
null,CORRECT,,html-keyboard-response,11,124637,0.0-3.0-11.0-0.0,88461,List2A,white,woman,,,,null,,,,
5782,"<img src=""portrait/WW1.jpg""style=""width:400px;height:400px;""></img>",1,html-button-response,12,130430,0.0-3.0-13.0,88461,List2A,white,woman,,TRUE,1,,,,,
null,CORRECT,,html-keyboard-response,13,131946,0.0-3.0-14.0-0.0,88461,List2A,white,woman,,,,null,,,,
2899,"<img src=""portrait/BW2.jpg""style=""width:400px;height:400px;""></img>",2,html-button-response,14,134856,0.0-3.0-16.0,88461,List2A,white,woman,,TRUE,2,,,,,
null,CORRECT,,html-keyboard-response,15,136366,0.0-3.0-17.0-0.0,88461,List2A,white,woman,,,,null,,,,
2374,"<img src=""portrait/BW1.jpg""style=""width:400px;height:400px;""></img>",0,html-button-response,16,138749,0.0-3.0-19.0,88461,List2A,white,woman,,TRUE,0,,,,,
null,CORRECT,,html-keyboard-response,17,140262,0.0-3.0-20.0-0.0,88461,List2A,white,woman,,,,null,,,,
2031,"<img src=""portrait/WM2.jpg""style=""width:400px;height:400px;""></img>",7,html-button-response,18,142303,0.0-3.0-22.0,88461,List2A,white,woman,,TRUE,7,,,,,
null,CORRECT,,html-keyboard-response,19,143818,0.0-3.0-23.0-0.0,88461,List2A,white,woman,,,,null,,,,
1657,<p>You got 8 out of 8 right first time. Press Continue.</p>,0,html-button-response,20,145488,0.0-3.0-25.0,88461,List2A,white,woman,,,,,,,,
53778,"<p>In this experiment, you will view photographs of the people from the memory game interacting.</p><p>By using the <strong>exact</strong> phrase given <i>after</i> the photograph appears and recalling the correct names of the people in the photographs, form a sentence describing the interaction. You do not need to capitalise names.</p><p>Type your answer in the space provided. Please complete every sentence before moving onto the next trial.</p><p>You will only have a few seconds to memorise each given photograph and phrase before you can respond, so try your best to focus.</p><p>An example is given below. Press 'Continue' when you are ready.</p><img src='img/speaking_example_v2.jpg' style='width:800px;height:460px;''></img>",0,html-button-response,21,200288,0.0-4.0,88461,List2A,white,woman,,,,,,,,
2589,"<p>Before the experiment starts, you will watch two example trials. Press 'Continue'.</p>",0,html-button-response,22,203889,0.0-5.0,88461,List2A,white,woman,,,,,,,,
null,<img src='img/speaking_WW.gif'></img>,,html-keyboard-response,23,206908,0.0-6.0,88461,List2A,white,woman,,,,null,,,,
null,<p>is speaking to</p>,,html-keyboard-response,24,208912,0.0-7.0,88461,List2A,white,woman,,,,null,,,,
4136,<p><b>Answer:</b> jane is speaking to ruth</p>,0,html-button-response,25,213053,0.0-8.0,88461,List2A,white,woman,,,,,,,,
null,<img src='img/pointing_BM.gif'></img>,,html-keyboard-response,26,216072,0.0-9.0,88461,List2A,white,woman,,,,null,,,,
null,<p>are pointing at each other</p>,,html-keyboard-response,27,218082,0.0-10.0,88461,List2A,white,woman,,,,null,,,,
3622,<p><b>Answer:</b> fred and mike are pointing at each other</p>,0,html-button-response,28,221711,0.0-11.0,88461,List2A,white,woman,,,,,,,,
8312,"<p>Ready to start the experiment?</p><br><p><strong>Remember to describe the picture using a full sentence,</strong></p><p><strong>that combines the names of the people with the given phrase.</strong></p><p><strong>If you do not do this correctly you will not be paid.</strong></p><p><strong> You do not need to capitalise names or use punctuation.</strong></p><br><p>Press 'Continue' to begin.</p>",0,html-button-response,29,231034,0.0-12.0,88461,List2A,white,woman,,,,,,,,
null,"<div style=""font-size:60px;"">+</div>",,html-keyboard-response,30,232546,0.0-13.0-0.0,88461,List2A,white,woman,,,,null,,,,
null,"<img src=""stim_listA/touch4.gif""</stim_listA>",,html-keyboard-response,31,234563,0.0-13.0-1.0,88461,List2A,white,woman,,,,null,,,,
null,are touching each other,,html-keyboard-response,32,236567,0.0-13.0-2.0,88461,List2A,white,woman,,,,null,,,,
19422,,,survey-text,33,255996,0.0-13.0-3.0,88461,List2A,white,woman,,,,,"{""Q0"":""Beth and fred are touching each other""}","<img src=""stim_listA/touch4.gif""</stim_listA>",are touching each other,
null,"<div style=""font-size:60px;"">+</div>",,html-keyboard-response,34,256504,0.0-13.0-0.1,88461,List2A,white,woman,,,,null,,,,
null,"<img src=""stim_listA/dance3.gif""</stim_listA>",,html-keyboard-response,35,258515,0.0-13.0-1.1,88461,List2A,white,woman,,,,null,,,,
null,is dancing with,,html-keyboard-response,36,260521,0.0-13.0-2.1,88461,List2A,white,woman,,,,null,,,,
9381,,,survey-text,37,269909,0.0-13.0-3.1,88461,List2A,white,woman,,,,,"{""Q0"":""Jane is dancing with fred""}","<img src=""stim_listA/dance3.gif""</stim_listA>",is dancing with,
null,"<div style=""font-size:60px;"">+</div>",,html-keyboard-response,38,270415,0.0-13.0-0.2,88461,List2A,white,woman,,,,null,,,,
null,"<img src=""stim_listA/meet1.gif""</stim_listA>",,html-keyboard-response,39,272428,0.0-13.0-1.2,88461,List2A,white,woman,,,,null,,,,
null,is meeting,,html-keyboard-response,40,274437,0.0-13.0-2.2,88461,List2A,white,woman,,,,null,,,,
12361,,,survey-text,41,286806,0.0-13.0-3.2,88461,List2A,white,woman,,,,,"{""Q0"":""Jane is meeting dave""}","<img src=""stim_listA/meet1.gif""</stim_listA>",is meeting,
null,"<div style=""font-size:60px;"">+</div>",,html-keyboard-response,42,287313,0.0-13.0-0.3,88461,List2A,white,woman,,,,null,,,,
null,"<img src=""stim_listA/touch8.gif""</stim_listA>",,html-keyboard-response,43,289328,0.0-13.0-1.3,88461,List2A,white,woman,,,,null,,,,
null,are touching each other,,html-keyboard-response,44,291346,0.0-13.0-2.3,88461,List2A,white,woman,,,,null,,,,
16644,,,survey-text,45,307994,0.0-13.0-3.3,88461,List2A,white,woman,,,,,"{""Q0"":""Beth and Jane are touching each other""}","<img src=""stim_listA/touch8.gif""</stim_listA>",are touching each other,
null,"<div style=""font-size:60px;"">+</div>",,html-keyboard-response,46,308498,0.0-13.0-0.4,88461,List2A,white,woman,,,,null,,,,
null,"<img src=""stim_listA/fight2.gif""</stim_listA>",,html-keyboard-response,47,310510,0.0-13.0-1.4,88461,List2A,white,woman,,,,null,,,,
null,are fighting each other,,html-keyboard-response,48,312518,0.0-13.0-2.4,88461,List2A,white,woman,,,,null,,,,
10166,,,survey-text,49,322688,0.0-13.0-3.4,88461,List2A,white,woman,,,,,"{""Q0"":""Jane and luke are fighting each other""}","<img src=""stim_listA/fight2.gif""</stim_listA>",are fighting each other,
null,"<div style=""font-size:60px;"">+</div>",,html-keyboard-response,50,323194,0.0-13.0-0.5,88461,List2A,white,woman,,,,null,,,,
null,"<img src=""stim_listA/kiss7.gif""</stim_listA>",,html-keyboard-response,51,325207,0.0-13.0-1.5,88461,List2A,white,woman,,,,null,,,,
null,is kissing,,html-keyboard-response,52,327216,0.0-13.0-2.5,88461,List2A,white,woman,,,,null,,,,
6882,,,survey-text,53,334103,0.0-13.0-3.5,88461,List2A,white,woman,,,,,"{""Q0"":""Jane is kissing beth""}","<img src=""stim_listA/kiss7.gif""</stim_listA>",is kissing,
null,"<div style=""font-size:60px;"">+</div>",,html-keyboard-response,54,334608,0.0-13.0-0.6,88461,List2A,white,woman,,,,null,,,,
null,"<img src=""stim_listA/argue1.gif""</stim_listA>",,html-keyboard-response,55,336617,0.0-13.0-1.6,88461,List2A,white,woman,,,,null,,,,
null,is arguing with,,html-keyboard-response,56,338625,0.0-13.0-2.6,88461,List2A,white,woman,,,,null,,,,
9729,,,survey-text,57,348361,0.0-13.0-3.6,88461,List2A,white,woman,,,,,"{""Q0"":""Ruth is arguing with dave""}","<img src=""stim_listA/argue1.gif""</stim_listA>",is arguing with,
null,"<div style=""font-size:60px;"">+</div>",,html-keyboard-response,58,348866,0.0-13.0-0.7,88461,List2A,white,woman,,,,null,,,,
null,"<img src=""stim_listA/meet4.gif""</stim_listA>",,html-keyboard-response,59,350878,0.0-13.0-1.7,88461,List2A,white,woman,,,,null,,,,
null,are meeting each other,,html-keyboard-response,60,352883,0.0-13.0-2.7,88461,List2A,white,woman,,,,null,,,,
10453,,,survey-text,61,363341,0.0-13.0-3.7,88461,List2A,white,woman,,,,,"{""Q0"":""Beth and fred are meeting each other""}","<img src=""stim_listA/meet4.gif""</stim_listA>",are meeting each other,
null,"<div style=""font-size:60px;"">+</div>",,html-keyboard-response,62,363847,0.0-13.0-0.8,88461,List2A,white,woman,,,,null,,,,
null,"<img src=""stim_listA/touch2.gif""</stim_listA>",,html-keyboard-response,63,365861,0.0-13.0-1.8,88461,List2A,white,woman,,,,null,,,,
null,are touching each other,,html-keyboard-response,64,367869,0.0-13.0-2.8,88461,List2A,white,woman,,,,null,,,,
12086,,,survey-text,65,379965,0.0-13.0-3.8,88461,List2A,white,woman,,,,,"{""Q0"":""Luke and ruth are touching each other ""}","<img src=""stim_listA/touch2.gif""</stim_listA>",are touching each other,
null,"<div style=""font-size:60px;"">+</div>",,html-keyboard-response,66,380478,0.0-13.0-0.9,88461,List2A,white,woman,,,,null,,,,
null,"<img src=""stim_listA/marry6.gif""</stim_listA>",,html-keyboard-response,67,382494,0.0-13.0-1.9,88461,List2A,white,woman,,,,null,,,,
null,are marrying each other,,html-keyboard-response,68,384503,0.0-13.0-2.9,88461,List2A,white,woman,,,,null,,,,
11490,,,survey-text,69,395998,0.0-13.0-3.9,88461,List2A,white,woman,,,,,"{""Q0"":""Luke and mike are marrying each other""}","<img src=""stim_listA/marry6.gif""</stim_listA>",are marrying each other,
null,"<div style=""font-size:60px;"">+</div>",,html-keyboard-response,70,396502,0.0-13.0-0.10,88461,List2A,white,woman,,,,null,,,,
null,"<img src=""stim_listA/shout5.gif""</stim_listA>",,html-keyboard-response,71,398513,0.0-13.0-1.10,88461,List2A,white,woman,,,,null,,,,
null,is shouting at,,html-keyboard-response,72,400520,0.0-13.0-2.10,88461,List2A,white,woman,,,,null,,,,
13222,,,survey-text,73,413749,0.0-13.0-3.10,88461,List2A,white,woman,,,,,"{""Q0"":""Luke is shouting at fred""}","<img src=""stim_listA/shout5.gif""</stim_listA>",is shouting at,
null,"<div style=""font-size:60px;"">+</div>",,html-keyboard-response,74,414255,0.0-13.0-0.11,88461,List2A,white,woman,,,,null,,,,
null,"<img src=""stim_listA/argue7.gif""</stim_listA>",,html-keyboard-response,75,416265,0.0-13.0-1.11,88461,List2A,white,woman,,,,null,,,,
null,is arguing with,,html-keyboard-response,76,418270,0.0-13.0-2.11,88461,List2A,white,woman,,,,null,,,,
7027,,,survey-text,77,425299,0.0-13.0-3.11,88461,List2A,white,woman,,,,,"{""Q0"":""Jane is arguing with beth""}","<img src=""stim_listA/argue7.gif""</stim_listA>",is arguing with,
null,"<div style=""font-size:60px;"">+</div>",,html-keyboard-response,78,425803,0.0-13.0-0.12,88461,List2A,white,woman,,,,null,,,,
null,"<img src=""stim_listA/talk5.gif""</stim_listA>",,html-keyboard-response,79,427813,0.0-13.0-1.12,88461,List2A,white,woman,,,,null,,,,
null,is talking to,,html-keyboard-response,80,429820,0.0-13.0-2.12,88461,List2A,white,woman,,,,null,,,,
7309,,,survey-text,81,437138,0.0-13.0-3.12,88461,List2A,white,woman,,,,,"{""Q0"":""Luke is talking to mike""}","<img src=""stim_listA/talk5.gif""</stim_listA>",is talking to,
null,"<div style=""font-size:60px;"">+</div>",,html-keyboard-response,82,437645,0.0-13.0-0.13,88461,List2A,white,woman,,,,null,,,,
null,"<img src=""stim_listA/argue4.gif""</stim_listA>",,html-keyboard-response,83,439658,0.0-13.0-1.13,88461,List2A,white,woman,,,,null,,,,
null,are arguing with each other,,html-keyboard-response,84,441665,0.0-13.0-2.13,88461,List2A,white,woman,,,,null,,,,
10353,,,survey-text,85,452026,0.0-13.0-3.13,88461,List2A,white,woman,,,,,"{""Q0"":""Kate and fred are arguing with each other""}","<img src=""stim_listA/argue4.gif""</stim_listA>",are arguing with each other,
null,"<div style=""font-size:60px;"">+</div>",,html-keyboard-response,86,452530,0.0-13.0-0.14,88461,List2A,white,woman,,,,null,,,,
null,"<img src=""stim_listA/hug2.gif""</stim_listA>",,html-keyboard-response,87,454543,0.0-13.0-1.14,88461,List2A,white,woman,,,,null,,,,
null,are hugging each other,,html-keyboard-response,88,456551,0.0-13.0-2.14,88461,List2A,white,woman,,,,null,,,,
11691,,,survey-text,89,468250,0.0-13.0-3.14,88461,List2A,white,woman,,,,,"{""Q0"":""Jane and dave are hugging each other""}","<img src=""stim_listA/hug2.gif""</stim_listA>",are hugging each other,
null,"<div style=""font-size:60px;"">+</div>",,html-keyboard-response,90,468754,0.0-13.0-0.15,88461,List2A,white,woman,,,,null,,,,
null,"<img src=""stim_listA/kiss4.gif""</stim_listA>",,html-keyboard-response,91,470761,0.0-13.0-1.15,88461,List2A,white,woman,,,,null,,,,
null,are kissing each other,,html-keyboard-response,92,472770,0.0-13.0-2.15,88461,List2A,white,woman,,,,null,,,,
12581,,,survey-text,93,485359,0.0-13.0-3.15,88461,List2A,white,woman,,,,,"{""Q0"":""Kate and mike are kissing each other""}","<img src=""stim_listA/kiss4.gif""</stim_listA>",are kissing each other,
null,"<div style=""font-size:60px;"">+</div>",,html-keyboard-response,94,485866,0.0-13.0-0.16,88461,List2A,white,woman,,,,null,,,,
null,"<img src=""stim_listA/marry5.gif""</stim_listA>",,html-keyboard-response,95,487879,0.0-13.0-1.16,88461,List2A,white,woman,,,,null,,,,
null,is marrying,,html-keyboard-response,96,489886,0.0-13.0-2.16,88461,List2A,white,woman,,,,null,,,,
7175,,,survey-text,97,497070,0.0-13.0-3.16,88461,List2A,white,woman,,,,,"{""Q0"":""Dave is marrying fred""}","<img src=""stim_listA/marry5.gif""</stim_listA>",is marrying,
null,"<div style=""font-size:60px;"">+</div>",,html-keyboard-response,98,497575,0.0-13.0-0.17,88461,List2A,white,woman,,,,null,,,,
null,"<img src=""stim_listA/talk8.gif""</stim_listA>",,html-keyboard-response,99,499588,0.0-13.0-1.17,88461,List2A,white,woman,,,,null,,,,
null,are talking to each other,,html-keyboard-response,100,501596,0.0-13.0-2.17,88461,List2A,white,woman,,,,null,,,,
11579,,,survey-text,101,513185,0.0-13.0-3.17,88461,List2A,white,woman,,,,,"{""Q0"":""Beth and Jane are talking to each other""}","<img src=""stim_listA/talk8.gif""</stim_listA>",are talking to each other,
null,"<div style=""font-size:60px;"">+</div>",,html-keyboard-response,102,513689,0.0-13.0-0.18,88461,List2A,white,woman,,,,null,,,,
null,"<img src=""stim_listA/shout7.gif""</stim_listA>",,html-keyboard-response,103,515696,0.0-13.0-1.18,88461,List2A,white,woman,,,,null,,,,
null,is shouting at,,html-keyboard-response,104,517706,0.0-13.0-2.18,88461,List2A,white,woman,,,,null,,,,
9281,,,survey-text,105,526994,0.0-13.0-3.18,88461,List2A,white,woman,,,,,"{""Q0"":""Beth is shouting at ruth""}","<img src=""stim_listA/shout7.gif""</stim_listA>",is shouting at,
null,"<div style=""font-size:60px;"">+</div>",,html-keyboard-response,106,527498,0.0-13.0-0.19,88461,List2A,white,woman,,,,null,,,,
null,"<img src=""stim_listA/argue5.gif""</stim_listA>",,html-keyboard-response,107,529511,0.0-13.0-1.19,88461,List2A,white,woman,,,,null,,,,
null,is arguing with,,html-keyboard-response,108,531520,0.0-13.0-2.19,88461,List2A,white,woman,,,,null,,,,
8522,,,survey-text,109,540051,0.0-13.0-3.19,88461,List2A,white,woman,,,,,"{""Q0"":""Fred is arguing with dave""}","<img src=""stim_listA/argue5.gif""</stim_listA>",is arguing with,
16269,"<img src='img/portrait_matrix_list2.JPG' style='width:900px;height:500px;''></img><p>If you have memorised all the portraits and names and are ready to start, press Continue.</p><p><strong>Please note: Your memory of these faces will be tested 4 times during this experiment.</strong></p>",0,html-button-response,110,556326,0.0-14.0-0.0,88461,List2A,white,woman,,,,,,,,
3392,"<img src=""portrait/BM1.jpg""style=""width:400px;height:400px;""></img>",4,html-button-response,111,560741,0.0-14.0-1.0,88461,List2A,white,woman,,TRUE,4,,,,,
null,CORRECT,,html-keyboard-response,112,562262,0.0-14.0-2.0-0.0,88461,List2A,white,woman,,,,null,,,,
1662,"<img src=""portrait/WM1.jpg""style=""width:400px;height:400px;""></img>",6,html-button-response,113,563933,0.0-14.0-4.0,88461,List2A,white,woman,,TRUE,6,,,,,
null,CORRECT,,html-keyboard-response,114,565446,0.0-14.0-5.0-0.0,88461,List2A,white,woman,,,,null,,,,
1569,"<img src=""portrait/WW2.jpg""style=""width:400px;height:400px;""></img>",3,html-button-response,115,567028,0.0-14.0-7.0,88461,List2A,white,woman,,TRUE,3,,,,,
null,CORRECT,,html-keyboard-response,116,568544,0.0-14.0-8.0-0.0,88461,List2A,white,woman,,,,null,,,,
3903,"<img src=""portrait/BW2.jpg""style=""width:400px;height:400px;""></img>",2,html-button-response,117,572460,0.0-14.0-10.0,88461,List2A,white,woman,,TRUE,2,,,,,
null,CORRECT,,html-keyboard-response,118,573971,0.0-14.0-11.0-0.0,88461,List2A,white,woman,,,,null,,,,
3328,"<img src=""portrait/WW1.jpg""style=""width:400px;height:400px;""></img>",1,html-button-response,119,577307,0.0-14.0-13.0,88461,List2A,white,woman,,TRUE,1,,,,,
null,CORRECT,,html-keyboard-response,120,578821,0.0-14.0-14.0-0.0,88461,List2A,white,woman,,,,null,,,,
1575,"<img src=""portrait/BM2.jpg""style=""width:400px;height:400px;""></img>",5,html-button-response,121,580408,0.0-14.0-16.0,88461,List2A,white,woman,,TRUE,5,,,,,
null,CORRECT,,html-keyboard-response,122,581924,0.0-14.0-17.0-0.0,88461,List2A,white,woman,,,,null,,,,
1465,"<img src=""portrait/BW1.jpg""style=""width:400px;height:400px;""></img>",0,html-button-response,123,583400,0.0-14.0-19.0,88461,List2A,white,woman,,TRUE,0,,,,,
null,CORRECT,,html-keyboard-response,124,584916,0.0-14.0-20.0-0.0,88461,List2A,white,woman,,,,null,,,,
1661,"<img src=""portrait/WM2.jpg""style=""width:400px;height:400px;""></img>",7,html-button-response,125,586589,0.0-14.0-22.0,88461,List2A,white,woman,,TRUE,7,,,,,
null,CORRECT,,html-keyboard-response,126,588107,0.0-14.0-23.0-0.0,88461,List2A,white,woman,,,,null,,,,
1371,<p>You got 8 out of 8 right first time. Press Continue.</p>,0,html-button-response,127,589489,0.0-14.0-25.0,88461,List2A,white,woman,,,,,,,,
null,"<div style=""font-size:60px;"">+</div>",,html-keyboard-response,128,591006,0.0-15.0-0.0,88461,List2A,white,woman,,,,null,,,,
null,"<img src=""stim_listA/shout4.gif""</stim_listA>",,html-keyboard-response,129,593024,0.0-15.0-1.0,88461,List2A,white,woman,,,,null,,,,
null,are shouting at each other,,html-keyboard-response,130,595036,0.0-15.0-2.0,88461,List2A,white,woman,,,,null,,,,
11285,,,survey-text,131,606329,0.0-15.0-3.0,88461,List2A,white,woman,,,,,"{""Q0"":""Kate and mike are shouting at each other""}","<img src=""stim_listA/shout4.gif""</stim_listA>",are shouting at each other,
null,"<div style=""font-size:60px;"">+</div>",,html-keyboard-response,132,606832,0.0-15.0-0.1,88461,List2A,white,woman,,,,null,,,,
null,"<img src=""stim_listA/dance2.gif""</stim_listA>",,html-keyboard-response,133,608838,0.0-15.0-1.1,88461,List2A,white,woman,,,,null,,,,
null,are dancing with each other,,html-keyboard-response,134,610846,0.0-15.0-2.1,88461,List2A,white,woman,,,,null,,,,
11251,,,survey-text,135,622105,0.0-15.0-3.1,88461,List2A,white,woman,,,,,"{""Q0"":""Dave and ruth are dancing with each other""}","<img src=""stim_listA/dance2.gif""</stim_listA>",are dancing with each other,
null,"<div style=""font-size:60px;"">+</div>",,html-keyboard-response,136,622609,0.0-15.0-0.2,88461,List2A,white,woman,,,,null,,,,
null,"<img src=""stim_listA/talk4.gif""</stim_listA>",,html-keyboard-response,137,624618,0.0-15.0-1.2,88461,List2A,white,woman,,,,null,,,,
null,are talking to each other,,html-keyboard-response,138,626625,0.0-15.0-2.2,88461,List2A,white,woman,,,,null,,,,
11285,,,survey-text,139,637917,0.0-15.0-3.2,88461,List2A,white,woman,,,,,"{""Q0"":""Beth and mike are talking to each other ""}","<img src=""stim_listA/talk4.gif""</stim_listA>",are talking to each other,
null,"<div style=""font-size:60px;"">+</div>",,html-keyboard-response,140,638421,0.0-15.0-0.3,88461,List2A,white,woman,,,,null,,,,
null,"<img src=""stim_listA/meet6.gif""</stim_listA>",,html-keyboard-response,141,640428,0.0-15.0-1.3,88461,List2A,white,woman,,,,null,,,,
null,are meeting each other,,html-keyboard-response,142,642437,0.0-15.0-2.3,88461,List2A,white,woman,,,,null,,,,
12700,,,survey-text,143,655142,0.0-15.0-3.3,88461,List2A,white,woman,,,,,"{""Q0"":""Luke and fred are meeting each other""}","<img src=""stim_listA/meet6.gif""</stim_listA>",are meeting each other,
null,"<div style=""font-size:60px;"">+</div>",,html-keyboard-response,144,655648,0.0-15.0-0.4,88461,List2A,white,woman,,,,null,,,,
null,"<img src=""stim_listA/kiss2.gif""</stim_listA>",,html-keyboard-response,145,657661,0.0-15.0-1.4,88461,List2A,white,woman,,,,null,,,,
null,are kissing each other,,html-keyboard-response,146,659683,0.0-15.0-2.4,88461,List2A,white,woman,,,,null,,,,
9595,,,survey-text,147,669286,0.0-15.0-3.4,88461,List2A,white,woman,,,,,"{""Q0"":""Jane and dave are kissing each other""}","<img src=""stim_listA/kiss2.gif""</stim_listA>",are kissing each other,
null,"<div style=""font-size:60px;"">+</div>",,html-keyboard-response,148,669791,0.0-15.0-0.5,88461,List2A,white,woman,,,,null,,,,
null,"<img src=""stim_listA/meet7.gif""</stim_listA>",,html-keyboard-response,149,671806,0.0-15.0-1.5,88461,List2A,white,woman,,,,null,,,,
null,is meeting,,html-keyboard-response,150,673814,0.0-15.0-2.5,88461,List2A,white,woman,,,,null,,,,
5984,,,survey-text,151,679809,0.0-15.0-3.5,88461,List2A,white,woman,,,,,"{""Q0"":""Kate is meeting jane""}","<img src=""stim_listA/meet7.gif""</stim_listA>",is meeting,
null,"<div style=""font-size:60px;"">+</div>",,html-keyboard-response,152,680315,0.0-15.0-0.6,88461,List2A,white,woman,,,,null,,,,
null,"<img src=""stim_listA/hug3.gif""</stim_listA>",,html-keyboard-response,153,682328,0.0-15.0-1.6,88461,List2A,white,woman,,,,null,,,,
null,is hugging,,html-keyboard-response,154,684335,0.0-15.0-2.6,88461,List2A,white,woman,,,,null,,,,
9620,,,survey-text,155,693959,0.0-15.0-3.6,88461,List2A,white,woman,,,,,"{""Q0"":""Fred is hugging beth""}","<img src=""stim_listA/hug3.gif""</stim_listA>",is hugging,
null,"<div style=""font-size:60px;"">+</div>",,html-keyboard-response,156,694466,0.0-15.0-0.7,88461,List2A,white,woman,,,,null,,,,
null,"<img src=""stim_listA/touch6.gif""</stim_listA>",,html-keyboard-response,157,696479,0.0-15.0-1.7,88461,List2A,white,woman,,,,null,,,,
null,are touching each other,,html-keyboard-response,158,698487,0.0-15.0-2.7,88461,List2A,white,woman,,,,null,,,,
10034,,,survey-text,159,708529,0.0-15.0-3.7,88461,List2A,white,woman,,,,,"{""Q0"":""Luke and fred are touching each other ""}","<img src=""stim_listA/touch6.gif""</stim_listA>",are touching each other,
null,"<div style=""font-size:60px;"">+</div>",,html-keyboard-response,160,709034,0.0-15.0-0.8,88461,List2A,white,woman,,,,null,,,,
null,"<img src=""stim_listA/shout1.gif""</stim_listA>",,html-keyboard-response,161,711045,0.0-15.0-1.8,88461,List2A,white,woman,,,,null,,,,
null,is shouting at,,html-keyboard-response,162,713053,0.0-15.0-2.8,88461,List2A,white,woman,,,,null,,,,
11787,,,survey-text,163,724849,0.0-15.0-3.8,88461,List2A,white,woman,,,,,"{""Q0"":""Ruth is shouting at Luke ""}","<img src=""stim_listA/shout1.gif""</stim_listA>",is shouting at,
null,"<div style=""font-size:60px;"">+</div>",,html-keyboard-response,164,725355,0.0-15.0-0.9,88461,List2A,white,woman,,,,null,,,,
null,"<img src=""stim_listA/argue3.gif""</stim_listA>",,html-keyboard-response,165,727368,0.0-15.0-1.9,88461,List2A,white,woman,,,,null,,,,
null,is arguing with,,html-keyboard-response,166,729374,0.0-15.0-2.9,88461,List2A,white,woman,,,,null,,,,
7552,,,survey-text,167,736929,0.0-15.0-3.9,88461,List2A,white,woman,,,,,"{""Q0"":""Beth is arguing with mike""}","<img src=""stim_listA/argue3.gif""</stim_listA>",is arguing with,
null,"<div style=""font-size:60px;"">+</div>",,html-keyboard-response,168,737435,0.0-15.0-0.10,88461,List2A,white,woman,,,,null,,,,
null,"<img src=""stim_listA/argue6.gif""</stim_listA>",,html-keyboard-response,169,739448,0.0-15.0-1.10,88461,List2A,white,woman,,,,null,,,,
null,are arguing with each other,,html-keyboard-response,170,741459,0.0-15.0-2.10,88461,List2A,white,woman,,,,null,,,,
9714,,,survey-text,171,751183,0.0-15.0-3.10,88461,List2A,white,woman,,,,,"{""Q0"":""Mike and luke are arguing with each other""}","<img src=""stim_listA/argue6.gif""</stim_listA>",are arguing with each other,
null,"<div style=""font-size:60px;"">+</div>",,html-keyboard-response,172,751688,0.0-15.0-0.11,88461,List2A,white,woman,,,,null,,,,
null,"<img src=""stim_listA/talk6.gif""</stim_listA>",,html-keyboard-response,173,753699,0.0-15.0-1.11,88461,List2A,white,woman,,,,null,,,,
null,are talking to each other,,html-keyboard-response,174,755704,0.0-15.0-2.11,88461,List2A,white,woman,,,,null,,,,
11294,,,survey-text,175,767005,0.0-15.0-3.11,88461,List2A,white,woman,,,,,"{""Q0"":""Fred and dave are talking to each other ""}","<img src=""stim_listA/talk6.gif""</stim_listA>",are talking to each other,
null,"<div style=""font-size:60px;"">+</div>",,html-keyboard-response,176,767509,0.0-15.0-0.12,88461,List2A,white,woman,,,,null,,,,
null,"<img src=""stim_listA/kiss1.gif""</stim_listA>",,html-keyboard-response,177,769526,0.0-15.0-1.12,88461,List2A,white,woman,,,,null,,,,
null,is kissing,,html-keyboard-response,178,771534,0.0-15.0-2.12,88461,List2A,white,woman,,,,null,,,,
6320,,,survey-text,179,777860,0.0-15.0-3.12,88461,List2A,white,woman,,,,,"{""Q0"":""Ruth is kissing luke""}","<img src=""stim_listA/kiss1.gif""</stim_listA>",is kissing,
null,"<div style=""font-size:60px;"">+</div>",,html-keyboard-response,180,778367,0.0-15.0-0.13,88461,List2A,white,woman,,,,null,,,,
null,"<img src=""stim_listA/touch5.gif""</stim_listA>",,html-keyboard-response,181,780380,0.0-15.0-1.13,88461,List2A,white,woman,,,,null,,,,
null,is touching,,html-keyboard-response,182,782388,0.0-15.0-2.13,88461,List2A,white,woman,,,,null,,,,
7048,,,survey-text,183,789446,0.0-15.0-3.13,88461,List2A,white,woman,,,,,"{""Q0"":""Mike is touching dave""}","<img src=""stim_listA/touch5.gif""</stim_listA>",is touching,
null,"<div style=""font-size:60px;"">+</div>",,html-keyboard-response,184,789953,0.0-15.0-0.14,88461,List2A,white,woman,,,,null,,,,
null,"<img src=""stim_listA/kiss8.gif""</stim_listA>",,html-keyboard-response,185,791965,0.0-15.0-1.14,88461,List2A,white,woman,,,,null,,,,
null,are kissing each other,,html-keyboard-response,186,793971,0.0-15.0-2.14,88461,List2A,white,woman,,,,null,,,,
7765,,,survey-text,187,801740,0.0-15.0-3.14,88461,List2A,white,woman,,,,,"{""Q0"":""Kate and Jane are kissing each other""}","<img src=""stim_listA/kiss8.gif""</stim_listA>",are kissing each other,
null,"<div style=""font-size:60px;"">+</div>",,html-keyboard-response,188,802246,0.0-15.0-0.15,88461,List2A,white,woman,,,,null,,,,
null,"<img src=""stim_listA/talk3.gif""</stim_listA>",,html-keyboard-response,189,804259,0.0-15.0-1.15,88461,List2A,white,woman,,,,null,,,,
null,is talking to,,html-keyboard-response,190,806267,0.0-15.0-2.15,88461,List2A,white,woman,,,,null,,,,
6434,,,survey-text,191,812711,0.0-15.0-3.15,88461,List2A,white,woman,,,,,"{""Q0"":""Kate is talking to fred""}","<img src=""stim_listA/talk3.gif""</stim_listA>",is talking to,
null,"<div style=""font-size:60px;"">+</div>",,html-keyboard-response,192,813218,0.0-15.0-0.16,88461,List2A,white,woman,,,,null,,,,
null,"<img src=""stim_listA/talk1.gif""</stim_listA>",,html-keyboard-response,193,815227,0.0-15.0-1.16,88461,List2A,white,woman,,,,null,,,,
null,is talking to,,html-keyboard-response,194,817234,0.0-15.0-2.16,88461,List2A,white,woman,,,,null,,,,
5288,,,survey-text,195,822526,0.0-15.0-3.16,88461,List2A,white,woman,,,,,"{""Q0"":""Jane is talking to luke""}","<img src=""stim_listA/talk1.gif""</stim_listA>",is talking to,
null,"<div style=""font-size:60px;"">+</div>",,html-keyboard-response,196,823032,0.0-15.0-0.17,88461,List2A,white,woman,,,,null,,,,
null,"<img src=""stim_listA/marry2.gif""</stim_listA>",,html-keyboard-response,197,825045,0.0-15.0-1.17,88461,List2A,white,woman,,,,null,,,,
null,are marrying each other,,html-keyboard-response,198,827053,0.0-15.0-2.17,88461,List2A,white,woman,,,,null,,,,
11752,,,survey-text,199,838813,0.0-15.0-3.17,88461,List2A,white,woman,,,,,"{""Q0"":""Jane and luke are marrying each other""}","<img src=""stim_listA/marry2.gif""</stim_listA>",are marrying each other,
null,"<div style=""font-size:60px;"">+</div>",,html-keyboard-response,200,839318,0.0-15.0-0.18,88461,List2A,white,woman,,,,null,,,,
null,"<img src=""stim_listA/hug8.gif""</stim_listA>",,html-keyboard-response,201,841327,0.0-15.0-1.18,88461,List2A,white,woman,,,,null,,,,
null,are hugging each other,,html-keyboard-response,202,843333,0.0-15.0-2.18,88461,List2A,white,woman,,,,null,,,,
13008,,,survey-text,203,856350,0.0-15.0-3.18,88461,List2A,white,woman,,,,,"{""Q0"":""Jane and kate are hugging each other ""}","<img src=""stim_listA/hug8.gif""</stim_listA>",are hugging each other,
null,"<div style=""font-size:60px;"">+</div>",,html-keyboard-response,204,856857,0.0-15.0-0.19,88461,List2A,white,woman,,,,null,,,,
null,"<img src=""stim_listA/kiss6.gif""</stim_listA>",,html-keyboard-response,205,858871,0.0-15.0-1.19,88461,List2A,white,woman,,,,null,,,,
null,are kissing each other,,html-keyboard-response,206,860880,0.0-15.0-2.19,88461,List2A,white,woman,,,,null,,,,
8967,,,survey-text,207,869856,0.0-15.0-3.19,88461,List2A,white,woman,,,,,"{""Q0"":""Mike and dave are kissing each other""}","<img src=""stim_listA/kiss6.gif""</stim_listA>",are kissing each other,
5629,"<img src='img/portrait_matrix_list2.JPG' style='width:900px;height:500px;''></img><p>If you have memorised all the portraits and names and are ready to start, press Continue.</p><p><strong>Please note: Your memory of these faces will be tested 4 times during this experiment.</strong></p>",0,html-button-response,208,875490,0.0-16.0-0.0,88461,List2A,white,woman,,,,,,,,
2568,"<img src=""portrait/WW2.jpg""style=""width:400px;height:400px;""></img>",3,html-button-response,209,879076,0.0-16.0-1.0,88461,List2A,white,woman,,TRUE,3,,,,,
null,CORRECT,,html-keyboard-response,210,880594,0.0-16.0-2.0-0.0,88461,List2A,white,woman,,,,null,,,,
2181,"<img src=""portrait/WM1.jpg""style=""width:400px;height:400px;""></img>",6,html-button-response,211,882788,0.0-16.0-4.0,88461,List2A,white,woman,,TRUE,6,,,,,
null,CORRECT,,html-keyboard-response,212,884299,0.0-16.0-5.0-0.0,88461,List2A,white,woman,,,,null,,,,
2482,"<img src=""portrait/WW1.jpg""style=""width:400px;height:400px;""></img>",1,html-button-response,213,886786,0.0-16.0-7.0,88461,List2A,white,woman,,TRUE,1,,,,,
null,CORRECT,,html-keyboard-response,214,888290,0.0-16.0-8.0-0.0,88461,List2A,white,woman,,,,null,,,,
1540,"<img src=""portrait/BM2.jpg""style=""width:400px;height:400px;""></img>",5,html-button-response,215,889838,0.0-16.0-10.0,88461,List2A,white,woman,,TRUE,5,,,,,
null,CORRECT,,html-keyboard-response,216,891366,0.0-16.0-11.0-0.0,88461,List2A,white,woman,,,,null,,,,
1418,"<img src=""portrait/BW1.jpg""style=""width:400px;height:400px;""></img>",0,html-button-response,217,892790,0.0-16.0-13.0,88461,List2A,white,woman,,TRUE,0,,,,,
null,CORRECT,,html-keyboard-response,218,894299,0.0-16.0-14.0-0.0,88461,List2A,white,woman,,,,null,,,,
1686,"<img src=""portrait/WM2.jpg""style=""width:400px;height:400px;""></img>",7,html-button-response,219,895992,0.0-16.0-16.0,88461,List2A,white,woman,,TRUE,7,,,,,
null,CORRECT,,html-keyboard-response,220,897512,0.0-16.0-17.0-0.0,88461,List2A,white,woman,,,,null,,,,
1984,"<img src=""portrait/BW2.jpg""style=""width:400px;height:400px;""></img>",2,html-button-response,221,899505,0.0-16.0-19.0,88461,List2A,white,woman,,TRUE,2,,,,,
null,CORRECT,,html-keyboard-response,222,901015,0.0-16.0-20.0-0.0,88461,List2A,white,woman,,,,null,,,,
1565,"<img src=""portrait/BM1.jpg""style=""width:400px;height:400px;""></img>",4,html-button-response,223,902594,0.0-16.0-22.0,88461,List2A,white,woman,,TRUE,4,,,,,
null,CORRECT,,html-keyboard-response,224,904108,0.0-16.0-23.0-0.0,88461,List2A,white,woman,,,,null,,,,
1168,<p>You got 8 out of 8 right first time. Press Continue.</p>,0,html-button-response,225,905287,0.0-16.0-25.0,88461,List2A,white,woman,,,,,,,,
null,"<div style=""font-size:60px;"">+</div>",,html-keyboard-response,226,906804,0.0-17.0-0.0,88461,List2A,white,woman,,,,null,,,,
null,"<img src=""stim_listA/shout2.gif""</stim_listA>",,html-keyboard-response,227,908818,0.0-17.0-1.0,88461,List2A,white,woman,,,,null,,,,
null,are shouting at each other,,html-keyboard-response,228,910826,0.0-17.0-2.0,88461,List2A,white,woman,,,,null,,,,
10587,,,survey-text,229,921422,0.0-17.0-3.0,88461,List2A,white,woman,,,,,"{""Q0"":""Dave and Jane are shouting at each other""}","<img src=""stim_listA/shout2.gif""</stim_listA>",are shouting at each other,
null,"<div style=""font-size:60px;"">+</div>",,html-keyboard-response,230,921926,0.0-17.0-0.1,88461,List2A,white,woman,,,,null,,,,
null,"<img src=""stim_listA/shout3.gif""</stim_listA>",,html-keyboard-response,231,923937,0.0-17.0-1.1,88461,List2A,white,woman,,,,null,,,,
null,is shouting at,,html-keyboard-response,232,925940,0.0-17.0-2.1,88461,List2A,white,woman,,,,null,,,,
7068,,,survey-text,233,933012,0.0-17.0-3.1,88461,List2A,white,woman,,,,,"{""Q0"":""Beth is shouting at fred""}","<img src=""stim_listA/shout3.gif""</stim_listA>",is shouting at,
null,"<div style=""font-size:60px;"">+</div>",,html-keyboard-response,234,933517,0.0-17.0-0.2,88461,List2A,white,woman,,,,null,,,,
null,"<img src=""stim_listA/marry7.gif""</stim_listA>",,html-keyboard-response,235,935528,0.0-17.0-1.2,88461,List2A,white,woman,,,,null,,,,
null,is marrying,,html-keyboard-response,236,937530,0.0-17.0-2.2,88461,List2A,white,woman,,,,null,,,,
10716,,,survey-text,237,948251,0.0-17.0-3.2,88461,List2A,white,woman,,,,,"{""Q0"":""Jane is marrying beth""}","<img src=""stim_listA/marry7.gif""</stim_listA>",is marrying,
null,"<div style=""font-size:60px;"">+</div>",,html-keyboard-response,238,948757,0.0-17.0-0.3,88461,List2A,white,woman,,,,null,,,,
null,"<img src=""stim_listA/meet3.gif""</stim_listA>",,html-keyboard-response,239,950770,0.0-17.0-1.3,88461,List2A,white,woman,,,,null,,,,
null,is meeting,,html-keyboard-response,240,952781,0.0-17.0-2.3,88461,List2A,white,woman,,,,null,,,,
5309,,,survey-text,241,958098,0.0-17.0-3.3,88461,List2A,white,woman,,,,,"{""Q0"":""Kate is meeting mike""}","<img src=""stim_listA/meet3.gif""</stim_listA>",is meeting,
null,"<div style=""font-size:60px;"">+</div>",,html-keyboard-response,242,958603,0.0-17.0-0.4,88461,List2A,white,woman,,,,null,,,,
null,"<img src=""stim_listA/fight8.gif""</stim_listA>",,html-keyboard-response,243,960609,0.0-17.0-1.4,88461,List2A,white,woman,,,,null,,,,
null,are fighting each other,,html-keyboard-response,244,962617,0.0-17.0-2.4,88461,List2A,white,woman,,,,null,,,,
9543,,,survey-text,245,972166,0.0-17.0-3.4,88461,List2A,white,woman,,,,,"{""Q0"":""Beth and ruth are fighting each other ""}","<img src=""stim_listA/fight8.gif""</stim_listA>",are fighting each other,
null,"<div style=""font-size:60px;"">+</div>",,html-keyboard-response,246,972671,0.0-17.0-0.5,88461,List2A,white,woman,,,,null,,,,
null,"<img src=""stim_listA/hug5.gif""</stim_listA>",,html-keyboard-response,247,974683,0.0-17.0-1.5,88461,List2A,white,woman,,,,null,,,,
null,is hugging,,html-keyboard-response,248,976689,0.0-17.0-2.5,88461,List2A,white,woman,,,,null,,,,
6542,,,survey-text,249,983241,0.0-17.0-3.5,88461,List2A,white,woman,,,,,"{""Q0"":""Luke is hugging fred""}","<img src=""stim_listA/hug5.gif""</stim_listA>",is hugging,
null,"<div style=""font-size:60px;"">+</div>",,html-keyboard-response,250,983747,0.0-17.0-0.6,88461,List2A,white,woman,,,,null,,,,
null,"<img src=""stim_listA/fight1.gif""</stim_listA>",,html-keyboard-response,251,985761,0.0-17.0-1.6,88461,List2A,white,woman,,,,null,,,,
null,is fighting,,html-keyboard-response,252,987769,0.0-17.0-2.6,88461,List2A,white,woman,,,,null,,,,
5527,,,survey-text,253,993308,0.0-17.0-3.6,88461,List2A,white,woman,,,,,"{""Q0"":""Jane is fighting dave""}","<img src=""stim_listA/fight1.gif""</stim_listA>",is fighting,
null,"<div style=""font-size:60px;"">+</div>",,html-keyboard-response,254,993814,0.0-17.0-0.7,88461,List2A,white,woman,,,,null,,,,
null,"<img src=""stim_listA/touch3.gif""</stim_listA>",,html-keyboard-response,255,995828,0.0-17.0-1.7,88461,List2A,white,woman,,,,null,,,,
null,is touching,,html-keyboard-response,256,997837,0.0-17.0-2.7,88461,List2A,white,woman,,,,null,,,,
5940,,,survey-text,257,1003804,0.0-17.0-3.7,88461,List2A,white,woman,,,,,"{""Q0"":""Kate is touching mike""}","<img src=""stim_listA/touch3.gif""</stim_listA>",is touching,
null,"<div style=""font-size:60px;"">+</div>",,html-keyboard-response,258,1004309,0.0-17.0-0.8,88461,List2A,white,woman,,,,null,,,,
null,"<img src=""stim_listA/shout6.gif""</stim_listA>",,html-keyboard-response,259,1006323,0.0-17.0-1.8,88461,List2A,white,woman,,,,null,,,,
null,are shouting at each other,,html-keyboard-response,260,1008331,0.0-17.0-2.8,88461,List2A,white,woman,,,,null,,,,
8897,,,survey-text,261,1017234,0.0-17.0-3.8,88461,List2A,white,woman,,,,,"{""Q0"":""Dave and mike are shouting at each other ""}","<img src=""stim_listA/shout6.gif""</stim_listA>",are shouting at each other,
null,"<div style=""font-size:60px;"">+</div>",,html-keyboard-response,262,1017739,0.0-17.0-0.9,88461,List2A,white,woman,,,,null,,,,
null,"<img src=""stim_listA/hug1.gif""</stim_listA>",,html-keyboard-response,263,1019753,0.0-17.0-1.9,88461,List2A,white,woman,,,,null,,,,
null,is hugging,,html-keyboard-response,264,1021762,0.0-17.0-2.9,88461,List2A,white,woman,,,,null,,,,
8131,,,survey-text,265,1029898,0.0-17.0-3.9,88461,List2A,white,woman,,,,,"{""Q0"":""Luke is hugging ruth""}","<img src=""stim_listA/hug1.gif""</stim_listA>",is hugging,
null,"<div style=""font-size:60px;"">+</div>",,html-keyboard-response,266,1030404,0.0-17.0-0.10,88461,List2A,white,woman,,,,null,,,,
null,"<img src=""stim_listA/touch7.gif""</stim_listA>",,html-keyboard-response,267,1032420,0.0-17.0-1.10,88461,List2A,white,woman,,,,null,,,,
null,is touching,,html-keyboard-response,268,1034438,0.0-17.0-2.10,88461,List2A,white,woman,,,,null,,,,
6133,,,survey-text,269,1040578,0.0-17.0-3.10,88461,List2A,white,woman,,,,,"{""Q0"":""Jane is touching kate""}","<img src=""stim_listA/touch7.gif""</stim_listA>",is touching,
null,"<div style=""font-size:60px;"">+</div>",,html-keyboard-response,270,1041085,0.0-17.0-0.11,88461,List2A,white,woman,,,,null,,,,
null,"<img src=""stim_listA/hug6.gif""</stim_listA>",,html-keyboard-response,271,1043099,0.0-17.0-1.11,88461,List2A,white,woman,,,,null,,,,
null,are hugging each other,,html-keyboard-response,272,1045107,0.0-17.0-2.11,88461,List2A,white,woman,,,,null,,,,
8348,,,survey-text,273,1053465,0.0-17.0-3.11,88461,List2A,white,woman,,,,,"{""Q0"":""Dave and mike are hugging each other""}","<img src=""stim_listA/hug6.gif""</stim_listA>",are hugging each other,
null,"<div style=""font-size:60px;"">+</div>",,html-keyboard-response,274,1053970,0.0-17.0-0.12,88461,List2A,white,woman,,,,null,,,,
null,"<img src=""stim_listA/marry1.gif""</stim_listA>",,html-keyboard-response,275,1055985,0.0-17.0-1.12,88461,List2A,white,woman,,,,null,,,,
null,is marrying,,html-keyboard-response,276,1057993,0.0-17.0-2.12,88461,List2A,white,woman,,,,null,,,,
8418,,,survey-text,277,1066421,0.0-17.0-3.12,88461,List2A,white,woman,,,,,"{""Q0"":""Ruth is marrying dave""}","<img src=""stim_listA/marry1.gif""</stim_listA>",is marrying,
null,"<div style=""font-size:60px;"">+</div>",,html-keyboard-response,278,1066927,0.0-17.0-0.13,88461,List2A,white,woman,,,,null,,,,
null,"<img src=""stim_listA/talk7.gif""</stim_listA>",,html-keyboard-response,279,1068940,0.0-17.0-1.13,88461,List2A,white,woman,,,,null,,,,
null,is talking to,,html-keyboard-response,280,1070947,0.0-17.0-2.13,88461,List2A,white,woman,,,,null,,,,
7089,,,survey-text,281,1078039,0.0-17.0-3.13,88461,List2A,white,woman,,,,,"{""Q0"":""Kate is talking to ruth""}","<img src=""stim_listA/talk7.gif""</stim_listA>",is talking to,
null,"<div style=""font-size:60px;"">+</div>",,html-keyboard-response,282,1078545,0.0-17.0-0.14,88461,List2A,white,woman,,,,null,,,,
null,"<img src=""stim_listA/shout8.gif""</stim_listA>",,html-keyboard-response,283,1080557,0.0-17.0-1.14,88461,List2A,white,woman,,,,null,,,,
null,are shouting at each other,,html-keyboard-response,284,1082561,0.0-17.0-2.14,88461,List2A,white,woman,,,,null,,,,
12914,,,survey-text,285,1095479,0.0-17.0-3.14,88461,List2A,white,woman,,,,,"{""Q0"":""Kate and Jane are shouting at each other ""}","<img src=""stim_listA/shout8.gif""</stim_listA>",are shouting at each other,
null,"<div style=""font-size:60px;"">+</div>",,html-keyboard-response,286,1095985,0.0-17.0-0.15,88461,List2A,white,woman,,,,null,,,,
null,"<img src=""stim_listA/fight5.gif""</stim_listA>",,html-keyboard-response,287,1098000,0.0-17.0-1.15,88461,List2A,white,woman,,,,null,,,,
null,is fighting,,html-keyboard-response,288,1100009,0.0-17.0-2.15,88461,List2A,white,woman,,,,null,,,,
6196,,,survey-text,289,1106215,0.0-17.0-3.15,88461,List2A,white,woman,,,,,"{""Q0"":""Mike is fighting dave""}","<img src=""stim_listA/fight5.gif""</stim_listA>",is fighting,
null,"<div style=""font-size:60px;"">+</div>",,html-keyboard-response,290,1106720,0.0-17.0-0.16,88461,List2A,white,woman,,,,null,,,,
null,"<img src=""stim_listA/argue2.gif""</stim_listA>",,html-keyboard-response,291,1108728,0.0-17.0-1.16,88461,List2A,white,woman,,,,null,,,,
null,are arguing with each other,,html-keyboard-response,292,1110736,0.0-17.0-2.16,88461,List2A,white,woman,,,,null,,,,
9027,,,survey-text,293,1119772,0.0-17.0-3.16,88461,List2A,white,woman,,,,,"{""Q0"":""Jane and luke are arguing with each other ""}","<img src=""stim_listA/argue2.gif""</stim_listA>",are arguing with each other,
null,"<div style=""font-size:60px;"">+</div>",,html-keyboard-response,294,1120279,0.0-17.0-0.17,88461,List2A,white,woman,,,,null,,,,
null,"<img src=""stim_listA/marry8.gif""</stim_listA>",,html-keyboard-response,295,1122290,0.0-17.0-1.17,88461,List2A,white,woman,,,,null,,,,
null,are marrying each other,,html-keyboard-response,296,1124296,0.0-17.0-2.17,88461,List2A,white,woman,,,,null,,,,
10787,,,survey-text,297,1135092,0.0-17.0-3.17,88461,List2A,white,woman,,,,,"{""Q0"":""Ruth and kate are marrying each other ""}","<img src=""stim_listA/marry8.gif""</stim_listA>",are marrying each other,
null,"<div style=""font-size:60px;"">+</div>",,html-keyboard-response,298,1135599,0.0-17.0-0.18,88461,List2A,white,woman,,,,null,,,,
null,"<img src=""stim_listA/dance7.gif""</stim_listA>",,html-keyboard-response,299,1137612,0.0-17.0-1.18,88461,List2A,white,woman,,,,null,,,,
null,is dancing with,,html-keyboard-response,300,1139621,0.0-17.0-2.18,88461,List2A,white,woman,,,,null,,,,
7037,,,survey-text,301,1146666,0.0-17.0-3.18,88461,List2A,white,woman,,,,,"{""Q0"":""Ruth is dancing with kate""}","<img src=""stim_listA/dance7.gif""</stim_listA>",is dancing with,
null,"<div style=""font-size:60px;"">+</div>",,html-keyboard-response,302,1147173,0.0-17.0-0.19,88461,List2A,white,woman,,,,null,,,,
null,"<img src=""stim_listA/dance5.gif""</stim_listA>",,html-keyboard-response,303,1149186,0.0-17.0-1.19,88461,List2A,white,woman,,,,null,,,,
null,is dancing with,,html-keyboard-response,304,1151195,0.0-17.0-2.19,88461,List2A,white,woman,,,,null,,,,
7985,,,survey-text,305,1159188,0.0-17.0-3.19,88461,List2A,white,woman,,,,,"{""Q0"":""Mike is dancing with luke""}","<img src=""stim_listA/dance5.gif""</stim_listA>",is dancing with,
3988,"<img src='img/portrait_matrix_list2.JPG' style='width:900px;height:500px;''></img><p>If you have memorised all the portraits and names and are ready to start, press Continue.</p><p><strong>Please note: Your memory of these faces will be tested 4 times during this experiment.</strong></p>",0,html-button-response,306,1163180,0.0-18.0-0.0,88461,List2A,white,woman,,,,,,,,
3276,"<img src=""portrait/WW2.jpg""style=""width:400px;height:400px;""></img>",3,html-button-response,307,1167475,0.0-18.0-1.0,88461,List2A,white,woman,,TRUE,3,,,,,
null,CORRECT,,html-keyboard-response,308,1168990,0.0-18.0-2.0-0.0,88461,List2A,white,woman,,,,null,,,,
1505,"<img src=""portrait/BM1.jpg""style=""width:400px;height:400px;""></img>",4,html-button-response,309,1170506,0.0-18.0-4.0,88461,List2A,white,woman,,TRUE,4,,,,,
null,CORRECT,,html-keyboard-response,310,1172026,0.0-18.0-5.0-0.0,88461,List2A,white,woman,,,,null,,,,
1616,"<img src=""portrait/BM2.jpg""style=""width:400px;height:400px;""></img>",5,html-button-response,311,1173654,0.0-18.0-7.0,88461,List2A,white,woman,,TRUE,5,,,,,
null,CORRECT,,html-keyboard-response,312,1175162,0.0-18.0-8.0-0.0,88461,List2A,white,woman,,,,null,,,,
1853,"<img src=""portrait/BW1.jpg""style=""width:400px;height:400px;""></img>",0,html-button-response,313,1177025,0.0-18.0-10.0,88461,List2A,white,woman,,TRUE,0,,,,,
null,CORRECT,,html-keyboard-response,314,1178543,0.0-18.0-11.0-0.0,88461,List2A,white,woman,,,,null,,,,
1198,"<img src=""portrait/WW1.jpg""style=""width:400px;height:400px;""></img>",1,html-button-response,315,1179754,0.0-18.0-13.0,88461,List2A,white,woman,,TRUE,1,,,,,
null,CORRECT,,html-keyboard-response,316,1181263,0.0-18.0-14.0-0.0,88461,List2A,white,woman,,,,null,,,,
1181,"<img src=""portrait/WM2.jpg""style=""width:400px;height:400px;""></img>",7,html-button-response,317,1182456,0.0-18.0-16.0,88461,List2A,white,woman,,TRUE,7,,,,,
null,CORRECT,,html-keyboard-response,318,1183975,0.0-18.0-17.0-0.0,88461,List2A,white,woman,,,,null,,,,
1526,"<img src=""portrait/WM1.jpg""style=""width:400px;height:400px;""></img>",6,html-button-response,319,1185513,0.0-18.0-19.0,88461,List2A,white,woman,,TRUE,6,,,,,
null,CORRECT,,html-keyboard-response,320,1187029,0.0-18.0-20.0-0.0,88461,List2A,white,woman,,,,null,,,,
1677,"<img src=""portrait/BW2.jpg""style=""width:400px;height:400px;""></img>",2,html-button-response,321,1188717,0.0-18.0-22.0,88461,List2A,white,woman,,TRUE,2,,,,,
null,CORRECT,,html-keyboard-response,322,1190237,0.0-18.0-23.0-0.0,88461,List2A,white,woman,,,,null,,,,
1107,<p>You got 8 out of 8 right first time. Press Continue.</p>,0,html-button-response,323,1191355,0.0-18.0-25.0,88461,List2A,white,woman,,,,,,,,
null,"<div style=""font-size:60px;"">+</div>",,html-keyboard-response,324,1192885,0.0-19.0-0.0,88461,List2A,white,woman,,,,null,,,,
null,"<img src=""stim_listA/meet8.gif""</stim_listA>",,html-keyboard-response,325,1194898,0.0-19.0-1.0,88461,List2A,white,woman,,,,null,,,,
null,are meeting each other,,html-keyboard-response,326,1196907,0.0-19.0-2.0,88461,List2A,white,woman,,,,null,,,,
10871,,,survey-text,327,1207786,0.0-19.0-3.0,88461,List2A,white,woman,,,,,"{""Q0"":""Beth and ruth are meeting each other ""}","<img src=""stim_listA/meet8.gif""</stim_listA>",are meeting each other,
null,"<div style=""font-size:60px;"">+</div>",,html-keyboard-response,328,1208291,0.0-19.0-0.1,88461,List2A,white,woman,,,,null,,,,
null,"<img src=""stim_listA/kiss5.gif""</stim_listA>",,html-keyboard-response,329,1210305,0.0-19.0-1.1,88461,List2A,white,woman,,,,null,,,,
null,is kissing,,html-keyboard-response,330,1212315,0.0-19.0-2.1,88461,List2A,white,woman,,,,null,,,,
7894,,,survey-text,331,1220218,0.0-19.0-3.1,88461,List2A,white,woman,,,,,"{""Q0"":""Luke is kissing fresd""}","<img src=""stim_listA/kiss5.gif""</stim_listA>",is kissing,
null,"<div style=""font-size:60px;"">+</div>",,html-keyboard-response,332,1220725,0.0-19.0-0.2,88461,List2A,white,woman,,,,null,,,,
null,"<img src=""stim_listA/talk2.gif""</stim_listA>",,html-keyboard-response,333,1222738,0.0-19.0-1.2,88461,List2A,white,woman,,,,null,,,,
null,are talking to each other,,html-keyboard-response,334,1224746,0.0-19.0-2.2,88461,List2A,white,woman,,,,null,,,,
10749,,,survey-text,335,1235500,0.0-19.0-3.2,88461,List2A,white,woman,,,,,"{""Q0"":""Dave and ruth are talking to each other""}","<img src=""stim_listA/talk2.gif""</stim_listA>",are talking to each other,
null,"<div style=""font-size:60px;"">+</div>",,html-keyboard-response,336,1236006,0.0-19.0-0.3,88461,List2A,white,woman,,,,null,,,,
null,"<img src=""stim_listA/fight6.gif""</stim_listA>",,html-keyboard-response,337,1238021,0.0-19.0-1.3,88461,List2A,white,woman,,,,null,,,,
null,are fighting each other,,html-keyboard-response,338,1240030,0.0-19.0-2.3,88461,List2A,white,woman,,,,null,,,,
8558,,,survey-text,339,1248595,0.0-19.0-3.3,88461,List2A,white,woman,,,,,"{""Q0"":""Fred and luke are fighting each other ""}","<img src=""stim_listA/fight6.gif""</stim_listA>",are fighting each other,
null,"<div style=""font-size:60px;"">+</div>",,html-keyboard-response,340,1249102,0.0-19.0-0.4,88461,List2A,white,woman,,,,null,,,,
null,"<img src=""stim_listA/fight7.gif""</stim_listA>",,html-keyboard-response,341,1251116,0.0-19.0-1.4,88461,List2A,white,woman,,,,null,,,,
null,is fighting,,html-keyboard-response,342,1253125,0.0-19.0-2.4,88461,List2A,white,woman,,,,null,,,,
7717,,,survey-text,343,1260850,0.0-19.0-3.4,88461,List2A,white,woman,,,,,"{""Q0"":""Kate is fighting jane""}","<img src=""stim_listA/fight7.gif""</stim_listA>",is fighting,
null,"<div style=""font-size:60px;"">+</div>",,html-keyboard-response,344,1261355,0.0-19.0-0.5,88461,List2A,white,woman,,,,null,,,,
null,"<img src=""stim_listA/marry3.gif""</stim_listA>",,html-keyboard-response,345,1263368,0.0-19.0-1.5,88461,List2A,white,woman,,,,null,,,,
null,is marrying,,html-keyboard-response,346,1265378,0.0-19.0-2.5,88461,List2A,white,woman,,,,null,,,,
6031,,,survey-text,347,1271420,0.0-19.0-3.5,88461,List2A,white,woman,,,,,"{""Q0"":""Mike is marrying beth""}","<img src=""stim_listA/marry3.gif""</stim_listA>",is marrying,
null,"<div style=""font-size:60px;"">+</div>",,html-keyboard-response,348,1271926,0.0-19.0-0.6,88461,List2A,white,woman,,,,null,,,,
null,"<img src=""stim_listA/dance8.gif""</stim_listA>",,html-keyboard-response,349,1273939,0.0-19.0-1.6,88461,List2A,white,woman,,,,null,,,,
null,are dancing with each other,,html-keyboard-response,350,1275947,0.0-19.0-2.6,88461,List2A,white,woman,,,,null,,,,
9003,,,survey-text,351,1284956,0.0-19.0-3.6,88461,List2A,white,woman,,,,,"{""Q0"":""Jane and beth are dancing with each other""}","<img src=""stim_listA/dance8.gif""</stim_listA>",are dancing with each other,
null,"<div style=""font-size:60px;"">+</div>",,html-keyboard-response,352,1285463,0.0-19.0-0.7,88461,List2A,white,woman,,,,null,,,,
null,"<img src=""stim_listA/dance4.gif""</stim_listA>",,html-keyboard-response,353,1287478,0.0-19.0-1.7,88461,List2A,white,woman,,,,null,,,,
null,are dancing with each other,,html-keyboard-response,354,1289487,0.0-19.0-2.7,88461,List2A,white,woman,,,,null,,,,
9122,,,survey-text,355,1298617,0.0-19.0-3.7,88461,List2A,white,woman,,,,,"{""Q0"":""Mike and Beth are dancing with each other""}","<img src=""stim_listA/dance4.gif""</stim_listA>",are dancing with each other,
null,"<div style=""font-size:60px;"">+</div>",,html-keyboard-response,356,1299123,0.0-19.0-0.8,88461,List2A,white,woman,,,,null,,,,
null,"<img src=""stim_listA/hug4.gif""</stim_listA>",,html-keyboard-response,357,1301136,0.0-19.0-1.8,88461,List2A,white,woman,,,,null,,,,
null,are hugging each other,,html-keyboard-response,358,1303145,0.0-19.0-2.8,88461,List2A,white,woman,,,,null,,,,
8841,,,survey-text,359,1311993,0.0-19.0-3.8,88461,List2A,white,woman,,,,,"{""Q0"":""Kate and mike are hugging each other""}","<img src=""stim_listA/hug4.gif""</stim_listA>",are hugging each other,
null,"<div style=""font-size:60px;"">+</div>",,html-keyboard-response,360,1312500,0.0-19.0-0.9,88461,List2A,white,woman,,,,null,,,,
null,"<img src=""stim_listA/argue8.gif""</stim_listA>",,html-keyboard-response,361,1314511,0.0-19.0-1.9,88461,List2A,white,woman,,,,null,,,,
null,are arguing with each other,,html-keyboard-response,362,1316515,0.0-19.0-2.9,88461,List2A,white,woman,,,,null,,,,
9511,,,survey-text,363,1326030,0.0-19.0-3.9,88461,List2A,white,woman,,,,,"{""Q0"":""Kate and ruth are arguing with each other ""}","<img src=""stim_listA/argue8.gif""</stim_listA>",are arguing with each other,
null,"<div style=""font-size:60px;"">+</div>",,html-keyboard-response,364,1326536,0.0-19.0-0.10,88461,List2A,white,woman,,,,null,,,,
null,"<img src=""stim_listA/marry4.gif""</stim_listA>",,html-keyboard-response,365,1328549,0.0-19.0-1.10,88461,List2A,white,woman,,,,null,,,,
null,are marrying each other,,html-keyboard-response,366,1330554,0.0-19.0-2.10,88461,List2A,white,woman,,,,null,,,,
8495,,,survey-text,367,1339054,0.0-19.0-3.10,88461,List2A,white,woman,,,,,"{""Q0"":""Kate and fred are marrying each toher""}","<img src=""stim_listA/marry4.gif""</stim_listA>",are marrying each other,
null,"<div style=""font-size:60px;"">+</div>",,html-keyboard-response,368,1339559,0.0-19.0-0.11,88461,List2A,white,woman,,,,null,,,,
null,"<img src=""stim_listA/meet2.gif""</stim_listA>",,html-keyboard-response,369,1341573,0.0-19.0-1.11,88461,List2A,white,woman,,,,null,,,,
null,are meeting each other,,html-keyboard-response,370,1343580,0.0-19.0-2.11,88461,List2A,white,woman,,,,null,,,,
9089,,,survey-text,371,1352676,0.0-19.0-3.11,88461,List2A,white,woman,,,,,"{""Q0"":""Ruth and luke are meeting each other ""}","<img src=""stim_listA/meet2.gif""</stim_listA>",are meeting each other,
null,"<div style=""font-size:60px;"">+</div>",,html-keyboard-response,372,1353182,0.0-19.0-0.12,88461,List2A,white,woman,,,,null,,,,
null,"<img src=""stim_listA/kiss3.gif""</stim_listA>",,html-keyboard-response,373,1355197,0.0-19.0-1.12,88461,List2A,white,woman,,,,null,,,,
null,is kissing,,html-keyboard-response,374,1357208,0.0-19.0-2.12,88461,List2A,white,woman,,,,null,,,,
11228,,,survey-text,375,1368446,0.0-19.0-3.12,88461,List2A,white,woman,,,,,"{""Q0"":""Beth and fred are kissing each other""}","<img src=""stim_listA/kiss3.gif""</stim_listA>",is kissing,
null,"<div style=""font-size:60px;"">+</div>",,html-keyboard-response,376,1368952,0.0-19.0-0.13,88461,List2A,white,woman,,,,null,,,,
null,"<img src=""stim_listA/dance6.gif""</stim_listA>",,html-keyboard-response,377,1370966,0.0-19.0-1.13,88461,List2A,white,woman,,,,null,,,,
null,are dancing with each other,,html-keyboard-response,378,1372974,0.0-19.0-2.13,88461,List2A,white,woman,,,,null,,,,
9500,,,survey-text,379,1382477,0.0-19.0-3.13,88461,List2A,white,woman,,,,,"{""Q0"":""Fred and dave are dancing with each other ""}","<img src=""stim_listA/dance6.gif""</stim_listA>",are dancing with each other,
null,"<div style=""font-size:60px;"">+</div>",,html-keyboard-response,380,1382984,0.0-19.0-0.14,88461,List2A,white,woman,,,,null,,,,
null,"<img src=""stim_listA/dance1.gif""</stim_listA>",,html-keyboard-response,381,1384998,0.0-19.0-1.14,88461,List2A,white,woman,,,,null,,,,
null,is dancing with,,html-keyboard-response,382,1387008,0.0-19.0-2.14,88461,List2A,white,woman,,,,null,,,,
9728,,,survey-text,383,1396746,0.0-19.0-3.14,88461,List2A,white,woman,,,,,"{""Q0"":""Jane is dancing with luke""}","<img src=""stim_listA/dance1.gif""</stim_listA>",is dancing with,
null,"<div style=""font-size:60px;"">+</div>",,html-keyboard-response,384,1397253,0.0-19.0-0.15,88461,List2A,white,woman,,,,null,,,,
null,"<img src=""stim_listA/touch1.gif""</stim_listA>",,html-keyboard-response,385,1399267,0.0-19.0-1.15,88461,List2A,white,woman,,,,null,,,,
null,is touching,,html-keyboard-response,386,1401276,0.0-19.0-2.15,88461,List2A,white,woman,,,,null,,,,
7996,,,survey-text,387,1409282,0.0-19.0-3.15,88461,List2A,white,woman,,,,,"{""Q0"":""Jane is touching dave""}","<img src=""stim_listA/touch1.gif""</stim_listA>",is touching,
null,"<div style=""font-size:60px;"">+</div>",,html-keyboard-response,388,1409788,0.0-19.0-0.16,88461,List2A,white,woman,,,,null,,,,
null,"<img src=""stim_listA/fight4.gif""</stim_listA>",,html-keyboard-response,389,1411801,0.0-19.0-1.16,88461,List2A,white,woman,,,,null,,,,
null,are fighting each other,,html-keyboard-response,390,1413810,0.0-19.0-2.16,88461,List2A,white,woman,,,,null,,,,
10163,,,survey-text,391,1423981,0.0-19.0-3.16,88461,List2A,white,woman,,,,,"{""Q0"":""Beth and fred are fighting each other ""}","<img src=""stim_listA/fight4.gif""</stim_listA>",are fighting each other,
null,"<div style=""font-size:60px;"">+</div>",,html-keyboard-response,392,1424488,0.0-19.0-0.17,88461,List2A,white,woman,,,,null,,,,
null,"<img src=""stim_listA/fight3.gif""</stim_listA>",,html-keyboard-response,393,1426505,0.0-19.0-1.17,88461,List2A,white,woman,,,,null,,,,
null,is fighting,,html-keyboard-response,394,1428510,0.0-19.0-2.17,88461,List2A,white,woman,,,,null,,,,
5749,,,survey-text,395,1434268,0.0-19.0-3.17,88461,List2A,white,woman,,,,,"{""Q0"":""Kate is fighting mike""}","<img src=""stim_listA/fight3.gif""</stim_listA>",is fighting,
null,"<div style=""font-size:60px;"">+</div>",,html-keyboard-response,396,1434774,0.0-19.0-0.18,88461,List2A,white,woman,,,,null,,,,
null,"<img src=""stim_listA/hug7.gif""</stim_listA>",,html-keyboard-response,397,1436788,0.0-19.0-1.18,88461,List2A,white,woman,,,,null,,,,
null,is hugging,,html-keyboard-response,398,1438796,0.0-19.0-2.18,88461,List2A,white,woman,,,,null,,,,
6862,,,survey-text,399,1445667,0.0-19.0-3.18,88461,List2A,white,woman,,,,,"{""Q0"":""Beth is hugging ruth ""}","<img src=""stim_listA/hug7.gif""</stim_listA>",is hugging,
null,"<div style=""font-size:60px;"">+</div>",,html-keyboard-response,400,1446171,0.0-19.0-0.19,88461,List2A,white,woman,,,,null,,,,
null,"<img src=""stim_listA/meet5.gif""</stim_listA>",,html-keyboard-response,401,1448177,0.0-19.0-1.19,88461,List2A,white,woman,,,,null,,,,
null,is meeting,,html-keyboard-response,402,1450182,0.0-19.0-2.19,88461,List2A,white,woman,,,,null,,,,
6278,,,survey-text,403,1456468,0.0-19.0-3.19,88461,List2A,white,woman,,,,,"{""Q0"":""Mike is meeting dave""}","<img src=""stim_listA/meet5.gif""</stim_listA>",is meeting,
2645,<p>Thank you for completing that task.</p><p>The final part of this session is a short questionnaire.</p><p>Press Continue.</p>,0,html-button-response,404,1459119,0.0-20.0,88461,List2A,white,woman,,,,,,,,
26615,,,survey-text,405,1486777,0.0-21.0,88461,List2A,white,woman,,,,,"{""Q0"":""37"",""Q1"":""English "",""Q2"":""English "",""Q3"":""Uk"",""Q4"":""White"",""Q5"":""Female""}",,,demographics
44257,,,survey-likert,406,1531056,0.0-22.0,88461,List2A,white,woman,,,,,"{""Q0"":4,""Q1"":4,""Q2"":4,""Q3"":4,""Q4"":2,""Q5"":4,""Q6"":4,""Q7"":2,""Q8"":3,""Q9"":4,""Q10"":4,""Q11"":4,""Q12"":2,""Q13"":2}",,,likert_race
33601,,,survey-likert,407,1564676,0.0-23.0,88461,List2A,white,woman,,,,,"{""Q0"":5,""Q1"":5,""Q2"":5,""Q3"":5,""Q4"":5,""Q5"":4,""Q6"":4,""Q7"":4,""Q8"":5,""Q9"":5,""Q10"":5,""Q11"":5,""Q12"":4,""Q13"":4}",,,likert_gender
5185,,,survey-text,408,1569866,0.0-24.0,88461,List2A,white,woman,,,,,"{""Q0"":""ccc""}",,,worker_id
22598,,,external-html,409,1592555,0.0-25.0,88461,List2A,white,woman,debrief.html,,,,,,,
