rt,stimulus,button_pressed,trial_type,trial_index,time_elapsed,internal_node_id,subject,list,ppt_race,ppt_gender,url,first_guess,correct,key_press,responses,image_type,phrase_type,test_part
3192,Welcome to the experiment. Press Continue to begin.,0,html-button-response,0,3196,0.0-0.0,88497,List1A,white,man,,,,,,,,
17552,,,external-html,1,21784,0.0-1.0,88497,List1A,white,man,consent.html,,,,,,,
27612,"<p>On the next page, you will see portraits of 8 people and their names.</p><p>Your first task is to take a few minutes to memorise the names of these people.</p><p>You will have to recall their names during the rest of the experiment, so it is</p><p>essential that you try to memorise these people and their names as best as you can.</p><br><p><strong>You will then be tested on your memory of these names and portraits.</strong></p><br><p>The experiment will start after you have completed this memory test.</p><br><p>Ready?</p>",0,html-button-response,2,49437,0.0-2.0,88497,List1A,white,man,,,,,,,,
130564,"<img src='img/portrait_matrix_list1.JPG' style='width:900px;height:500px;''></img><p>If you have memorised all the portraits and names and are ready to start, press Continue.</p><p><strong>Please note: Your memory of these faces will be tested 4 times during this experiment.</strong></p>",0,html-button-response,3,181006,0.0-3.0-0.0,88497,List1A,white,man,,,,,,,,
4975,"<img src=""portrait/BW1.jpg""style=""width:400px;height:400px;""></img>",0,html-button-response,4,186984,0.0-3.0-1.0,88497,List1A,white,man,,TRUE,0,,,,,
null,CORRECT,,html-keyboard-response,5,188489,0.0-3.0-2.0-0.0,88497,List1A,white,man,,,,null,,,,
3420,"<img src=""portrait/BM2.jpg""style=""width:400px;height:400px;""></img>",5,html-button-response,6,191911,0.0-3.0-4.0,88497,List1A,white,man,,TRUE,5,,,,,
null,CORRECT,,html-keyboard-response,7,193414,0.0-3.0-5.0-0.0,88497,List1A,white,man,,,,null,,,,
3176,"<img src=""portrait/BM1.jpg""style=""width:400px;height:400px;""></img>",4,html-button-response,8,196592,0.0-3.0-7.0,88497,List1A,white,man,,TRUE,4,,,,,
null,CORRECT,,html-keyboard-response,9,198095,0.0-3.0-8.0-0.0,88497,List1A,white,man,,,,null,,,,
2319,"<img src=""portrait/WM1.jpg""style=""width:400px;height:400px;""></img>",6,html-button-response,10,200416,0.0-3.0-10.0,88497,List1A,white,man,,TRUE,6,,,,,
null,CORRECT,,html-keyboard-response,11,201919,0.0-3.0-11.0-0.0,88497,List1A,white,man,,,,null,,,,
1951,"<img src=""portrait/WM2.jpg""style=""width:400px;height:400px;""></img>",7,html-button-response,12,203872,0.0-3.0-13.0,88497,List1A,white,man,,TRUE,7,,,,,
null,CORRECT,,html-keyboard-response,13,205376,0.0-3.0-14.0-0.0,88497,List1A,white,man,,,,null,,,,
1863,"<img src=""portrait/WW2.jpg""style=""width:400px;height:400px;""></img>",3,html-button-response,14,207240,0.0-3.0-16.0,88497,List1A,white,man,,TRUE,3,,,,,
null,CORRECT,,html-keyboard-response,15,208744,0.0-3.0-17.0-0.0,88497,List1A,white,man,,,,null,,,,
2723,"<img src=""portrait/BW2.jpg""style=""width:400px;height:400px;""></img>",2,html-button-response,16,211469,0.0-3.0-19.0,88497,List1A,white,man,,TRUE,2,,,,,
null,CORRECT,,html-keyboard-response,17,212972,0.0-3.0-20.0-0.0,88497,List1A,white,man,,,,null,,,,
2229,"<img src=""portrait/WW1.jpg""style=""width:400px;height:400px;""></img>",1,html-button-response,18,215202,0.0-3.0-22.0,88497,List1A,white,man,,TRUE,1,,,,,
null,CORRECT,,html-keyboard-response,19,216705,0.0-3.0-23.0-0.0,88497,List1A,white,man,,,,null,,,,
1539,<p>You got 8 out of 8 right first time. Press Continue.</p>,0,html-button-response,20,218246,0.0-3.0-25.0,88497,List1A,white,man,,,,,,,,
44356,"<p>In this experiment, you will view photographs of the people from the memory game interacting.</p><p>By using the <strong>exact</strong> phrase given <i>after</i> the photograph appears and recalling the correct names of the people in the photographs, form a sentence describing the interaction. You do not need to capitalise names.</p><p>Type your answer in the space provided. Please complete every sentence before moving onto the next trial.</p><p>You will only have a few seconds to memorise each given photograph and phrase before you can respond, so try your best to focus.</p><p>An example is given below. Press 'Continue' when you are ready.</p><img src='img/speaking_example_v2.jpg' style='width:800px;height:460px;''></img>",0,html-button-response,21,263606,0.0-4.0,88497,List1A,white,man,,,,,,,,
4540,"<p>Before the experiment starts, you will watch two example trials. Press 'Continue'.</p>",0,html-button-response,22,269147,0.0-5.0,88497,List1A,white,man,,,,,,,,
null,<img src='img/speaking_WW.gif'></img>,,html-keyboard-response,23,272151,0.0-6.0,88497,List1A,white,man,,,,null,,,,
null,<p>is speaking to</p>,,html-keyboard-response,24,274153,0.0-7.0,88497,List1A,white,man,,,,null,,,,
2495,<p><b>Answer:</b> kate is speaking to beth</p>,0,html-button-response,25,276650,0.0-8.0,88497,List1A,white,man,,,,,,,,
null,<img src='img/pointing_BM.gif'></img>,,html-keyboard-response,26,279654,0.0-9.0,88497,List1A,white,man,,,,null,,,,
null,<p>are pointing at each other</p>,,html-keyboard-response,27,281656,0.0-10.0,88497,List1A,white,man,,,,null,,,,
2391,<p><b>Answer:</b> luke and dave are pointing at each other</p>,0,html-button-response,28,284047,0.0-11.0,88497,List1A,white,man,,,,,,,,
27299,"<p>Ready to start the experiment?</p><br><p><strong>Remember to describe the picture using a full sentence,</strong></p><p><strong>that combines the names of the people with the given phrase.</strong></p><p><strong>If you do not do this correctly you will not be paid.</strong></p><p><strong> You do not need to capitalise names or use punctuation.</strong></p><br><p>Press 'Continue' to begin.</p>",0,html-button-response,29,312348,0.0-12.0,88497,List1A,white,man,,,,,,,,
null,"<div style=""font-size:60px;"">+</div>",,html-keyboard-response,30,313852,0.0-13.0-0.0,88497,List1A,white,man,,,,null,,,,
null,"<img src=""stim_listA/touch3.gif""</stim_listA>",,html-keyboard-response,31,315855,0.0-13.0-1.0,88497,List1A,white,man,,,,null,,,,
null,is touching,,html-keyboard-response,32,317857,0.0-13.0-2.0,88497,List1A,white,man,,,,null,,,,
9185,,,survey-text,33,327044,0.0-13.0-3.0,88497,List1A,white,man,,,,,"{""Q0"":""Dave is touching Ruth""}","<img src=""stim_listA/touch3.gif""</stim_listA>",is touching,
null,"<div style=""font-size:60px;"">+</div>",,html-keyboard-response,34,327546,0.0-13.0-0.1,88497,List1A,white,man,,,,null,,,,
null,"<img src=""stim_listA/hug3.gif""</stim_listA>",,html-keyboard-response,35,329549,0.0-13.0-1.1,88497,List1A,white,man,,,,null,,,,
null,is hugging,,html-keyboard-response,36,331551,0.0-13.0-2.1,88497,List1A,white,man,,,,null,,,,
7877,,,survey-text,37,339429,0.0-13.0-3.1,88497,List1A,white,man,,,,,"{""Q0"":""Luke is hugging Ruth""}","<img src=""stim_listA/hug3.gif""</stim_listA>",is hugging,
null,"<div style=""font-size:60px;"">+</div>",,html-keyboard-response,38,339931,0.0-13.0-0.2,88497,List1A,white,man,,,,null,,,,
null,"<img src=""stim_listA/dance6.gif""</stim_listA>",,html-keyboard-response,39,341934,0.0-13.0-1.2,88497,List1A,white,man,,,,null,,,,
null,are dancing with each other,,html-keyboard-response,40,343936,0.0-13.0-2.2,88497,List1A,white,man,,,,null,,,,
23326,,,survey-text,41,367263,0.0-13.0-3.2,88497,List1A,white,man,,,,,"{""Q0"":""Mike is dancing with Luke""}","<img src=""stim_listA/dance6.gif""</stim_listA>",are dancing with each other,
null,"<div style=""font-size:60px;"">+</div>",,html-keyboard-response,42,367765,0.0-13.0-0.3,88497,List1A,white,man,,,,null,,,,
null,"<img src=""stim_listA/touch4.gif""</stim_listA>",,html-keyboard-response,43,369768,0.0-13.0-1.3,88497,List1A,white,man,,,,null,,,,
null,are touching each other,,html-keyboard-response,44,371770,0.0-13.0-2.3,88497,List1A,white,man,,,,null,,,,
16074,,,survey-text,45,387845,0.0-13.0-3.3,88497,List1A,white,man,,,,,"{""Q0"":""luke and ruth are touching each other""}","<img src=""stim_listA/touch4.gif""</stim_listA>",are touching each other,
null,"<div style=""font-size:60px;"">+</div>",,html-keyboard-response,46,388347,0.0-13.0-0.4,88497,List1A,white,man,,,,null,,,,
null,"<img src=""stim_listA/fight2.gif""</stim_listA>",,html-keyboard-response,47,390351,0.0-13.0-1.4,88497,List1A,white,man,,,,null,,,,
null,are fighting each other,,html-keyboard-response,48,392353,0.0-13.0-2.4,88497,List1A,white,man,,,,null,,,,
17495,,,survey-text,49,409850,0.0-13.0-3.4,88497,List1A,white,man,,,,,"{""Q0"":""beth and fred are fighting each other""}","<img src=""stim_listA/fight2.gif""</stim_listA>",are fighting each other,
null,"<div style=""font-size:60px;"">+</div>",,html-keyboard-response,50,410352,0.0-13.0-0.5,88497,List1A,white,man,,,,null,,,,
null,"<img src=""stim_listA/kiss4.gif""</stim_listA>",,html-keyboard-response,51,412355,0.0-13.0-1.5,88497,List1A,white,man,,,,null,,,,
null,are kissing each other,,html-keyboard-response,52,414357,0.0-13.0-2.5,88497,List1A,white,man,,,,null,,,,
12405,,,survey-text,53,426763,0.0-13.0-3.5,88497,List1A,white,man,,,,,"{""Q0"":""Dave and Jane are kissing each other""}","<img src=""stim_listA/kiss4.gif""</stim_listA>",are kissing each other,
null,"<div style=""font-size:60px;"">+</div>",,html-keyboard-response,54,427265,0.0-13.0-0.6,88497,List1A,white,man,,,,null,,,,
null,"<img src=""stim_listA/touch1.gif""</stim_listA>",,html-keyboard-response,55,429268,0.0-13.0-1.6,88497,List1A,white,man,,,,null,,,,
null,is touching,,html-keyboard-response,56,431270,0.0-13.0-2.6,88497,List1A,white,man,,,,null,,,,
10197,,,survey-text,57,441468,0.0-13.0-3.6,88497,List1A,white,man,,,,,"{""Q0"":""Kate and mike are""}","<img src=""stim_listA/touch1.gif""</stim_listA>",is touching,
null,"<div style=""font-size:60px;"">+</div>",,html-keyboard-response,58,441970,0.0-13.0-0.7,88497,List1A,white,man,,,,null,,,,
null,"<img src=""stim_listA/touch2.gif""</stim_listA>",,html-keyboard-response,59,443973,0.0-13.0-1.7,88497,List1A,white,man,,,,null,,,,
null,are touching each other,,html-keyboard-response,60,445976,0.0-13.0-2.7,88497,List1A,white,man,,,,null,,,,
9702,,,survey-text,61,455679,0.0-13.0-3.7,88497,List1A,white,man,,,,,"{""Q0"":""Fred and beth are touching each other""}","<img src=""stim_listA/touch2.gif""</stim_listA>",are touching each other,
null,"<div style=""font-size:60px;"">+</div>",,html-keyboard-response,62,456181,0.0-13.0-0.8,88497,List1A,white,man,,,,null,,,,
null,"<img src=""stim_listA/dance3.gif""</stim_listA>",,html-keyboard-response,63,458184,0.0-13.0-1.8,88497,List1A,white,man,,,,null,,,,
null,is dancing with,,html-keyboard-response,64,460187,0.0-13.0-2.8,88497,List1A,white,man,,,,null,,,,
10198,,,survey-text,65,470386,0.0-13.0-3.8,88497,List1A,white,man,,,,,"{""Q0"":""Luke is dancing with Jane""}","<img src=""stim_listA/dance3.gif""</stim_listA>",is dancing with,
null,"<div style=""font-size:60px;"">+</div>",,html-keyboard-response,66,470888,0.0-13.0-0.9,88497,List1A,white,man,,,,null,,,,
null,"<img src=""stim_listA/hug1.gif""</stim_listA>",,html-keyboard-response,67,472891,0.0-13.0-1.9,88497,List1A,white,man,,,,null,,,,
null,is hugging,,html-keyboard-response,68,474894,0.0-13.0-2.9,88497,List1A,white,man,,,,null,,,,
6185,,,survey-text,69,481081,0.0-13.0-3.9,88497,List1A,white,man,,,,,"{""Q0"":""Fred is hugging beth""}","<img src=""stim_listA/hug1.gif""</stim_listA>",is hugging,
null,"<div style=""font-size:60px;"">+</div>",,html-keyboard-response,70,481582,0.0-13.0-0.10,88497,List1A,white,man,,,,null,,,,
null,"<img src=""stim_listA/fight5.gif""</stim_listA>",,html-keyboard-response,71,483585,0.0-13.0-1.10,88497,List1A,white,man,,,,null,,,,
null,is fighting,,html-keyboard-response,72,485587,0.0-13.0-2.10,88497,List1A,white,man,,,,null,,,,
6321,,,survey-text,73,491915,0.0-13.0-3.10,88497,List1A,white,man,,,,,"{""Q0"":""Mike is fighting Dave""}","<img src=""stim_listA/fight5.gif""</stim_listA>",is fighting,
null,"<div style=""font-size:60px;"">+</div>",,html-keyboard-response,74,492416,0.0-13.0-0.11,88497,List1A,white,man,,,,null,,,,
null,"<img src=""stim_listA/kiss3.gif""</stim_listA>",,html-keyboard-response,75,494419,0.0-13.0-1.11,88497,List1A,white,man,,,,null,,,,
null,is kissing,,html-keyboard-response,76,496422,0.0-13.0-2.11,88497,List1A,white,man,,,,null,,,,
8274,,,survey-text,77,504697,0.0-13.0-3.11,88497,List1A,white,man,,,,,"{""Q0"":""Luke is kissing Ruth""}","<img src=""stim_listA/kiss3.gif""</stim_listA>",is kissing,
null,"<div style=""font-size:60px;"">+</div>",,html-keyboard-response,78,505199,0.0-13.0-0.12,88497,List1A,white,man,,,,null,,,,
null,"<img src=""stim_listA/fight6.gif""</stim_listA>",,html-keyboard-response,79,507202,0.0-13.0-1.12,88497,List1A,white,man,,,,null,,,,
null,are fighting each other,,html-keyboard-response,80,509205,0.0-13.0-2.12,88497,List1A,white,man,,,,null,,,,
12643,,,survey-text,81,521849,0.0-13.0-3.12,88497,List1A,white,man,,,,,"{""Q0"":""Luke and fred are fighting each other""}","<img src=""stim_listA/fight6.gif""</stim_listA>",are fighting each other,
null,"<div style=""font-size:60px;"">+</div>",,html-keyboard-response,82,522351,0.0-13.0-0.13,88497,List1A,white,man,,,,null,,,,
null,"<img src=""stim_listA/marry6.gif""</stim_listA>",,html-keyboard-response,83,524354,0.0-13.0-1.13,88497,List1A,white,man,,,,null,,,,
null,are marrying each other,,html-keyboard-response,84,526357,0.0-13.0-2.13,88497,List1A,white,man,,,,null,,,,
10188,,,survey-text,85,536546,0.0-13.0-3.13,88497,List1A,white,man,,,,,"{""Q0"":""fred and dave are marrying each other""}","<img src=""stim_listA/marry6.gif""</stim_listA>",are marrying each other,
null,"<div style=""font-size:60px;"">+</div>",,html-keyboard-response,86,537048,0.0-13.0-0.14,88497,List1A,white,man,,,,null,,,,
null,"<img src=""stim_listA/shout5.gif""</stim_listA>",,html-keyboard-response,87,539051,0.0-13.0-1.14,88497,List1A,white,man,,,,null,,,,
null,is shouting at,,html-keyboard-response,88,541054,0.0-13.0-2.14,88497,List1A,white,man,,,,null,,,,
7006,,,survey-text,89,548061,0.0-13.0-3.14,88497,List1A,white,man,,,,,"{""Q0"":""Luke is shouting at Fred""}","<img src=""stim_listA/shout5.gif""</stim_listA>",is shouting at,
null,"<div style=""font-size:60px;"">+</div>",,html-keyboard-response,90,548562,0.0-13.0-0.15,88497,List1A,white,man,,,,null,,,,
null,"<img src=""stim_listA/meet1.gif""</stim_listA>",,html-keyboard-response,91,550565,0.0-13.0-1.15,88497,List1A,white,man,,,,null,,,,
null,is meeting,,html-keyboard-response,92,552567,0.0-13.0-2.15,88497,List1A,white,man,,,,null,,,,
6641,,,survey-text,93,559209,0.0-13.0-3.15,88497,List1A,white,man,,,,,"{""Q0"":""Mike is meeting Kate""}","<img src=""stim_listA/meet1.gif""</stim_listA>",is meeting,
null,"<div style=""font-size:60px;"">+</div>",,html-keyboard-response,94,559711,0.0-13.0-0.16,88497,List1A,white,man,,,,null,,,,
null,"<img src=""stim_listA/touch6.gif""</stim_listA>",,html-keyboard-response,95,561714,0.0-13.0-1.16,88497,List1A,white,man,,,,null,,,,
null,are touching each other,,html-keyboard-response,96,563716,0.0-13.0-2.16,88497,List1A,white,man,,,,null,,,,
9684,,,survey-text,97,573401,0.0-13.0-3.16,88497,List1A,white,man,,,,,"{""Q0"":""Luke and Fred are touching each other""}","<img src=""stim_listA/touch6.gif""</stim_listA>",are touching each other,
null,"<div style=""font-size:60px;"">+</div>",,html-keyboard-response,98,573903,0.0-13.0-0.17,88497,List1A,white,man,,,,null,,,,
null,"<img src=""stim_listA/argue2.gif""</stim_listA>",,html-keyboard-response,99,575906,0.0-13.0-1.17,88497,List1A,white,man,,,,null,,,,
null,are arguing with each other,,html-keyboard-response,100,577908,0.0-13.0-2.17,88497,List1A,white,man,,,,null,,,,
12746,,,survey-text,101,590656,0.0-13.0-3.17,88497,List1A,white,man,,,,,"{""Q0"":""fred and Kate are arguing with each other""}","<img src=""stim_listA/argue2.gif""</stim_listA>",are arguing with each other,
null,"<div style=""font-size:60px;"">+</div>",,html-keyboard-response,102,591158,0.0-13.0-0.18,88497,List1A,white,man,,,,null,,,,
null,"<img src=""stim_listA/marry8.gif""</stim_listA>",,html-keyboard-response,103,593161,0.0-13.0-1.18,88497,List1A,white,man,,,,null,,,,
null,are marrying each other,,html-keyboard-response,104,595163,0.0-13.0-2.18,88497,List1A,white,man,,,,null,,,,
9458,,,survey-text,105,604622,0.0-13.0-3.18,88497,List1A,white,man,,,,,"{""Q0"":""Beth and Jane are marrying each other""}","<img src=""stim_listA/marry8.gif""</stim_listA>",are marrying each other,
null,"<div style=""font-size:60px;"">+</div>",,html-keyboard-response,106,605124,0.0-13.0-0.19,88497,List1A,white,man,,,,null,,,,
null,"<img src=""stim_listA/shout7.gif""</stim_listA>",,html-keyboard-response,107,607127,0.0-13.0-1.19,88497,List1A,white,man,,,,null,,,,
null,is shouting at,,html-keyboard-response,108,609129,0.0-13.0-2.19,88497,List1A,white,man,,,,null,,,,
12511,,,survey-text,109,621642,0.0-13.0-3.19,88497,List1A,white,man,,,,,"{""Q0"":""Ruth is shouting at beth""}","<img src=""stim_listA/shout7.gif""</stim_listA>",is shouting at,
9982,"<img src='img/portrait_matrix_list1.JPG' style='width:900px;height:500px;''></img><p>If you have memorised all the portraits and names and are ready to start, press Continue.</p><p><strong>Please note: Your memory of these faces will be tested 4 times during this experiment.</strong></p>",0,html-button-response,110,631624,0.0-14.0-0.0,88497,List1A,white,man,,,,,,,,
3448,"<img src=""portrait/BW1.jpg""style=""width:400px;height:400px;""></img>",0,html-button-response,111,636075,0.0-14.0-1.0,88497,List1A,white,man,,TRUE,0,,,,,
null,CORRECT,,html-keyboard-response,112,637578,0.0-14.0-2.0-0.0,88497,List1A,white,man,,,,null,,,,
1367,"<img src=""portrait/WM2.jpg""style=""width:400px;height:400px;""></img>",7,html-button-response,113,638946,0.0-14.0-4.0,88497,List1A,white,man,,TRUE,7,,,,,
null,CORRECT,,html-keyboard-response,114,640451,0.0-14.0-5.0-0.0,88497,List1A,white,man,,,,null,,,,
3263,"<img src=""portrait/BW2.jpg""style=""width:400px;height:400px;""></img>",2,html-button-response,115,643716,0.0-14.0-7.0,88497,List1A,white,man,,TRUE,2,,,,,
null,CORRECT,,html-keyboard-response,116,645219,0.0-14.0-8.0-0.0,88497,List1A,white,man,,,,null,,,,
2689,"<img src=""portrait/WW2.jpg""style=""width:400px;height:400px;""></img>",3,html-button-response,117,647909,0.0-14.0-10.0,88497,List1A,white,man,,TRUE,3,,,,,
null,CORRECT,,html-keyboard-response,118,649413,0.0-14.0-11.0-0.0,88497,List1A,white,man,,,,null,,,,
2928,"<img src=""portrait/WW1.jpg""style=""width:400px;height:400px;""></img>",1,html-button-response,119,652342,0.0-14.0-13.0,88497,List1A,white,man,,TRUE,1,,,,,
null,CORRECT,,html-keyboard-response,120,653846,0.0-14.0-14.0-0.0,88497,List1A,white,man,,,,null,,,,
1935,"<img src=""portrait/BM2.jpg""style=""width:400px;height:400px;""></img>",5,html-button-response,121,655782,0.0-14.0-16.0,88497,List1A,white,man,,TRUE,5,,,,,
null,CORRECT,,html-keyboard-response,122,657286,0.0-14.0-17.0-0.0,88497,List1A,white,man,,,,null,,,,
1535,"<img src=""portrait/BM1.jpg""style=""width:400px;height:400px;""></img>",4,html-button-response,123,658822,0.0-14.0-19.0,88497,List1A,white,man,,TRUE,4,,,,,
null,CORRECT,,html-keyboard-response,124,660326,0.0-14.0-20.0-0.0,88497,List1A,white,man,,,,null,,,,
2247,"<img src=""portrait/WM1.jpg""style=""width:400px;height:400px;""></img>",6,html-button-response,125,662574,0.0-14.0-22.0,88497,List1A,white,man,,TRUE,6,,,,,
null,CORRECT,,html-keyboard-response,126,664077,0.0-14.0-23.0-0.0,88497,List1A,white,man,,,,null,,,,
1105,<p>You got 8 out of 8 right first time. Press Continue.</p>,0,html-button-response,127,665184,0.0-14.0-25.0,88497,List1A,white,man,,,,,,,,
null,"<div style=""font-size:60px;"">+</div>",,html-keyboard-response,128,666688,0.0-15.0-0.0,88497,List1A,white,man,,,,null,,,,
null,"<img src=""stim_listA/dance2.gif""</stim_listA>",,html-keyboard-response,129,668691,0.0-15.0-1.0,88497,List1A,white,man,,,,null,,,,
null,are dancing with each other,,html-keyboard-response,130,670694,0.0-15.0-2.0,88497,List1A,white,man,,,,null,,,,
8990,,,survey-text,131,679685,0.0-15.0-3.0,88497,List1A,white,man,,,,,"{""Q0"":""beth and mike are dancing with each other""}","<img src=""stim_listA/dance2.gif""</stim_listA>",are dancing with each other,
null,"<div style=""font-size:60px;"">+</div>",,html-keyboard-response,132,680187,0.0-15.0-0.1,88497,List1A,white,man,,,,null,,,,
null,"<img src=""stim_listA/hug2.gif""</stim_listA>",,html-keyboard-response,133,682190,0.0-15.0-1.1,88497,List1A,white,man,,,,null,,,,
null,are hugging each other,,html-keyboard-response,134,684192,0.0-15.0-2.1,88497,List1A,white,man,,,,null,,,,
10663,,,survey-text,135,694856,0.0-15.0-3.1,88497,List1A,white,man,,,,,"{""Q0"":""kate and mike are hugging each other""}","<img src=""stim_listA/hug2.gif""</stim_listA>",are hugging each other,
null,"<div style=""font-size:60px;"">+</div>",,html-keyboard-response,136,695358,0.0-15.0-0.2,88497,List1A,white,man,,,,null,,,,
null,"<img src=""stim_listA/shout8.gif""</stim_listA>",,html-keyboard-response,137,697361,0.0-15.0-1.2,88497,List1A,white,man,,,,null,,,,
null,are shouting at each other,,html-keyboard-response,138,699363,0.0-15.0-2.2,88497,List1A,white,man,,,,null,,,,
10011,,,survey-text,139,709376,0.0-15.0-3.2,88497,List1A,white,man,,,,,"{""Q0"":""Jane and Kate are shouting at each other""}","<img src=""stim_listA/shout8.gif""</stim_listA>",are shouting at each other,
null,"<div style=""font-size:60px;"">+</div>",,html-keyboard-response,140,709878,0.0-15.0-0.3,88497,List1A,white,man,,,,null,,,,
null,"<img src=""stim_listA/talk3.gif""</stim_listA>",,html-keyboard-response,141,711881,0.0-15.0-1.3,88497,List1A,white,man,,,,null,,,,
null,is talking to,,html-keyboard-response,142,713883,0.0-15.0-2.3,88497,List1A,white,man,,,,null,,,,
8241,,,survey-text,143,722125,0.0-15.0-3.3,88497,List1A,white,man,,,,,"{""Q0"":""Luke is talking to Jane""}","<img src=""stim_listA/talk3.gif""</stim_listA>",is talking to,
null,"<div style=""font-size:60px;"">+</div>",,html-keyboard-response,144,722626,0.0-15.0-0.4,88497,List1A,white,man,,,,null,,,,
null,"<img src=""stim_listA/marry4.gif""</stim_listA>",,html-keyboard-response,145,724629,0.0-15.0-1.4,88497,List1A,white,man,,,,null,,,,
null,are marrying each other,,html-keyboard-response,146,726632,0.0-15.0-2.4,88497,List1A,white,man,,,,null,,,,
7249,,,survey-text,147,733883,0.0-15.0-3.4,88497,List1A,white,man,,,,,"{""Q0"":""Luke and Jane are marrying each other""}","<img src=""stim_listA/marry4.gif""</stim_listA>",are marrying each other,
null,"<div style=""font-size:60px;"">+</div>",,html-keyboard-response,148,734385,0.0-15.0-0.5,88497,List1A,white,man,,,,null,,,,
null,"<img src=""stim_listA/fight7.gif""</stim_listA>",,html-keyboard-response,149,736388,0.0-15.0-1.5,88497,List1A,white,man,,,,null,,,,
null,is fighting,,html-keyboard-response,150,738390,0.0-15.0-2.5,88497,List1A,white,man,,,,null,,,,
7614,,,survey-text,151,746006,0.0-15.0-3.5,88497,List1A,white,man,,,,,"{""Q0"":""Kate is fighting Jane""}","<img src=""stim_listA/fight7.gif""</stim_listA>",is fighting,
null,"<div style=""font-size:60px;"">+</div>",,html-keyboard-response,152,746508,0.0-15.0-0.6,88497,List1A,white,man,,,,null,,,,
null,"<img src=""stim_listA/talk2.gif""</stim_listA>",,html-keyboard-response,153,748511,0.0-15.0-1.6,88497,List1A,white,man,,,,null,,,,
null,are talking to each other,,html-keyboard-response,154,750514,0.0-15.0-2.6,88497,List1A,white,man,,,,null,,,,
8568,,,survey-text,155,759084,0.0-15.0-3.6,88497,List1A,white,man,,,,,"{""Q0"":""Beth and Mike are talking to each other""}","<img src=""stim_listA/talk2.gif""</stim_listA>",are talking to each other,
null,"<div style=""font-size:60px;"">+</div>",,html-keyboard-response,156,759586,0.0-15.0-0.7,88497,List1A,white,man,,,,null,,,,
null,"<img src=""stim_listA/shout1.gif""</stim_listA>",,html-keyboard-response,157,761589,0.0-15.0-1.7,88497,List1A,white,man,,,,null,,,,
null,is shouting at,,html-keyboard-response,158,763591,0.0-15.0-2.7,88497,List1A,white,man,,,,null,,,,
8484,,,survey-text,159,772076,0.0-15.0-3.7,88497,List1A,white,man,,,,,"{""Q0"":""Fred is shouting at Beth""}","<img src=""stim_listA/shout1.gif""</stim_listA>",is shouting at,
null,"<div style=""font-size:60px;"">+</div>",,html-keyboard-response,160,772578,0.0-15.0-0.8,88497,List1A,white,man,,,,null,,,,
null,"<img src=""stim_listA/fight3.gif""</stim_listA>",,html-keyboard-response,161,774581,0.0-15.0-1.8,88497,List1A,white,man,,,,null,,,,
null,is fighting,,html-keyboard-response,162,776584,0.0-15.0-2.8,88497,List1A,white,man,,,,null,,,,
8263,,,survey-text,163,784848,0.0-15.0-3.8,88497,List1A,white,man,,,,,"{""Q0"":""Dave is fighting Ruth""}","<img src=""stim_listA/fight3.gif""</stim_listA>",is fighting,
null,"<div style=""font-size:60px;"">+</div>",,html-keyboard-response,164,785349,0.0-15.0-0.9,88497,List1A,white,man,,,,null,,,,
null,"<img src=""stim_listA/fight8.gif""</stim_listA>",,html-keyboard-response,165,787352,0.0-15.0-1.9,88497,List1A,white,man,,,,null,,,,
null,are fighting each other,,html-keyboard-response,166,789355,0.0-15.0-2.9,88497,List1A,white,man,,,,null,,,,
10678,,,survey-text,167,800034,0.0-15.0-3.9,88497,List1A,white,man,,,,,"{""Q0"":""Ruth and Beth are fighting each other""}","<img src=""stim_listA/fight8.gif""</stim_listA>",are fighting each other,
null,"<div style=""font-size:60px;"">+</div>",,html-keyboard-response,168,800536,0.0-15.0-0.10,88497,List1A,white,man,,,,null,,,,
null,"<img src=""stim_listA/kiss6.gif""</stim_listA>",,html-keyboard-response,169,802539,0.0-15.0-1.10,88497,List1A,white,man,,,,null,,,,
null,are kissing each other,,html-keyboard-response,170,804542,0.0-15.0-2.10,88497,List1A,white,man,,,,null,,,,
7593,,,survey-text,171,812136,0.0-15.0-3.10,88497,List1A,white,man,,,,,"{""Q0"":""Dave and mike are kissing each other""}","<img src=""stim_listA/kiss6.gif""</stim_listA>",are kissing each other,
null,"<div style=""font-size:60px;"">+</div>",,html-keyboard-response,172,812639,0.0-15.0-0.11,88497,List1A,white,man,,,,null,,,,
null,"<img src=""stim_listA/talk8.gif""</stim_listA>",,html-keyboard-response,173,814642,0.0-15.0-1.11,88497,List1A,white,man,,,,null,,,,
null,are talking to each other,,html-keyboard-response,174,816643,0.0-15.0-2.11,88497,List1A,white,man,,,,null,,,,
8432,,,survey-text,175,825077,0.0-15.0-3.11,88497,List1A,white,man,,,,,"{""Q0"":""Kate and ruth are talking to each other""}","<img src=""stim_listA/talk8.gif""</stim_listA>",are talking to each other,
null,"<div style=""font-size:60px;"">+</div>",,html-keyboard-response,176,825579,0.0-15.0-0.12,88497,List1A,white,man,,,,null,,,,
null,"<img src=""stim_listA/touch7.gif""</stim_listA>",,html-keyboard-response,177,827582,0.0-15.0-1.12,88497,List1A,white,man,,,,null,,,,
null,is touching,,html-keyboard-response,178,829585,0.0-15.0-2.12,88497,List1A,white,man,,,,null,,,,
9413,,,survey-text,179,838999,0.0-15.0-3.12,88497,List1A,white,man,,,,,"{""Q0"":""Jane is touching Kate""}","<img src=""stim_listA/touch7.gif""</stim_listA>",is touching,
null,"<div style=""font-size:60px;"">+</div>",,html-keyboard-response,180,839501,0.0-15.0-0.13,88497,List1A,white,man,,,,null,,,,
null,"<img src=""stim_listA/fight4.gif""</stim_listA>",,html-keyboard-response,181,841504,0.0-15.0-1.13,88497,List1A,white,man,,,,null,,,,
null,are fighting each other,,html-keyboard-response,182,843506,0.0-15.0-2.13,88497,List1A,white,man,,,,null,,,,
7772,,,survey-text,183,851280,0.0-15.0-3.13,88497,List1A,white,man,,,,,"{""Q0"":""Ruth and Luke are fighting each other""}","<img src=""stim_listA/fight4.gif""</stim_listA>",are fighting each other,
null,"<div style=""font-size:60px;"">+</div>",,html-keyboard-response,184,851782,0.0-15.0-0.14,88497,List1A,white,man,,,,null,,,,
null,"<img src=""stim_listA/shout2.gif""</stim_listA>",,html-keyboard-response,185,853785,0.0-15.0-1.14,88497,List1A,white,man,,,,null,,,,
null,are shouting at each other,,html-keyboard-response,186,855788,0.0-15.0-2.14,88497,List1A,white,man,,,,null,,,,
9329,,,survey-text,187,865118,0.0-15.0-3.14,88497,List1A,white,man,,,,,"{""Q0"":""Mike and Kate are shouting at each other""}","<img src=""stim_listA/shout2.gif""</stim_listA>",are shouting at each other,
null,"<div style=""font-size:60px;"">+</div>",,html-keyboard-response,188,865620,0.0-15.0-0.15,88497,List1A,white,man,,,,null,,,,
null,"<img src=""stim_listA/hug6.gif""</stim_listA>",,html-keyboard-response,189,867623,0.0-15.0-1.15,88497,List1A,white,man,,,,null,,,,
null,are hugging each other,,html-keyboard-response,190,869625,0.0-15.0-2.15,88497,List1A,white,man,,,,null,,,,
9945,,,survey-text,191,879571,0.0-15.0-3.15,88497,List1A,white,man,,,,,"{""Q0"":""Dave and mike are hugging each other""}","<img src=""stim_listA/hug6.gif""</stim_listA>",are hugging each other,
null,"<div style=""font-size:60px;"">+</div>",,html-keyboard-response,192,880073,0.0-15.0-0.16,88497,List1A,white,man,,,,null,,,,
null,"<img src=""stim_listA/meet8.gif""</stim_listA>",,html-keyboard-response,193,882076,0.0-15.0-1.16,88497,List1A,white,man,,,,null,,,,
null,are meeting each other,,html-keyboard-response,194,884079,0.0-15.0-2.16,88497,List1A,white,man,,,,null,,,,
6819,,,survey-text,195,890900,0.0-15.0-3.16,88497,List1A,white,man,,,,,"{""Q0"":""Ruth and beth are meeting each other""}","<img src=""stim_listA/meet8.gif""</stim_listA>",are meeting each other,
null,"<div style=""font-size:60px;"">+</div>",,html-keyboard-response,196,891402,0.0-15.0-0.17,88497,List1A,white,man,,,,null,,,,
null,"<img src=""stim_listA/talk5.gif""</stim_listA>",,html-keyboard-response,197,893405,0.0-15.0-1.17,88497,List1A,white,man,,,,null,,,,
null,is talking to,,html-keyboard-response,198,895407,0.0-15.0-2.17,88497,List1A,white,man,,,,null,,,,
5241,,,survey-text,199,900649,0.0-15.0-3.17,88497,List1A,white,man,,,,,"{""Q0"":""Fred is talking to Dave""}","<img src=""stim_listA/talk5.gif""</stim_listA>",is talking to,
null,"<div style=""font-size:60px;"">+</div>",,html-keyboard-response,200,901151,0.0-15.0-0.18,88497,List1A,white,man,,,,null,,,,
null,"<img src=""stim_listA/argue6.gif""</stim_listA>",,html-keyboard-response,201,903154,0.0-15.0-1.18,88497,List1A,white,man,,,,null,,,,
null,are arguing with each other,,html-keyboard-response,202,905157,0.0-15.0-2.18,88497,List1A,white,man,,,,null,,,,
11048,,,survey-text,203,916206,0.0-15.0-3.18,88497,List1A,white,man,,,,,"{""Q0"":""Fred and dave are arguing with each other""}","<img src=""stim_listA/argue6.gif""</stim_listA>",are arguing with each other,
null,"<div style=""font-size:60px;"">+</div>",,html-keyboard-response,204,916708,0.0-15.0-0.19,88497,List1A,white,man,,,,null,,,,
null,"<img src=""stim_listA/meet7.gif""</stim_listA>",,html-keyboard-response,205,918711,0.0-15.0-1.19,88497,List1A,white,man,,,,null,,,,
null,is meeting,,html-keyboard-response,206,920714,0.0-15.0-2.19,88497,List1A,white,man,,,,null,,,,
10122,,,survey-text,207,930838,0.0-15.0-3.19,88497,List1A,white,man,,,,,"{""Q0"":""Kate is meeting Jane""}","<img src=""stim_listA/meet7.gif""</stim_listA>",is meeting,
5900,"<img src='img/portrait_matrix_list1.JPG' style='width:900px;height:500px;''></img><p>If you have memorised all the portraits and names and are ready to start, press Continue.</p><p><strong>Please note: Your memory of these faces will be tested 4 times during this experiment.</strong></p>",0,html-button-response,208,936738,0.0-16.0-0.0,88497,List1A,white,man,,,,,,,,
3046,"<img src=""portrait/WM1.jpg""style=""width:400px;height:400px;""></img>",6,html-button-response,209,940787,0.0-16.0-1.0,88497,List1A,white,man,,TRUE,6,,,,,
null,CORRECT,,html-keyboard-response,210,942290,0.0-16.0-2.0-0.0,88497,List1A,white,man,,,,null,,,,
3277,"<img src=""portrait/WW2.jpg""style=""width:400px;height:400px;""></img>",3,html-button-response,211,945570,0.0-16.0-4.0,88497,List1A,white,man,,TRUE,3,,,,,
null,CORRECT,,html-keyboard-response,212,947073,0.0-16.0-5.0-0.0,88497,List1A,white,man,,,,null,,,,
1928,"<img src=""portrait/WW1.jpg""style=""width:400px;height:400px;""></img>",1,html-button-response,213,949004,0.0-16.0-7.0,88497,List1A,white,man,,TRUE,1,,,,,
null,CORRECT,,html-keyboard-response,214,950507,0.0-16.0-8.0-0.0,88497,List1A,white,man,,,,null,,,,
2955,"<img src=""portrait/BW2.jpg""style=""width:400px;height:400px;""></img>",2,html-button-response,215,953465,0.0-16.0-10.0,88497,List1A,white,man,,TRUE,2,,,,,
null,CORRECT,,html-keyboard-response,216,954968,0.0-16.0-11.0-0.0,88497,List1A,white,man,,,,null,,,,
2475,"<img src=""portrait/BW1.jpg""style=""width:400px;height:400px;""></img>",0,html-button-response,217,957445,0.0-16.0-13.0,88497,List1A,white,man,,TRUE,0,,,,,
null,CORRECT,,html-keyboard-response,218,958948,0.0-16.0-14.0-0.0,88497,List1A,white,man,,,,null,,,,
1735,"<img src=""portrait/BM1.jpg""style=""width:400px;height:400px;""></img>",4,html-button-response,219,960685,0.0-16.0-16.0,88497,List1A,white,man,,TRUE,4,,,,,
null,CORRECT,,html-keyboard-response,220,962188,0.0-16.0-17.0-0.0,88497,List1A,white,man,,,,null,,,,
1159,"<img src=""portrait/WM2.jpg""style=""width:400px;height:400px;""></img>",7,html-button-response,221,963348,0.0-16.0-19.0,88497,List1A,white,man,,TRUE,7,,,,,
null,CORRECT,,html-keyboard-response,222,964851,0.0-16.0-20.0-0.0,88497,List1A,white,man,,,,null,,,,
1957,"<img src=""portrait/BM2.jpg""style=""width:400px;height:400px;""></img>",5,html-button-response,223,966810,0.0-16.0-22.0,88497,List1A,white,man,,TRUE,5,,,,,
null,CORRECT,,html-keyboard-response,224,968314,0.0-16.0-23.0-0.0,88497,List1A,white,man,,,,null,,,,
2052,<p>You got 8 out of 8 right first time. Press Continue.</p>,0,html-button-response,225,970367,0.0-16.0-25.0,88497,List1A,white,man,,,,,,,,
null,"<div style=""font-size:60px;"">+</div>",,html-keyboard-response,226,971872,0.0-17.0-0.0,88497,List1A,white,man,,,,null,,,,
null,"<img src=""stim_listA/touch8.gif""</stim_listA>",,html-keyboard-response,227,973875,0.0-17.0-1.0,88497,List1A,white,man,,,,null,,,,
null,are touching each other,,html-keyboard-response,228,975877,0.0-17.0-2.0,88497,List1A,white,man,,,,null,,,,
7013,,,survey-text,229,982891,0.0-17.0-3.0,88497,List1A,white,man,,,,,"{""Q0"":""Ruth and beth are touching each other""}","<img src=""stim_listA/touch8.gif""</stim_listA>",are touching each other,
null,"<div style=""font-size:60px;"">+</div>",,html-keyboard-response,230,983393,0.0-17.0-0.1,88497,List1A,white,man,,,,null,,,,
null,"<img src=""stim_listA/kiss2.gif""</stim_listA>",,html-keyboard-response,231,985396,0.0-17.0-1.1,88497,List1A,white,man,,,,null,,,,
null,are kissing each other,,html-keyboard-response,232,987399,0.0-17.0-2.1,88497,List1A,white,man,,,,null,,,,
7212,,,survey-text,233,994612,0.0-17.0-3.1,88497,List1A,white,man,,,,,"{""Q0"":""Kate and mike are kissing each other""}","<img src=""stim_listA/kiss2.gif""</stim_listA>",are kissing each other,
null,"<div style=""font-size:60px;"">+</div>",,html-keyboard-response,234,995114,0.0-17.0-0.2,88497,List1A,white,man,,,,null,,,,
null,"<img src=""stim_listA/meet2.gif""</stim_listA>",,html-keyboard-response,235,997117,0.0-17.0-1.2,88497,List1A,white,man,,,,null,,,,
null,are meeting each other,,html-keyboard-response,236,999119,0.0-17.0-2.2,88497,List1A,white,man,,,,null,,,,
6575,,,survey-text,237,1005696,0.0-17.0-3.2,88497,List1A,white,man,,,,,"{""Q0"":""Beth and Fred are meeting each other""}","<img src=""stim_listA/meet2.gif""</stim_listA>",are meeting each other,
null,"<div style=""font-size:60px;"">+</div>",,html-keyboard-response,238,1006198,0.0-17.0-0.3,88497,List1A,white,man,,,,null,,,,
null,"<img src=""stim_listA/meet6.gif""</stim_listA>",,html-keyboard-response,239,1008201,0.0-17.0-1.3,88497,List1A,white,man,,,,null,,,,
null,are meeting each other,,html-keyboard-response,240,1010203,0.0-17.0-2.3,88497,List1A,white,man,,,,null,,,,
11053,,,survey-text,241,1021258,0.0-17.0-3.3,88497,List1A,white,man,,,,,"{""Q0"":""Luke and fred are meeting each other""}","<img src=""stim_listA/meet6.gif""</stim_listA>",are meeting each other,
null,"<div style=""font-size:60px;"">+</div>",,html-keyboard-response,242,1021760,0.0-17.0-0.4,88497,List1A,white,man,,,,null,,,,
null,"<img src=""stim_listA/talk4.gif""</stim_listA>",,html-keyboard-response,243,1023763,0.0-17.0-1.4,88497,List1A,white,man,,,,null,,,,
null,are talking to each other,,html-keyboard-response,244,1025765,0.0-17.0-2.4,88497,List1A,white,man,,,,null,,,,
10203,,,survey-text,245,1035969,0.0-17.0-3.4,88497,List1A,white,man,,,,,"{""Q0"":""Ruth and Dave are talking to each other""}","<img src=""stim_listA/talk4.gif""</stim_listA>",are talking to each other,
null,"<div style=""font-size:60px;"">+</div>",,html-keyboard-response,246,1036472,0.0-17.0-0.5,88497,List1A,white,man,,,,null,,,,
null,"<img src=""stim_listA/marry5.gif""</stim_listA>",,html-keyboard-response,247,1038475,0.0-17.0-1.5,88497,List1A,white,man,,,,null,,,,
null,is marrying,,html-keyboard-response,248,1040477,0.0-17.0-2.5,88497,List1A,white,man,,,,null,,,,
5899,,,survey-text,249,1046377,0.0-17.0-3.5,88497,List1A,white,man,,,,,"{""Q0"":""Mike is marrying luke""}","<img src=""stim_listA/marry5.gif""</stim_listA>",is marrying,
null,"<div style=""font-size:60px;"">+</div>",,html-keyboard-response,250,1046879,0.0-17.0-0.6,88497,List1A,white,man,,,,null,,,,
null,"<img src=""stim_listA/kiss5.gif""</stim_listA>",,html-keyboard-response,251,1048882,0.0-17.0-1.6,88497,List1A,white,man,,,,null,,,,
null,is kissing,,html-keyboard-response,252,1050884,0.0-17.0-2.6,88497,List1A,white,man,,,,null,,,,
6487,,,survey-text,253,1057372,0.0-17.0-3.6,88497,List1A,white,man,,,,,"{""Q0"":""Fred is kissing Luke""}","<img src=""stim_listA/kiss5.gif""</stim_listA>",is kissing,
null,"<div style=""font-size:60px;"">+</div>",,html-keyboard-response,254,1057875,0.0-17.0-0.7,88497,List1A,white,man,,,,null,,,,
null,"<img src=""stim_listA/argue3.gif""</stim_listA>",,html-keyboard-response,255,1059878,0.0-17.0-1.7,88497,List1A,white,man,,,,null,,,,
null,is arguing with,,html-keyboard-response,256,1061880,0.0-17.0-2.7,88497,List1A,white,man,,,,null,,,,
5020,,,survey-text,257,1066901,0.0-17.0-3.7,88497,List1A,white,man,,,,,"{""Q0"":""Ruth is arguing with Dave""}","<img src=""stim_listA/argue3.gif""</stim_listA>",is arguing with,
null,"<div style=""font-size:60px;"">+</div>",,html-keyboard-response,258,1067403,0.0-17.0-0.8,88497,List1A,white,man,,,,null,,,,
null,"<img src=""stim_listA/argue1.gif""</stim_listA>",,html-keyboard-response,259,1069406,0.0-17.0-1.8,88497,List1A,white,man,,,,null,,,,
null,is arguing with,,html-keyboard-response,260,1071408,0.0-17.0-2.8,88497,List1A,white,man,,,,null,,,,
5374,,,survey-text,261,1076784,0.0-17.0-3.8,88497,List1A,white,man,,,,,"{""Q0"":""Mike is arguing with Beth""}","<img src=""stim_listA/argue1.gif""</stim_listA>",is arguing with,
null,"<div style=""font-size:60px;"">+</div>",,html-keyboard-response,262,1077286,0.0-17.0-0.9,88497,List1A,white,man,,,,null,,,,
null,"<img src=""stim_listA/talk6.gif""</stim_listA>",,html-keyboard-response,263,1079289,0.0-17.0-1.9,88497,List1A,white,man,,,,null,,,,
null,are talking to each other,,html-keyboard-response,264,1081291,0.0-17.0-2.9,88497,List1A,white,man,,,,null,,,,
11192,,,survey-text,265,1092485,0.0-17.0-3.9,88497,List1A,white,man,,,,,"{""Q0"":""Luke and mike are talking to each other""}","<img src=""stim_listA/talk6.gif""</stim_listA>",are talking to each other,
null,"<div style=""font-size:60px;"">+</div>",,html-keyboard-response,266,1092988,0.0-17.0-0.10,88497,List1A,white,man,,,,null,,,,
null,"<img src=""stim_listA/meet5.gif""</stim_listA>",,html-keyboard-response,267,1094991,0.0-17.0-1.10,88497,List1A,white,man,,,,null,,,,
null,is meeting,,html-keyboard-response,268,1096993,0.0-17.0-2.10,88497,List1A,white,man,,,,null,,,,
6037,,,survey-text,269,1103031,0.0-17.0-3.10,88497,List1A,white,man,,,,,"{""Q0"":""Mike is meeting Dave""}","<img src=""stim_listA/meet5.gif""</stim_listA>",is meeting,
null,"<div style=""font-size:60px;"">+</div>",,html-keyboard-response,270,1103532,0.0-17.0-0.11,88497,List1A,white,man,,,,null,,,,
null,"<img src=""stim_listA/dance4.gif""</stim_listA>",,html-keyboard-response,271,1105537,0.0-17.0-1.11,88497,List1A,white,man,,,,null,,,,
null,are dancing with each other,,html-keyboard-response,272,1107553,0.0-17.0-2.11,88497,List1A,white,man,,,,null,,,,
8531,,,survey-text,273,1116087,0.0-17.0-3.11,88497,List1A,white,man,,,,,"{""Q0"":""Dave and Ruth are dancing with each other""}","<img src=""stim_listA/dance4.gif""</stim_listA>",are dancing with each other,
null,"<div style=""font-size:60px;"">+</div>",,html-keyboard-response,274,1116589,0.0-17.0-0.12,88497,List1A,white,man,,,,null,,,,
null,"<img src=""stim_listA/touch5.gif""</stim_listA>",,html-keyboard-response,275,1118592,0.0-17.0-1.12,88497,List1A,white,man,,,,null,,,,
null,is touching,,html-keyboard-response,276,1120594,0.0-17.0-2.12,88497,List1A,white,man,,,,null,,,,
6753,,,survey-text,277,1127348,0.0-17.0-3.12,88497,List1A,white,man,,,,,"{""Q0"":""Mike is touching Dave""}","<img src=""stim_listA/touch5.gif""</stim_listA>",is touching,
null,"<div style=""font-size:60px;"">+</div>",,html-keyboard-response,278,1127850,0.0-17.0-0.13,88497,List1A,white,man,,,,null,,,,
null,"<img src=""stim_listA/shout4.gif""</stim_listA>",,html-keyboard-response,279,1129853,0.0-17.0-1.13,88497,List1A,white,man,,,,null,,,,
null,are shouting at each other,,html-keyboard-response,280,1131856,0.0-17.0-2.13,88497,List1A,white,man,,,,null,,,,
9895,,,survey-text,281,1141752,0.0-17.0-3.13,88497,List1A,white,man,,,,,"{""Q0"":""ruth and dave are shouting at each other""}","<img src=""stim_listA/shout4.gif""</stim_listA>",are shouting at each other,
null,"<div style=""font-size:60px;"">+</div>",,html-keyboard-response,282,1142254,0.0-17.0-0.14,88497,List1A,white,man,,,,null,,,,
null,"<img src=""stim_listA/hug5.gif""</stim_listA>",,html-keyboard-response,283,1144257,0.0-17.0-1.14,88497,List1A,white,man,,,,null,,,,
null,is hugging,,html-keyboard-response,284,1146259,0.0-17.0-2.14,88497,List1A,white,man,,,,null,,,,
8280,,,survey-text,285,1154540,0.0-17.0-3.14,88497,List1A,white,man,,,,,"{""Q0"":""Fred is hugging Luke""}","<img src=""stim_listA/hug5.gif""</stim_listA>",is hugging,
null,"<div style=""font-size:60px;"">+</div>",,html-keyboard-response,286,1155042,0.0-17.0-0.15,88497,List1A,white,man,,,,null,,,,
null,"<img src=""stim_listA/shout6.gif""</stim_listA>",,html-keyboard-response,287,1157045,0.0-17.0-1.15,88497,List1A,white,man,,,,null,,,,
null,are shouting at each other,,html-keyboard-response,288,1159047,0.0-17.0-2.15,88497,List1A,white,man,,,,null,,,,
9536,,,survey-text,289,1168584,0.0-17.0-3.15,88497,List1A,white,man,,,,,"{""Q0"":""Dave and Mike are shouting at each other""}","<img src=""stim_listA/shout6.gif""</stim_listA>",are shouting at each other,
null,"<div style=""font-size:60px;"">+</div>",,html-keyboard-response,290,1169086,0.0-17.0-0.16,88497,List1A,white,man,,,,null,,,,
null,"<img src=""stim_listA/meet4.gif""</stim_listA>",,html-keyboard-response,291,1171089,0.0-17.0-1.16,88497,List1A,white,man,,,,null,,,,
null,are meeting each other,,html-keyboard-response,292,1173092,0.0-17.0-2.16,88497,List1A,white,man,,,,null,,,,
7617,,,survey-text,293,1180710,0.0-17.0-3.16,88497,List1A,white,man,,,,,"{""Q0"":""Ruth and Luke are meeting each other""}","<img src=""stim_listA/meet4.gif""</stim_listA>",are meeting each other,
null,"<div style=""font-size:60px;"">+</div>",,html-keyboard-response,294,1181212,0.0-17.0-0.17,88497,List1A,white,man,,,,null,,,,
null,"<img src=""stim_listA/argue7.gif""</stim_listA>",,html-keyboard-response,295,1183215,0.0-17.0-1.17,88497,List1A,white,man,,,,null,,,,
null,is arguing with,,html-keyboard-response,296,1185218,0.0-17.0-2.17,88497,List1A,white,man,,,,null,,,,
6513,,,survey-text,297,1191733,0.0-17.0-3.17,88497,List1A,white,man,,,,,"{""Q0"":""kate is arguing with ruth""}","<img src=""stim_listA/argue7.gif""</stim_listA>",is arguing with,
null,"<div style=""font-size:60px;"">+</div>",,html-keyboard-response,298,1192235,0.0-17.0-0.18,88497,List1A,white,man,,,,null,,,,
null,"<img src=""stim_listA/hug8.gif""</stim_listA>",,html-keyboard-response,299,1194238,0.0-17.0-1.18,88497,List1A,white,man,,,,null,,,,
null,are hugging each other,,html-keyboard-response,300,1196240,0.0-17.0-2.18,88497,List1A,white,man,,,,null,,,,
8301,,,survey-text,301,1204542,0.0-17.0-3.18,88497,List1A,white,man,,,,,"{""Q0"":""Kate and Jane are hugging each other""}","<img src=""stim_listA/hug8.gif""</stim_listA>",are hugging each other,
null,"<div style=""font-size:60px;"">+</div>",,html-keyboard-response,302,1205044,0.0-17.0-0.19,88497,List1A,white,man,,,,null,,,,
null,"<img src=""stim_listA/kiss8.gif""</stim_listA>",,html-keyboard-response,303,1207047,0.0-17.0-1.19,88497,List1A,white,man,,,,null,,,,
null,are kissing each other,,html-keyboard-response,304,1209049,0.0-17.0-2.19,88497,List1A,white,man,,,,null,,,,
8820,,,survey-text,305,1217870,0.0-17.0-3.19,88497,List1A,white,man,,,,,"{""Q0"":""Kate and Jane are kissing each other""}","<img src=""stim_listA/kiss8.gif""</stim_listA>",are kissing each other,
2501,"<img src='img/portrait_matrix_list1.JPG' style='width:900px;height:500px;''></img><p>If you have memorised all the portraits and names and are ready to start, press Continue.</p><p><strong>Please note: Your memory of these faces will be tested 4 times during this experiment.</strong></p>",0,html-button-response,306,1220372,0.0-18.0-0.0,88497,List1A,white,man,,,,,,,,
1893,"<img src=""portrait/WM1.jpg""style=""width:400px;height:400px;""></img>",6,html-button-response,307,1223269,0.0-18.0-1.0,88497,List1A,white,man,,TRUE,6,,,,,
null,CORRECT,,html-keyboard-response,308,1224772,0.0-18.0-2.0-0.0,88497,List1A,white,man,,,,null,,,,
2451,"<img src=""portrait/WW2.jpg""style=""width:400px;height:400px;""></img>",3,html-button-response,309,1227226,0.0-18.0-4.0,88497,List1A,white,man,,TRUE,3,,,,,
null,CORRECT,,html-keyboard-response,310,1228729,0.0-18.0-5.0-0.0,88497,List1A,white,man,,,,null,,,,
1678,"<img src=""portrait/WM2.jpg""style=""width:400px;height:400px;""></img>",7,html-button-response,311,1230410,0.0-18.0-7.0,88497,List1A,white,man,,TRUE,7,,,,,
null,CORRECT,,html-keyboard-response,312,1231913,0.0-18.0-8.0-0.0,88497,List1A,white,man,,,,null,,,,
1338,"<img src=""portrait/BM1.jpg""style=""width:400px;height:400px;""></img>",4,html-button-response,313,1233254,0.0-18.0-10.0,88497,List1A,white,man,,TRUE,4,,,,,
null,CORRECT,,html-keyboard-response,314,1234757,0.0-18.0-11.0-0.0,88497,List1A,white,man,,,,null,,,,
1744,"<img src=""portrait/BW2.jpg""style=""width:400px;height:400px;""></img>",2,html-button-response,315,1236502,0.0-18.0-13.0,88497,List1A,white,man,,TRUE,2,,,,,
null,CORRECT,,html-keyboard-response,316,1238006,0.0-18.0-14.0-0.0,88497,List1A,white,man,,,,null,,,,
1503,"<img src=""portrait/BM2.jpg""style=""width:400px;height:400px;""></img>",5,html-button-response,317,1239511,0.0-18.0-16.0,88497,List1A,white,man,,TRUE,5,,,,,
null,CORRECT,,html-keyboard-response,318,1241014,0.0-18.0-17.0-0.0,88497,List1A,white,man,,,,null,,,,
2111,"<img src=""portrait/BW1.jpg""style=""width:400px;height:400px;""></img>",0,html-button-response,319,1243127,0.0-18.0-19.0,88497,List1A,white,man,,TRUE,0,,,,,
null,CORRECT,,html-keyboard-response,320,1244631,0.0-18.0-20.0-0.0,88497,List1A,white,man,,,,null,,,,
2434,"<img src=""portrait/WW1.jpg""style=""width:400px;height:400px;""></img>",1,html-button-response,321,1247067,0.0-18.0-22.0,88497,List1A,white,man,,TRUE,1,,,,,
null,CORRECT,,html-keyboard-response,322,1248570,0.0-18.0-23.0-0.0,88497,List1A,white,man,,,,null,,,,
1262,<p>You got 8 out of 8 right first time. Press Continue.</p>,0,html-button-response,323,1249834,0.0-18.0-25.0,88497,List1A,white,man,,,,,,,,
null,"<div style=""font-size:60px;"">+</div>",,html-keyboard-response,324,1251339,0.0-19.0-0.0,88497,List1A,white,man,,,,null,,,,
null,"<img src=""stim_listA/talk1.gif""</stim_listA>",,html-keyboard-response,325,1253342,0.0-19.0-1.0,88497,List1A,white,man,,,,null,,,,
null,is talking to,,html-keyboard-response,326,1255345,0.0-19.0-2.0,88497,List1A,white,man,,,,null,,,,
9691,,,survey-text,327,1265037,0.0-19.0-3.0,88497,List1A,white,man,,,,,"{""Q0"":""Fred is talking to kate""}","<img src=""stim_listA/talk1.gif""</stim_listA>",is talking to,
null,"<div style=""font-size:60px;"">+</div>",,html-keyboard-response,328,1265539,0.0-19.0-0.1,88497,List1A,white,man,,,,null,,,,
null,"<img src=""stim_listA/fight1.gif""</stim_listA>",,html-keyboard-response,329,1267542,0.0-19.0-1.1,88497,List1A,white,man,,,,null,,,,
null,is fighting,,html-keyboard-response,330,1269544,0.0-19.0-2.1,88497,List1A,white,man,,,,null,,,,
4600,,,survey-text,331,1274145,0.0-19.0-3.1,88497,List1A,white,man,,,,,"{""Q0"":""mike is fighting kate""}","<img src=""stim_listA/fight1.gif""</stim_listA>",is fighting,
null,"<div style=""font-size:60px;"">+</div>",,html-keyboard-response,332,1274647,0.0-19.0-0.2,88497,List1A,white,man,,,,null,,,,
null,"<img src=""stim_listA/argue5.gif""</stim_listA>",,html-keyboard-response,333,1276650,0.0-19.0-1.2,88497,List1A,white,man,,,,null,,,,
null,is arguing with,,html-keyboard-response,334,1278653,0.0-19.0-2.2,88497,List1A,white,man,,,,null,,,,
7759,,,survey-text,335,1286413,0.0-19.0-3.2,88497,List1A,white,man,,,,,"{""Q0"":""luke is arguing with mike""}","<img src=""stim_listA/argue5.gif""</stim_listA>",is arguing with,
null,"<div style=""font-size:60px;"">+</div>",,html-keyboard-response,336,1286915,0.0-19.0-0.3,88497,List1A,white,man,,,,null,,,,
null,"<img src=""stim_listA/marry3.gif""</stim_listA>",,html-keyboard-response,337,1288918,0.0-19.0-1.3,88497,List1A,white,man,,,,null,,,,
null,is marrying,,html-keyboard-response,338,1290921,0.0-19.0-2.3,88497,List1A,white,man,,,,null,,,,
5790,,,survey-text,339,1296712,0.0-19.0-3.3,88497,List1A,white,man,,,,,"{""Q0"":""Dave is marrying Ruth""}","<img src=""stim_listA/marry3.gif""</stim_listA>",is marrying,
null,"<div style=""font-size:60px;"">+</div>",,html-keyboard-response,340,1297214,0.0-19.0-0.4,88497,List1A,white,man,,,,null,,,,
null,"<img src=""stim_listA/argue8.gif""</stim_listA>",,html-keyboard-response,341,1299217,0.0-19.0-1.4,88497,List1A,white,man,,,,null,,,,
null,are arguing with each other,,html-keyboard-response,342,1301220,0.0-19.0-2.4,88497,List1A,white,man,,,,null,,,,
10092,,,survey-text,343,1311313,0.0-19.0-3.4,88497,List1A,white,man,,,,,"{""Q0"":""Beth and Jane are arguing with each other""}","<img src=""stim_listA/argue8.gif""</stim_listA>",are arguing with each other,
null,"<div style=""font-size:60px;"">+</div>",,html-keyboard-response,344,1311815,0.0-19.0-0.5,88497,List1A,white,man,,,,null,,,,
null,"<img src=""stim_listA/dance1.gif""</stim_listA>",,html-keyboard-response,345,1313818,0.0-19.0-1.5,88497,List1A,white,man,,,,null,,,,
null,is dancing with,,html-keyboard-response,346,1315821,0.0-19.0-2.5,88497,List1A,white,man,,,,null,,,,
5662,,,survey-text,347,1321484,0.0-19.0-3.5,88497,List1A,white,man,,,,,"{""Q0"":""Fred is dancing with kate""}","<img src=""stim_listA/dance1.gif""</stim_listA>",is dancing with,
null,"<div style=""font-size:60px;"">+</div>",,html-keyboard-response,348,1321987,0.0-19.0-0.6,88497,List1A,white,man,,,,null,,,,
null,"<img src=""stim_listA/marry7.gif""</stim_listA>",,html-keyboard-response,349,1323990,0.0-19.0-1.6,88497,List1A,white,man,,,,null,,,,
null,is marrying,,html-keyboard-response,350,1325992,0.0-19.0-2.6,88497,List1A,white,man,,,,null,,,,
12286,,,survey-text,351,1338279,0.0-19.0-3.6,88497,List1A,white,man,,,,,"{""Q0"":""Kate is marrying Ruth""}","<img src=""stim_listA/marry7.gif""</stim_listA>",is marrying,
null,"<div style=""font-size:60px;"">+</div>",,html-keyboard-response,352,1338781,0.0-19.0-0.7,88497,List1A,white,man,,,,null,,,,
null,"<img src=""stim_listA/hug7.gif""</stim_listA>",,html-keyboard-response,353,1340784,0.0-19.0-1.7,88497,List1A,white,man,,,,null,,,,
null,is hugging,,html-keyboard-response,354,1342787,0.0-19.0-2.7,88497,List1A,white,man,,,,null,,,,
5230,,,survey-text,355,1348019,0.0-19.0-3.7,88497,List1A,white,man,,,,,"{""Q0"":""Beth is hugging Ruth""}","<img src=""stim_listA/hug7.gif""</stim_listA>",is hugging,
null,"<div style=""font-size:60px;"">+</div>",,html-keyboard-response,356,1348521,0.0-19.0-0.8,88497,List1A,white,man,,,,null,,,,
null,"<img src=""stim_listA/meet3.gif""</stim_listA>",,html-keyboard-response,357,1350524,0.0-19.0-1.8,88497,List1A,white,man,,,,null,,,,
null,is meeting,,html-keyboard-response,358,1352526,0.0-19.0-2.8,88497,List1A,white,man,,,,null,,,,
7425,,,survey-text,359,1359952,0.0-19.0-3.8,88497,List1A,white,man,,,,,"{""Q0"":""Jane is meeting Dave""}","<img src=""stim_listA/meet3.gif""</stim_listA>",is meeting,
null,"<div style=""font-size:60px;"">+</div>",,html-keyboard-response,360,1360454,0.0-19.0-0.9,88497,List1A,white,man,,,,null,,,,
null,"<img src=""stim_listA/kiss7.gif""</stim_listA>",,html-keyboard-response,361,1362457,0.0-19.0-1.9,88497,List1A,white,man,,,,null,,,,
null,is kissing,,html-keyboard-response,362,1364459,0.0-19.0-2.9,88497,List1A,white,man,,,,null,,,,
5579,,,survey-text,363,1370039,0.0-19.0-3.9,88497,List1A,white,man,,,,,"{""Q0"":""Beth is kissing Ruth""}","<img src=""stim_listA/kiss7.gif""</stim_listA>",is kissing,
null,"<div style=""font-size:60px;"">+</div>",,html-keyboard-response,364,1370541,0.0-19.0-0.10,88497,List1A,white,man,,,,null,,,,
null,"<img src=""stim_listA/argue4.gif""</stim_listA>",,html-keyboard-response,365,1372545,0.0-19.0-1.10,88497,List1A,white,man,,,,null,,,,
null,are arguing with each other,,html-keyboard-response,366,1374547,0.0-19.0-2.10,88497,List1A,white,man,,,,null,,,,
8948,,,survey-text,367,1383496,0.0-19.0-3.10,88497,List1A,white,man,,,,,"{""Q0"":""Jane and Luke are arguing with each other""}","<img src=""stim_listA/argue4.gif""</stim_listA>",are arguing with each other,
null,"<div style=""font-size:60px;"">+</div>",,html-keyboard-response,368,1383999,0.0-19.0-0.11,88497,List1A,white,man,,,,null,,,,
null,"<img src=""stim_listA/dance7.gif""</stim_listA>",,html-keyboard-response,369,1386002,0.0-19.0-1.11,88497,List1A,white,man,,,,null,,,,
null,is dancing with,,html-keyboard-response,370,1388004,0.0-19.0-2.11,88497,List1A,white,man,,,,null,,,,
9067,,,survey-text,371,1397072,0.0-19.0-3.11,88497,List1A,white,man,,,,,"{""Q0"":""jane is dancing with beth""}","<img src=""stim_listA/dance7.gif""</stim_listA>",is dancing with,
null,"<div style=""font-size:60px;"">+</div>",,html-keyboard-response,372,1397574,0.0-19.0-0.12,88497,List1A,white,man,,,,null,,,,
null,"<img src=""stim_listA/marry1.gif""</stim_listA>",,html-keyboard-response,373,1399577,0.0-19.0-1.12,88497,List1A,white,man,,,,null,,,,
null,is marrying,,html-keyboard-response,374,1401580,0.0-19.0-2.12,88497,List1A,white,man,,,,null,,,,
4262,,,survey-text,375,1405844,0.0-19.0-3.12,88497,List1A,white,man,,,,,"{""Q0"":""mike is marrying beth""}","<img src=""stim_listA/marry1.gif""</stim_listA>",is marrying,
null,"<div style=""font-size:60px;"">+</div>",,html-keyboard-response,376,1406346,0.0-19.0-0.13,88497,List1A,white,man,,,,null,,,,
null,"<img src=""stim_listA/shout3.gif""</stim_listA>",,html-keyboard-response,377,1408349,0.0-19.0-1.13,88497,List1A,white,man,,,,null,,,,
null,is shouting at,,html-keyboard-response,378,1410352,0.0-19.0-2.13,88497,List1A,white,man,,,,null,,,,
7155,,,survey-text,379,1417508,0.0-19.0-3.13,88497,List1A,white,man,,,,,"{""Q0"":""luke is shouting at beth""}","<img src=""stim_listA/shout3.gif""</stim_listA>",is shouting at,
null,"<div style=""font-size:60px;"">+</div>",,html-keyboard-response,380,1418010,0.0-19.0-0.14,88497,List1A,white,man,,,,null,,,,
null,"<img src=""stim_listA/dance8.gif""</stim_listA>",,html-keyboard-response,381,1420013,0.0-19.0-1.14,88497,List1A,white,man,,,,null,,,,
null,are dancing with each other,,html-keyboard-response,382,1422016,0.0-19.0-2.14,88497,List1A,white,man,,,,null,,,,
8170,,,survey-text,383,1430187,0.0-19.0-3.14,88497,List1A,white,man,,,,,"{""Q0"":""Kate and Ruth are dancing with each other""}","<img src=""stim_listA/dance8.gif""</stim_listA>",are dancing with each other,
null,"<div style=""font-size:60px;"">+</div>",,html-keyboard-response,384,1430690,0.0-19.0-0.15,88497,List1A,white,man,,,,null,,,,
null,"<img src=""stim_listA/hug4.gif""</stim_listA>",,html-keyboard-response,385,1432692,0.0-19.0-1.15,88497,List1A,white,man,,,,null,,,,
null,are hugging each other,,html-keyboard-response,386,1434694,0.0-19.0-2.15,88497,List1A,white,man,,,,null,,,,
9605,,,survey-text,387,1444300,0.0-19.0-3.15,88497,List1A,white,man,,,,,"{""Q0"":""Jane and Dave are hugging each other""}","<img src=""stim_listA/hug4.gif""</stim_listA>",are hugging each other,
null,"<div style=""font-size:60px;"">+</div>",,html-keyboard-response,388,1444803,0.0-19.0-0.16,88497,List1A,white,man,,,,null,,,,
null,"<img src=""stim_listA/dance5.gif""</stim_listA>",,html-keyboard-response,389,1446806,0.0-19.0-1.16,88497,List1A,white,man,,,,null,,,,
null,is dancing with,,html-keyboard-response,390,1448808,0.0-19.0-2.16,88497,List1A,white,man,,,,null,,,,
6035,,,survey-text,391,1454844,0.0-19.0-3.16,88497,List1A,white,man,,,,,"{""Q0"":""Fred is dancing with Dave""}","<img src=""stim_listA/dance5.gif""</stim_listA>",is dancing with,
null,"<div style=""font-size:60px;"">+</div>",,html-keyboard-response,392,1455346,0.0-19.0-0.17,88497,List1A,white,man,,,,null,,,,
null,"<img src=""stim_listA/kiss1.gif""</stim_listA>",,html-keyboard-response,393,1457349,0.0-19.0-1.17,88497,List1A,white,man,,,,null,,,,
null,is kissing,,html-keyboard-response,394,1459352,0.0-19.0-2.17,88497,List1A,white,man,,,,null,,,,
4569,,,survey-text,395,1463923,0.0-19.0-3.17,88497,List1A,white,man,,,,,"{""Q0"":""Fred is kissing Beth""}","<img src=""stim_listA/kiss1.gif""</stim_listA>",is kissing,
null,"<div style=""font-size:60px;"">+</div>",,html-keyboard-response,396,1464425,0.0-19.0-0.18,88497,List1A,white,man,,,,null,,,,
null,"<img src=""stim_listA/marry2.gif""</stim_listA>",,html-keyboard-response,397,1466428,0.0-19.0-1.18,88497,List1A,white,man,,,,null,,,,
null,are marrying each other,,html-keyboard-response,398,1468431,0.0-19.0-2.18,88497,List1A,white,man,,,,null,,,,
11553,,,survey-text,399,1479986,0.0-19.0-3.18,88497,List1A,white,man,,,,,"{""Q0"":""Kate and Fred are marrying each other""}","<img src=""stim_listA/marry2.gif""</stim_listA>",are marrying each other,
null,"<div style=""font-size:60px;"">+</div>",,html-keyboard-response,400,1480488,0.0-19.0-0.19,88497,List1A,white,man,,,,null,,,,
null,"<img src=""stim_listA/talk7.gif""</stim_listA>",,html-keyboard-response,401,1482491,0.0-19.0-1.19,88497,List1A,white,man,,,,null,,,,
null,is talking to,,html-keyboard-response,402,1484493,0.0-19.0-2.19,88497,List1A,white,man,,,,null,,,,
7921,,,survey-text,403,1492416,0.0-19.0-3.19,88497,List1A,white,man,,,,,"{""Q0"":""Beth is talking to Jane""}","<img src=""stim_listA/talk7.gif""</stim_listA>",is talking to,
2685,<p>Thank you for completing that task.</p><p>The final part of this session is a short questionnaire.</p><p>Press Continue.</p>,0,html-button-response,404,1495103,0.0-20.0,88497,List1A,white,man,,,,,,,,
31882,,,survey-text,405,1527987,0.0-21.0,88497,List1A,white,man,,,,,"{""Q0"":""21"",""Q1"":""English"",""Q2"":""English"",""Q3"":""UK (England)"",""Q4"":""White British"",""Q5"":""Male""}",,,demographics
51203,,,survey-likert,406,1579196,0.0-22.0,88497,List1A,white,man,,,,,"{""Q0"":4,""Q1"":4,""Q2"":"""",""Q3"":5,""Q4"":6,""Q5"":5,""Q6"":5,""Q7"":3,""Q8"":4,""Q9"":5,""Q10"":3,""Q11"":2,""Q12"":5,""Q13"":5}",,,likert_race
56679,,,survey-likert,407,1635890,0.0-23.0,88497,List1A,white,man,,,,,"{""Q0"":5,""Q1"":5,""Q2"":5,""Q3"":6,""Q4"":6,""Q5"":4,""Q6"":6,""Q7"":4,""Q8"":5,""Q9"":5,""Q10"":2,""Q11"":2,""Q12"":4,""Q13"":4}",,,likert_gender
9632,,,survey-text,408,1645534,0.0-24.0,88497,List1A,white,man,,,,,"{""Q0"":""ccc""}",,,worker_id
48148,,,external-html,409,1693746,0.0-25.0,88497,List1A,white,man,debrief.html,,,,,,,
