rt,stimulus,button_pressed,trial_type,trial_index,time_elapsed,internal_node_id,subject,list,ppt_race,ppt_gender,url,first_guess,correct,key_press,responses,image_type,phrase_type,test_part
3136,Welcome to the experiment. Press Continue to begin.,0,html-button-response,0,3151,0.0-0.0,89144,List2B,black,woman,,,,,,,,
26835,,,external-html,1,31209,0.0-1.0,89144,List2B,black,woman,consent.html,,,,,,,
6961,"<p>On the next page, you will see portraits of 8 people and their names.</p><p>Your first task is to take a few minutes to memorise the names of these people.</p><p>You will have to recall their names during the rest of the experiment, so it is</p><p>essential that you try to memorise these people and their names as best as you can.</p><br><p><strong>You will then be tested on your memory of these names and portraits.</strong></p><br><p>The experiment will start after you have completed this memory test.</p><br><p>Ready?</p>",0,html-button-response,2,38173,0.0-2.0,89144,List2B,black,woman,,,,,,,,
10616,"<img src='img/portrait_matrix_list2.JPG' style='width:900px;height:500px;''></img><p>If you have memorised all the portraits and names and are ready to start, press Continue.</p><p><strong>Please note: Your memory of these faces will be tested 4 times during this experiment.</strong></p>",0,html-button-response,3,49795,0.0-3.0-0.0,89144,List2B,black,woman,,,,,,,,
11471,"<img src=""portrait/WM2.jpg""style=""width:400px;height:400px;""></img>",7,html-button-response,4,62280,0.0-3.0-1.0,89144,List2B,black,woman,,TRUE,7,,,,,
null,CORRECT,,html-keyboard-response,5,63790,0.0-3.0-2.0-0.0,89144,List2B,black,woman,,,,null,,,,
4304,"<img src=""portrait/WW2.jpg""style=""width:400px;height:400px;""></img>",3,html-button-response,6,68100,0.0-3.0-4.0,89144,List2B,black,woman,,TRUE,3,,,,,
null,CORRECT,,html-keyboard-response,7,69635,0.0-3.0-5.0-0.0,89144,List2B,black,woman,,,,null,,,,
5504,"<img src=""portrait/BM2.jpg""style=""width:400px;height:400px;""></img>",4,html-button-response,8,75142,0.0-3.0-7.0,89144,List2B,black,woman,,TRUE,5,,,,,
2772,"<img src=""portrait/BM2.jpg""style=""width:400px;height:400px;""></img>",5,html-button-response,9,78931,0.0-3.0-9.0-0.0,89144,List2B,black,woman,,FALSE,5,,,,,
null,CORRECT,,html-keyboard-response,10,80441,0.0-3.0-9.0-1.0-0.0,89144,List2B,black,woman,,,,null,,,,
3791,"<img src=""portrait/WM1.jpg""style=""width:400px;height:400px;""></img>",6,html-button-response,11,84238,0.0-3.0-10.0,89144,List2B,black,woman,,TRUE,6,,,,,
null,CORRECT,,html-keyboard-response,12,85744,0.0-3.0-11.0-0.0,89144,List2B,black,woman,,,,null,,,,
4770,"<img src=""portrait/WW1.jpg""style=""width:400px;height:400px;""></img>",1,html-button-response,13,90519,0.0-3.0-13.0,89144,List2B,black,woman,,TRUE,1,,,,,
null,CORRECT,,html-keyboard-response,14,92024,0.0-3.0-14.0-0.0,89144,List2B,black,woman,,,,null,,,,
5583,"<img src=""portrait/BW1.jpg""style=""width:400px;height:400px;""></img>",0,html-button-response,15,97612,0.0-3.0-16.0,89144,List2B,black,woman,,TRUE,0,,,,,
null,CORRECT,,html-keyboard-response,16,99117,0.0-3.0-17.0-0.0,89144,List2B,black,woman,,,,null,,,,
3948,"<img src=""portrait/BW2.jpg""style=""width:400px;height:400px;""></img>",2,html-button-response,17,103070,0.0-3.0-19.0,89144,List2B,black,woman,,TRUE,2,,,,,
null,CORRECT,,html-keyboard-response,18,104575,0.0-3.0-20.0-0.0,89144,List2B,black,woman,,,,null,,,,
4372,"<img src=""portrait/BM1.jpg""style=""width:400px;height:400px;""></img>",4,html-button-response,19,108951,0.0-3.0-22.0,89144,List2B,black,woman,,TRUE,4,,,,,
null,CORRECT,,html-keyboard-response,20,110484,0.0-3.0-23.0-0.0,89144,List2B,black,woman,,,,null,,,,
2136,<p>You got 7 out of 8 right first time. Press Continue.</p>,0,html-button-response,21,112625,0.0-3.0-25.0,89144,List2B,black,woman,,,,,,,,
4280,"As you did not score 100%, the memory game will repeat. Press Continue.",0,html-button-response,22,117911,0.0-3.0-26.0-0.0,89144,List2B,black,woman,,,,,,,,
4648,"<img src='img/portrait_matrix_list2.JPG' style='width:900px;height:500px;''></img><p>If you have memorised all the portraits and names and are ready to start, press Continue.</p><p><strong>Please note: Your memory of these faces will be tested 4 times during this experiment.</strong></p>",0,html-button-response,23,123568,0.0-3.1-0.1,89144,List2B,black,woman,,,,,,,,
2597,"<img src=""portrait/WM2.jpg""style=""width:400px;height:400px;""></img>",7,html-button-response,24,127171,0.0-3.1-1.1,89144,List2B,black,woman,,TRUE,7,,,,,
null,CORRECT,,html-keyboard-response,25,128676,0.0-3.1-2.1-0.1,89144,List2B,black,woman,,,,null,,,,
2776,"<img src=""portrait/WW2.jpg""style=""width:400px;height:400px;""></img>",3,html-button-response,26,131457,0.0-3.1-4.1,89144,List2B,black,woman,,TRUE,3,,,,,
null,CORRECT,,html-keyboard-response,27,132963,0.0-3.1-5.1-0.1,89144,List2B,black,woman,,,,null,,,,
3300,"<img src=""portrait/BM2.jpg""style=""width:400px;height:400px;""></img>",5,html-button-response,28,136270,0.0-3.1-7.1,89144,List2B,black,woman,,TRUE,5,,,,,
null,CORRECT,,html-keyboard-response,29,137780,0.0-3.1-8.1-0.1,89144,List2B,black,woman,,,,null,,,,
3678,"<img src=""portrait/WM1.jpg""style=""width:400px;height:400px;""></img>",6,html-button-response,30,141464,0.0-3.1-10.1,89144,List2B,black,woman,,TRUE,6,,,,,
null,CORRECT,,html-keyboard-response,31,142971,0.0-3.1-11.1-0.1,89144,List2B,black,woman,,,,null,,,,
4054,"<img src=""portrait/WW1.jpg""style=""width:400px;height:400px;""></img>",1,html-button-response,32,147030,0.0-3.1-13.1,89144,List2B,black,woman,,TRUE,1,,,,,
null,CORRECT,,html-keyboard-response,33,148538,0.0-3.1-14.1-0.1,89144,List2B,black,woman,,,,null,,,,
4589,"<img src=""portrait/BW1.jpg""style=""width:400px;height:400px;""></img>",0,html-button-response,34,153132,0.0-3.1-16.1,89144,List2B,black,woman,,TRUE,0,,,,,
null,CORRECT,,html-keyboard-response,35,154677,0.0-3.1-17.1-0.1,89144,List2B,black,woman,,,,null,,,,
2201,"<img src=""portrait/BW2.jpg""style=""width:400px;height:400px;""></img>",2,html-button-response,36,156883,0.0-3.1-19.1,89144,List2B,black,woman,,TRUE,2,,,,,
null,CORRECT,,html-keyboard-response,37,158389,0.0-3.1-20.1-0.1,89144,List2B,black,woman,,,,null,,,,
6040,"<img src=""portrait/BM1.jpg""style=""width:400px;height:400px;""></img>",4,html-button-response,38,164434,0.0-3.1-22.1,89144,List2B,black,woman,,TRUE,4,,,,,
null,CORRECT,,html-keyboard-response,39,165939,0.0-3.1-23.1-0.1,89144,List2B,black,woman,,,,null,,,,
2895,<p>You got 8 out of 8 right first time. Press Continue.</p>,0,html-button-response,40,168838,0.0-3.1-25.1,89144,List2B,black,woman,,,,,,,,
11440,"<p>In this experiment, you will view photographs of the people from the memory game interacting.</p><p>By using the <strong>exact</strong> phrase given <i>after</i> the photograph appears and recalling the correct names of the people in the photographs, form a sentence describing the interaction. You do not need to capitalise names.</p><p>Type your answer in the space provided. Please complete every sentence before moving onto the next trial.</p><p>You will only have a few seconds to memorise each given photograph and phrase before you can respond, so try your best to focus.</p><p>An example is given below. Press 'Continue' when you are ready.</p><img src='img/speaking_example_v2.jpg' style='width:800px;height:460px;''></img>",0,html-button-response,41,181283,0.0-4.0,89144,List2B,black,woman,,,,,,,,
2004,"<p>Before the experiment starts, you will watch two example trials. Press 'Continue'.</p>",0,html-button-response,42,184292,0.0-5.0,89144,List2B,black,woman,,,,,,,,
null,<img src='img/speaking_WW.gif'></img>,,html-keyboard-response,43,187297,0.0-6.0,89144,List2B,black,woman,,,,null,,,,
null,<p>is speaking to</p>,,html-keyboard-response,44,189301,0.0-7.0,89144,List2B,black,woman,,,,null,,,,
2285,<p><b>Answer:</b> jane is speaking to ruth</p>,0,html-button-response,45,191588,0.0-8.0,89144,List2B,black,woman,,,,,,,,
null,<img src='img/pointing_BM.gif'></img>,,html-keyboard-response,46,194594,0.0-9.0,89144,List2B,black,woman,,,,null,,,,
null,<p>are pointing at each other</p>,,html-keyboard-response,47,196598,0.0-10.0,89144,List2B,black,woman,,,,null,,,,
1692,<p><b>Answer:</b> fred and mike are pointing at each other</p>,0,html-button-response,48,198292,0.0-11.0,89144,List2B,black,woman,,,,,,,,
5676,"<p>Ready to start the experiment?</p><br><p><strong>Remember to describe the picture using a full sentence,</strong></p><p><strong>that combines the names of the people with the given phrase.</strong></p><p><strong>If you do not do this correctly you will not be paid.</strong></p><p><strong> You do not need to capitalise names or use punctuation.</strong></p><br><p>Press 'Continue' to begin.</p>",0,html-button-response,49,204976,0.0-12.0,89144,List2B,black,woman,,,,,,,,
null,"<div style=""font-size:60px;"">+</div>",,html-keyboard-response,50,206480,0.0-13.0-0.0,89144,List2B,black,woman,,,,null,,,,
null,"<img src=""stim_listB/dance5.gif""</stim_listB>",,html-keyboard-response,51,208485,0.0-13.0-1.0,89144,List2B,black,woman,,,,null,,,,
null,is dancing with,,html-keyboard-response,52,210487,0.0-13.0-2.0,89144,List2B,black,woman,,,,null,,,,
19920,,,survey-text,53,230411,0.0-13.0-3.0,89144,List2B,black,woman,,,,,"{""Q0"":""luke is dancing with mike""}","<img src=""stim_listB/dance5.gif""</stim_listB>",is dancing with,
null,"<div style=""font-size:60px;"">+</div>",,html-keyboard-response,54,230921,0.0-13.0-0.1,89144,List2B,black,woman,,,,null,,,,
null,"<img src=""stim_listB/hug1.gif""</stim_listB>",,html-keyboard-response,55,232925,0.0-13.0-1.1,89144,List2B,black,woman,,,,null,,,,
null,is hugging,,html-keyboard-response,56,234928,0.0-13.0-2.1,89144,List2B,black,woman,,,,null,,,,
16569,,,survey-text,57,251501,0.0-13.0-3.1,89144,List2B,black,woman,,,,,"{""Q0"":""ruth is hugging luke""}","<img src=""stim_listB/hug1.gif""</stim_listB>",is hugging,
null,"<div style=""font-size:60px;"">+</div>",,html-keyboard-response,58,252005,0.0-13.0-0.2,89144,List2B,black,woman,,,,null,,,,
null,"<img src=""stim_listB/marry3.gif""</stim_listB>",,html-keyboard-response,59,254016,0.0-13.0-1.2,89144,List2B,black,woman,,,,null,,,,
null,is marrying,,html-keyboard-response,60,256020,0.0-13.0-2.2,89144,List2B,black,woman,,,,null,,,,
14247,,,survey-text,61,270270,0.0-13.0-3.2,89144,List2B,black,woman,,,,,"{""Q0"":""beth is marrying mike""}","<img src=""stim_listB/marry3.gif""</stim_listB>",is marrying,
null,"<div style=""font-size:60px;"">+</div>",,html-keyboard-response,62,270773,0.0-13.0-0.3,89144,List2B,black,woman,,,,null,,,,
null,"<img src=""stim_listB/talk1.gif""</stim_listB>",,html-keyboard-response,63,272778,0.0-13.0-1.3,89144,List2B,black,woman,,,,null,,,,
null,is talking to,,html-keyboard-response,64,274780,0.0-13.0-2.3,89144,List2B,black,woman,,,,null,,,,
14372,,,survey-text,65,289155,0.0-13.0-3.3,89144,List2B,black,woman,,,,,"{""Q0"":""ruth is talking to luke""}","<img src=""stim_listB/talk1.gif""</stim_listB>",is talking to,
null,"<div style=""font-size:60px;"">+</div>",,html-keyboard-response,66,289663,0.0-13.0-0.4,89144,List2B,black,woman,,,,null,,,,
null,"<img src=""stim_listB/fight2.gif""</stim_listB>",,html-keyboard-response,67,291685,0.0-13.0-1.4,89144,List2B,black,woman,,,,null,,,,
null,are fighting each other,,html-keyboard-response,68,293690,0.0-13.0-2.4,89144,List2B,black,woman,,,,null,,,,
17804,,,survey-text,69,311497,0.0-13.0-3.4,89144,List2B,black,woman,,,,,"{""Q0"":""ruth and luke are fighting each other""}","<img src=""stim_listB/fight2.gif""</stim_listB>",are fighting each other,
null,"<div style=""font-size:60px;"">+</div>",,html-keyboard-response,70,312000,0.0-13.0-0.5,89144,List2B,black,woman,,,,null,,,,
null,"<img src=""stim_listB/argue5.gif""</stim_listB>",,html-keyboard-response,71,314005,0.0-13.0-1.5,89144,List2B,black,woman,,,,null,,,,
null,is arguing with,,html-keyboard-response,72,316012,0.0-13.0-2.5,89144,List2B,black,woman,,,,null,,,,
13081,,,survey-text,73,329095,0.0-13.0-3.5,89144,List2B,black,woman,,,,,"{""Q0"":""dave is arguing with fred""}","<img src=""stim_listB/argue5.gif""</stim_listB>",is arguing with,
null,"<div style=""font-size:60px;"">+</div>",,html-keyboard-response,74,329599,0.0-13.0-0.6,89144,List2B,black,woman,,,,null,,,,
null,"<img src=""stim_listB/talk4.gif""</stim_listB>",,html-keyboard-response,75,331605,0.0-13.0-1.6,89144,List2B,black,woman,,,,null,,,,
null,are talking to each other,,html-keyboard-response,76,333608,0.0-13.0-2.6,89144,List2B,black,woman,,,,null,,,,
18506,,,survey-text,77,352117,0.0-13.0-3.6,89144,List2B,black,woman,,,,,"{""Q0"":""mike is talking to beth""}","<img src=""stim_listB/talk4.gif""</stim_listB>",are talking to each other,
null,"<div style=""font-size:60px;"">+</div>",,html-keyboard-response,78,352624,0.0-13.0-0.7,89144,List2B,black,woman,,,,null,,,,
null,"<img src=""stim_listB/hug6.gif""</stim_listB>",,html-keyboard-response,79,354629,0.0-13.0-1.7,89144,List2B,black,woman,,,,null,,,,
null,are hugging each other,,html-keyboard-response,80,356649,0.0-13.0-2.7,89144,List2B,black,woman,,,,null,,,,
19488,,,survey-text,81,376156,0.0-13.0-3.7,89144,List2B,black,woman,,,,,"{""Q0"":""dave and mike are hugging each other""}","<img src=""stim_listB/hug6.gif""</stim_listB>",are hugging each other,
null,"<div style=""font-size:60px;"">+</div>",,html-keyboard-response,82,376662,0.0-13.0-0.8,89144,List2B,black,woman,,,,null,,,,
null,"<img src=""stim_listB/kiss5.gif""</stim_listB>",,html-keyboard-response,83,378667,0.0-13.0-1.8,89144,List2B,black,woman,,,,null,,,,
null,is kissing,,html-keyboard-response,84,380670,0.0-13.0-2.8,89144,List2B,black,woman,,,,null,,,,
13933,,,survey-text,85,394606,0.0-13.0-3.8,89144,List2B,black,woman,,,,,"{""Q0"":""fred is kissing luke""}","<img src=""stim_listB/kiss5.gif""</stim_listB>",is kissing,
null,"<div style=""font-size:60px;"">+</div>",,html-keyboard-response,86,395109,0.0-13.0-0.9,89144,List2B,black,woman,,,,null,,,,
null,"<img src=""stim_listB/shout2.gif""</stim_listB>",,html-keyboard-response,87,397112,0.0-13.0-1.9,89144,List2B,black,woman,,,,null,,,,
null,are shouting at each other,,html-keyboard-response,88,399116,0.0-13.0-2.9,89144,List2B,black,woman,,,,null,,,,
14881,,,survey-text,89,413999,0.0-13.0-3.9,89144,List2B,black,woman,,,,,"{""Q0"":""ruth and dave are shouting at each other""}","<img src=""stim_listB/shout2.gif""</stim_listB>",are shouting at each other,
null,"<div style=""font-size:60px;"">+</div>",,html-keyboard-response,90,414502,0.0-13.0-0.10,89144,List2B,black,woman,,,,null,,,,
null,"<img src=""stim_listB/touch3.gif""</stim_listB>",,html-keyboard-response,91,416507,0.0-13.0-1.10,89144,List2B,black,woman,,,,null,,,,
null,is touching,,html-keyboard-response,92,418510,0.0-13.0-2.10,89144,List2B,black,woman,,,,null,,,,
11879,,,survey-text,93,430391,0.0-13.0-3.10,89144,List2B,black,woman,,,,,"{""Q0"":""mike is touching kate""}","<img src=""stim_listB/touch3.gif""</stim_listB>",is touching,
null,"<div style=""font-size:60px;"">+</div>",,html-keyboard-response,94,430896,0.0-13.0-0.11,89144,List2B,black,woman,,,,null,,,,
null,"<img src=""stim_listB/talk5.gif""</stim_listB>",,html-keyboard-response,95,432902,0.0-13.0-1.11,89144,List2B,black,woman,,,,null,,,,
null,is talking to,,html-keyboard-response,96,434905,0.0-13.0-2.11,89144,List2B,black,woman,,,,null,,,,
9858,,,survey-text,97,444766,0.0-13.0-3.11,89144,List2B,black,woman,,,,,"{""Q0"":""luke is talking to mike""}","<img src=""stim_listB/talk5.gif""</stim_listB>",is talking to,
null,"<div style=""font-size:60px;"">+</div>",,html-keyboard-response,98,445270,0.0-13.0-0.12,89144,List2B,black,woman,,,,null,,,,
null,"<img src=""stim_listB/fight1.gif""</stim_listB>",,html-keyboard-response,99,447275,0.0-13.0-1.12,89144,List2B,black,woman,,,,null,,,,
null,is fighting,,html-keyboard-response,100,449278,0.0-13.0-2.12,89144,List2B,black,woman,,,,null,,,,
16996,,,survey-text,101,466276,0.0-13.0-3.12,89144,List2B,black,woman,,,,,"{""Q0"":""dave is fighting jane""}","<img src=""stim_listB/fight1.gif""</stim_listB>",is fighting,
null,"<div style=""font-size:60px;"">+</div>",,html-keyboard-response,102,466779,0.0-13.0-0.13,89144,List2B,black,woman,,,,null,,,,
null,"<img src=""stim_listB/shout3.gif""</stim_listB>",,html-keyboard-response,103,468785,0.0-13.0-1.13,89144,List2B,black,woman,,,,null,,,,
null,is shouting at,,html-keyboard-response,104,470787,0.0-13.0-2.13,89144,List2B,black,woman,,,,null,,,,
12752,,,survey-text,105,483542,0.0-13.0-3.13,89144,List2B,black,woman,,,,,"{""Q0"":""beth is shouting at fred""}","<img src=""stim_listB/shout3.gif""</stim_listB>",is shouting at,
null,"<div style=""font-size:60px;"">+</div>",,html-keyboard-response,106,484045,0.0-13.0-0.14,89144,List2B,black,woman,,,,null,,,,
null,"<img src=""stim_listB/shout5.gif""</stim_listB>",,html-keyboard-response,107,486050,0.0-13.0-1.14,89144,List2B,black,woman,,,,null,,,,
null,is shouting at,,html-keyboard-response,108,488053,0.0-13.0-2.14,89144,List2B,black,woman,,,,null,,,,
15430,,,survey-text,109,503485,0.0-13.0-3.14,89144,List2B,black,woman,,,,,"{""Q0"":""fred is shouting at luke""}","<img src=""stim_listB/shout5.gif""</stim_listB>",is shouting at,
null,"<div style=""font-size:60px;"">+</div>",,html-keyboard-response,110,504001,0.0-13.0-0.15,89144,List2B,black,woman,,,,null,,,,
null,"<img src=""stim_listB/touch7.gif""</stim_listB>",,html-keyboard-response,111,506005,0.0-13.0-1.15,89144,List2B,black,woman,,,,null,,,,
null,is touching,,html-keyboard-response,112,508009,0.0-13.0-2.15,89144,List2B,black,woman,,,,null,,,,
11778,,,survey-text,113,519788,0.0-13.0-3.15,89144,List2B,black,woman,,,,,"{""Q0"":""jane is touching kate""}","<img src=""stim_listB/touch7.gif""</stim_listB>",is touching,
null,"<div style=""font-size:60px;"">+</div>",,html-keyboard-response,114,520291,0.0-13.0-0.16,89144,List2B,black,woman,,,,null,,,,
null,"<img src=""stim_listB/touch1.gif""</stim_listB>",,html-keyboard-response,115,522296,0.0-13.0-1.16,89144,List2B,black,woman,,,,null,,,,
null,is touching,,html-keyboard-response,116,524299,0.0-13.0-2.16,89144,List2B,black,woman,,,,null,,,,
8596,,,survey-text,117,532897,0.0-13.0-3.16,89144,List2B,black,woman,,,,,"{""Q0"":""dave is touching jane""}","<img src=""stim_listB/touch1.gif""</stim_listB>",is touching,
null,"<div style=""font-size:60px;"">+</div>",,html-keyboard-response,118,533402,0.0-13.0-0.17,89144,List2B,black,woman,,,,null,,,,
null,"<img src=""stim_listB/touch8.gif""</stim_listB>",,html-keyboard-response,119,535408,0.0-13.0-1.17,89144,List2B,black,woman,,,,null,,,,
null,are touching each other,,html-keyboard-response,120,537410,0.0-13.0-2.17,89144,List2B,black,woman,,,,null,,,,
18236,,,survey-text,121,555649,0.0-13.0-3.17,89144,List2B,black,woman,,,,,"{""Q0"":""ruth and beth are touching each other ""}","<img src=""stim_listB/touch8.gif""</stim_listB>",are touching each other,
null,"<div style=""font-size:60px;"">+</div>",,html-keyboard-response,122,556152,0.0-13.0-0.18,89144,List2B,black,woman,,,,null,,,,
null,"<img src=""stim_listB/marry1.gif""</stim_listB>",,html-keyboard-response,123,558157,0.0-13.0-1.18,89144,List2B,black,woman,,,,null,,,,
null,is marrying,,html-keyboard-response,124,560161,0.0-13.0-2.18,89144,List2B,black,woman,,,,null,,,,
11452,,,survey-text,125,571616,0.0-13.0-3.18,89144,List2B,black,woman,,,,,"{""Q0"":""dave is marrying ruth""}","<img src=""stim_listB/marry1.gif""</stim_listB>",is marrying,
null,"<div style=""font-size:60px;"">+</div>",,html-keyboard-response,126,572118,0.0-13.0-0.19,89144,List2B,black,woman,,,,null,,,,
null,"<img src=""stim_listB/meet2.gif""</stim_listB>",,html-keyboard-response,127,574125,0.0-13.0-1.19,89144,List2B,black,woman,,,,null,,,,
null,are meeting each other,,html-keyboard-response,128,576129,0.0-13.0-2.19,89144,List2B,black,woman,,,,null,,,,
13291,,,survey-text,129,589423,0.0-13.0-3.19,89144,List2B,black,woman,,,,,"{""Q0"":""luke and ruth are meeting each other""}","<img src=""stim_listB/meet2.gif""</stim_listB>",are meeting each other,
2774,"<img src='img/portrait_matrix_list2.JPG' style='width:900px;height:500px;''></img><p>If you have memorised all the portraits and names and are ready to start, press Continue.</p><p><strong>Please note: Your memory of these faces will be tested 4 times during this experiment.</strong></p>",0,html-button-response,130,592201,0.0-14.0-0.0,89144,List2B,black,woman,,,,,,,,
3159,"<img src=""portrait/BM2.jpg""style=""width:400px;height:400px;""></img>",5,html-button-response,131,596368,0.0-14.0-1.0,89144,List2B,black,woman,,TRUE,5,,,,,
null,CORRECT,,html-keyboard-response,132,597873,0.0-14.0-2.0-0.0,89144,List2B,black,woman,,,,null,,,,
1482,"<img src=""portrait/WM2.jpg""style=""width:400px;height:400px;""></img>",7,html-button-response,133,599357,0.0-14.0-4.0,89144,List2B,black,woman,,TRUE,7,,,,,
null,CORRECT,,html-keyboard-response,134,600863,0.0-14.0-5.0-0.0,89144,List2B,black,woman,,,,null,,,,
3288,"<img src=""portrait/WW1.jpg""style=""width:400px;height:400px;""></img>",1,html-button-response,135,604157,0.0-14.0-7.0,89144,List2B,black,woman,,TRUE,1,,,,,
null,CORRECT,,html-keyboard-response,136,605662,0.0-14.0-8.0-0.0,89144,List2B,black,woman,,,,null,,,,
1922,"<img src=""portrait/BM1.jpg""style=""width:400px;height:400px;""></img>",4,html-button-response,137,607588,0.0-14.0-10.0,89144,List2B,black,woman,,TRUE,4,,,,,
null,CORRECT,,html-keyboard-response,138,609093,0.0-14.0-11.0-0.0,89144,List2B,black,woman,,,,null,,,,
1804,"<img src=""portrait/WW2.jpg""style=""width:400px;height:400px;""></img>",3,html-button-response,139,610902,0.0-14.0-13.0,89144,List2B,black,woman,,TRUE,3,,,,,
null,CORRECT,,html-keyboard-response,140,612408,0.0-14.0-14.0-0.0,89144,List2B,black,woman,,,,null,,,,
2666,"<img src=""portrait/BW1.jpg""style=""width:400px;height:400px;""></img>",0,html-button-response,141,615079,0.0-14.0-16.0,89144,List2B,black,woman,,TRUE,0,,,,,
null,CORRECT,,html-keyboard-response,142,616589,0.0-14.0-17.0-0.0,89144,List2B,black,woman,,,,null,,,,
2096,"<img src=""portrait/WM1.jpg""style=""width:400px;height:400px;""></img>",6,html-button-response,143,618689,0.0-14.0-19.0,89144,List2B,black,woman,,TRUE,6,,,,,
null,CORRECT,,html-keyboard-response,144,620196,0.0-14.0-20.0-0.0,89144,List2B,black,woman,,,,null,,,,
1813,"<img src=""portrait/BW2.jpg""style=""width:400px;height:400px;""></img>",2,html-button-response,145,622014,0.0-14.0-22.0,89144,List2B,black,woman,,TRUE,2,,,,,
null,CORRECT,,html-keyboard-response,146,623519,0.0-14.0-23.0-0.0,89144,List2B,black,woman,,,,null,,,,
2023,<p>You got 8 out of 8 right first time. Press Continue.</p>,0,html-button-response,147,625546,0.0-14.0-25.0,89144,List2B,black,woman,,,,,,,,
null,"<div style=""font-size:60px;"">+</div>",,html-keyboard-response,148,627049,0.0-15.0-0.0,89144,List2B,black,woman,,,,null,,,,
null,"<img src=""stim_listB/marry7.gif""</stim_listB>",,html-keyboard-response,149,629054,0.0-15.0-1.0,89144,List2B,black,woman,,,,null,,,,
null,is marrying,,html-keyboard-response,150,631056,0.0-15.0-2.0,89144,List2B,black,woman,,,,null,,,,
10657,,,survey-text,151,641716,0.0-15.0-3.0,89144,List2B,black,woman,,,,,"{""Q0"":""beth is marrying jane""}","<img src=""stim_listB/marry7.gif""</stim_listB>",is marrying,
null,"<div style=""font-size:60px;"">+</div>",,html-keyboard-response,152,642218,0.0-15.0-0.1,89144,List2B,black,woman,,,,null,,,,
null,"<img src=""stim_listB/marry2.gif""</stim_listB>",,html-keyboard-response,153,644242,0.0-15.0-1.1,89144,List2B,black,woman,,,,null,,,,
null,are marrying each other,,html-keyboard-response,154,646250,0.0-15.0-2.1,89144,List2B,black,woman,,,,null,,,,
14330,,,survey-text,155,660583,0.0-15.0-3.1,89144,List2B,black,woman,,,,,"{""Q0"":""luke and jane are marrying each other""}","<img src=""stim_listB/marry2.gif""</stim_listB>",are marrying each other,
null,"<div style=""font-size:60px;"">+</div>",,html-keyboard-response,156,661085,0.0-15.0-0.2,89144,List2B,black,woman,,,,null,,,,
null,"<img src=""stim_listB/argue3.gif""</stim_listB>",,html-keyboard-response,157,663094,0.0-15.0-1.2,89144,List2B,black,woman,,,,null,,,,
null,is arguing with,,html-keyboard-response,158,665099,0.0-15.0-2.2,89144,List2B,black,woman,,,,null,,,,
13004,,,survey-text,159,678106,0.0-15.0-3.2,89144,List2B,black,woman,,,,,"{""Q0"":""mike is arguing with beth""}","<img src=""stim_listB/argue3.gif""</stim_listB>",is arguing with,
null,"<div style=""font-size:60px;"">+</div>",,html-keyboard-response,160,678610,0.0-15.0-0.3,89144,List2B,black,woman,,,,null,,,,
null,"<img src=""stim_listB/shout7.gif""</stim_listB>",,html-keyboard-response,161,680615,0.0-15.0-1.3,89144,List2B,black,woman,,,,null,,,,
null,is shouting at,,html-keyboard-response,162,682619,0.0-15.0-2.3,89144,List2B,black,woman,,,,null,,,,
8155,,,survey-text,163,690782,0.0-15.0-3.3,89144,List2B,black,woman,,,,,"{""Q0"":""ruth is shouting at beth""}","<img src=""stim_listB/shout7.gif""</stim_listB>",is shouting at,
null,"<div style=""font-size:60px;"">+</div>",,html-keyboard-response,164,691286,0.0-15.0-0.4,89144,List2B,black,woman,,,,null,,,,
null,"<img src=""stim_listB/talk3.gif""</stim_listB>",,html-keyboard-response,165,693291,0.0-15.0-1.4,89144,List2B,black,woman,,,,null,,,,
null,is talking to,,html-keyboard-response,166,695293,0.0-15.0-2.4,89144,List2B,black,woman,,,,null,,,,
8825,,,survey-text,167,704120,0.0-15.0-3.4,89144,List2B,black,woman,,,,,"{""Q0"":""kate is talking to fred""}","<img src=""stim_listB/talk3.gif""</stim_listB>",is talking to,
null,"<div style=""font-size:60px;"">+</div>",,html-keyboard-response,168,704624,0.0-15.0-0.5,89144,List2B,black,woman,,,,null,,,,
null,"<img src=""stim_listB/touch2.gif""</stim_listB>",,html-keyboard-response,169,706628,0.0-15.0-1.5,89144,List2B,black,woman,,,,null,,,,
null,are touching each other,,html-keyboard-response,170,708632,0.0-15.0-2.5,89144,List2B,black,woman,,,,null,,,,
12187,,,survey-text,171,720821,0.0-15.0-3.5,89144,List2B,black,woman,,,,,"{""Q0"":""luke and ruth are touching each other""}","<img src=""stim_listB/touch2.gif""</stim_listB>",are touching each other,
null,"<div style=""font-size:60px;"">+</div>",,html-keyboard-response,172,721325,0.0-15.0-0.6,89144,List2B,black,woman,,,,null,,,,
null,"<img src=""stim_listB/fight7.gif""</stim_listB>",,html-keyboard-response,173,723331,0.0-15.0-1.6,89144,List2B,black,woman,,,,null,,,,
null,is fighting,,html-keyboard-response,174,725334,0.0-15.0-2.6,89144,List2B,black,woman,,,,null,,,,
10088,,,survey-text,175,735425,0.0-15.0-3.6,89144,List2B,black,woman,,,,,"{""Q0"":""jane is fighting kate""}","<img src=""stim_listB/fight7.gif""</stim_listB>",is fighting,
null,"<div style=""font-size:60px;"">+</div>",,html-keyboard-response,176,735929,0.0-15.0-0.7,89144,List2B,black,woman,,,,null,,,,
null,"<img src=""stim_listB/shout6.gif""</stim_listB>",,html-keyboard-response,177,737934,0.0-15.0-1.7,89144,List2B,black,woman,,,,null,,,,
null,are shouting at each other,,html-keyboard-response,178,739936,0.0-15.0-2.7,89144,List2B,black,woman,,,,null,,,,
11331,,,survey-text,179,751270,0.0-15.0-3.7,89144,List2B,black,woman,,,,,"{""Q0"":""mike and dave are shouting at each other""}","<img src=""stim_listB/shout6.gif""</stim_listB>",are shouting at each other,
null,"<div style=""font-size:60px;"">+</div>",,html-keyboard-response,180,751773,0.0-15.0-0.8,89144,List2B,black,woman,,,,null,,,,
null,"<img src=""stim_listB/hug8.gif""</stim_listB>",,html-keyboard-response,181,753787,0.0-15.0-1.8,89144,List2B,black,woman,,,,null,,,,
null,are hugging each other,,html-keyboard-response,182,755789,0.0-15.0-2.8,89144,List2B,black,woman,,,,null,,,,
14431,,,survey-text,183,770223,0.0-15.0-3.8,89144,List2B,black,woman,,,,,"{""Q0"":""jane and kate are hugging each other""}","<img src=""stim_listB/hug8.gif""</stim_listB>",are hugging each other,
null,"<div style=""font-size:60px;"">+</div>",,html-keyboard-response,184,770727,0.0-15.0-0.9,89144,List2B,black,woman,,,,null,,,,
null,"<img src=""stim_listB/hug7.gif""</stim_listB>",,html-keyboard-response,185,772731,0.0-15.0-1.9,89144,List2B,black,woman,,,,null,,,,
null,is hugging,,html-keyboard-response,186,774735,0.0-15.0-2.9,89144,List2B,black,woman,,,,null,,,,
9803,,,survey-text,187,784541,0.0-15.0-3.9,89144,List2B,black,woman,,,,,"{""Q0"":""ruth is hugging beth""}","<img src=""stim_listB/hug7.gif""</stim_listB>",is hugging,
null,"<div style=""font-size:60px;"">+</div>",,html-keyboard-response,188,785045,0.0-15.0-0.10,89144,List2B,black,woman,,,,null,,,,
null,"<img src=""stim_listB/dance4.gif""</stim_listB>",,html-keyboard-response,189,787049,0.0-15.0-1.10,89144,List2B,black,woman,,,,null,,,,
null,are dancing with each other,,html-keyboard-response,190,789054,0.0-15.0-2.10,89144,List2B,black,woman,,,,null,,,,
14823,,,survey-text,191,803881,0.0-15.0-3.10,89144,List2B,black,woman,,,,,"{""Q0"":""mike and beth are dancing with each other""}","<img src=""stim_listB/dance4.gif""</stim_listB>",are dancing with each other,
null,"<div style=""font-size:60px;"">+</div>",,html-keyboard-response,192,804385,0.0-15.0-0.11,89144,List2B,black,woman,,,,null,,,,
null,"<img src=""stim_listB/hug3.gif""</stim_listB>",,html-keyboard-response,193,806389,0.0-15.0-1.11,89144,List2B,black,woman,,,,null,,,,
null,is hugging,,html-keyboard-response,194,808392,0.0-15.0-2.11,89144,List2B,black,woman,,,,null,,,,
8833,,,survey-text,195,817228,0.0-15.0-3.11,89144,List2B,black,woman,,,,,"{""Q0"":""fred is hugging beth""}","<img src=""stim_listB/hug3.gif""</stim_listB>",is hugging,
null,"<div style=""font-size:60px;"">+</div>",,html-keyboard-response,196,817730,0.0-15.0-0.12,89144,List2B,black,woman,,,,null,,,,
null,"<img src=""stim_listB/meet6.gif""</stim_listB>",,html-keyboard-response,197,819736,0.0-15.0-1.12,89144,List2B,black,woman,,,,null,,,,
null,are meeting each other,,html-keyboard-response,198,821738,0.0-15.0-2.12,89144,List2B,black,woman,,,,null,,,,
10747,,,survey-text,199,832488,0.0-15.0-3.12,89144,List2B,black,woman,,,,,"{""Q0"":""luke and fred are meeting each other""}","<img src=""stim_listB/meet6.gif""</stim_listB>",are meeting each other,
null,"<div style=""font-size:60px;"">+</div>",,html-keyboard-response,200,832992,0.0-15.0-0.13,89144,List2B,black,woman,,,,null,,,,
null,"<img src=""stim_listB/shout1.gif""</stim_listB>",,html-keyboard-response,201,834996,0.0-15.0-1.13,89144,List2B,black,woman,,,,null,,,,
null,is shouting at,,html-keyboard-response,202,837045,0.0-15.0-2.13,89144,List2B,black,woman,,,,null,,,,
9691,,,survey-text,203,846739,0.0-15.0-3.13,89144,List2B,black,woman,,,,,"{""Q0"":""luke is shouting at ruth""}","<img src=""stim_listB/shout1.gif""</stim_listB>",is shouting at,
null,"<div style=""font-size:60px;"">+</div>",,html-keyboard-response,204,847242,0.0-15.0-0.14,89144,List2B,black,woman,,,,null,,,,
null,"<img src=""stim_listB/fight5.gif""</stim_listB>",,html-keyboard-response,205,849247,0.0-15.0-1.14,89144,List2B,black,woman,,,,null,,,,
null,is fighting,,html-keyboard-response,206,851249,0.0-15.0-2.14,89144,List2B,black,woman,,,,null,,,,
9071,,,survey-text,207,860322,0.0-15.0-3.14,89144,List2B,black,woman,,,,,"{""Q0"":""dave is fighting mike""}","<img src=""stim_listB/fight5.gif""</stim_listB>",is fighting,
null,"<div style=""font-size:60px;"">+</div>",,html-keyboard-response,208,860825,0.0-15.0-0.15,89144,List2B,black,woman,,,,null,,,,
null,"<img src=""stim_listB/fight8.gif""</stim_listB>",,html-keyboard-response,209,862828,0.0-15.0-1.15,89144,List2B,black,woman,,,,null,,,,
null,are fighting each other,,html-keyboard-response,210,864830,0.0-15.0-2.15,89144,List2B,black,woman,,,,null,,,,
13765,,,survey-text,211,878598,0.0-15.0-3.15,89144,List2B,black,woman,,,,,"{""Q0"":""ruth and beth are fighting each other""}","<img src=""stim_listB/fight8.gif""</stim_listB>",are fighting each other,
null,"<div style=""font-size:60px;"">+</div>",,html-keyboard-response,212,879101,0.0-15.0-0.16,89144,List2B,black,woman,,,,null,,,,
null,"<img src=""stim_listB/hug4.gif""</stim_listB>",,html-keyboard-response,213,881121,0.0-15.0-1.16,89144,List2B,black,woman,,,,null,,,,
null,are hugging each other,,html-keyboard-response,214,883126,0.0-15.0-2.16,89144,List2B,black,woman,,,,null,,,,
16022,,,survey-text,215,899151,0.0-15.0-3.16,89144,List2B,black,woman,,,,,"{""Q0"":""mike and kate are hugging each other""}","<img src=""stim_listB/hug4.gif""</stim_listB>",are hugging each other,
null,"<div style=""font-size:60px;"">+</div>",,html-keyboard-response,216,899657,0.0-15.0-0.17,89144,List2B,black,woman,,,,null,,,,
null,"<img src=""stim_listB/fight4.gif""</stim_listB>",,html-keyboard-response,217,901662,0.0-15.0-1.17,89144,List2B,black,woman,,,,null,,,,
null,are fighting each other,,html-keyboard-response,218,903665,0.0-15.0-2.17,89144,List2B,black,woman,,,,null,,,,
11833,,,survey-text,219,915500,0.0-15.0-3.17,89144,List2B,black,woman,,,,,"{""Q0"":""fred and beth are fighting each other""}","<img src=""stim_listB/fight4.gif""</stim_listB>",are fighting each other,
null,"<div style=""font-size:60px;"">+</div>",,html-keyboard-response,220,916004,0.0-15.0-0.18,89144,List2B,black,woman,,,,null,,,,
null,"<img src=""stim_listB/meet1.gif""</stim_listB>",,html-keyboard-response,221,918009,0.0-15.0-1.18,89144,List2B,black,woman,,,,null,,,,
null,is meeting,,html-keyboard-response,222,920011,0.0-15.0-2.18,89144,List2B,black,woman,,,,null,,,,
8173,,,survey-text,223,928186,0.0-15.0-3.18,89144,List2B,black,woman,,,,,"{""Q0"":""jane is meeting dave""}","<img src=""stim_listB/meet1.gif""</stim_listB>",is meeting,
null,"<div style=""font-size:60px;"">+</div>",,html-keyboard-response,224,928690,0.0-15.0-0.19,89144,List2B,black,woman,,,,null,,,,
null,"<img src=""stim_listB/talk8.gif""</stim_listB>",,html-keyboard-response,225,930695,0.0-15.0-1.19,89144,List2B,black,woman,,,,null,,,,
null,are talking to each other,,html-keyboard-response,226,932700,0.0-15.0-2.19,89144,List2B,black,woman,,,,null,,,,
11881,,,survey-text,227,944583,0.0-15.0-3.19,89144,List2B,black,woman,,,,,"{""Q0"":""jane and beth talking to each other""}","<img src=""stim_listB/talk8.gif""</stim_listB>",are talking to each other,
2526,"<img src='img/portrait_matrix_list2.JPG' style='width:900px;height:500px;''></img><p>If you have memorised all the portraits and names and are ready to start, press Continue.</p><p><strong>Please note: Your memory of these faces will be tested 4 times during this experiment.</strong></p>",0,html-button-response,228,947113,0.0-16.0-0.0,89144,List2B,black,woman,,,,,,,,
2597,"<img src=""portrait/BW1.jpg""style=""width:400px;height:400px;""></img>",0,html-button-response,229,950717,0.0-16.0-1.0,89144,List2B,black,woman,,TRUE,0,,,,,
null,CORRECT,,html-keyboard-response,230,952221,0.0-16.0-2.0-0.0,89144,List2B,black,woman,,,,null,,,,
3082,"<img src=""portrait/WW2.jpg""style=""width:400px;height:400px;""></img>",3,html-button-response,231,955306,0.0-16.0-4.0,89144,List2B,black,woman,,TRUE,3,,,,,
null,CORRECT,,html-keyboard-response,232,956812,0.0-16.0-5.0-0.0,89144,List2B,black,woman,,,,null,,,,
2320,"<img src=""portrait/BM2.jpg""style=""width:400px;height:400px;""></img>",5,html-button-response,233,959137,0.0-16.0-7.0,89144,List2B,black,woman,,TRUE,5,,,,,
null,CORRECT,,html-keyboard-response,234,960642,0.0-16.0-8.0-0.0,89144,List2B,black,woman,,,,null,,,,
1713,"<img src=""portrait/WM2.jpg""style=""width:400px;height:400px;""></img>",7,html-button-response,235,962360,0.0-16.0-10.0,89144,List2B,black,woman,,TRUE,7,,,,,
null,CORRECT,,html-keyboard-response,236,963865,0.0-16.0-11.0-0.0,89144,List2B,black,woman,,,,null,,,,
2089,"<img src=""portrait/WM1.jpg""style=""width:400px;height:400px;""></img>",6,html-button-response,237,965961,0.0-16.0-13.0,89144,List2B,black,woman,,TRUE,6,,,,,
null,CORRECT,,html-keyboard-response,238,967468,0.0-16.0-14.0-0.0,89144,List2B,black,woman,,,,null,,,,
3238,"<img src=""portrait/WW1.jpg""style=""width:400px;height:400px;""></img>",1,html-button-response,239,970711,0.0-16.0-16.0,89144,List2B,black,woman,,TRUE,1,,,,,
null,CORRECT,,html-keyboard-response,240,972217,0.0-16.0-17.0-0.0,89144,List2B,black,woman,,,,null,,,,
1699,"<img src=""portrait/BW2.jpg""style=""width:400px;height:400px;""></img>",2,html-button-response,241,973920,0.0-16.0-19.0,89144,List2B,black,woman,,TRUE,2,,,,,
null,CORRECT,,html-keyboard-response,242,975426,0.0-16.0-20.0-0.0,89144,List2B,black,woman,,,,null,,,,
2296,"<img src=""portrait/BM1.jpg""style=""width:400px;height:400px;""></img>",4,html-button-response,243,977725,0.0-16.0-22.0,89144,List2B,black,woman,,TRUE,4,,,,,
null,CORRECT,,html-keyboard-response,244,979258,0.0-16.0-23.0-0.0,89144,List2B,black,woman,,,,null,,,,
1424,<p>You got 8 out of 8 right first time. Press Continue.</p>,0,html-button-response,245,980687,0.0-16.0-25.0,89144,List2B,black,woman,,,,,,,,
null,"<div style=""font-size:60px;"">+</div>",,html-keyboard-response,246,982193,0.0-17.0-0.0,89144,List2B,black,woman,,,,null,,,,
null,"<img src=""stim_listB/touch6.gif""</stim_listB>",,html-keyboard-response,247,984237,0.0-17.0-1.0,89144,List2B,black,woman,,,,null,,,,
null,are touching each other,,html-keyboard-response,248,986240,0.0-17.0-2.0,89144,List2B,black,woman,,,,null,,,,
14652,,,survey-text,249,1000895,0.0-17.0-3.0,89144,List2B,black,woman,,,,,"{""Q0"":""fred and luke are touching""}","<img src=""stim_listB/touch6.gif""</stim_listB>",are touching each other,
null,"<div style=""font-size:60px;"">+</div>",,html-keyboard-response,250,1001399,0.0-17.0-0.1,89144,List2B,black,woman,,,,null,,,,
null,"<img src=""stim_listB/dance2.gif""</stim_listB>",,html-keyboard-response,251,1003404,0.0-17.0-1.1,89144,List2B,black,woman,,,,null,,,,
null,are dancing with each other,,html-keyboard-response,252,1005406,0.0-17.0-2.1,89144,List2B,black,woman,,,,null,,,,
14550,,,survey-text,253,1019958,0.0-17.0-3.1,89144,List2B,black,woman,,,,,"{""Q0"":""ruth and dave are dancing with each other""}","<img src=""stim_listB/dance2.gif""</stim_listB>",are dancing with each other,
null,"<div style=""font-size:60px;"">+</div>",,html-keyboard-response,254,1020462,0.0-17.0-0.2,89144,List2B,black,woman,,,,null,,,,
null,"<img src=""stim_listB/talk6.gif""</stim_listB>",,html-keyboard-response,255,1022467,0.0-17.0-1.2,89144,List2B,black,woman,,,,null,,,,
null,are talking to each other,,html-keyboard-response,256,1024472,0.0-17.0-2.2,89144,List2B,black,woman,,,,null,,,,
12670,,,survey-text,257,1037144,0.0-17.0-3.2,89144,List2B,black,woman,,,,,"{""Q0"":""fred and dave are talking to each other""}","<img src=""stim_listB/talk6.gif""</stim_listB>",are talking to each other,
null,"<div style=""font-size:60px;"">+</div>",,html-keyboard-response,258,1037648,0.0-17.0-0.3,89144,List2B,black,woman,,,,null,,,,
null,"<img src=""stim_listB/meet7.gif""</stim_listB>",,html-keyboard-response,259,1039666,0.0-17.0-1.3,89144,List2B,black,woman,,,,null,,,,
null,is meeting,,html-keyboard-response,260,1041677,0.0-17.0-2.3,89144,List2B,black,woman,,,,null,,,,
11154,,,survey-text,261,1052834,0.0-17.0-3.3,89144,List2B,black,woman,,,,,"{""Q0"":""kate is meeting jane""}","<img src=""stim_listB/meet7.gif""</stim_listB>",is meeting,
null,"<div style=""font-size:60px;"">+</div>",,html-keyboard-response,262,1053339,0.0-17.0-0.4,89144,List2B,black,woman,,,,null,,,,
null,"<img src=""stim_listB/meet5.gif""</stim_listB>",,html-keyboard-response,263,1055345,0.0-17.0-1.4,89144,List2B,black,woman,,,,null,,,,
null,is meeting,,html-keyboard-response,264,1057348,0.0-17.0-2.4,89144,List2B,black,woman,,,,null,,,,
8766,,,survey-text,265,1066117,0.0-17.0-3.4,89144,List2B,black,woman,,,,,"{""Q0"":""mike is meeting dave""}","<img src=""stim_listB/meet5.gif""</stim_listB>",is meeting,
null,"<div style=""font-size:60px;"">+</div>",,html-keyboard-response,266,1066624,0.0-17.0-0.5,89144,List2B,black,woman,,,,null,,,,
null,"<img src=""stim_listB/meet8.gif""</stim_listB>",,html-keyboard-response,267,1068628,0.0-17.0-1.5,89144,List2B,black,woman,,,,null,,,,
null,are meeting each other,,html-keyboard-response,268,1070630,0.0-17.0-2.5,89144,List2B,black,woman,,,,null,,,,
13696,,,survey-text,269,1084330,0.0-17.0-3.5,89144,List2B,black,woman,,,,,"{""Q0"":""ruth and beth are meeting each other""}","<img src=""stim_listB/meet8.gif""</stim_listB>",are meeting each other,
null,"<div style=""font-size:60px;"">+</div>",,html-keyboard-response,270,1084833,0.0-17.0-0.6,89144,List2B,black,woman,,,,null,,,,
null,"<img src=""stim_listB/dance7.gif""</stim_listB>",,html-keyboard-response,271,1086883,0.0-17.0-1.6,89144,List2B,black,woman,,,,null,,,,
null,is dancing with,,html-keyboard-response,272,1088889,0.0-17.0-2.6,89144,List2B,black,woman,,,,null,,,,
10991,,,survey-text,273,1099883,0.0-17.0-3.6,89144,List2B,black,woman,,,,,"{""Q0"":""kate is dancing with ruth""}","<img src=""stim_listB/dance7.gif""</stim_listB>",is dancing with,
null,"<div style=""font-size:60px;"">+</div>",,html-keyboard-response,274,1100387,0.0-17.0-0.7,89144,List2B,black,woman,,,,null,,,,
null,"<img src=""stim_listB/shout8.gif""</stim_listB>",,html-keyboard-response,275,1102393,0.0-17.0-1.7,89144,List2B,black,woman,,,,null,,,,
null,are shouting at each other,,html-keyboard-response,276,1104404,0.0-17.0-2.7,89144,List2B,black,woman,,,,null,,,,
10465,,,survey-text,277,1114874,0.0-17.0-3.7,89144,List2B,black,woman,,,,,"{""Q0"":""jane and kate are shouting at each other""}","<img src=""stim_listB/shout8.gif""</stim_listB>",are shouting at each other,
null,"<div style=""font-size:60px;"">+</div>",,html-keyboard-response,278,1115391,0.0-17.0-0.8,89144,List2B,black,woman,,,,null,,,,
null,"<img src=""stim_listB/fight6.gif""</stim_listB>",,html-keyboard-response,279,1117395,0.0-17.0-1.8,89144,List2B,black,woman,,,,null,,,,
null,are fighting each other,,html-keyboard-response,280,1119397,0.0-17.0-2.8,89144,List2B,black,woman,,,,null,,,,
15819,,,survey-text,281,1135220,0.0-17.0-3.8,89144,List2B,black,woman,,,,,"{""Q0"":""fred and luke are fighting with each other""}","<img src=""stim_listB/fight6.gif""</stim_listB>",are fighting each other,
null,"<div style=""font-size:60px;"">+</div>",,html-keyboard-response,282,1135723,0.0-17.0-0.9,89144,List2B,black,woman,,,,null,,,,
null,"<img src=""stim_listB/marry6.gif""</stim_listB>",,html-keyboard-response,283,1137728,0.0-17.0-1.9,89144,List2B,black,woman,,,,null,,,,
null,are marrying each other,,html-keyboard-response,284,1139730,0.0-17.0-2.9,89144,List2B,black,woman,,,,null,,,,
13549,,,survey-text,285,1153281,0.0-17.0-3.9,89144,List2B,black,woman,,,,,"{""Q0"":""mike and luke are marrying each other""}","<img src=""stim_listB/marry6.gif""</stim_listB>",are marrying each other,
null,"<div style=""font-size:60px;"">+</div>",,html-keyboard-response,286,1153784,0.0-17.0-0.10,89144,List2B,black,woman,,,,null,,,,
null,"<img src=""stim_listB/meet3.gif""</stim_listB>",,html-keyboard-response,287,1155789,0.0-17.0-1.10,89144,List2B,black,woman,,,,null,,,,
null,is meeting,,html-keyboard-response,288,1157791,0.0-17.0-2.10,89144,List2B,black,woman,,,,null,,,,
7429,,,survey-text,289,1165223,0.0-17.0-3.10,89144,List2B,black,woman,,,,,"{""Q0"":""kate is meeting mike""}","<img src=""stim_listB/meet3.gif""</stim_listB>",is meeting,
null,"<div style=""font-size:60px;"">+</div>",,html-keyboard-response,290,1165727,0.0-17.0-0.11,89144,List2B,black,woman,,,,null,,,,
null,"<img src=""stim_listB/fight3.gif""</stim_listB>",,html-keyboard-response,291,1167731,0.0-17.0-1.11,89144,List2B,black,woman,,,,null,,,,
null,is fighting,,html-keyboard-response,292,1169734,0.0-17.0-2.11,89144,List2B,black,woman,,,,null,,,,
7716,,,survey-text,293,1177454,0.0-17.0-3.11,89144,List2B,black,woman,,,,,"{""Q0"":""kate is fighting mike""}","<img src=""stim_listB/fight3.gif""</stim_listB>",is fighting,
null,"<div style=""font-size:60px;"">+</div>",,html-keyboard-response,294,1177960,0.0-17.0-0.12,89144,List2B,black,woman,,,,null,,,,
null,"<img src=""stim_listB/dance3.gif""</stim_listB>",,html-keyboard-response,295,1179964,0.0-17.0-1.12,89144,List2B,black,woman,,,,null,,,,
null,is dancing with,,html-keyboard-response,296,1181968,0.0-17.0-2.12,89144,List2B,black,woman,,,,null,,,,
14763,,,survey-text,297,1196734,0.0-17.0-3.12,89144,List2B,black,woman,,,,,"{""Q0"":""fred is dancing with kate""}","<img src=""stim_listB/dance3.gif""</stim_listB>",is dancing with,
null,"<div style=""font-size:60px;"">+</div>",,html-keyboard-response,298,1197239,0.0-17.0-0.13,89144,List2B,black,woman,,,,null,,,,
null,"<img src=""stim_listB/kiss7.gif""</stim_listB>",,html-keyboard-response,299,1199244,0.0-17.0-1.13,89144,List2B,black,woman,,,,null,,,,
null,is kissing,,html-keyboard-response,300,1201279,0.0-17.0-2.13,89144,List2B,black,woman,,,,null,,,,
6998,,,survey-text,301,1208279,0.0-17.0-3.13,89144,List2B,black,woman,,,,,"{""Q0"":""beth is kissing ruth""}","<img src=""stim_listB/kiss7.gif""</stim_listB>",is kissing,
null,"<div style=""font-size:60px;"">+</div>",,html-keyboard-response,302,1208782,0.0-17.0-0.14,89144,List2B,black,woman,,,,null,,,,
null,"<img src=""stim_listB/meet4.gif""</stim_listB>",,html-keyboard-response,303,1210787,0.0-17.0-1.14,89144,List2B,black,woman,,,,null,,,,
null,are meeting each other,,html-keyboard-response,304,1212793,0.0-17.0-2.14,89144,List2B,black,woman,,,,null,,,,
18002,,,survey-text,305,1230797,0.0-17.0-3.14,89144,List2B,black,woman,,,,,"{""Q0"":""beth and fred are meeting each other""}","<img src=""stim_listB/meet4.gif""</stim_listB>",are meeting each other,
null,"<div style=""font-size:60px;"">+</div>",,html-keyboard-response,306,1231300,0.0-17.0-0.15,89144,List2B,black,woman,,,,null,,,,
null,"<img src=""stim_listB/argue1.gif""</stim_listB>",,html-keyboard-response,307,1233305,0.0-17.0-1.15,89144,List2B,black,woman,,,,null,,,,
null,is arguing with,,html-keyboard-response,308,1235354,0.0-17.0-2.15,89144,List2B,black,woman,,,,null,,,,
16090,,,survey-text,309,1251447,0.0-17.0-3.15,89144,List2B,black,woman,,,,,"{""Q0"":""dave is arguing with ruth""}","<img src=""stim_listB/argue1.gif""</stim_listB>",is arguing with,
null,"<div style=""font-size:60px;"">+</div>",,html-keyboard-response,310,1251950,0.0-17.0-0.16,89144,List2B,black,woman,,,,null,,,,
null,"<img src=""stim_listB/talk2.gif""</stim_listB>",,html-keyboard-response,311,1253954,0.0-17.0-1.16,89144,List2B,black,woman,,,,null,,,,
null,are talking to each other,,html-keyboard-response,312,1255957,0.0-17.0-2.16,89144,List2B,black,woman,,,,null,,,,
22067,,,survey-text,313,1278027,0.0-17.0-3.16,89144,List2B,black,woman,,,,,"{""Q0"":""ruth and dave are talking to each other""}","<img src=""stim_listB/talk2.gif""</stim_listB>",are talking to each other,
null,"<div style=""font-size:60px;"">+</div>",,html-keyboard-response,314,1278531,0.0-17.0-0.17,89144,List2B,black,woman,,,,null,,,,
null,"<img src=""stim_listB/argue6.gif""</stim_listB>",,html-keyboard-response,315,1280611,0.0-17.0-1.17,89144,List2B,black,woman,,,,null,,,,
null,are arguing with each other,,html-keyboard-response,316,1282615,0.0-17.0-2.17,89144,List2B,black,woman,,,,null,,,,
17790,,,survey-text,317,1300409,0.0-17.0-3.17,89144,List2B,black,woman,,,,,"{""Q0"":""mike and luke are aruging with each other""}","<img src=""stim_listB/argue6.gif""</stim_listB>",are arguing with each other,
null,"<div style=""font-size:60px;"">+</div>",,html-keyboard-response,318,1300913,0.0-17.0-0.18,89144,List2B,black,woman,,,,null,,,,
null,"<img src=""stim_listB/marry5.gif""</stim_listB>",,html-keyboard-response,319,1302917,0.0-17.0-1.18,89144,List2B,black,woman,,,,null,,,,
null,is marrying,,html-keyboard-response,320,1304921,0.0-17.0-2.18,89144,List2B,black,woman,,,,null,,,,
17854,,,survey-text,321,1322777,0.0-17.0-3.18,89144,List2B,black,woman,,,,,"{""Q0"":""luke is marrying fred""}","<img src=""stim_listB/marry5.gif""</stim_listB>",is marrying,
null,"<div style=""font-size:60px;"">+</div>",,html-keyboard-response,322,1323279,0.0-17.0-0.19,89144,List2B,black,woman,,,,null,,,,
null,"<img src=""stim_listB/argue7.gif""</stim_listB>",,html-keyboard-response,323,1325285,0.0-17.0-1.19,89144,List2B,black,woman,,,,null,,,,
null,is arguing with,,html-keyboard-response,324,1327287,0.0-17.0-2.19,89144,List2B,black,woman,,,,null,,,,
12345,,,survey-text,325,1339635,0.0-17.0-3.19,89144,List2B,black,woman,,,,,"{""Q0"":""jane is arguing with beth""}","<img src=""stim_listB/argue7.gif""</stim_listB>",is arguing with,
2526,"<img src='img/portrait_matrix_list2.JPG' style='width:900px;height:500px;''></img><p>If you have memorised all the portraits and names and are ready to start, press Continue.</p><p><strong>Please note: Your memory of these faces will be tested 4 times during this experiment.</strong></p>",0,html-button-response,326,1342163,0.0-18.0-0.0,89144,List2B,black,woman,,,,,,,,
1661,"<img src=""portrait/BW1.jpg""style=""width:400px;height:400px;""></img>",0,html-button-response,327,1344843,0.0-18.0-1.0,89144,List2B,black,woman,,TRUE,0,,,,,
null,CORRECT,,html-keyboard-response,328,1346349,0.0-18.0-2.0-0.0,89144,List2B,black,woman,,,,null,,,,
2070,"<img src=""portrait/WW1.jpg""style=""width:400px;height:400px;""></img>",1,html-button-response,329,1348424,0.0-18.0-4.0,89144,List2B,black,woman,,TRUE,1,,,,,
null,CORRECT,,html-keyboard-response,330,1349930,0.0-18.0-5.0-0.0,89144,List2B,black,woman,,,,null,,,,
1963,"<img src=""portrait/BM1.jpg""style=""width:400px;height:400px;""></img>",4,html-button-response,331,1351897,0.0-18.0-7.0,89144,List2B,black,woman,,TRUE,4,,,,,
null,CORRECT,,html-keyboard-response,332,1353402,0.0-18.0-8.0-0.0,89144,List2B,black,woman,,,,null,,,,
2042,"<img src=""portrait/BW2.jpg""style=""width:400px;height:400px;""></img>",2,html-button-response,333,1355448,0.0-18.0-10.0,89144,List2B,black,woman,,TRUE,2,,,,,
null,CORRECT,,html-keyboard-response,334,1356953,0.0-18.0-11.0-0.0,89144,List2B,black,woman,,,,null,,,,
1893,"<img src=""portrait/BM2.jpg""style=""width:400px;height:400px;""></img>",5,html-button-response,335,1358851,0.0-18.0-13.0,89144,List2B,black,woman,,TRUE,5,,,,,
null,CORRECT,,html-keyboard-response,336,1360360,0.0-18.0-14.0-0.0,89144,List2B,black,woman,,,,null,,,,
3253,"<img src=""portrait/WM1.jpg""style=""width:400px;height:400px;""></img>",6,html-button-response,337,1363618,0.0-18.0-16.0,89144,List2B,black,woman,,TRUE,6,,,,,
null,CORRECT,,html-keyboard-response,338,1365155,0.0-18.0-17.0-0.0,89144,List2B,black,woman,,,,null,,,,
1800,"<img src=""portrait/WW2.jpg""style=""width:400px;height:400px;""></img>",3,html-button-response,339,1366960,0.0-18.0-19.0,89144,List2B,black,woman,,TRUE,3,,,,,
null,CORRECT,,html-keyboard-response,340,1368465,0.0-18.0-20.0-0.0,89144,List2B,black,woman,,,,null,,,,
1592,"<img src=""portrait/WM2.jpg""style=""width:400px;height:400px;""></img>",7,html-button-response,341,1370063,0.0-18.0-22.0,89144,List2B,black,woman,,TRUE,7,,,,,
null,CORRECT,,html-keyboard-response,342,1371569,0.0-18.0-23.0-0.0,89144,List2B,black,woman,,,,null,,,,
1183,<p>You got 8 out of 8 right first time. Press Continue.</p>,0,html-button-response,343,1372759,0.0-18.0-25.0,89144,List2B,black,woman,,,,,,,,
null,"<div style=""font-size:60px;"">+</div>",,html-keyboard-response,344,1374264,0.0-19.0-0.0,89144,List2B,black,woman,,,,null,,,,
null,"<img src=""stim_listB/marry8.gif""</stim_listB>",,html-keyboard-response,345,1376282,0.0-19.0-1.0,89144,List2B,black,woman,,,,null,,,,
null,are marrying each other,,html-keyboard-response,346,1378286,0.0-19.0-2.0,89144,List2B,black,woman,,,,null,,,,
20444,,,survey-text,347,1398733,0.0-19.0-3.0,89144,List2B,black,woman,,,,,"{""Q0"":""ruth and kate are marrying each other""}","<img src=""stim_listB/marry8.gif""</stim_listB>",are marrying each other,
null,"<div style=""font-size:60px;"">+</div>",,html-keyboard-response,348,1399238,0.0-19.0-0.1,89144,List2B,black,woman,,,,null,,,,
null,"<img src=""stim_listB/touch4.gif""</stim_listB>",,html-keyboard-response,349,1401244,0.0-19.0-1.1,89144,List2B,black,woman,,,,null,,,,
null,are touching each other,,html-keyboard-response,350,1403263,0.0-19.0-2.1,89144,List2B,black,woman,,,,null,,,,
13374,,,survey-text,351,1416639,0.0-19.0-3.1,89144,List2B,black,woman,,,,,"{""Q0"":""fred and beth are touching""}","<img src=""stim_listB/touch4.gif""</stim_listB>",are touching each other,
null,"<div style=""font-size:60px;"">+</div>",,html-keyboard-response,352,1417142,0.0-19.0-0.2,89144,List2B,black,woman,,,,null,,,,
null,"<img src=""stim_listB/argue4.gif""</stim_listB>",,html-keyboard-response,353,1419158,0.0-19.0-1.2,89144,List2B,black,woman,,,,null,,,,
null,are arguing with each other,,html-keyboard-response,354,1421170,0.0-19.0-2.2,89144,List2B,black,woman,,,,null,,,,
20083,,,survey-text,355,1441256,0.0-19.0-3.2,89144,List2B,black,woman,,,,,"{""Q0"":""kate and fred are talking to each other""}","<img src=""stim_listB/argue4.gif""</stim_listB>",are arguing with each other,
null,"<div style=""font-size:60px;"">+</div>",,html-keyboard-response,356,1441759,0.0-19.0-0.3,89144,List2B,black,woman,,,,null,,,,
null,"<img src=""stim_listB/marry4.gif""</stim_listB>",,html-keyboard-response,357,1443764,0.0-19.0-1.3,89144,List2B,black,woman,,,,null,,,,
null,are marrying each other,,html-keyboard-response,358,1445768,0.0-19.0-2.3,89144,List2B,black,woman,,,,null,,,,
18422,,,survey-text,359,1464192,0.0-19.0-3.3,89144,List2B,black,woman,,,,,"{""Q0"":""kate and fred are marrying each other""}","<img src=""stim_listB/marry4.gif""</stim_listB>",are marrying each other,
null,"<div style=""font-size:60px;"">+</div>",,html-keyboard-response,360,1464695,0.0-19.0-0.4,89144,List2B,black,woman,,,,null,,,,
null,"<img src=""stim_listB/hug2.gif""</stim_listB>",,html-keyboard-response,361,1466699,0.0-19.0-1.4,89144,List2B,black,woman,,,,null,,,,
null,are hugging each other,,html-keyboard-response,362,1468702,0.0-19.0-2.4,89144,List2B,black,woman,,,,null,,,,
13983,,,survey-text,363,1482687,0.0-19.0-3.4,89144,List2B,black,woman,,,,,"{""Q0"":""dave and jane are hugging each other""}","<img src=""stim_listB/hug2.gif""</stim_listB>",are hugging each other,
null,"<div style=""font-size:60px;"">+</div>",,html-keyboard-response,364,1483190,0.0-19.0-0.5,89144,List2B,black,woman,,,,null,,,,
null,"<img src=""stim_listB/dance6.gif""</stim_listB>",,html-keyboard-response,365,1485195,0.0-19.0-1.5,89144,List2B,black,woman,,,,null,,,,
null,are dancing with each other,,html-keyboard-response,366,1487197,0.0-19.0-2.5,89144,List2B,black,woman,,,,null,,,,
25356,,,survey-text,367,1512556,0.0-19.0-3.5,89144,List2B,black,woman,,,,,"{""Q0"":""fred and dave are dancing with each other""}","<img src=""stim_listB/dance6.gif""</stim_listB>",are dancing with each other,
null,"<div style=""font-size:60px;"">+</div>",,html-keyboard-response,368,1513063,0.0-19.0-0.6,89144,List2B,black,woman,,,,null,,,,
null,"<img src=""stim_listB/talk7.gif""</stim_listB>",,html-keyboard-response,369,1515070,0.0-19.0-1.6,89144,List2B,black,woman,,,,null,,,,
null,is talking to,,html-keyboard-response,370,1517073,0.0-19.0-2.6,89144,List2B,black,woman,,,,null,,,,
8825,,,survey-text,371,1525901,0.0-19.0-3.6,89144,List2B,black,woman,,,,,"{""Q0"":""ruth is talking to kate""}","<img src=""stim_listB/talk7.gif""</stim_listB>",is talking to,
null,"<div style=""font-size:60px;"">+</div>",,html-keyboard-response,372,1526405,0.0-19.0-0.7,89144,List2B,black,woman,,,,null,,,,
null,"<img src=""stim_listB/kiss3.gif""</stim_listB>",,html-keyboard-response,373,1528409,0.0-19.0-1.7,89144,List2B,black,woman,,,,null,,,,
null,is kissing,,html-keyboard-response,374,1530412,0.0-19.0-2.7,89144,List2B,black,woman,,,,null,,,,
8551,,,survey-text,375,1538965,0.0-19.0-3.7,89144,List2B,black,woman,,,,,"{""Q0"":""fred is kissing beth""}","<img src=""stim_listB/kiss3.gif""</stim_listB>",is kissing,
null,"<div style=""font-size:60px;"">+</div>",,html-keyboard-response,376,1539468,0.0-19.0-0.8,89144,List2B,black,woman,,,,null,,,,
null,"<img src=""stim_listB/touch5.gif""</stim_listB>",,html-keyboard-response,377,1541473,0.0-19.0-1.8,89144,List2B,black,woman,,,,null,,,,
null,is touching,,html-keyboard-response,378,1543475,0.0-19.0-2.8,89144,List2B,black,woman,,,,null,,,,
15813,,,survey-text,379,1559291,0.0-19.0-3.8,89144,List2B,black,woman,,,,,"{""Q0"":""mike is touching dave""}","<img src=""stim_listB/touch5.gif""</stim_listB>",is touching,
null,"<div style=""font-size:60px;"">+</div>",,html-keyboard-response,380,1559796,0.0-19.0-0.9,89144,List2B,black,woman,,,,null,,,,
null,"<img src=""stim_listB/shout4.gif""</stim_listB>",,html-keyboard-response,381,1561801,0.0-19.0-1.9,89144,List2B,black,woman,,,,null,,,,
null,are shouting at each other,,html-keyboard-response,382,1563803,0.0-19.0-2.9,89144,List2B,black,woman,,,,null,,,,
19798,,,survey-text,383,1583604,0.0-19.0-3.9,89144,List2B,black,woman,,,,,"{""Q0"":""kate and mike shouting at each other""}","<img src=""stim_listB/shout4.gif""</stim_listB>",are shouting at each other,
null,"<div style=""font-size:60px;"">+</div>",,html-keyboard-response,384,1584107,0.0-19.0-0.10,89144,List2B,black,woman,,,,null,,,,
null,"<img src=""stim_listB/kiss8.gif""</stim_listB>",,html-keyboard-response,385,1586112,0.0-19.0-1.10,89144,List2B,black,woman,,,,null,,,,
null,are kissing each other,,html-keyboard-response,386,1588117,0.0-19.0-2.10,89144,List2B,black,woman,,,,null,,,,
17038,,,survey-text,387,1605158,0.0-19.0-3.10,89144,List2B,black,woman,,,,,"{""Q0"":""jane and kate are kissing each other""}","<img src=""stim_listB/kiss8.gif""</stim_listB>",are kissing each other,
null,"<div style=""font-size:60px;"">+</div>",,html-keyboard-response,388,1605661,0.0-19.0-0.11,89144,List2B,black,woman,,,,null,,,,
null,"<img src=""stim_listB/dance8.gif""</stim_listB>",,html-keyboard-response,389,1607665,0.0-19.0-1.11,89144,List2B,black,woman,,,,null,,,,
null,are dancing with each other,,html-keyboard-response,390,1609668,0.0-19.0-2.11,89144,List2B,black,woman,,,,null,,,,
13712,,,survey-text,391,1623382,0.0-19.0-3.11,89144,List2B,black,woman,,,,,"{""Q0"":""beht and jane are dancing with each other""}","<img src=""stim_listB/dance8.gif""</stim_listB>",are dancing with each other,
null,"<div style=""font-size:60px;"">+</div>",,html-keyboard-response,392,1623887,0.0-19.0-0.12,89144,List2B,black,woman,,,,null,,,,
null,"<img src=""stim_listB/kiss6.gif""</stim_listB>",,html-keyboard-response,393,1625892,0.0-19.0-1.12,89144,List2B,black,woman,,,,null,,,,
null,are kissing each other,,html-keyboard-response,394,1627896,0.0-19.0-2.12,89144,List2B,black,woman,,,,null,,,,
11230,,,survey-text,395,1639130,0.0-19.0-3.12,89144,List2B,black,woman,,,,,"{""Q0"":""dave and mike are kissing each other""}","<img src=""stim_listB/kiss6.gif""</stim_listB>",are kissing each other,
null,"<div style=""font-size:60px;"">+</div>",,html-keyboard-response,396,1639635,0.0-19.0-0.13,89144,List2B,black,woman,,,,null,,,,
null,"<img src=""stim_listB/kiss4.gif""</stim_listB>",,html-keyboard-response,397,1641639,0.0-19.0-1.13,89144,List2B,black,woman,,,,null,,,,
null,are kissing each other,,html-keyboard-response,398,1643641,0.0-19.0-2.13,89144,List2B,black,woman,,,,null,,,,
14491,,,survey-text,399,1658136,0.0-19.0-3.13,89144,List2B,black,woman,,,,,"{""Q0"":""mike and kate are kissing each other""}","<img src=""stim_listB/kiss4.gif""</stim_listB>",are kissing each other,
null,"<div style=""font-size:60px;"">+</div>",,html-keyboard-response,400,1658640,0.0-19.0-0.14,89144,List2B,black,woman,,,,null,,,,
null,"<img src=""stim_listB/kiss1.gif""</stim_listB>",,html-keyboard-response,401,1660644,0.0-19.0-1.14,89144,List2B,black,woman,,,,null,,,,
null,is kissing,,html-keyboard-response,402,1662648,0.0-19.0-2.14,89144,List2B,black,woman,,,,null,,,,
13375,,,survey-text,403,1676026,0.0-19.0-3.14,89144,List2B,black,woman,,,,,"{""Q0"":""luke is kissing ruth""}","<img src=""stim_listB/kiss1.gif""</stim_listB>",is kissing,
null,"<div style=""font-size:60px;"">+</div>",,html-keyboard-response,404,1676529,0.0-19.0-0.15,89144,List2B,black,woman,,,,null,,,,
null,"<img src=""stim_listB/argue8.gif""</stim_listB>",,html-keyboard-response,405,1678534,0.0-19.0-1.15,89144,List2B,black,woman,,,,null,,,,
null,are arguing with each other,,html-keyboard-response,406,1680537,0.0-19.0-2.15,89144,List2B,black,woman,,,,null,,,,
16727,,,survey-text,407,1697267,0.0-19.0-3.15,89144,List2B,black,woman,,,,,"{""Q0"":""ruth and kate are arguing with each other""}","<img src=""stim_listB/argue8.gif""</stim_listB>",are arguing with each other,
null,"<div style=""font-size:60px;"">+</div>",,html-keyboard-response,408,1697770,0.0-19.0-0.16,89144,List2B,black,woman,,,,null,,,,
null,"<img src=""stim_listB/argue2.gif""</stim_listB>",,html-keyboard-response,409,1699784,0.0-19.0-1.16,89144,List2B,black,woman,,,,null,,,,
null,are arguing with each other,,html-keyboard-response,410,1701789,0.0-19.0-2.16,89144,List2B,black,woman,,,,null,,,,
28255,,,survey-text,411,1730047,0.0-19.0-3.16,89144,List2B,black,woman,,,,,"{""Q0"":""jane and luke are arguing with each other ""}","<img src=""stim_listB/argue2.gif""</stim_listB>",are arguing with each other,
null,"<div style=""font-size:60px;"">+</div>",,html-keyboard-response,412,1730551,0.0-19.0-0.17,89144,List2B,black,woman,,,,null,,,,
null,"<img src=""stim_listB/dance1.gif""</stim_listB>",,html-keyboard-response,413,1732556,0.0-19.0-1.17,89144,List2B,black,woman,,,,null,,,,
null,is dancing with,,html-keyboard-response,414,1734559,0.0-19.0-2.17,89144,List2B,black,woman,,,,null,,,,
8698,,,survey-text,415,1743261,0.0-19.0-3.17,89144,List2B,black,woman,,,,,"{""Q0"":""jane is dancing with luke""}","<img src=""stim_listB/dance1.gif""</stim_listB>",is dancing with,
null,"<div style=""font-size:60px;"">+</div>",,html-keyboard-response,416,1743764,0.0-19.0-0.18,89144,List2B,black,woman,,,,null,,,,
null,"<img src=""stim_listB/kiss2.gif""</stim_listB>",,html-keyboard-response,417,1745768,0.0-19.0-1.18,89144,List2B,black,woman,,,,null,,,,
null,are kissing each other,,html-keyboard-response,418,1747772,0.0-19.0-2.18,89144,List2B,black,woman,,,,null,,,,
16235,,,survey-text,419,1764010,0.0-19.0-3.18,89144,List2B,black,woman,,,,,"{""Q0"":""dave and jane are kissing each other""}","<img src=""stim_listB/kiss2.gif""</stim_listB>",are kissing each other,
null,"<div style=""font-size:60px;"">+</div>",,html-keyboard-response,420,1764513,0.0-19.0-0.19,89144,List2B,black,woman,,,,null,,,,
null,"<img src=""stim_listB/hug5.gif""</stim_listB>",,html-keyboard-response,421,1766517,0.0-19.0-1.19,89144,List2B,black,woman,,,,null,,,,
null,is hugging,,html-keyboard-response,422,1768520,0.0-19.0-2.19,89144,List2B,black,woman,,,,null,,,,
8057,,,survey-text,423,1776581,0.0-19.0-3.19,89144,List2B,black,woman,,,,,"{""Q0"":""fred is hugging luke""}","<img src=""stim_listB/hug5.gif""</stim_listB>",is hugging,
2013,<p>Thank you for completing that task.</p><p>The final part of this session is a short questionnaire.</p><p>Press Continue.</p>,0,html-button-response,424,1778599,0.0-20.0,89144,List2B,black,woman,,,,,,,,
82707,,,survey-text,425,1862312,0.0-21.0,89144,List2B,black,woman,,,,,"{""Q0"":""19"",""Q1"":""English"",""Q2"":""English"",""Q3"":""United States of America"",""Q4"":""African American"",""Q5"":""Female""}",,,demographics
44994,,,survey-likert,426,1907322,0.0-22.0,89144,List2B,black,woman,,,,,"{""Q0"":6,""Q1"":5,""Q2"":6,""Q3"":6,""Q4"":6,""Q5"":6,""Q6"":6,""Q7"":6,""Q8"":6,""Q9"":6,""Q10"":6,""Q11"":6,""Q12"":6,""Q13"":6}",,,likert_race
41912,,,survey-likert,427,1949249,0.0-23.0,89144,List2B,black,woman,,,,,"{""Q0"":5,""Q1"":5,""Q2"":5,""Q3"":5,""Q4"":5,""Q5"":5,""Q6"":5,""Q7"":5,""Q8"":5,""Q9"":5,""Q10"":5,""Q11"":4,""Q12"":4,""Q13"":4}",,,likert_gender
16340,,,survey-text,428,1965594,0.0-24.0,89144,List2B,black,woman,,,,,"{""Q0"":""ccc""}",,,worker_id
7043,,,external-html,429,1973183,0.0-25.0,89144,List2B,black,woman,debrief.html,,,,,,,
