rt,stimulus,button_pressed,trial_type,trial_index,time_elapsed,internal_node_id,subject,list,ppt_race,ppt_gender,url,first_guess,correct,key_press,responses,image_type,phrase_type,test_part
1364,Welcome to the experiment. Press Continue to begin.,0,html-button-response,0,1369,0.0-0.0,89400,List2A,white,man,,,,,,,,
18736,,,external-html,1,21216,0.0-1.0,89400,List2A,white,man,consent.html,,,,,,,
8991,"<p>On the next page, you will see portraits of 8 people and their names.</p><p>Your first task is to take a few minutes to memorise the names of these people.</p><p>You will have to recall their names during the rest of the experiment, so it is</p><p>essential that you try to memorise these people and their names as best as you can.</p><br><p><strong>You will then be tested on your memory of these names and portraits.</strong></p><br><p>The experiment will start after you have completed this memory test.</p><br><p>Ready?</p>",0,html-button-response,2,30208,0.0-2.0,89400,List2A,white,man,,,,,,,,
21926,"<img src='img/portrait_matrix_list2.JPG' style='width:900px;height:500px;''></img><p>If you have memorised all the portraits and names and are ready to start, press Continue.</p><p><strong>Please note: Your memory of these faces will be tested 4 times during this experiment.</strong></p>",0,html-button-response,3,53143,0.0-3.0-0.0,89400,List2A,white,man,,,,,,,,
3217,"<img src=""portrait/WW2.jpg""style=""width:400px;height:400px;""></img>",3,html-button-response,4,57362,0.0-3.0-1.0,89400,List2A,white,man,,TRUE,3,,,,,
null,CORRECT,,html-keyboard-response,5,58867,0.0-3.0-2.0-0.0,89400,List2A,white,man,,,,null,,,,
3358,"<img src=""portrait/WM1.jpg""style=""width:400px;height:400px;""></img>",6,html-button-response,6,62228,0.0-3.0-4.0,89400,List2A,white,man,,TRUE,6,,,,,
null,CORRECT,,html-keyboard-response,7,63730,0.0-3.0-5.0-0.0,89400,List2A,white,man,,,,null,,,,
2828,"<img src=""portrait/BM2.jpg""style=""width:400px;height:400px;""></img>",5,html-button-response,8,66560,0.0-3.0-7.0,89400,List2A,white,man,,TRUE,5,,,,,
null,CORRECT,,html-keyboard-response,9,68063,0.0-3.0-8.0-0.0,89400,List2A,white,man,,,,null,,,,
4413,"<img src=""portrait/BW1.jpg""style=""width:400px;height:400px;""></img>",0,html-button-response,10,72477,0.0-3.0-10.0,89400,List2A,white,man,,TRUE,0,,,,,
null,CORRECT,,html-keyboard-response,11,73980,0.0-3.0-11.0-0.0,89400,List2A,white,man,,,,null,,,,
3343,"<img src=""portrait/BW2.jpg""style=""width:400px;height:400px;""></img>",2,html-button-response,12,77325,0.0-3.0-13.0,89400,List2A,white,man,,TRUE,2,,,,,
null,CORRECT,,html-keyboard-response,13,78829,0.0-3.0-14.0-0.0,89400,List2A,white,man,,,,null,,,,
3258,"<img src=""portrait/WW1.jpg""style=""width:400px;height:400px;""></img>",1,html-button-response,14,82090,0.0-3.0-16.0,89400,List2A,white,man,,TRUE,1,,,,,
null,CORRECT,,html-keyboard-response,15,83592,0.0-3.0-17.0-0.0,89400,List2A,white,man,,,,null,,,,
3875,"<img src=""portrait/WM2.jpg""style=""width:400px;height:400px;""></img>",7,html-button-response,16,87471,0.0-3.0-19.0,89400,List2A,white,man,,TRUE,7,,,,,
null,CORRECT,,html-keyboard-response,17,88974,0.0-3.0-20.0-0.0,89400,List2A,white,man,,,,null,,,,
3200,"<img src=""portrait/BM1.jpg""style=""width:400px;height:400px;""></img>",4,html-button-response,18,92177,0.0-3.0-22.0,89400,List2A,white,man,,TRUE,4,,,,,
null,CORRECT,,html-keyboard-response,19,93681,0.0-3.0-23.0-0.0,89400,List2A,white,man,,,,null,,,,
1227,<p>You got 8 out of 8 right first time. Press Continue.</p>,0,html-button-response,20,94908,0.0-3.0-25.0,89400,List2A,white,man,,,,,,,,
54560,"<p>In this experiment, you will view photographs of the people from the memory game interacting.</p><p>By using the <strong>exact</strong> phrase given <i>after</i> the photograph appears and recalling the correct names of the people in the photographs, form a sentence describing the interaction. You do not need to capitalise names.</p><p>Type your answer in the space provided. Please complete every sentence before moving onto the next trial.</p><p>You will only have a few seconds to memorise each given photograph and phrase before you can respond, so try your best to focus.</p><p>An example is given below. Press 'Continue' when you are ready.</p><img src='img/speaking_example_v2.jpg' style='width:800px;height:460px;''></img>",0,html-button-response,21,150471,0.0-4.0,89400,List2A,white,man,,,,,,,,
2320,"<p>Before the experiment starts, you will watch two example trials. Press 'Continue'.</p>",0,html-button-response,22,153793,0.0-5.0,89400,List2A,white,man,,,,,,,,
null,<img src='img/speaking_WW.gif'></img>,,html-keyboard-response,23,156798,0.0-6.0,89400,List2A,white,man,,,,null,,,,
null,<p>is speaking to</p>,,html-keyboard-response,24,158800,0.0-7.0,89400,List2A,white,man,,,,null,,,,
3166,<p><b>Answer:</b> jane is speaking to ruth</p>,0,html-button-response,25,161968,0.0-8.0,89400,List2A,white,man,,,,,,,,
null,<img src='img/pointing_BM.gif'></img>,,html-keyboard-response,26,164970,0.0-9.0,89400,List2A,white,man,,,,null,,,,
null,<p>are pointing at each other</p>,,html-keyboard-response,27,166971,0.0-10.0,89400,List2A,white,man,,,,null,,,,
3677,<p><b>Answer:</b> fred and mike are pointing at each other</p>,0,html-button-response,28,170650,0.0-11.0,89400,List2A,white,man,,,,,,,,
8699,"<p>Ready to start the experiment?</p><br><p><strong>Remember to describe the picture using a full sentence,</strong></p><p><strong>that combines the names of the people with the given phrase.</strong></p><p><strong>If you do not do this correctly you will not be paid.</strong></p><p><strong> You do not need to capitalise names or use punctuation.</strong></p><br><p>Press 'Continue' to begin.</p>",0,html-button-response,29,180350,0.0-12.0,89400,List2A,white,man,,,,,,,,
null,"<div style=""font-size:60px;"">+</div>",,html-keyboard-response,30,181852,0.0-13.0-0.0,89400,List2A,white,man,,,,null,,,,
null,"<img src=""stim_listA/kiss7.gif""</stim_listA>",,html-keyboard-response,31,183858,0.0-13.0-1.0,89400,List2A,white,man,,,,null,,,,
null,is kissing,,html-keyboard-response,32,185859,0.0-13.0-2.0,89400,List2A,white,man,,,,null,,,,
7443,,,survey-text,33,193304,0.0-13.0-3.0,89400,List2A,white,man,,,,,"{""Q0"":""Beth and Ruth are kissing""}","<img src=""stim_listA/kiss7.gif""</stim_listA>",is kissing,
null,"<div style=""font-size:60px;"">+</div>",,html-keyboard-response,34,193807,0.0-13.0-0.1,89400,List2A,white,man,,,,null,,,,
null,"<img src=""stim_listA/meet5.gif""</stim_listA>",,html-keyboard-response,35,195807,0.0-13.0-1.1,89400,List2A,white,man,,,,null,,,,
null,is meeting,,html-keyboard-response,36,197810,0.0-13.0-2.1,89400,List2A,white,man,,,,null,,,,
8290,,,survey-text,37,206101,0.0-13.0-3.1,89400,List2A,white,man,,,,,"{""Q0"":""Mike and Dave are meeting""}","<img src=""stim_listA/meet5.gif""</stim_listA>",is meeting,
null,"<div style=""font-size:60px;"">+</div>",,html-keyboard-response,38,206603,0.0-13.0-0.2,89400,List2A,white,man,,,,null,,,,
null,"<img src=""stim_listA/argue5.gif""</stim_listA>",,html-keyboard-response,39,208604,0.0-13.0-1.2,89400,List2A,white,man,,,,null,,,,
null,is arguing with,,html-keyboard-response,40,210607,0.0-13.0-2.2,89400,List2A,white,man,,,,null,,,,
7000,,,survey-text,41,217607,0.0-13.0-3.2,89400,List2A,white,man,,,,,"{""Q0"":""Fred and Dave are arguing""}","<img src=""stim_listA/argue5.gif""</stim_listA>",is arguing with,
null,"<div style=""font-size:60px;"">+</div>",,html-keyboard-response,42,218109,0.0-13.0-0.3,89400,List2A,white,man,,,,null,,,,
null,"<img src=""stim_listA/marry5.gif""</stim_listA>",,html-keyboard-response,43,220111,0.0-13.0-1.3,89400,List2A,white,man,,,,null,,,,
null,is marrying,,html-keyboard-response,44,222118,0.0-13.0-2.3,89400,List2A,white,man,,,,null,,,,
6156,,,survey-text,45,228276,0.0-13.0-3.3,89400,List2A,white,man,,,,,"{""Q0"":""Fred and Dave are getting married""}","<img src=""stim_listA/marry5.gif""</stim_listA>",is marrying,
null,"<div style=""font-size:60px;"">+</div>",,html-keyboard-response,46,228776,0.0-13.0-0.4,89400,List2A,white,man,,,,null,,,,
null,"<img src=""stim_listA/shout2.gif""</stim_listA>",,html-keyboard-response,47,230779,0.0-13.0-1.4,89400,List2A,white,man,,,,null,,,,
null,are shouting at each other,,html-keyboard-response,48,232780,0.0-13.0-2.4,89400,List2A,white,man,,,,null,,,,
12087,,,survey-text,49,244868,0.0-13.0-3.4,89400,List2A,white,man,,,,,"{""Q0"":""Jane and Dave are shouting at eachother""}","<img src=""stim_listA/shout2.gif""</stim_listA>",are shouting at each other,
null,"<div style=""font-size:60px;"">+</div>",,html-keyboard-response,50,245371,0.0-13.0-0.5,89400,List2A,white,man,,,,null,,,,
null,"<img src=""stim_listA/argue7.gif""</stim_listA>",,html-keyboard-response,51,247371,0.0-13.0-1.5,89400,List2A,white,man,,,,null,,,,
null,is arguing with,,html-keyboard-response,52,249373,0.0-13.0-2.5,89400,List2A,white,man,,,,null,,,,
5866,,,survey-text,53,255241,0.0-13.0-3.5,89400,List2A,white,man,,,,,"{""Q0"":""Jane and Beth are arguing""}","<img src=""stim_listA/argue7.gif""</stim_listA>",is arguing with,
null,"<div style=""font-size:60px;"">+</div>",,html-keyboard-response,54,255743,0.0-13.0-0.6,89400,List2A,white,man,,,,null,,,,
null,"<img src=""stim_listA/shout8.gif""</stim_listA>",,html-keyboard-response,55,257747,0.0-13.0-1.6,89400,List2A,white,man,,,,null,,,,
null,are shouting at each other,,html-keyboard-response,56,259747,0.0-13.0-2.6,89400,List2A,white,man,,,,null,,,,
7241,,,survey-text,57,266990,0.0-13.0-3.6,89400,List2A,white,man,,,,,"{""Q0"":""Jane and Kate are shouting""}","<img src=""stim_listA/shout8.gif""</stim_listA>",are shouting at each other,
null,"<div style=""font-size:60px;"">+</div>",,html-keyboard-response,58,267491,0.0-13.0-0.7,89400,List2A,white,man,,,,null,,,,
null,"<img src=""stim_listA/meet7.gif""</stim_listA>",,html-keyboard-response,59,269494,0.0-13.0-1.7,89400,List2A,white,man,,,,null,,,,
null,is meeting,,html-keyboard-response,60,271495,0.0-13.0-2.7,89400,List2A,white,man,,,,null,,,,
4779,,,survey-text,61,276275,0.0-13.0-3.7,89400,List2A,white,man,,,,,"{""Q0"":""Jane and Kate are meeting""}","<img src=""stim_listA/meet7.gif""</stim_listA>",is meeting,
null,"<div style=""font-size:60px;"">+</div>",,html-keyboard-response,62,276776,0.0-13.0-0.8,89400,List2A,white,man,,,,null,,,,
null,"<img src=""stim_listA/shout4.gif""</stim_listA>",,html-keyboard-response,63,278778,0.0-13.0-1.8,89400,List2A,white,man,,,,null,,,,
null,are shouting at each other,,html-keyboard-response,64,280779,0.0-13.0-2.8,89400,List2A,white,man,,,,null,,,,
9330,,,survey-text,65,290110,0.0-13.0-3.8,89400,List2A,white,man,,,,,"{""Q0"":""Kate and Mike are shouting at each other""}","<img src=""stim_listA/shout4.gif""</stim_listA>",are shouting at each other,
null,"<div style=""font-size:60px;"">+</div>",,html-keyboard-response,66,290613,0.0-13.0-0.9,89400,List2A,white,man,,,,null,,,,
null,"<img src=""stim_listA/hug4.gif""</stim_listA>",,html-keyboard-response,67,292615,0.0-13.0-1.9,89400,List2A,white,man,,,,null,,,,
null,are hugging each other,,html-keyboard-response,68,294620,0.0-13.0-2.9,89400,List2A,white,man,,,,null,,,,
5665,,,survey-text,69,300288,0.0-13.0-3.9,89400,List2A,white,man,,,,,"{""Q0"":""Kate and Mike are hugging each other""}","<img src=""stim_listA/hug4.gif""</stim_listA>",are hugging each other,
null,"<div style=""font-size:60px;"">+</div>",,html-keyboard-response,70,300791,0.0-13.0-0.10,89400,List2A,white,man,,,,null,,,,
null,"<img src=""stim_listA/marry3.gif""</stim_listA>",,html-keyboard-response,71,302792,0.0-13.0-1.10,89400,List2A,white,man,,,,null,,,,
null,is marrying,,html-keyboard-response,72,304793,0.0-13.0-2.10,89400,List2A,white,man,,,,null,,,,
7189,,,survey-text,73,311982,0.0-13.0-3.10,89400,List2A,white,man,,,,,"{""Q0"":""Mike and Beth are getting married""}","<img src=""stim_listA/marry3.gif""</stim_listA>",is marrying,
null,"<div style=""font-size:60px;"">+</div>",,html-keyboard-response,74,312485,0.0-13.0-0.11,89400,List2A,white,man,,,,null,,,,
null,"<img src=""stim_listA/marry6.gif""</stim_listA>",,html-keyboard-response,75,314488,0.0-13.0-1.11,89400,List2A,white,man,,,,null,,,,
null,are marrying each other,,html-keyboard-response,76,316489,0.0-13.0-2.11,89400,List2A,white,man,,,,null,,,,
7786,,,survey-text,77,324277,0.0-13.0-3.11,89400,List2A,white,man,,,,,"{""Q0"":""Mike and Luke are marrying each other""}","<img src=""stim_listA/marry6.gif""</stim_listA>",are marrying each other,
null,"<div style=""font-size:60px;"">+</div>",,html-keyboard-response,78,324779,0.0-13.0-0.12,89400,List2A,white,man,,,,null,,,,
null,"<img src=""stim_listA/argue3.gif""</stim_listA>",,html-keyboard-response,79,326781,0.0-13.0-1.12,89400,List2A,white,man,,,,null,,,,
null,is arguing with,,html-keyboard-response,80,328781,0.0-13.0-2.12,89400,List2A,white,man,,,,null,,,,
5748,,,survey-text,81,334531,0.0-13.0-3.12,89400,List2A,white,man,,,,,"{""Q0"":""Mike is arguing with Beth""}","<img src=""stim_listA/argue3.gif""</stim_listA>",is arguing with,
null,"<div style=""font-size:60px;"">+</div>",,html-keyboard-response,82,335032,0.0-13.0-0.13,89400,List2A,white,man,,,,null,,,,
null,"<img src=""stim_listA/kiss4.gif""</stim_listA>",,html-keyboard-response,83,337033,0.0-13.0-1.13,89400,List2A,white,man,,,,null,,,,
null,are kissing each other,,html-keyboard-response,84,339041,0.0-13.0-2.13,89400,List2A,white,man,,,,null,,,,
8501,,,survey-text,85,347544,0.0-13.0-3.13,89400,List2A,white,man,,,,,"{""Q0"":""Kate and Mike are kissing""}","<img src=""stim_listA/kiss4.gif""</stim_listA>",are kissing each other,
null,"<div style=""font-size:60px;"">+</div>",,html-keyboard-response,86,348047,0.0-13.0-0.14,89400,List2A,white,man,,,,null,,,,
null,"<img src=""stim_listA/hug8.gif""</stim_listA>",,html-keyboard-response,87,350048,0.0-13.0-1.14,89400,List2A,white,man,,,,null,,,,
null,are hugging each other,,html-keyboard-response,88,352050,0.0-13.0-2.14,89400,List2A,white,man,,,,null,,,,
5239,,,survey-text,89,357290,0.0-13.0-3.14,89400,List2A,white,man,,,,,"{""Q0"":""Kate and Jane are hugging""}","<img src=""stim_listA/hug8.gif""</stim_listA>",are hugging each other,
null,"<div style=""font-size:60px;"">+</div>",,html-keyboard-response,90,357791,0.0-13.0-0.15,89400,List2A,white,man,,,,null,,,,
null,"<img src=""stim_listA/fight4.gif""</stim_listA>",,html-keyboard-response,91,359793,0.0-13.0-1.15,89400,List2A,white,man,,,,null,,,,
null,are fighting each other,,html-keyboard-response,92,361795,0.0-13.0-2.15,89400,List2A,white,man,,,,null,,,,
6641,,,survey-text,93,368436,0.0-13.0-3.15,89400,List2A,white,man,,,,,"{""Q0"":""Fred and Beth are fighting""}","<img src=""stim_listA/fight4.gif""</stim_listA>",are fighting each other,
null,"<div style=""font-size:60px;"">+</div>",,html-keyboard-response,94,368937,0.0-13.0-0.16,89400,List2A,white,man,,,,null,,,,
null,"<img src=""stim_listA/dance4.gif""</stim_listA>",,html-keyboard-response,95,370940,0.0-13.0-1.16,89400,List2A,white,man,,,,null,,,,
null,are dancing with each other,,html-keyboard-response,96,372942,0.0-13.0-2.16,89400,List2A,white,man,,,,null,,,,
8982,,,survey-text,97,381927,0.0-13.0-3.16,89400,List2A,white,man,,,,,"{""Q0"":""Mike and Beth are dancing with each other""}","<img src=""stim_listA/dance4.gif""</stim_listA>",are dancing with each other,
null,"<div style=""font-size:60px;"">+</div>",,html-keyboard-response,98,382429,0.0-13.0-0.17,89400,List2A,white,man,,,,null,,,,
null,"<img src=""stim_listA/talk2.gif""</stim_listA>",,html-keyboard-response,99,384432,0.0-13.0-1.17,89400,List2A,white,man,,,,null,,,,
null,are talking to each other,,html-keyboard-response,100,386435,0.0-13.0-2.17,89400,List2A,white,man,,,,null,,,,
5313,,,survey-text,101,391752,0.0-13.0-3.17,89400,List2A,white,man,,,,,"{""Q0"":""Ruth and Dave are talking""}","<img src=""stim_listA/talk2.gif""</stim_listA>",are talking to each other,
null,"<div style=""font-size:60px;"">+</div>",,html-keyboard-response,102,392254,0.0-13.0-0.18,89400,List2A,white,man,,,,null,,,,
null,"<img src=""stim_listA/marry8.gif""</stim_listA>",,html-keyboard-response,103,394258,0.0-13.0-1.18,89400,List2A,white,man,,,,null,,,,
null,are marrying each other,,html-keyboard-response,104,396260,0.0-13.0-2.18,89400,List2A,white,man,,,,null,,,,
5822,,,survey-text,105,402083,0.0-13.0-3.18,89400,List2A,white,man,,,,,"{""Q0"":""Ruth and Kate are marrying each other""}","<img src=""stim_listA/marry8.gif""</stim_listA>",are marrying each other,
null,"<div style=""font-size:60px;"">+</div>",,html-keyboard-response,106,402584,0.0-13.0-0.19,89400,List2A,white,man,,,,null,,,,
null,"<img src=""stim_listA/dance1.gif""</stim_listA>",,html-keyboard-response,107,404586,0.0-13.0-1.19,89400,List2A,white,man,,,,null,,,,
null,is dancing with,,html-keyboard-response,108,406586,0.0-13.0-2.19,89400,List2A,white,man,,,,null,,,,
6072,,,survey-text,109,412660,0.0-13.0-3.19,89400,List2A,white,man,,,,,"{""Q0"":""Jane is dancing with Luke""}","<img src=""stim_listA/dance1.gif""</stim_listA>",is dancing with,
5566,"<img src='img/portrait_matrix_list2.JPG' style='width:900px;height:500px;''></img><p>If you have memorised all the portraits and names and are ready to start, press Continue.</p><p><strong>Please note: Your memory of these faces will be tested 4 times during this experiment.</strong></p>",0,html-button-response,110,418228,0.0-14.0-0.0,89400,List2A,white,man,,,,,,,,
2558,"<img src=""portrait/BW1.jpg""style=""width:400px;height:400px;""></img>",0,html-button-response,111,421789,0.0-14.0-1.0,89400,List2A,white,man,,TRUE,0,,,,,
null,CORRECT,,html-keyboard-response,112,423291,0.0-14.0-2.0-0.0,89400,List2A,white,man,,,,null,,,,
2285,"<img src=""portrait/BM2.jpg""style=""width:400px;height:400px;""></img>",5,html-button-response,113,425577,0.0-14.0-4.0,89400,List2A,white,man,,TRUE,5,,,,,
null,CORRECT,,html-keyboard-response,114,427081,0.0-14.0-5.0-0.0,89400,List2A,white,man,,,,null,,,,
2658,"<img src=""portrait/WM2.jpg""style=""width:400px;height:400px;""></img>",7,html-button-response,115,429742,0.0-14.0-7.0,89400,List2A,white,man,,TRUE,7,,,,,
null,CORRECT,,html-keyboard-response,116,431245,0.0-14.0-8.0-0.0,89400,List2A,white,man,,,,null,,,,
2377,"<img src=""portrait/BM1.jpg""style=""width:400px;height:400px;""></img>",4,html-button-response,117,433624,0.0-14.0-10.0,89400,List2A,white,man,,TRUE,4,,,,,
null,CORRECT,,html-keyboard-response,118,435126,0.0-14.0-11.0-0.0,89400,List2A,white,man,,,,null,,,,
3439,"<img src=""portrait/WM1.jpg""style=""width:400px;height:400px;""></img>",6,html-button-response,119,438567,0.0-14.0-13.0,89400,List2A,white,man,,TRUE,6,,,,,
null,CORRECT,,html-keyboard-response,120,440071,0.0-14.0-14.0-0.0,89400,List2A,white,man,,,,null,,,,
2464,"<img src=""portrait/BW2.jpg""style=""width:400px;height:400px;""></img>",2,html-button-response,121,442536,0.0-14.0-16.0,89400,List2A,white,man,,TRUE,2,,,,,
null,CORRECT,,html-keyboard-response,122,444039,0.0-14.0-17.0-0.0,89400,List2A,white,man,,,,null,,,,
4673,"<img src=""portrait/WW1.jpg""style=""width:400px;height:400px;""></img>",1,html-button-response,123,448712,0.0-14.0-19.0,89400,List2A,white,man,,TRUE,1,,,,,
null,CORRECT,,html-keyboard-response,124,450215,0.0-14.0-20.0-0.0,89400,List2A,white,man,,,,null,,,,
3225,"<img src=""portrait/WW2.jpg""style=""width:400px;height:400px;""></img>",3,html-button-response,125,453443,0.0-14.0-22.0,89400,List2A,white,man,,TRUE,3,,,,,
null,CORRECT,,html-keyboard-response,126,454945,0.0-14.0-23.0-0.0,89400,List2A,white,man,,,,null,,,,
1961,<p>You got 8 out of 8 right first time. Press Continue.</p>,0,html-button-response,127,456907,0.0-14.0-25.0,89400,List2A,white,man,,,,,,,,
null,"<div style=""font-size:60px;"">+</div>",,html-keyboard-response,128,458413,0.0-15.0-0.0,89400,List2A,white,man,,,,null,,,,
null,"<img src=""stim_listA/marry7.gif""</stim_listA>",,html-keyboard-response,129,460415,0.0-15.0-1.0,89400,List2A,white,man,,,,null,,,,
null,is marrying,,html-keyboard-response,130,462416,0.0-15.0-2.0,89400,List2A,white,man,,,,null,,,,
6683,,,survey-text,131,469101,0.0-15.0-3.0,89400,List2A,white,man,,,,,"{""Q0"":""Beth is marrying Jane""}","<img src=""stim_listA/marry7.gif""</stim_listA>",is marrying,
null,"<div style=""font-size:60px;"">+</div>",,html-keyboard-response,132,469602,0.0-15.0-0.1,89400,List2A,white,man,,,,null,,,,
null,"<img src=""stim_listA/talk4.gif""</stim_listA>",,html-keyboard-response,133,471605,0.0-15.0-1.1,89400,List2A,white,man,,,,null,,,,
null,are talking to each other,,html-keyboard-response,134,473606,0.0-15.0-2.1,89400,List2A,white,man,,,,null,,,,
6996,,,survey-text,135,480603,0.0-15.0-3.1,89400,List2A,white,man,,,,,"{""Q0"":""Beth and Mike are talking to each other""}","<img src=""stim_listA/talk4.gif""</stim_listA>",are talking to each other,
null,"<div style=""font-size:60px;"">+</div>",,html-keyboard-response,136,481104,0.0-15.0-0.2,89400,List2A,white,man,,,,null,,,,
null,"<img src=""stim_listA/meet4.gif""</stim_listA>",,html-keyboard-response,137,483106,0.0-15.0-1.2,89400,List2A,white,man,,,,null,,,,
null,are meeting each other,,html-keyboard-response,138,485106,0.0-15.0-2.2,89400,List2A,white,man,,,,null,,,,
6265,,,survey-text,139,491372,0.0-15.0-3.2,89400,List2A,white,man,,,,,"{""Q0"":""Beth and Fred are meeting each other""}","<img src=""stim_listA/meet4.gif""</stim_listA>",are meeting each other,
null,"<div style=""font-size:60px;"">+</div>",,html-keyboard-response,140,491874,0.0-15.0-0.3,89400,List2A,white,man,,,,null,,,,
null,"<img src=""stim_listA/hug1.gif""</stim_listA>",,html-keyboard-response,141,493876,0.0-15.0-1.3,89400,List2A,white,man,,,,null,,,,
null,is hugging,,html-keyboard-response,142,495877,0.0-15.0-2.3,89400,List2A,white,man,,,,null,,,,
9620,,,survey-text,143,505498,0.0-15.0-3.3,89400,List2A,white,man,,,,,"{""Q0"":""Luke is hugging Ruth""}","<img src=""stim_listA/hug1.gif""</stim_listA>",is hugging,
null,"<div style=""font-size:60px;"">+</div>",,html-keyboard-response,144,506000,0.0-15.0-0.4,89400,List2A,white,man,,,,null,,,,
null,"<img src=""stim_listA/hug2.gif""</stim_listA>",,html-keyboard-response,145,508001,0.0-15.0-1.4,89400,List2A,white,man,,,,null,,,,
null,are hugging each other,,html-keyboard-response,146,510004,0.0-15.0-2.4,89400,List2A,white,man,,,,null,,,,
7634,,,survey-text,147,517639,0.0-15.0-3.4,89400,List2A,white,man,,,,,"{""Q0"":""Jane and Dave are hugging each other""}","<img src=""stim_listA/hug2.gif""</stim_listA>",are hugging each other,
null,"<div style=""font-size:60px;"">+</div>",,html-keyboard-response,148,518142,0.0-15.0-0.5,89400,List2A,white,man,,,,null,,,,
null,"<img src=""stim_listA/kiss5.gif""</stim_listA>",,html-keyboard-response,149,520146,0.0-15.0-1.5,89400,List2A,white,man,,,,null,,,,
null,is kissing,,html-keyboard-response,150,522149,0.0-15.0-2.5,89400,List2A,white,man,,,,null,,,,
6522,,,survey-text,151,528673,0.0-15.0-3.5,89400,List2A,white,man,,,,,"{""Q0"":""Luke is kissing Fred""}","<img src=""stim_listA/kiss5.gif""</stim_listA>",is kissing,
null,"<div style=""font-size:60px;"">+</div>",,html-keyboard-response,152,529175,0.0-15.0-0.6,89400,List2A,white,man,,,,null,,,,
null,"<img src=""stim_listA/talk6.gif""</stim_listA>",,html-keyboard-response,153,531177,0.0-15.0-1.6,89400,List2A,white,man,,,,null,,,,
null,are talking to each other,,html-keyboard-response,154,533178,0.0-15.0-2.6,89400,List2A,white,man,,,,null,,,,
6390,,,survey-text,155,539569,0.0-15.0-3.6,89400,List2A,white,man,,,,,"{""Q0"":""Fred and Dave are talking to each other""}","<img src=""stim_listA/talk6.gif""</stim_listA>",are talking to each other,
null,"<div style=""font-size:60px;"">+</div>",,html-keyboard-response,156,540071,0.0-15.0-0.7,89400,List2A,white,man,,,,null,,,,
null,"<img src=""stim_listA/talk5.gif""</stim_listA>",,html-keyboard-response,157,542073,0.0-15.0-1.7,89400,List2A,white,man,,,,null,,,,
null,is talking to,,html-keyboard-response,158,544076,0.0-15.0-2.7,89400,List2A,white,man,,,,null,,,,
5295,,,survey-text,159,549373,0.0-15.0-3.7,89400,List2A,white,man,,,,,"{""Q0"":""Mike is talking to Luke""}","<img src=""stim_listA/talk5.gif""</stim_listA>",is talking to,
null,"<div style=""font-size:60px;"">+</div>",,html-keyboard-response,160,549874,0.0-15.0-0.8,89400,List2A,white,man,,,,null,,,,
null,"<img src=""stim_listA/meet2.gif""</stim_listA>",,html-keyboard-response,161,551877,0.0-15.0-1.8,89400,List2A,white,man,,,,null,,,,
null,are meeting each other,,html-keyboard-response,162,553881,0.0-15.0-2.8,89400,List2A,white,man,,,,null,,,,
5914,,,survey-text,163,559797,0.0-15.0-3.8,89400,List2A,white,man,,,,,"{""Q0"":""Ruth and Luke are meeting each other""}","<img src=""stim_listA/meet2.gif""</stim_listA>",are meeting each other,
null,"<div style=""font-size:60px;"">+</div>",,html-keyboard-response,164,560300,0.0-15.0-0.9,89400,List2A,white,man,,,,null,,,,
null,"<img src=""stim_listA/argue6.gif""</stim_listA>",,html-keyboard-response,165,562303,0.0-15.0-1.9,89400,List2A,white,man,,,,null,,,,
null,are arguing with each other,,html-keyboard-response,166,564305,0.0-15.0-2.9,89400,List2A,white,man,,,,null,,,,
7586,,,survey-text,167,571892,0.0-15.0-3.9,89400,List2A,white,man,,,,,"{""Q0"":""Luke and Mike are arguing with each other""}","<img src=""stim_listA/argue6.gif""</stim_listA>",are arguing with each other,
null,"<div style=""font-size:60px;"">+</div>",,html-keyboard-response,168,572395,0.0-15.0-0.10,89400,List2A,white,man,,,,null,,,,
null,"<img src=""stim_listA/meet3.gif""</stim_listA>",,html-keyboard-response,169,574396,0.0-15.0-1.10,89400,List2A,white,man,,,,null,,,,
null,is meeting,,html-keyboard-response,170,576397,0.0-15.0-2.10,89400,List2A,white,man,,,,null,,,,
4668,,,survey-text,171,581067,0.0-15.0-3.10,89400,List2A,white,man,,,,,"{""Q0"":""Mike is meeting Kate""}","<img src=""stim_listA/meet3.gif""</stim_listA>",is meeting,
null,"<div style=""font-size:60px;"">+</div>",,html-keyboard-response,172,581569,0.0-15.0-0.11,89400,List2A,white,man,,,,null,,,,
null,"<img src=""stim_listA/argue2.gif""</stim_listA>",,html-keyboard-response,173,583570,0.0-15.0-1.11,89400,List2A,white,man,,,,null,,,,
null,are arguing with each other,,html-keyboard-response,174,585572,0.0-15.0-2.11,89400,List2A,white,man,,,,null,,,,
7640,,,survey-text,175,593212,0.0-15.0-3.11,89400,List2A,white,man,,,,,"{""Q0"":""Luke and Jane are arguing with each other""}","<img src=""stim_listA/argue2.gif""</stim_listA>",are arguing with each other,
null,"<div style=""font-size:60px;"">+</div>",,html-keyboard-response,176,593713,0.0-15.0-0.12,89400,List2A,white,man,,,,null,,,,
null,"<img src=""stim_listA/touch8.gif""</stim_listA>",,html-keyboard-response,177,595715,0.0-15.0-1.12,89400,List2A,white,man,,,,null,,,,
null,are touching each other,,html-keyboard-response,178,597716,0.0-15.0-2.12,89400,List2A,white,man,,,,null,,,,
8370,,,survey-text,179,606088,0.0-15.0-3.12,89400,List2A,white,man,,,,,"{""Q0"":""Beth and Ruth are touching each other""}","<img src=""stim_listA/touch8.gif""</stim_listA>",are touching each other,
null,"<div style=""font-size:60px;"">+</div>",,html-keyboard-response,180,606589,0.0-15.0-0.13,89400,List2A,white,man,,,,null,,,,
null,"<img src=""stim_listA/fight3.gif""</stim_listA>",,html-keyboard-response,181,608591,0.0-15.0-1.13,89400,List2A,white,man,,,,null,,,,
null,is fighting,,html-keyboard-response,182,610591,0.0-15.0-2.13,89400,List2A,white,man,,,,null,,,,
5517,,,survey-text,183,616109,0.0-15.0-3.13,89400,List2A,white,man,,,,,"{""Q0"":""Kate is fighting Mike""}","<img src=""stim_listA/fight3.gif""</stim_listA>",is fighting,
null,"<div style=""font-size:60px;"">+</div>",,html-keyboard-response,184,616610,0.0-15.0-0.14,89400,List2A,white,man,,,,null,,,,
null,"<img src=""stim_listA/kiss8.gif""</stim_listA>",,html-keyboard-response,185,618611,0.0-15.0-1.14,89400,List2A,white,man,,,,null,,,,
null,are kissing each other,,html-keyboard-response,186,620612,0.0-15.0-2.14,89400,List2A,white,man,,,,null,,,,
6856,,,survey-text,187,627470,0.0-15.0-3.14,89400,List2A,white,man,,,,,"{""Q0"":""Kate and Jane are kissing""}","<img src=""stim_listA/kiss8.gif""</stim_listA>",are kissing each other,
null,"<div style=""font-size:60px;"">+</div>",,html-keyboard-response,188,627970,0.0-15.0-0.15,89400,List2A,white,man,,,,null,,,,
null,"<img src=""stim_listA/talk8.gif""</stim_listA>",,html-keyboard-response,189,629973,0.0-15.0-1.15,89400,List2A,white,man,,,,null,,,,
null,are talking to each other,,html-keyboard-response,190,631974,0.0-15.0-2.15,89400,List2A,white,man,,,,null,,,,
6504,,,survey-text,191,638479,0.0-15.0-3.15,89400,List2A,white,man,,,,,"{""Q0"":""Jane and Beth are talking to each other""}","<img src=""stim_listA/talk8.gif""</stim_listA>",are talking to each other,
null,"<div style=""font-size:60px;"">+</div>",,html-keyboard-response,192,638982,0.0-15.0-0.16,89400,List2A,white,man,,,,null,,,,
null,"<img src=""stim_listA/touch3.gif""</stim_listA>",,html-keyboard-response,193,640984,0.0-15.0-1.16,89400,List2A,white,man,,,,null,,,,
null,is touching,,html-keyboard-response,194,642986,0.0-15.0-2.16,89400,List2A,white,man,,,,null,,,,
7534,,,survey-text,195,650520,0.0-15.0-3.16,89400,List2A,white,man,,,,,"{""Q0"":""Kate is touching Mike""}","<img src=""stim_listA/touch3.gif""</stim_listA>",is touching,
null,"<div style=""font-size:60px;"">+</div>",,html-keyboard-response,196,651022,0.0-15.0-0.17,89400,List2A,white,man,,,,null,,,,
null,"<img src=""stim_listA/fight8.gif""</stim_listA>",,html-keyboard-response,197,653025,0.0-15.0-1.17,89400,List2A,white,man,,,,null,,,,
null,are fighting each other,,html-keyboard-response,198,655026,0.0-15.0-2.17,89400,List2A,white,man,,,,null,,,,
9117,,,survey-text,199,664144,0.0-15.0-3.17,89400,List2A,white,man,,,,,"{""Q0"":""Beth and Ruth are fighting each other""}","<img src=""stim_listA/fight8.gif""</stim_listA>",are fighting each other,
null,"<div style=""font-size:60px;"">+</div>",,html-keyboard-response,200,664645,0.0-15.0-0.18,89400,List2A,white,man,,,,null,,,,
null,"<img src=""stim_listA/marry2.gif""</stim_listA>",,html-keyboard-response,201,666648,0.0-15.0-1.18,89400,List2A,white,man,,,,null,,,,
null,are marrying each other,,html-keyboard-response,202,668651,0.0-15.0-2.18,89400,List2A,white,man,,,,null,,,,
10394,,,survey-text,203,679045,0.0-15.0-3.18,89400,List2A,white,man,,,,,"{""Q0"":""Luke and Jane are marrying each other""}","<img src=""stim_listA/marry2.gif""</stim_listA>",are marrying each other,
null,"<div style=""font-size:60px;"">+</div>",,html-keyboard-response,204,679549,0.0-15.0-0.19,89400,List2A,white,man,,,,null,,,,
null,"<img src=""stim_listA/dance6.gif""</stim_listA>",,html-keyboard-response,205,681553,0.0-15.0-1.19,89400,List2A,white,man,,,,null,,,,
null,are dancing with each other,,html-keyboard-response,206,683559,0.0-15.0-2.19,89400,List2A,white,man,,,,null,,,,
9150,,,survey-text,207,692712,0.0-15.0-3.19,89400,List2A,white,man,,,,,"{""Q0"":""Fred and Dave are dancing with each other""}","<img src=""stim_listA/dance6.gif""</stim_listA>",are dancing with each other,
14167,"<img src='img/portrait_matrix_list2.JPG' style='width:900px;height:500px;''></img><p>If you have memorised all the portraits and names and are ready to start, press Continue.</p><p><strong>Please note: Your memory of these faces will be tested 4 times during this experiment.</strong></p>",0,html-button-response,208,706881,0.0-16.0-0.0,89400,List2A,white,man,,,,,,,,
1458,"<img src=""portrait/WW2.jpg""style=""width:400px;height:400px;""></img>",3,html-button-response,209,709340,0.0-16.0-1.0,89400,List2A,white,man,,TRUE,3,,,,,
null,CORRECT,,html-keyboard-response,210,710845,0.0-16.0-2.0-0.0,89400,List2A,white,man,,,,null,,,,
2549,"<img src=""portrait/BM1.jpg""style=""width:400px;height:400px;""></img>",4,html-button-response,211,713397,0.0-16.0-4.0,89400,List2A,white,man,,TRUE,4,,,,,
null,CORRECT,,html-keyboard-response,212,714900,0.0-16.0-5.0-0.0,89400,List2A,white,man,,,,null,,,,
2668,"<img src=""portrait/WW1.jpg""style=""width:400px;height:400px;""></img>",1,html-button-response,213,717574,0.0-16.0-7.0,89400,List2A,white,man,,TRUE,1,,,,,
null,CORRECT,,html-keyboard-response,214,719078,0.0-16.0-8.0-0.0,89400,List2A,white,man,,,,null,,,,
1998,"<img src=""portrait/WM2.jpg""style=""width:400px;height:400px;""></img>",7,html-button-response,215,721078,0.0-16.0-10.0,89400,List2A,white,man,,TRUE,7,,,,,
null,CORRECT,,html-keyboard-response,216,722581,0.0-16.0-11.0-0.0,89400,List2A,white,man,,,,null,,,,
2359,"<img src=""portrait/BW2.jpg""style=""width:400px;height:400px;""></img>",2,html-button-response,217,724942,0.0-16.0-13.0,89400,List2A,white,man,,TRUE,2,,,,,
null,CORRECT,,html-keyboard-response,218,726445,0.0-16.0-14.0-0.0,89400,List2A,white,man,,,,null,,,,
3031,"<img src=""portrait/WM1.jpg""style=""width:400px;height:400px;""></img>",6,html-button-response,219,729480,0.0-16.0-16.0,89400,List2A,white,man,,TRUE,6,,,,,
null,CORRECT,,html-keyboard-response,220,730986,0.0-16.0-17.0-0.0,89400,List2A,white,man,,,,null,,,,
5095,"<img src=""portrait/BW1.jpg""style=""width:400px;height:400px;""></img>",0,html-button-response,221,736082,0.0-16.0-19.0,89400,List2A,white,man,,TRUE,0,,,,,
null,CORRECT,,html-keyboard-response,222,737587,0.0-16.0-20.0-0.0,89400,List2A,white,man,,,,null,,,,
3020,"<img src=""portrait/BM2.jpg""style=""width:400px;height:400px;""></img>",5,html-button-response,223,740610,0.0-16.0-22.0,89400,List2A,white,man,,TRUE,5,,,,,
null,CORRECT,,html-keyboard-response,224,742114,0.0-16.0-23.0-0.0,89400,List2A,white,man,,,,null,,,,
10509,<p>You got 8 out of 8 right first time. Press Continue.</p>,0,html-button-response,225,752633,0.0-16.0-25.0,89400,List2A,white,man,,,,,,,,
null,"<div style=""font-size:60px;"">+</div>",,html-keyboard-response,226,754142,0.0-17.0-0.0,89400,List2A,white,man,,,,null,,,,
null,"<img src=""stim_listA/shout5.gif""</stim_listA>",,html-keyboard-response,227,756148,0.0-17.0-1.0,89400,List2A,white,man,,,,null,,,,
null,is shouting at,,html-keyboard-response,228,758150,0.0-17.0-2.0,89400,List2A,white,man,,,,null,,,,
5277,,,survey-text,229,763428,0.0-17.0-3.0,89400,List2A,white,man,,,,,"{""Q0"":""Luke is shouting at Fred""}","<img src=""stim_listA/shout5.gif""</stim_listA>",is shouting at,
null,"<div style=""font-size:60px;"">+</div>",,html-keyboard-response,230,763931,0.0-17.0-0.1,89400,List2A,white,man,,,,null,,,,
null,"<img src=""stim_listA/shout6.gif""</stim_listA>",,html-keyboard-response,231,765934,0.0-17.0-1.1,89400,List2A,white,man,,,,null,,,,
null,are shouting at each other,,html-keyboard-response,232,767938,0.0-17.0-2.1,89400,List2A,white,man,,,,null,,,,
6833,,,survey-text,233,774774,0.0-17.0-3.1,89400,List2A,white,man,,,,,"{""Q0"":""Mike and Luke are shouting at each other""}","<img src=""stim_listA/shout6.gif""</stim_listA>",are shouting at each other,
null,"<div style=""font-size:60px;"">+</div>",,html-keyboard-response,234,775276,0.0-17.0-0.2,89400,List2A,white,man,,,,null,,,,
null,"<img src=""stim_listA/dance7.gif""</stim_listA>",,html-keyboard-response,235,777278,0.0-17.0-1.2,89400,List2A,white,man,,,,null,,,,
null,is dancing with,,html-keyboard-response,236,779281,0.0-17.0-2.2,89400,List2A,white,man,,,,null,,,,
6144,,,survey-text,237,785426,0.0-17.0-3.2,89400,List2A,white,man,,,,,"{""Q0"":""Kate is dancing with Ruth""}","<img src=""stim_listA/dance7.gif""</stim_listA>",is dancing with,
null,"<div style=""font-size:60px;"">+</div>",,html-keyboard-response,238,785927,0.0-17.0-0.3,89400,List2A,white,man,,,,null,,,,
null,"<img src=""stim_listA/hug7.gif""</stim_listA>",,html-keyboard-response,239,787930,0.0-17.0-1.3,89400,List2A,white,man,,,,null,,,,
null,is hugging,,html-keyboard-response,240,789933,0.0-17.0-2.3,89400,List2A,white,man,,,,null,,,,
5927,,,survey-text,241,795862,0.0-17.0-3.3,89400,List2A,white,man,,,,,"{""Q0"":""Beth is hugging Ruth""}","<img src=""stim_listA/hug7.gif""</stim_listA>",is hugging,
null,"<div style=""font-size:60px;"">+</div>",,html-keyboard-response,242,796364,0.0-17.0-0.4,89400,List2A,white,man,,,,null,,,,
null,"<img src=""stim_listA/shout7.gif""</stim_listA>",,html-keyboard-response,243,798366,0.0-17.0-1.4,89400,List2A,white,man,,,,null,,,,
null,is shouting at,,html-keyboard-response,244,800367,0.0-17.0-2.4,89400,List2A,white,man,,,,null,,,,
5819,,,survey-text,245,806187,0.0-17.0-3.4,89400,List2A,white,man,,,,,"{""Q0"":""Ruth is shouting at Beth""}","<img src=""stim_listA/shout7.gif""</stim_listA>",is shouting at,
null,"<div style=""font-size:60px;"">+</div>",,html-keyboard-response,246,806689,0.0-17.0-0.5,89400,List2A,white,man,,,,null,,,,
null,"<img src=""stim_listA/kiss2.gif""</stim_listA>",,html-keyboard-response,247,808692,0.0-17.0-1.5,89400,List2A,white,man,,,,null,,,,
null,are kissing each other,,html-keyboard-response,248,810693,0.0-17.0-2.5,89400,List2A,white,man,,,,null,,,,
8141,,,survey-text,249,818835,0.0-17.0-3.5,89400,List2A,white,man,,,,,"{""Q0"":""Dave and Jane are kissing each other""}","<img src=""stim_listA/kiss2.gif""</stim_listA>",are kissing each other,
null,"<div style=""font-size:60px;"">+</div>",,html-keyboard-response,250,819336,0.0-17.0-0.6,89400,List2A,white,man,,,,null,,,,
null,"<img src=""stim_listA/dance3.gif""</stim_listA>",,html-keyboard-response,251,821339,0.0-17.0-1.6,89400,List2A,white,man,,,,null,,,,
null,is dancing with,,html-keyboard-response,252,823341,0.0-17.0-2.6,89400,List2A,white,man,,,,null,,,,
5265,,,survey-text,253,828609,0.0-17.0-3.6,89400,List2A,white,man,,,,,"{""Q0"":""Kate is dancing with Fred""}","<img src=""stim_listA/dance3.gif""</stim_listA>",is dancing with,
null,"<div style=""font-size:60px;"">+</div>",,html-keyboard-response,254,829109,0.0-17.0-0.7,89400,List2A,white,man,,,,null,,,,
null,"<img src=""stim_listA/argue4.gif""</stim_listA>",,html-keyboard-response,255,831111,0.0-17.0-1.7,89400,List2A,white,man,,,,null,,,,
null,are arguing with each other,,html-keyboard-response,256,833113,0.0-17.0-2.7,89400,List2A,white,man,,,,null,,,,
12110,,,survey-text,257,845225,0.0-17.0-3.7,89400,List2A,white,man,,,,,"{""Q0"":""Kate is arguing with Fred""}","<img src=""stim_listA/argue4.gif""</stim_listA>",are arguing with each other,
null,"<div style=""font-size:60px;"">+</div>",,html-keyboard-response,258,845729,0.0-17.0-0.8,89400,List2A,white,man,,,,null,,,,
null,"<img src=""stim_listA/dance5.gif""</stim_listA>",,html-keyboard-response,259,847732,0.0-17.0-1.8,89400,List2A,white,man,,,,null,,,,
null,is dancing with,,html-keyboard-response,260,849732,0.0-17.0-2.8,89400,List2A,white,man,,,,null,,,,
4812,,,survey-text,261,854545,0.0-17.0-3.8,89400,List2A,white,man,,,,,"{""Q0"":""Mike is dancing with Luke""}","<img src=""stim_listA/dance5.gif""</stim_listA>",is dancing with,
null,"<div style=""font-size:60px;"">+</div>",,html-keyboard-response,262,855047,0.0-17.0-0.9,89400,List2A,white,man,,,,null,,,,
null,"<img src=""stim_listA/meet1.gif""</stim_listA>",,html-keyboard-response,263,857047,0.0-17.0-1.9,89400,List2A,white,man,,,,null,,,,
null,is meeting,,html-keyboard-response,264,859049,0.0-17.0-2.9,89400,List2A,white,man,,,,null,,,,
10637,,,survey-text,265,869688,0.0-17.0-3.9,89400,List2A,white,man,,,,,"{""Q0"":""Picture didn't come up!""}","<img src=""stim_listA/meet1.gif""</stim_listA>",is meeting,
null,"<div style=""font-size:60px;"">+</div>",,html-keyboard-response,266,870190,0.0-17.0-0.10,89400,List2A,white,man,,,,null,,,,
null,"<img src=""stim_listA/touch4.gif""</stim_listA>",,html-keyboard-response,267,872192,0.0-17.0-1.10,89400,List2A,white,man,,,,null,,,,
null,are touching each other,,html-keyboard-response,268,874194,0.0-17.0-2.10,89400,List2A,white,man,,,,null,,,,
8903,,,survey-text,269,883098,0.0-17.0-3.10,89400,List2A,white,man,,,,,"{""Q0"":""Beth and Fred are touching each other""}","<img src=""stim_listA/touch4.gif""</stim_listA>",are touching each other,
null,"<div style=""font-size:60px;"">+</div>",,html-keyboard-response,270,883600,0.0-17.0-0.11,89400,List2A,white,man,,,,null,,,,
null,"<img src=""stim_listA/touch2.gif""</stim_listA>",,html-keyboard-response,271,885602,0.0-17.0-1.11,89400,List2A,white,man,,,,null,,,,
null,are touching each other,,html-keyboard-response,272,887604,0.0-17.0-2.11,89400,List2A,white,man,,,,null,,,,
5241,,,survey-text,273,892846,0.0-17.0-3.11,89400,List2A,white,man,,,,,"{""Q0"":""Ruth and Luke are touching each other""}","<img src=""stim_listA/touch2.gif""</stim_listA>",are touching each other,
null,"<div style=""font-size:60px;"">+</div>",,html-keyboard-response,274,893347,0.0-17.0-0.12,89400,List2A,white,man,,,,null,,,,
null,"<img src=""stim_listA/meet6.gif""</stim_listA>",,html-keyboard-response,275,895348,0.0-17.0-1.12,89400,List2A,white,man,,,,null,,,,
null,are meeting each other,,html-keyboard-response,276,897350,0.0-17.0-2.12,89400,List2A,white,man,,,,null,,,,
6804,,,survey-text,277,904155,0.0-17.0-3.12,89400,List2A,white,man,,,,,"{""Q0"":""Luke and Fred are meeting each other""}","<img src=""stim_listA/meet6.gif""</stim_listA>",are meeting each other,
null,"<div style=""font-size:60px;"">+</div>",,html-keyboard-response,278,904657,0.0-17.0-0.13,89400,List2A,white,man,,,,null,,,,
null,"<img src=""stim_listA/hug3.gif""</stim_listA>",,html-keyboard-response,279,906659,0.0-17.0-1.13,89400,List2A,white,man,,,,null,,,,
null,is hugging,,html-keyboard-response,280,908660,0.0-17.0-2.13,89400,List2A,white,man,,,,null,,,,
7279,,,survey-text,281,915940,0.0-17.0-3.13,89400,List2A,white,man,,,,,"{""Q0"":""Fred is hugging Beth""}","<img src=""stim_listA/hug3.gif""</stim_listA>",is hugging,
null,"<div style=""font-size:60px;"">+</div>",,html-keyboard-response,282,916442,0.0-17.0-0.14,89400,List2A,white,man,,,,null,,,,
null,"<img src=""stim_listA/talk3.gif""</stim_listA>",,html-keyboard-response,283,918446,0.0-17.0-1.14,89400,List2A,white,man,,,,null,,,,
null,is talking to,,html-keyboard-response,284,920448,0.0-17.0-2.14,89400,List2A,white,man,,,,null,,,,
4121,,,survey-text,285,924569,0.0-17.0-3.14,89400,List2A,white,man,,,,,"{""Q0"":""Kate is talking to Fred""}","<img src=""stim_listA/talk3.gif""</stim_listA>",is talking to,
null,"<div style=""font-size:60px;"">+</div>",,html-keyboard-response,286,925070,0.0-17.0-0.15,89400,List2A,white,man,,,,null,,,,
null,"<img src=""stim_listA/touch6.gif""</stim_listA>",,html-keyboard-response,287,927072,0.0-17.0-1.15,89400,List2A,white,man,,,,null,,,,
null,are touching each other,,html-keyboard-response,288,929073,0.0-17.0-2.15,89400,List2A,white,man,,,,null,,,,
5306,,,survey-text,289,934381,0.0-17.0-3.15,89400,List2A,white,man,,,,,"{""Q0"":""Fred and Luke are touching each other""}","<img src=""stim_listA/touch6.gif""</stim_listA>",are touching each other,
null,"<div style=""font-size:60px;"">+</div>",,html-keyboard-response,290,934882,0.0-17.0-0.16,89400,List2A,white,man,,,,null,,,,
null,"<img src=""stim_listA/hug5.gif""</stim_listA>",,html-keyboard-response,291,936887,0.0-17.0-1.16,89400,List2A,white,man,,,,null,,,,
null,is hugging,,html-keyboard-response,292,938888,0.0-17.0-2.16,89400,List2A,white,man,,,,null,,,,
6623,,,survey-text,293,945512,0.0-17.0-3.16,89400,List2A,white,man,,,,,"{""Q0"":""Fred is hugging Luke""}","<img src=""stim_listA/hug5.gif""</stim_listA>",is hugging,
null,"<div style=""font-size:60px;"">+</div>",,html-keyboard-response,294,946013,0.0-17.0-0.17,89400,List2A,white,man,,,,null,,,,
null,"<img src=""stim_listA/marry1.gif""</stim_listA>",,html-keyboard-response,295,948016,0.0-17.0-1.17,89400,List2A,white,man,,,,null,,,,
null,is marrying,,html-keyboard-response,296,950018,0.0-17.0-2.17,89400,List2A,white,man,,,,null,,,,
6718,,,survey-text,297,956736,0.0-17.0-3.17,89400,List2A,white,man,,,,,"{""Q0"":""Ruth is marrying Luke""}","<img src=""stim_listA/marry1.gif""</stim_listA>",is marrying,
null,"<div style=""font-size:60px;"">+</div>",,html-keyboard-response,298,957237,0.0-17.0-0.18,89400,List2A,white,man,,,,null,,,,
null,"<img src=""stim_listA/talk7.gif""</stim_listA>",,html-keyboard-response,299,959239,0.0-17.0-1.18,89400,List2A,white,man,,,,null,,,,
null,is talking to,,html-keyboard-response,300,961242,0.0-17.0-2.18,89400,List2A,white,man,,,,null,,,,
3850,,,survey-text,301,965095,0.0-17.0-3.18,89400,List2A,white,man,,,,,"{""Q0"":""Ruth is talking to Kate""}","<img src=""stim_listA/talk7.gif""</stim_listA>",is talking to,
null,"<div style=""font-size:60px;"">+</div>",,html-keyboard-response,302,965598,0.0-17.0-0.19,89400,List2A,white,man,,,,null,,,,
null,"<img src=""stim_listA/argue1.gif""</stim_listA>",,html-keyboard-response,303,967602,0.0-17.0-1.19,89400,List2A,white,man,,,,null,,,,
null,is arguing with,,html-keyboard-response,304,969604,0.0-17.0-2.19,89400,List2A,white,man,,,,null,,,,
4393,,,survey-text,305,973999,0.0-17.0-3.19,89400,List2A,white,man,,,,,"{""Q0"":""Ruth is arguing with Dave""}","<img src=""stim_listA/argue1.gif""</stim_listA>",is arguing with,
1652,"<img src='img/portrait_matrix_list2.JPG' style='width:900px;height:500px;''></img><p>If you have memorised all the portraits and names and are ready to start, press Continue.</p><p><strong>Please note: Your memory of these faces will be tested 4 times during this experiment.</strong></p>",0,html-button-response,306,975653,0.0-18.0-0.0,89400,List2A,white,man,,,,,,,,
2191,"<img src=""portrait/WW2.jpg""style=""width:400px;height:400px;""></img>",3,html-button-response,307,978850,0.0-18.0-1.0,89400,List2A,white,man,,TRUE,3,,,,,
null,CORRECT,,html-keyboard-response,308,980354,0.0-18.0-2.0-0.0,89400,List2A,white,man,,,,null,,,,
2658,"<img src=""portrait/BW1.jpg""style=""width:400px;height:400px;""></img>",0,html-button-response,309,983016,0.0-18.0-4.0,89400,List2A,white,man,,TRUE,0,,,,,
null,CORRECT,,html-keyboard-response,310,984519,0.0-18.0-5.0-0.0,89400,List2A,white,man,,,,null,,,,
2726,"<img src=""portrait/WM1.jpg""style=""width:400px;height:400px;""></img>",6,html-button-response,311,987249,0.0-18.0-7.0,89400,List2A,white,man,,TRUE,6,,,,,
null,CORRECT,,html-keyboard-response,312,988750,0.0-18.0-8.0-0.0,89400,List2A,white,man,,,,null,,,,
1528,"<img src=""portrait/BM1.jpg""style=""width:400px;height:400px;""></img>",4,html-button-response,313,990281,0.0-18.0-10.0,89400,List2A,white,man,,TRUE,4,,,,,
null,CORRECT,,html-keyboard-response,314,991784,0.0-18.0-11.0-0.0,89400,List2A,white,man,,,,null,,,,
3167,"<img src=""portrait/WW1.jpg""style=""width:400px;height:400px;""></img>",1,html-button-response,315,994953,0.0-18.0-13.0,89400,List2A,white,man,,TRUE,1,,,,,
null,CORRECT,,html-keyboard-response,316,996455,0.0-18.0-14.0-0.0,89400,List2A,white,man,,,,null,,,,
3797,"<img src=""portrait/WM2.jpg""style=""width:400px;height:400px;""></img>",7,html-button-response,317,1000255,0.0-18.0-16.0,89400,List2A,white,man,,TRUE,7,,,,,
null,CORRECT,,html-keyboard-response,318,1001760,0.0-18.0-17.0-0.0,89400,List2A,white,man,,,,null,,,,
5713,"<img src=""portrait/BW2.jpg""style=""width:400px;height:400px;""></img>",2,html-button-response,319,1007477,0.0-18.0-19.0,89400,List2A,white,man,,TRUE,2,,,,,
null,CORRECT,,html-keyboard-response,320,1008981,0.0-18.0-20.0-0.0,89400,List2A,white,man,,,,null,,,,
1460,"<img src=""portrait/BM2.jpg""style=""width:400px;height:400px;""></img>",5,html-button-response,321,1010445,0.0-18.0-22.0,89400,List2A,white,man,,TRUE,5,,,,,
null,CORRECT,,html-keyboard-response,322,1011947,0.0-18.0-23.0-0.0,89400,List2A,white,man,,,,null,,,,
714,<p>You got 8 out of 8 right first time. Press Continue.</p>,0,html-button-response,323,1012667,0.0-18.0-25.0,89400,List2A,white,man,,,,,,,,
null,"<div style=""font-size:60px;"">+</div>",,html-keyboard-response,324,1014170,0.0-19.0-0.0,89400,List2A,white,man,,,,null,,,,
null,"<img src=""stim_listA/touch5.gif""</stim_listA>",,html-keyboard-response,325,1016173,0.0-19.0-1.0,89400,List2A,white,man,,,,null,,,,
null,is touching,,html-keyboard-response,326,1018174,0.0-19.0-2.0,89400,List2A,white,man,,,,null,,,,
4200,,,survey-text,327,1022377,0.0-19.0-3.0,89400,List2A,white,man,,,,,"{""Q0"":""Dave is touching Mike""}","<img src=""stim_listA/touch5.gif""</stim_listA>",is touching,
null,"<div style=""font-size:60px;"">+</div>",,html-keyboard-response,328,1022879,0.0-19.0-0.1,89400,List2A,white,man,,,,null,,,,
null,"<img src=""stim_listA/meet8.gif""</stim_listA>",,html-keyboard-response,329,1024890,0.0-19.0-1.1,89400,List2A,white,man,,,,null,,,,
null,are meeting each other,,html-keyboard-response,330,1026892,0.0-19.0-2.1,89400,List2A,white,man,,,,null,,,,
5427,,,survey-text,331,1032321,0.0-19.0-3.1,89400,List2A,white,man,,,,,"{""Q0"":""Beth and Ruth are meeting each other""}","<img src=""stim_listA/meet8.gif""</stim_listA>",are meeting each other,
null,"<div style=""font-size:60px;"">+</div>",,html-keyboard-response,332,1032822,0.0-19.0-0.2,89400,List2A,white,man,,,,null,,,,
null,"<img src=""stim_listA/talk1.gif""</stim_listA>",,html-keyboard-response,333,1034826,0.0-19.0-1.2,89400,List2A,white,man,,,,null,,,,
null,is talking to,,html-keyboard-response,334,1036827,0.0-19.0-2.2,89400,List2A,white,man,,,,null,,,,
5514,,,survey-text,335,1042343,0.0-19.0-3.2,89400,List2A,white,man,,,,,"{""Q0"":""Jane is talking to Ruth""}","<img src=""stim_listA/talk1.gif""</stim_listA>",is talking to,
null,"<div style=""font-size:60px;"">+</div>",,html-keyboard-response,336,1042846,0.0-19.0-0.3,89400,List2A,white,man,,,,null,,,,
null,"<img src=""stim_listA/fight2.gif""</stim_listA>",,html-keyboard-response,337,1044849,0.0-19.0-1.3,89400,List2A,white,man,,,,null,,,,
null,are fighting each other,,html-keyboard-response,338,1046853,0.0-19.0-2.3,89400,List2A,white,man,,,,null,,,,
5935,,,survey-text,339,1052788,0.0-19.0-3.3,89400,List2A,white,man,,,,,"{""Q0"":""Ruth and Luke are fighting each other""}","<img src=""stim_listA/fight2.gif""</stim_listA>",are fighting each other,
null,"<div style=""font-size:60px;"">+</div>",,html-keyboard-response,340,1053291,0.0-19.0-0.4,89400,List2A,white,man,,,,null,,,,
null,"<img src=""stim_listA/fight6.gif""</stim_listA>",,html-keyboard-response,341,1055295,0.0-19.0-1.4,89400,List2A,white,man,,,,null,,,,
null,are fighting each other,,html-keyboard-response,342,1057297,0.0-19.0-2.4,89400,List2A,white,man,,,,null,,,,
19216,,,survey-text,343,1076513,0.0-19.0-3.4,89400,List2A,white,man,,,,,"{""Q0"":""Luke and Fred are fighting each other""}","<img src=""stim_listA/fight6.gif""</stim_listA>",are fighting each other,
null,"<div style=""font-size:60px;"">+</div>",,html-keyboard-response,344,1077016,0.0-19.0-0.5,89400,List2A,white,man,,,,null,,,,
null,"<img src=""stim_listA/fight7.gif""</stim_listA>",,html-keyboard-response,345,1079020,0.0-19.0-1.5,89400,List2A,white,man,,,,null,,,,
null,is fighting,,html-keyboard-response,346,1081021,0.0-19.0-2.5,89400,List2A,white,man,,,,null,,,,
4393,,,survey-text,347,1085414,0.0-19.0-3.5,89400,List2A,white,man,,,,,"{""Q0"":""Jane is fighting Kate""}","<img src=""stim_listA/fight7.gif""</stim_listA>",is fighting,
null,"<div style=""font-size:60px;"">+</div>",,html-keyboard-response,348,1085915,0.0-19.0-0.6,89400,List2A,white,man,,,,null,,,,
null,"<img src=""stim_listA/hug6.gif""</stim_listA>",,html-keyboard-response,349,1087917,0.0-19.0-1.6,89400,List2A,white,man,,,,null,,,,
null,are hugging each other,,html-keyboard-response,350,1089920,0.0-19.0-2.6,89400,List2A,white,man,,,,null,,,,
5698,,,survey-text,351,1095619,0.0-19.0-3.6,89400,List2A,white,man,,,,,"{""Q0"":""Mike and Dave are hugging each other""}","<img src=""stim_listA/hug6.gif""</stim_listA>",are hugging each other,
null,"<div style=""font-size:60px;"">+</div>",,html-keyboard-response,352,1096121,0.0-19.0-0.7,89400,List2A,white,man,,,,null,,,,
null,"<img src=""stim_listA/kiss1.gif""</stim_listA>",,html-keyboard-response,353,1098124,0.0-19.0-1.7,89400,List2A,white,man,,,,null,,,,
null,is kissing,,html-keyboard-response,354,1100125,0.0-19.0-2.7,89400,List2A,white,man,,,,null,,,,
4991,,,survey-text,355,1105117,0.0-19.0-3.7,89400,List2A,white,man,,,,,"{""Q0"":""Luke is kissing Ruth""}","<img src=""stim_listA/kiss1.gif""</stim_listA>",is kissing,
null,"<div style=""font-size:60px;"">+</div>",,html-keyboard-response,356,1105619,0.0-19.0-0.8,89400,List2A,white,man,,,,null,,,,
null,"<img src=""stim_listA/argue8.gif""</stim_listA>",,html-keyboard-response,357,1107623,0.0-19.0-1.8,89400,List2A,white,man,,,,null,,,,
null,are arguing with each other,,html-keyboard-response,358,1109623,0.0-19.0-2.8,89400,List2A,white,man,,,,null,,,,
7230,,,survey-text,359,1116855,0.0-19.0-3.8,89400,List2A,white,man,,,,,"{""Q0"":""Kate and Ruth are aruging with each other""}","<img src=""stim_listA/argue8.gif""</stim_listA>",are arguing with each other,
null,"<div style=""font-size:60px;"">+</div>",,html-keyboard-response,360,1117357,0.0-19.0-0.9,89400,List2A,white,man,,,,null,,,,
null,"<img src=""stim_listA/kiss6.gif""</stim_listA>",,html-keyboard-response,361,1119359,0.0-19.0-1.9,89400,List2A,white,man,,,,null,,,,
null,are kissing each other,,html-keyboard-response,362,1121360,0.0-19.0-2.9,89400,List2A,white,man,,,,null,,,,
6086,,,survey-text,363,1127448,0.0-19.0-3.9,89400,List2A,white,man,,,,,"{""Q0"":""Dave and Mike are kissing each other""}","<img src=""stim_listA/kiss6.gif""</stim_listA>",are kissing each other,
null,"<div style=""font-size:60px;"">+</div>",,html-keyboard-response,364,1127949,0.0-19.0-0.10,89400,List2A,white,man,,,,null,,,,
null,"<img src=""stim_listA/marry4.gif""</stim_listA>",,html-keyboard-response,365,1129951,0.0-19.0-1.10,89400,List2A,white,man,,,,null,,,,
null,are marrying each other,,html-keyboard-response,366,1131954,0.0-19.0-2.10,89400,List2A,white,man,,,,null,,,,
9475,,,survey-text,367,1141429,0.0-19.0-3.10,89400,List2A,white,man,,,,,"{""Q0"":""Kate and Dave are marrying each other""}","<img src=""stim_listA/marry4.gif""</stim_listA>",are marrying each other,
null,"<div style=""font-size:60px;"">+</div>",,html-keyboard-response,368,1141931,0.0-19.0-0.11,89400,List2A,white,man,,,,null,,,,
null,"<img src=""stim_listA/dance2.gif""</stim_listA>",,html-keyboard-response,369,1143934,0.0-19.0-1.11,89400,List2A,white,man,,,,null,,,,
null,are dancing with each other,,html-keyboard-response,370,1145935,0.0-19.0-2.11,89400,List2A,white,man,,,,null,,,,
6813,,,survey-text,371,1152748,0.0-19.0-3.11,89400,List2A,white,man,,,,,"{""Q0"":""Ruth and Dave are dancing with each other""}","<img src=""stim_listA/dance2.gif""</stim_listA>",are dancing with each other,
null,"<div style=""font-size:60px;"">+</div>",,html-keyboard-response,372,1153249,0.0-19.0-0.12,89400,List2A,white,man,,,,null,,,,
null,"<img src=""stim_listA/shout3.gif""</stim_listA>",,html-keyboard-response,373,1155251,0.0-19.0-1.12,89400,List2A,white,man,,,,null,,,,
null,is shouting at,,html-keyboard-response,374,1157254,0.0-19.0-2.12,89400,List2A,white,man,,,,null,,,,
7850,,,survey-text,375,1165104,0.0-19.0-3.12,89400,List2A,white,man,,,,,"{""Q0"":""Beth is shouting at Fred""}","<img src=""stim_listA/shout3.gif""</stim_listA>",is shouting at,
null,"<div style=""font-size:60px;"">+</div>",,html-keyboard-response,376,1165604,0.0-19.0-0.13,89400,List2A,white,man,,,,null,,,,
null,"<img src=""stim_listA/touch1.gif""</stim_listA>",,html-keyboard-response,377,1167607,0.0-19.0-1.13,89400,List2A,white,man,,,,null,,,,
null,is touching,,html-keyboard-response,378,1169608,0.0-19.0-2.13,89400,List2A,white,man,,,,null,,,,
4657,,,survey-text,379,1174268,0.0-19.0-3.13,89400,List2A,white,man,,,,,"{""Q0"":""Jane is touching Dave""}","<img src=""stim_listA/touch1.gif""</stim_listA>",is touching,
null,"<div style=""font-size:60px;"">+</div>",,html-keyboard-response,380,1174769,0.0-19.0-0.14,89400,List2A,white,man,,,,null,,,,
null,"<img src=""stim_listA/shout1.gif""</stim_listA>",,html-keyboard-response,381,1176772,0.0-19.0-1.14,89400,List2A,white,man,,,,null,,,,
null,is shouting at,,html-keyboard-response,382,1178774,0.0-19.0-2.14,89400,List2A,white,man,,,,null,,,,
4810,,,survey-text,383,1183586,0.0-19.0-3.14,89400,List2A,white,man,,,,,"{""Q0"":""Luke is shouting at Ruth""}","<img src=""stim_listA/shout1.gif""</stim_listA>",is shouting at,
null,"<div style=""font-size:60px;"">+</div>",,html-keyboard-response,384,1184087,0.0-19.0-0.15,89400,List2A,white,man,,,,null,,,,
null,"<img src=""stim_listA/dance8.gif""</stim_listA>",,html-keyboard-response,385,1186090,0.0-19.0-1.15,89400,List2A,white,man,,,,null,,,,
null,are dancing with each other,,html-keyboard-response,386,1188091,0.0-19.0-2.15,89400,List2A,white,man,,,,null,,,,
10208,,,survey-text,387,1198302,0.0-19.0-3.15,89400,List2A,white,man,,,,,"{""Q0"":""Jane and Beth are dancing together""}","<img src=""stim_listA/dance8.gif""</stim_listA>",are dancing with each other,
null,"<div style=""font-size:60px;"">+</div>",,html-keyboard-response,388,1198805,0.0-19.0-0.16,89400,List2A,white,man,,,,null,,,,
null,"<img src=""stim_listA/fight5.gif""</stim_listA>",,html-keyboard-response,389,1200807,0.0-19.0-1.16,89400,List2A,white,man,,,,null,,,,
null,is fighting,,html-keyboard-response,390,1202808,0.0-19.0-2.16,89400,List2A,white,man,,,,null,,,,
4961,,,survey-text,391,1207770,0.0-19.0-3.16,89400,List2A,white,man,,,,,"{""Q0"":""Luke is fighting Mike""}","<img src=""stim_listA/fight5.gif""</stim_listA>",is fighting,
null,"<div style=""font-size:60px;"">+</div>",,html-keyboard-response,392,1208270,0.0-19.0-0.17,89400,List2A,white,man,,,,null,,,,
null,"<img src=""stim_listA/touch7.gif""</stim_listA>",,html-keyboard-response,393,1210274,0.0-19.0-1.17,89400,List2A,white,man,,,,null,,,,
null,is touching,,html-keyboard-response,394,1212276,0.0-19.0-2.17,89400,List2A,white,man,,,,null,,,,
4801,,,survey-text,395,1217077,0.0-19.0-3.17,89400,List2A,white,man,,,,,"{""Q0"":""Jane is touching Kate""}","<img src=""stim_listA/touch7.gif""</stim_listA>",is touching,
null,"<div style=""font-size:60px;"">+</div>",,html-keyboard-response,396,1217580,0.0-19.0-0.18,89400,List2A,white,man,,,,null,,,,
null,"<img src=""stim_listA/fight1.gif""</stim_listA>",,html-keyboard-response,397,1219582,0.0-19.0-1.18,89400,List2A,white,man,,,,null,,,,
null,is fighting,,html-keyboard-response,398,1221583,0.0-19.0-2.18,89400,List2A,white,man,,,,null,,,,
7707,,,survey-text,399,1229291,0.0-19.0-3.18,89400,List2A,white,man,,,,,"{""Q0"":""Dave is fighting Jane""}","<img src=""stim_listA/fight1.gif""</stim_listA>",is fighting,
null,"<div style=""font-size:60px;"">+</div>",,html-keyboard-response,400,1229794,0.0-19.0-0.19,89400,List2A,white,man,,,,null,,,,
null,"<img src=""stim_listA/kiss3.gif""</stim_listA>",,html-keyboard-response,401,1231797,0.0-19.0-1.19,89400,List2A,white,man,,,,null,,,,
null,is kissing,,html-keyboard-response,402,1233801,0.0-19.0-2.19,89400,List2A,white,man,,,,null,,,,
4059,,,survey-text,403,1237862,0.0-19.0-3.19,89400,List2A,white,man,,,,,"{""Q0"":""Fred is kissing Beth""}","<img src=""stim_listA/kiss3.gif""</stim_listA>",is kissing,
1844,<p>Thank you for completing that task.</p><p>The final part of this session is a short questionnaire.</p><p>Press Continue.</p>,0,html-button-response,404,1239708,0.0-20.0,89400,List2A,white,man,,,,,,,,
27556,,,survey-text,405,1268266,0.0-21.0,89400,List2A,white,man,,,,,"{""Q0"":""26"",""Q1"":""English"",""Q2"":""English"",""Q3"":""United Kingdom"",""Q4"":""White British"",""Q5"":""Male""}",,,demographics
57198,,,survey-likert,406,1325469,0.0-22.0,89400,List2A,white,man,,,,,"{""Q0"":0,""Q1"":1,""Q2"":0,""Q3"":0,""Q4"":0,""Q5"":6,""Q6"":3,""Q7"":1,""Q8"":2,""Q9"":1,""Q10"":2,""Q11"":3,""Q12"":2,""Q13"":2}",,,likert_race
40336,,,survey-likert,407,1365811,0.0-23.0,89400,List2A,white,man,,,,,"{""Q0"":2,""Q1"":2,""Q2"":5,""Q3"":5,""Q4"":2,""Q5"":5,""Q6"":3,""Q7"":4,""Q8"":5,""Q9"":5,""Q10"":2,""Q11"":2,""Q12"":4,""Q13"":3}",,,likert_gender
6027,,,survey-text,408,1371841,0.0-24.0,89400,List2A,white,man,,,,,"{""Q0"":""ccc""}",,,worker_id
22434,,,external-html,409,1394367,0.0-25.0,89400,List2A,white,man,debrief.html,,,,,,,
