rt,stimulus,button_pressed,trial_type,trial_index,time_elapsed,internal_node_id,subject,list,ppt_race,ppt_gender,url,first_guess,correct,key_press,responses,image_type,phrase_type,test_part
3145,Welcome to the experiment. Press Continue to begin.,0,html-button-response,0,3150,0.0-0.0,90974,List1A,black,woman,,,,,,,,
63436,,,external-html,1,67674,0.0-1.0,90974,List1A,black,woman,consent.html,,,,,,,
16445,"<p>On the next page, you will see portraits of 8 people and their names.</p><p>Your first task is to take a few minutes to memorise the names of these people.</p><p>You will have to recall their names during the rest of the experiment, so it is</p><p>essential that you try to memorise these people and their names as best as you can.</p><br><p><strong>You will then be tested on your memory of these names and portraits.</strong></p><br><p>The experiment will start after you have completed this memory test.</p><br><p>Ready?</p>",0,html-button-response,2,84121,0.0-2.0,90974,List1A,black,woman,,,,,,,,
38429,"<img src='img/portrait_matrix_list1.JPG' style='width:900px;height:500px;''></img><p>If you have memorised all the portraits and names and are ready to start, press Continue.</p><p><strong>Please note: Your memory of these faces will be tested 4 times during this experiment.</strong></p>",0,html-button-response,3,123554,0.0-3.0-0.0,90974,List1A,black,woman,,,,,,,,
2442,"<img src=""portrait/BW2.jpg""style=""width:400px;height:400px;""></img>",2,html-button-response,4,127002,0.0-3.0-1.0,90974,List1A,black,woman,,TRUE,2,,,,,
null,CORRECT,,html-keyboard-response,5,128513,0.0-3.0-2.0-0.0,90974,List1A,black,woman,,,,null,,,,
2671,"<img src=""portrait/BW1.jpg""style=""width:400px;height:400px;""></img>",0,html-button-response,6,131186,0.0-3.0-4.0,90974,List1A,black,woman,,TRUE,0,,,,,
null,CORRECT,,html-keyboard-response,7,132696,0.0-3.0-5.0-0.0,90974,List1A,black,woman,,,,null,,,,
2558,"<img src=""portrait/BM2.jpg""style=""width:400px;height:400px;""></img>",5,html-button-response,8,135256,0.0-3.0-7.0,90974,List1A,black,woman,,TRUE,5,,,,,
null,CORRECT,,html-keyboard-response,9,136763,0.0-3.0-8.0-0.0,90974,List1A,black,woman,,,,null,,,,
2401,"<img src=""portrait/WW1.jpg""style=""width:400px;height:400px;""></img>",1,html-button-response,10,139165,0.0-3.0-10.0,90974,List1A,black,woman,,TRUE,1,,,,,
null,CORRECT,,html-keyboard-response,11,140675,0.0-3.0-11.0-0.0,90974,List1A,black,woman,,,,null,,,,
4816,"<img src=""portrait/WM1.jpg""style=""width:400px;height:400px;""></img>",6,html-button-response,12,145493,0.0-3.0-13.0,90974,List1A,black,woman,,TRUE,6,,,,,
null,CORRECT,,html-keyboard-response,13,147005,0.0-3.0-14.0-0.0,90974,List1A,black,woman,,,,null,,,,
1582,"<img src=""portrait/WM2.jpg""style=""width:400px;height:400px;""></img>",7,html-button-response,14,148589,0.0-3.0-16.0,90974,List1A,black,woman,,TRUE,7,,,,,
null,CORRECT,,html-keyboard-response,15,150096,0.0-3.0-17.0-0.0,90974,List1A,black,woman,,,,null,,,,
1803,"<img src=""portrait/BM1.jpg""style=""width:400px;height:400px;""></img>",4,html-button-response,16,151901,0.0-3.0-19.0,90974,List1A,black,woman,,TRUE,4,,,,,
null,CORRECT,,html-keyboard-response,17,153413,0.0-3.0-20.0-0.0,90974,List1A,black,woman,,,,null,,,,
5334,"<img src=""portrait/WW2.jpg""style=""width:400px;height:400px;""></img>",3,html-button-response,18,158748,0.0-3.0-22.0,90974,List1A,black,woman,,TRUE,3,,,,,
null,CORRECT,,html-keyboard-response,19,160256,0.0-3.0-23.0-0.0,90974,List1A,black,woman,,,,null,,,,
2782,<p>You got 8 out of 8 right first time. Press Continue.</p>,0,html-button-response,20,163040,0.0-3.0-25.0,90974,List1A,black,woman,,,,,,,,
48136,"<p>In this experiment, you will view photographs of the people from the memory game interacting.</p><p>By using the <strong>exact</strong> phrase given <i>after</i> the photograph appears and recalling the correct names of the people in the photographs, form a sentence describing the interaction. You do not need to capitalise names.</p><p>Type your answer in the space provided. Please complete every sentence before moving onto the next trial.</p><p>You will only have a few seconds to memorise each given photograph and phrase before you can respond, so try your best to focus.</p><p>An example is given below. Press 'Continue' when you are ready.</p><img src='img/speaking_example_v2.jpg' style='width:800px;height:460px;''></img>",0,html-button-response,21,212179,0.0-4.0,90974,List1A,black,woman,,,,,,,,
4061,"<p>Before the experiment starts, you will watch two example trials. Press 'Continue'.</p>",0,html-button-response,22,217242,0.0-5.0,90974,List1A,black,woman,,,,,,,,
null,<img src='img/speaking_WW.gif'></img>,,html-keyboard-response,23,220250,0.0-6.0,90974,List1A,black,woman,,,,null,,,,
null,<p>is speaking to</p>,,html-keyboard-response,24,222257,0.0-7.0,90974,List1A,black,woman,,,,null,,,,
6661,<p><b>Answer:</b> kate is speaking to beth</p>,0,html-button-response,25,228918,0.0-8.0,90974,List1A,black,woman,,,,,,,,
null,<img src='img/pointing_BM.gif'></img>,,html-keyboard-response,26,231929,0.0-9.0,90974,List1A,black,woman,,,,null,,,,
null,<p>are pointing at each other</p>,,html-keyboard-response,27,233932,0.0-10.0,90974,List1A,black,woman,,,,null,,,,
12481,<p><b>Answer:</b> luke and dave are pointing at each other</p>,0,html-button-response,28,246413,0.0-11.0,90974,List1A,black,woman,,,,,,,,
9205,"<p>Ready to start the experiment?</p><br><p><strong>Remember to describe the picture using a full sentence,</strong></p><p><strong> that combines the names of the people with the given phrase.</strong></p><p><strong> You do not need to capitalise names or use punctuation.</strong></p><br><p>Press 'Continue' to begin.</p>",0,html-button-response,29,256623,0.0-12.0,90974,List1A,black,woman,,,,,,,,
null,"<div style=""font-size:60px;"">+</div>",,html-keyboard-response,30,258131,0.0-13.0-0.0,90974,List1A,black,woman,,,,null,,,,
null,"<img src=""stim_listA/touch7.gif""</stim_listA>",,html-keyboard-response,31,260136,0.0-13.0-1.0,90974,List1A,black,woman,,,,null,,,,
null,is touching,,html-keyboard-response,32,262140,0.0-13.0-2.0,90974,List1A,black,woman,,,,null,,,,
27652,,,survey-text,33,289794,0.0-13.0-3.0,90974,List1A,black,woman,,,,,"{""Q0"":""beth and jane are touching""}","<img src=""stim_listA/touch7.gif""</stim_listA>",is touching,
null,"<div style=""font-size:60px;"">+</div>",,html-keyboard-response,34,290298,0.0-13.0-0.1,90974,List1A,black,woman,,,,null,,,,
null,"<img src=""stim_listA/marry2.gif""</stim_listA>",,html-keyboard-response,35,292304,0.0-13.0-1.1,90974,List1A,black,woman,,,,null,,,,
null,are marrying each other,,html-keyboard-response,36,294305,0.0-13.0-2.1,90974,List1A,black,woman,,,,null,,,,
29228,,,survey-text,37,323535,0.0-13.0-3.1,90974,List1A,black,woman,,,,,"{""Q0"":""beth and fred are marrying each other""}","<img src=""stim_listA/marry2.gif""</stim_listA>",are marrying each other,
null,"<div style=""font-size:60px;"">+</div>",,html-keyboard-response,38,324041,0.0-13.0-0.2,90974,List1A,black,woman,,,,null,,,,
null,"<img src=""stim_listA/hug6.gif""</stim_listA>",,html-keyboard-response,39,326046,0.0-13.0-1.2,90974,List1A,black,woman,,,,null,,,,
null,are hugging each other,,html-keyboard-response,40,328051,0.0-13.0-2.2,90974,List1A,black,woman,,,,null,,,,
14374,,,survey-text,41,342427,0.0-13.0-3.2,90974,List1A,black,woman,,,,,"{""Q0"":""dave and mike are hugging each other""}","<img src=""stim_listA/hug6.gif""</stim_listA>",are hugging each other,
null,"<div style=""font-size:60px;"">+</div>",,html-keyboard-response,42,342933,0.0-13.0-0.3,90974,List1A,black,woman,,,,null,,,,
null,"<img src=""stim_listA/talk6.gif""</stim_listA>",,html-keyboard-response,43,344934,0.0-13.0-1.3,90974,List1A,black,woman,,,,null,,,,
null,are talking to each other,,html-keyboard-response,44,346938,0.0-13.0-2.3,90974,List1A,black,woman,,,,null,,,,
18648,,,survey-text,45,365588,0.0-13.0-3.3,90974,List1A,black,woman,,,,,"{""Q0"":""luke and mike are talking to each other""}","<img src=""stim_listA/talk6.gif""</stim_listA>",are talking to each other,
null,"<div style=""font-size:60px;"">+</div>",,html-keyboard-response,46,366094,0.0-13.0-0.4,90974,List1A,black,woman,,,,null,,,,
null,"<img src=""stim_listA/hug5.gif""</stim_listA>",,html-keyboard-response,47,368096,0.0-13.0-1.4,90974,List1A,black,woman,,,,null,,,,
null,is hugging,,html-keyboard-response,48,370101,0.0-13.0-2.4,90974,List1A,black,woman,,,,null,,,,
20051,,,survey-text,49,390154,0.0-13.0-3.4,90974,List1A,black,woman,,,,,"{""Q0"":""fred and luke are hugging each other""}","<img src=""stim_listA/hug5.gif""</stim_listA>",is hugging,
null,"<div style=""font-size:60px;"">+</div>",,html-keyboard-response,50,390659,0.0-13.0-0.5,90974,List1A,black,woman,,,,null,,,,
null,"<img src=""stim_listA/hug1.gif""</stim_listA>",,html-keyboard-response,51,392665,0.0-13.0-1.5,90974,List1A,black,woman,,,,null,,,,
null,is hugging,,html-keyboard-response,52,394666,0.0-13.0-2.5,90974,List1A,black,woman,,,,null,,,,
12672,,,survey-text,53,407339,0.0-13.0-3.5,90974,List1A,black,woman,,,,,"{""Q0"":""beth and fred are hugging""}","<img src=""stim_listA/hug1.gif""</stim_listA>",is hugging,
null,"<div style=""font-size:60px;"">+</div>",,html-keyboard-response,54,407845,0.0-13.0-0.6,90974,List1A,black,woman,,,,null,,,,
null,"<img src=""stim_listA/marry7.gif""</stim_listA>",,html-keyboard-response,55,409853,0.0-13.0-1.6,90974,List1A,black,woman,,,,null,,,,
null,is marrying,,html-keyboard-response,56,411859,0.0-13.0-2.6,90974,List1A,black,woman,,,,null,,,,
31636,,,survey-text,57,443496,0.0-13.0-3.6,90974,List1A,black,woman,,,,,"{""Q0"":""ruth and jane are marrying each other""}","<img src=""stim_listA/marry7.gif""</stim_listA>",is marrying,
null,"<div style=""font-size:60px;"">+</div>",,html-keyboard-response,58,443999,0.0-13.0-0.7,90974,List1A,black,woman,,,,null,,,,
null,"<img src=""stim_listA/talk7.gif""</stim_listA>",,html-keyboard-response,59,446001,0.0-13.0-1.7,90974,List1A,black,woman,,,,null,,,,
null,is talking to,,html-keyboard-response,60,448002,0.0-13.0-2.7,90974,List1A,black,woman,,,,null,,,,
20996,,,survey-text,61,468998,0.0-13.0-3.7,90974,List1A,black,woman,,,,,"{""Q0"":""jane is talking to beth""}","<img src=""stim_listA/talk7.gif""</stim_listA>",is talking to,
null,"<div style=""font-size:60px;"">+</div>",,html-keyboard-response,62,469504,0.0-13.0-0.8,90974,List1A,black,woman,,,,null,,,,
null,"<img src=""stim_listA/meet5.gif""</stim_listA>",,html-keyboard-response,63,471511,0.0-13.0-1.8,90974,List1A,black,woman,,,,null,,,,
null,is meeting,,html-keyboard-response,64,473512,0.0-13.0-2.8,90974,List1A,black,woman,,,,null,,,,
15958,,,survey-text,65,489472,0.0-13.0-3.8,90974,List1A,black,woman,,,,,"{""Q0"":""mike is meeting dave""}","<img src=""stim_listA/meet5.gif""</stim_listA>",is meeting,
null,"<div style=""font-size:60px;"">+</div>",,html-keyboard-response,66,489980,0.0-13.0-0.9,90974,List1A,black,woman,,,,null,,,,
null,"<img src=""stim_listA/touch3.gif""</stim_listA>",,html-keyboard-response,67,491985,0.0-13.0-1.9,90974,List1A,black,woman,,,,null,,,,
null,is touching,,html-keyboard-response,68,493990,0.0-13.0-2.9,90974,List1A,black,woman,,,,null,,,,
20137,,,survey-text,69,514129,0.0-13.0-3.9,90974,List1A,black,woman,,,,,"{""Q0"":""dave and jane is touching""}","<img src=""stim_listA/touch3.gif""</stim_listA>",is touching,
null,"<div style=""font-size:60px;"">+</div>",,html-keyboard-response,70,514631,0.0-13.0-0.10,90974,List1A,black,woman,,,,null,,,,
null,"<img src=""stim_listA/fight1.gif""</stim_listA>",,html-keyboard-response,71,516636,0.0-13.0-1.10,90974,List1A,black,woman,,,,null,,,,
null,is fighting,,html-keyboard-response,72,518638,0.0-13.0-2.10,90974,List1A,black,woman,,,,null,,,,
44892,,,survey-text,73,563531,0.0-13.0-3.10,90974,List1A,black,woman,,,,,"{""Q0"":""mike and jane is fighting""}","<img src=""stim_listA/fight1.gif""</stim_listA>",is fighting,
null,"<div style=""font-size:60px;"">+</div>",,html-keyboard-response,74,564035,0.0-13.0-0.11,90974,List1A,black,woman,,,,null,,,,
null,"<img src=""stim_listA/argue5.gif""</stim_listA>",,html-keyboard-response,75,566041,0.0-13.0-1.11,90974,List1A,black,woman,,,,null,,,,
null,is arguing with,,html-keyboard-response,76,568042,0.0-13.0-2.11,90974,List1A,black,woman,,,,null,,,,
18114,,,survey-text,77,586158,0.0-13.0-3.11,90974,List1A,black,woman,,,,,"{""Q0"":""luke is arguing with mike""}","<img src=""stim_listA/argue5.gif""</stim_listA>",is arguing with,
null,"<div style=""font-size:60px;"">+</div>",,html-keyboard-response,78,586660,0.0-13.0-0.12,90974,List1A,black,woman,,,,null,,,,
null,"<img src=""stim_listA/talk2.gif""</stim_listA>",,html-keyboard-response,79,588666,0.0-13.0-1.12,90974,List1A,black,woman,,,,null,,,,
null,are talking to each other,,html-keyboard-response,80,590667,0.0-13.0-2.12,90974,List1A,black,woman,,,,null,,,,
19885,,,survey-text,81,610553,0.0-13.0-3.12,90974,List1A,black,woman,,,,,"{""Q0"":""beth and mike are talking to each other""}","<img src=""stim_listA/talk2.gif""</stim_listA>",are talking to each other,
null,"<div style=""font-size:60px;"">+</div>",,html-keyboard-response,82,611057,0.0-13.0-0.13,90974,List1A,black,woman,,,,null,,,,
null,"<img src=""stim_listA/shout8.gif""</stim_listA>",,html-keyboard-response,83,613063,0.0-13.0-1.13,90974,List1A,black,woman,,,,null,,,,
null,are shouting at each other,,html-keyboard-response,84,615068,0.0-13.0-2.13,90974,List1A,black,woman,,,,null,,,,
30141,,,survey-text,85,645210,0.0-13.0-3.13,90974,List1A,black,woman,,,,,"{""Q0"":""jane and beth are shouting at each other""}","<img src=""stim_listA/shout8.gif""</stim_listA>",are shouting at each other,
null,"<div style=""font-size:60px;"">+</div>",,html-keyboard-response,86,645717,0.0-13.0-0.14,90974,List1A,black,woman,,,,null,,,,
null,"<img src=""stim_listA/dance4.gif""</stim_listA>",,html-keyboard-response,87,647723,0.0-13.0-1.14,90974,List1A,black,woman,,,,null,,,,
null,are dancing with each other,,html-keyboard-response,88,649727,0.0-13.0-2.14,90974,List1A,black,woman,,,,null,,,,
18766,,,survey-text,89,668494,0.0-13.0-3.14,90974,List1A,black,woman,,,,,"{""Q0"":""ruth and dave are dancing with each other""}","<img src=""stim_listA/dance4.gif""</stim_listA>",are dancing with each other,
null,"<div style=""font-size:60px;"">+</div>",,html-keyboard-response,90,668998,0.0-13.0-0.15,90974,List1A,black,woman,,,,null,,,,
null,"<img src=""stim_listA/hug2.gif""</stim_listA>",,html-keyboard-response,91,671004,0.0-13.0-1.15,90974,List1A,black,woman,,,,null,,,,
null,are hugging each other,,html-keyboard-response,92,673005,0.0-13.0-2.15,90974,List1A,black,woman,,,,null,,,,
23109,,,survey-text,93,696114,0.0-13.0-3.15,90974,List1A,black,woman,,,,,"{""Q0"":""mike and jane are hugging each other""}","<img src=""stim_listA/hug2.gif""</stim_listA>",are hugging each other,
null,"<div style=""font-size:60px;"">+</div>",,html-keyboard-response,94,696620,0.0-13.0-0.16,90974,List1A,black,woman,,,,null,,,,
null,"<img src=""stim_listA/kiss6.gif""</stim_listA>",,html-keyboard-response,95,698627,0.0-13.0-1.16,90974,List1A,black,woman,,,,null,,,,
null,are kissing each other,,html-keyboard-response,96,700628,0.0-13.0-2.16,90974,List1A,black,woman,,,,null,,,,
19069,,,survey-text,97,719697,0.0-13.0-3.16,90974,List1A,black,woman,,,,,"{""Q0"":""mike and dave are kissing each other""}","<img src=""stim_listA/kiss6.gif""</stim_listA>",are kissing each other,
null,"<div style=""font-size:60px;"">+</div>",,html-keyboard-response,98,720203,0.0-13.0-0.17,90974,List1A,black,woman,,,,null,,,,
null,"<img src=""stim_listA/kiss2.gif""</stim_listA>",,html-keyboard-response,99,722205,0.0-13.0-1.17,90974,List1A,black,woman,,,,null,,,,
null,are kissing each other,,html-keyboard-response,100,724206,0.0-13.0-2.17,90974,List1A,black,woman,,,,null,,,,
13136,,,survey-text,101,737343,0.0-13.0-3.17,90974,List1A,black,woman,,,,,"{""Q0"":""mike and jane are kissing each other""}","<img src=""stim_listA/kiss2.gif""</stim_listA>",are kissing each other,
null,"<div style=""font-size:60px;"">+</div>",,html-keyboard-response,102,737849,0.0-13.0-0.18,90974,List1A,black,woman,,,,null,,,,
null,"<img src=""stim_listA/shout5.gif""</stim_listA>",,html-keyboard-response,103,739855,0.0-13.0-1.18,90974,List1A,black,woman,,,,null,,,,
null,is shouting at,,html-keyboard-response,104,741857,0.0-13.0-2.18,90974,List1A,black,woman,,,,null,,,,
13771,,,survey-text,105,755629,0.0-13.0-3.18,90974,List1A,black,woman,,,,,"{""Q0"":""fred is shouting at luke""}","<img src=""stim_listA/shout5.gif""</stim_listA>",is shouting at,
null,"<div style=""font-size:60px;"">+</div>",,html-keyboard-response,106,756136,0.0-13.0-0.19,90974,List1A,black,woman,,,,null,,,,
null,"<img src=""stim_listA/talk8.gif""</stim_listA>",,html-keyboard-response,107,758142,0.0-13.0-1.19,90974,List1A,black,woman,,,,null,,,,
null,are talking to each other,,html-keyboard-response,108,760145,0.0-13.0-2.19,90974,List1A,black,woman,,,,null,,,,
23885,,,survey-text,109,784031,0.0-13.0-3.19,90974,List1A,black,woman,,,,,"{""Q0"":""ruth and jane are talking to each other""}","<img src=""stim_listA/talk8.gif""</stim_listA>",are talking to each other,
10341,"<img src='img/portrait_matrix_list1.JPG' style='width:900px;height:500px;''></img><p>If you have memorised all the portraits and names and are ready to start, press Continue.</p><p><strong>Please note: Your memory of these faces will be tested 4 times during this experiment.</strong></p>",0,html-button-response,110,794373,0.0-14.0-0.0,90974,List1A,black,woman,,,,,,,,
4850,"<img src=""portrait/BW1.jpg""style=""width:400px;height:400px;""></img>",0,html-button-response,111,800231,0.0-14.0-1.0,90974,List1A,black,woman,,TRUE,0,,,,,
null,CORRECT,,html-keyboard-response,112,801736,0.0-14.0-2.0-0.0,90974,List1A,black,woman,,,,null,,,,
3541,"<img src=""portrait/WM1.jpg""style=""width:400px;height:400px;""></img>",6,html-button-response,113,805279,0.0-14.0-4.0,90974,List1A,black,woman,,TRUE,6,,,,,
null,CORRECT,,html-keyboard-response,114,806787,0.0-14.0-5.0-0.0,90974,List1A,black,woman,,,,null,,,,
1805,"<img src=""portrait/BM2.jpg""style=""width:400px;height:400px;""></img>",5,html-button-response,115,808594,0.0-14.0-7.0,90974,List1A,black,woman,,TRUE,5,,,,,
null,CORRECT,,html-keyboard-response,116,810103,0.0-14.0-8.0-0.0,90974,List1A,black,woman,,,,null,,,,
1880,"<img src=""portrait/BM1.jpg""style=""width:400px;height:400px;""></img>",4,html-button-response,117,811985,0.0-14.0-10.0,90974,List1A,black,woman,,TRUE,4,,,,,
null,CORRECT,,html-keyboard-response,118,813491,0.0-14.0-11.0-0.0,90974,List1A,black,woman,,,,null,,,,
1730,"<img src=""portrait/WW1.jpg""style=""width:400px;height:400px;""></img>",1,html-button-response,119,815223,0.0-14.0-13.0,90974,List1A,black,woman,,TRUE,1,,,,,
null,CORRECT,,html-keyboard-response,120,816730,0.0-14.0-14.0-0.0,90974,List1A,black,woman,,,,null,,,,
1499,"<img src=""portrait/BW2.jpg""style=""width:400px;height:400px;""></img>",2,html-button-response,121,818231,0.0-14.0-16.0,90974,List1A,black,woman,,TRUE,2,,,,,
null,CORRECT,,html-keyboard-response,122,819739,0.0-14.0-17.0-0.0,90974,List1A,black,woman,,,,null,,,,
2158,"<img src=""portrait/WM2.jpg""style=""width:400px;height:400px;""></img>",7,html-button-response,123,821899,0.0-14.0-19.0,90974,List1A,black,woman,,TRUE,7,,,,,
null,CORRECT,,html-keyboard-response,124,823409,0.0-14.0-20.0-0.0,90974,List1A,black,woman,,,,null,,,,
1574,"<img src=""portrait/WW2.jpg""style=""width:400px;height:400px;""></img>",3,html-button-response,125,824985,0.0-14.0-22.0,90974,List1A,black,woman,,TRUE,3,,,,,
null,CORRECT,,html-keyboard-response,126,826492,0.0-14.0-23.0-0.0,90974,List1A,black,woman,,,,null,,,,
2649,<p>You got 8 out of 8 right first time. Press Continue.</p>,0,html-button-response,127,829143,0.0-14.0-25.0,90974,List1A,black,woman,,,,,,,,
null,"<div style=""font-size:60px;"">+</div>",,html-keyboard-response,128,830654,0.0-15.0-0.0,90974,List1A,black,woman,,,,null,,,,
null,"<img src=""stim_listA/hug8.gif""</stim_listA>",,html-keyboard-response,129,832657,0.0-15.0-1.0,90974,List1A,black,woman,,,,null,,,,
null,are hugging each other,,html-keyboard-response,130,834662,0.0-15.0-2.0,90974,List1A,black,woman,,,,null,,,,
13724,,,survey-text,131,848387,0.0-15.0-3.0,90974,List1A,black,woman,,,,,"{""Q0"":""kate and jane are hugging each other""}","<img src=""stim_listA/hug8.gif""</stim_listA>",are hugging each other,
null,"<div style=""font-size:60px;"">+</div>",,html-keyboard-response,132,848893,0.0-15.0-0.1,90974,List1A,black,woman,,,,null,,,,
null,"<img src=""stim_listA/argue3.gif""</stim_listA>",,html-keyboard-response,133,850899,0.0-15.0-1.1,90974,List1A,black,woman,,,,null,,,,
null,is arguing with,,html-keyboard-response,134,852901,0.0-15.0-2.1,90974,List1A,black,woman,,,,null,,,,
11885,,,survey-text,135,864787,0.0-15.0-3.1,90974,List1A,black,woman,,,,,"{""Q0"":""ruth is arguing with dave""}","<img src=""stim_listA/argue3.gif""</stim_listA>",is arguing with,
null,"<div style=""font-size:60px;"">+</div>",,html-keyboard-response,136,865292,0.0-15.0-0.2,90974,List1A,black,woman,,,,null,,,,
null,"<img src=""stim_listA/shout1.gif""</stim_listA>",,html-keyboard-response,137,867293,0.0-15.0-1.2,90974,List1A,black,woman,,,,null,,,,
null,is shouting at,,html-keyboard-response,138,869298,0.0-15.0-2.2,90974,List1A,black,woman,,,,null,,,,
10933,,,survey-text,139,880232,0.0-15.0-3.2,90974,List1A,black,woman,,,,,"{""Q0"":""beth is shouting at fred""}","<img src=""stim_listA/shout1.gif""</stim_listA>",is shouting at,
null,"<div style=""font-size:60px;"">+</div>",,html-keyboard-response,140,880736,0.0-15.0-0.3,90974,List1A,black,woman,,,,null,,,,
null,"<img src=""stim_listA/argue4.gif""</stim_listA>",,html-keyboard-response,141,882738,0.0-15.0-1.3,90974,List1A,black,woman,,,,null,,,,
null,are arguing with each other,,html-keyboard-response,142,884740,0.0-15.0-2.3,90974,List1A,black,woman,,,,null,,,,
30014,,,survey-text,143,914755,0.0-15.0-3.3,90974,List1A,black,woman,,,,,"{""Q0"":""luke and jane are arguing with each other""}","<img src=""stim_listA/argue4.gif""</stim_listA>",are arguing with each other,
null,"<div style=""font-size:60px;"">+</div>",,html-keyboard-response,144,915261,0.0-15.0-0.4,90974,List1A,black,woman,,,,null,,,,
null,"<img src=""stim_listA/meet4.gif""</stim_listA>",,html-keyboard-response,145,917268,0.0-15.0-1.4,90974,List1A,black,woman,,,,null,,,,
null,are meeting each other,,html-keyboard-response,146,919269,0.0-15.0-2.4,90974,List1A,black,woman,,,,null,,,,
18621,,,survey-text,147,937892,0.0-15.0-3.4,90974,List1A,black,woman,,,,,"{""Q0"":""luke and ruth are meeting each other""}","<img src=""stim_listA/meet4.gif""</stim_listA>",are meeting each other,
null,"<div style=""font-size:60px;"">+</div>",,html-keyboard-response,148,938398,0.0-15.0-0.5,90974,List1A,black,woman,,,,null,,,,
null,"<img src=""stim_listA/touch4.gif""</stim_listA>",,html-keyboard-response,149,940402,0.0-15.0-1.5,90974,List1A,black,woman,,,,null,,,,
null,are touching each other,,html-keyboard-response,150,942408,0.0-15.0-2.5,90974,List1A,black,woman,,,,null,,,,
14579,,,survey-text,151,956988,0.0-15.0-3.5,90974,List1A,black,woman,,,,,"{""Q0"":""luke and ruth are touching each other""}","<img src=""stim_listA/touch4.gif""</stim_listA>",are touching each other,
null,"<div style=""font-size:60px;"">+</div>",,html-keyboard-response,152,957494,0.0-15.0-0.6,90974,List1A,black,woman,,,,null,,,,
null,"<img src=""stim_listA/touch6.gif""</stim_listA>",,html-keyboard-response,153,959498,0.0-15.0-1.6,90974,List1A,black,woman,,,,null,,,,
null,are touching each other,,html-keyboard-response,154,961499,0.0-15.0-2.6,90974,List1A,black,woman,,,,null,,,,
13124,,,survey-text,155,974623,0.0-15.0-3.6,90974,List1A,black,woman,,,,,"{""Q0"":""luke and fred are touching each other""}","<img src=""stim_listA/touch6.gif""</stim_listA>",are touching each other,
null,"<div style=""font-size:60px;"">+</div>",,html-keyboard-response,156,975126,0.0-15.0-0.7,90974,List1A,black,woman,,,,null,,,,
null,"<img src=""stim_listA/marry4.gif""</stim_listA>",,html-keyboard-response,157,977128,0.0-15.0-1.7,90974,List1A,black,woman,,,,null,,,,
null,are marrying each other,,html-keyboard-response,158,979129,0.0-15.0-2.7,90974,List1A,black,woman,,,,null,,,,
15518,,,survey-text,159,994648,0.0-15.0-3.7,90974,List1A,black,woman,,,,,"{""Q0"":""luke and jane are marrying each other""}","<img src=""stim_listA/marry4.gif""</stim_listA>",are marrying each other,
null,"<div style=""font-size:60px;"">+</div>",,html-keyboard-response,160,995152,0.0-15.0-0.8,90974,List1A,black,woman,,,,null,,,,
null,"<img src=""stim_listA/touch2.gif""</stim_listA>",,html-keyboard-response,161,997159,0.0-15.0-1.8,90974,List1A,black,woman,,,,null,,,,
null,are touching each other,,html-keyboard-response,162,999162,0.0-15.0-2.8,90974,List1A,black,woman,,,,null,,,,
11806,,,survey-text,163,1010969,0.0-15.0-3.8,90974,List1A,black,woman,,,,,"{""Q0"":""beth and fred are touching each other""}","<img src=""stim_listA/touch2.gif""</stim_listA>",are touching each other,
null,"<div style=""font-size:60px;"">+</div>",,html-keyboard-response,164,1011475,0.0-15.0-0.9,90974,List1A,black,woman,,,,null,,,,
null,"<img src=""stim_listA/marry3.gif""</stim_listA>",,html-keyboard-response,165,1013479,0.0-15.0-1.9,90974,List1A,black,woman,,,,null,,,,
null,is marrying,,html-keyboard-response,166,1015481,0.0-15.0-2.9,90974,List1A,black,woman,,,,null,,,,
21265,,,survey-text,167,1036747,0.0-15.0-3.9,90974,List1A,black,woman,,,,,"{""Q0"":""ruth and dave are marrying""}","<img src=""stim_listA/marry3.gif""</stim_listA>",is marrying,
null,"<div style=""font-size:60px;"">+</div>",,html-keyboard-response,168,1037253,0.0-15.0-0.10,90974,List1A,black,woman,,,,null,,,,
null,"<img src=""stim_listA/shout6.gif""</stim_listA>",,html-keyboard-response,169,1039259,0.0-15.0-1.10,90974,List1A,black,woman,,,,null,,,,
null,are shouting at each other,,html-keyboard-response,170,1041263,0.0-15.0-2.10,90974,List1A,black,woman,,,,null,,,,
19501,,,survey-text,171,1060765,0.0-15.0-3.10,90974,List1A,black,woman,,,,,"{""Q0"":""dave and mike are shouting at each other""}","<img src=""stim_listA/shout6.gif""</stim_listA>",are shouting at each other,
null,"<div style=""font-size:60px;"">+</div>",,html-keyboard-response,172,1061271,0.0-15.0-0.11,90974,List1A,black,woman,,,,null,,,,
null,"<img src=""stim_listA/marry8.gif""</stim_listA>",,html-keyboard-response,173,1063277,0.0-15.0-1.11,90974,List1A,black,woman,,,,null,,,,
null,are marrying each other,,html-keyboard-response,174,1065278,0.0-15.0-2.11,90974,List1A,black,woman,,,,null,,,,
11529,,,survey-text,175,1076807,0.0-15.0-3.11,90974,List1A,black,woman,,,,,"{""Q0"":""jane and beth are marrying each other""}","<img src=""stim_listA/marry8.gif""</stim_listA>",are marrying each other,
null,"<div style=""font-size:60px;"">+</div>",,html-keyboard-response,176,1077310,0.0-15.0-0.12,90974,List1A,black,woman,,,,null,,,,
null,"<img src=""stim_listA/shout3.gif""</stim_listA>",,html-keyboard-response,177,1079313,0.0-15.0-1.12,90974,List1A,black,woman,,,,null,,,,
null,is shouting at,,html-keyboard-response,178,1081314,0.0-15.0-2.12,90974,List1A,black,woman,,,,null,,,,
16900,,,survey-text,179,1098216,0.0-15.0-3.12,90974,List1A,black,woman,,,,,"{""Q0"":""ruth is shouting at luke""}","<img src=""stim_listA/shout3.gif""</stim_listA>",is shouting at,
null,"<div style=""font-size:60px;"">+</div>",,html-keyboard-response,180,1098722,0.0-15.0-0.13,90974,List1A,black,woman,,,,null,,,,
null,"<img src=""stim_listA/dance6.gif""</stim_listA>",,html-keyboard-response,181,1100728,0.0-15.0-1.13,90974,List1A,black,woman,,,,null,,,,
null,are dancing with each other,,html-keyboard-response,182,1102729,0.0-15.0-2.13,90974,List1A,black,woman,,,,null,,,,
20121,,,survey-text,183,1122851,0.0-15.0-3.13,90974,List1A,black,woman,,,,,"{""Q0"":""luke and mike are dancing with each other""}","<img src=""stim_listA/dance6.gif""</stim_listA>",are dancing with each other,
null,"<div style=""font-size:60px;"">+</div>",,html-keyboard-response,184,1123356,0.0-15.0-0.14,90974,List1A,black,woman,,,,null,,,,
null,"<img src=""stim_listA/kiss1.gif""</stim_listA>",,html-keyboard-response,185,1125362,0.0-15.0-1.14,90974,List1A,black,woman,,,,null,,,,
null,is kissing,,html-keyboard-response,186,1127363,0.0-15.0-2.14,90974,List1A,black,woman,,,,null,,,,
37863,,,survey-text,187,1165227,0.0-15.0-3.14,90974,List1A,black,woman,,,,,"{""Q0"":""beth and fred is kissing""}","<img src=""stim_listA/kiss1.gif""</stim_listA>",is kissing,
null,"<div style=""font-size:60px;"">+</div>",,html-keyboard-response,188,1165732,0.0-15.0-0.15,90974,List1A,black,woman,,,,null,,,,
null,"<img src=""stim_listA/meet8.gif""</stim_listA>",,html-keyboard-response,189,1167739,0.0-15.0-1.15,90974,List1A,black,woman,,,,null,,,,
null,are meeting each other,,html-keyboard-response,190,1169741,0.0-15.0-2.15,90974,List1A,black,woman,,,,null,,,,
12262,,,survey-text,191,1182003,0.0-15.0-3.15,90974,List1A,black,woman,,,,,"{""Q0"":""beth and ruth are meeting each other""}","<img src=""stim_listA/meet8.gif""</stim_listA>",are meeting each other,
null,"<div style=""font-size:60px;"">+</div>",,html-keyboard-response,192,1182509,0.0-15.0-0.16,90974,List1A,black,woman,,,,null,,,,
null,"<img src=""stim_listA/marry5.gif""</stim_listA>",,html-keyboard-response,193,1184515,0.0-15.0-1.16,90974,List1A,black,woman,,,,null,,,,
null,is marrying,,html-keyboard-response,194,1186516,0.0-15.0-2.16,90974,List1A,black,woman,,,,null,,,,
14547,,,survey-text,195,1201065,0.0-15.0-3.16,90974,List1A,black,woman,,,,,"{""Q0"":""luke and mike is marrying""}","<img src=""stim_listA/marry5.gif""</stim_listA>",is marrying,
null,"<div style=""font-size:60px;"">+</div>",,html-keyboard-response,196,1201570,0.0-15.0-0.17,90974,List1A,black,woman,,,,null,,,,
null,"<img src=""stim_listA/touch5.gif""</stim_listA>",,html-keyboard-response,197,1203577,0.0-15.0-1.17,90974,List1A,black,woman,,,,null,,,,
null,is touching,,html-keyboard-response,198,1205579,0.0-15.0-2.17,90974,List1A,black,woman,,,,null,,,,
10770,,,survey-text,199,1216350,0.0-15.0-3.17,90974,List1A,black,woman,,,,,"{""Q0"":""mike and dave is touching""}","<img src=""stim_listA/touch5.gif""</stim_listA>",is touching,
null,"<div style=""font-size:60px;"">+</div>",,html-keyboard-response,200,1216854,0.0-15.0-0.18,90974,List1A,black,woman,,,,null,,,,
null,"<img src=""stim_listA/dance2.gif""</stim_listA>",,html-keyboard-response,201,1218857,0.0-15.0-1.18,90974,List1A,black,woman,,,,null,,,,
null,are dancing with each other,,html-keyboard-response,202,1220861,0.0-15.0-2.18,90974,List1A,black,woman,,,,null,,,,
25963,,,survey-text,203,1246825,0.0-15.0-3.18,90974,List1A,black,woman,,,,,"{""Q0"":""mike and beth are dancing with each other""}","<img src=""stim_listA/dance2.gif""</stim_listA>",are dancing with each other,
null,"<div style=""font-size:60px;"">+</div>",,html-keyboard-response,204,1247330,0.0-15.0-0.19,90974,List1A,black,woman,,,,null,,,,
null,"<img src=""stim_listA/dance8.gif""</stim_listA>",,html-keyboard-response,205,1249335,0.0-15.0-1.19,90974,List1A,black,woman,,,,null,,,,
null,are dancing with each other,,html-keyboard-response,206,1251340,0.0-15.0-2.19,90974,List1A,black,woman,,,,null,,,,
16181,,,survey-text,207,1267521,0.0-15.0-3.19,90974,List1A,black,woman,,,,,"{""Q0"":""ruth and kate are dancing with each other""}","<img src=""stim_listA/dance8.gif""</stim_listA>",are dancing with each other,
7276,"<img src='img/portrait_matrix_list1.JPG' style='width:900px;height:500px;''></img><p>If you have memorised all the portraits and names and are ready to start, press Continue.</p><p><strong>Please note: Your memory of these faces will be tested 4 times during this experiment.</strong></p>",0,html-button-response,208,1274799,0.0-16.0-0.0,90974,List1A,black,woman,,,,,,,,
1484,"<img src=""portrait/WW2.jpg""style=""width:400px;height:400px;""></img>",3,html-button-response,209,1277285,0.0-16.0-1.0,90974,List1A,black,woman,,TRUE,3,,,,,
null,CORRECT,,html-keyboard-response,210,1278793,0.0-16.0-2.0-0.0,90974,List1A,black,woman,,,,null,,,,
2012,"<img src=""portrait/BW2.jpg""style=""width:400px;height:400px;""></img>",2,html-button-response,211,1280807,0.0-16.0-4.0,90974,List1A,black,woman,,TRUE,2,,,,,
null,CORRECT,,html-keyboard-response,212,1282312,0.0-16.0-5.0-0.0,90974,List1A,black,woman,,,,null,,,,
1665,"<img src=""portrait/BM1.jpg""style=""width:400px;height:400px;""></img>",4,html-button-response,213,1283979,0.0-16.0-7.0,90974,List1A,black,woman,,TRUE,4,,,,,
null,CORRECT,,html-keyboard-response,214,1285491,0.0-16.0-8.0-0.0,90974,List1A,black,woman,,,,null,,,,
1687,"<img src=""portrait/WM2.jpg""style=""width:400px;height:400px;""></img>",7,html-button-response,215,1287179,0.0-16.0-10.0,90974,List1A,black,woman,,TRUE,7,,,,,
null,CORRECT,,html-keyboard-response,216,1288691,0.0-16.0-11.0-0.0,90974,List1A,black,woman,,,,null,,,,
2972,"<img src=""portrait/BW1.jpg""style=""width:400px;height:400px;""></img>",0,html-button-response,217,1291665,0.0-16.0-13.0,90974,List1A,black,woman,,TRUE,0,,,,,
null,CORRECT,,html-keyboard-response,218,1293168,0.0-16.0-14.0-0.0,90974,List1A,black,woman,,,,null,,,,
2413,"<img src=""portrait/BM2.jpg""style=""width:400px;height:400px;""></img>",5,html-button-response,219,1295583,0.0-16.0-16.0,90974,List1A,black,woman,,TRUE,5,,,,,
null,CORRECT,,html-keyboard-response,220,1297093,0.0-16.0-17.0-0.0,90974,List1A,black,woman,,,,null,,,,
1750,"<img src=""portrait/WW1.jpg""style=""width:400px;height:400px;""></img>",1,html-button-response,221,1298845,0.0-16.0-19.0,90974,List1A,black,woman,,TRUE,1,,,,,
null,CORRECT,,html-keyboard-response,222,1300357,0.0-16.0-20.0-0.0,90974,List1A,black,woman,,,,null,,,,
2661,"<img src=""portrait/WM1.jpg""style=""width:400px;height:400px;""></img>",6,html-button-response,223,1303019,0.0-16.0-22.0,90974,List1A,black,woman,,TRUE,6,,,,,
null,CORRECT,,html-keyboard-response,224,1304527,0.0-16.0-23.0-0.0,90974,List1A,black,woman,,,,null,,,,
2004,<p>You got 8 out of 8 right first time. Press Continue.</p>,0,html-button-response,225,1306532,0.0-16.0-25.0,90974,List1A,black,woman,,,,,,,,
null,"<div style=""font-size:60px;"">+</div>",,html-keyboard-response,226,1308039,0.0-17.0-0.0,90974,List1A,black,woman,,,,null,,,,
null,"<img src=""stim_listA/kiss8.gif""</stim_listA>",,html-keyboard-response,227,1310042,0.0-17.0-1.0,90974,List1A,black,woman,,,,null,,,,
null,are kissing each other,,html-keyboard-response,228,1312048,0.0-17.0-2.0,90974,List1A,black,woman,,,,null,,,,
13953,,,survey-text,229,1326003,0.0-17.0-3.0,90974,List1A,black,woman,,,,,"{""Q0"":""kate and jane are kissing each other""}","<img src=""stim_listA/kiss8.gif""</stim_listA>",are kissing each other,
null,"<div style=""font-size:60px;"">+</div>",,html-keyboard-response,230,1326508,0.0-17.0-0.1,90974,List1A,black,woman,,,,null,,,,
null,"<img src=""stim_listA/fight4.gif""</stim_listA>",,html-keyboard-response,231,1328513,0.0-17.0-1.1,90974,List1A,black,woman,,,,null,,,,
null,are fighting each other,,html-keyboard-response,232,1330514,0.0-17.0-2.1,90974,List1A,black,woman,,,,null,,,,
15384,,,survey-text,233,1345900,0.0-17.0-3.1,90974,List1A,black,woman,,,,,"{""Q0"":""ruth and luke are fighting each other""}","<img src=""stim_listA/fight4.gif""</stim_listA>",are fighting each other,
null,"<div style=""font-size:60px;"">+</div>",,html-keyboard-response,234,1346404,0.0-17.0-0.2,90974,List1A,black,woman,,,,null,,,,
null,"<img src=""stim_listA/shout4.gif""</stim_listA>",,html-keyboard-response,235,1348410,0.0-17.0-1.2,90974,List1A,black,woman,,,,null,,,,
null,are shouting at each other,,html-keyboard-response,236,1350414,0.0-17.0-2.2,90974,List1A,black,woman,,,,null,,,,
17659,,,survey-text,237,1368074,0.0-17.0-3.2,90974,List1A,black,woman,,,,,"{""Q0"":""jane and dave are shouting ate each other""}","<img src=""stim_listA/shout4.gif""</stim_listA>",are shouting at each other,
null,"<div style=""font-size:60px;"">+</div>",,html-keyboard-response,238,1368580,0.0-17.0-0.3,90974,List1A,black,woman,,,,null,,,,
null,"<img src=""stim_listA/kiss3.gif""</stim_listA>",,html-keyboard-response,239,1370586,0.0-17.0-1.3,90974,List1A,black,woman,,,,null,,,,
null,is kissing,,html-keyboard-response,240,1372587,0.0-17.0-2.3,90974,List1A,black,woman,,,,null,,,,
13517,,,survey-text,241,1386105,0.0-17.0-3.3,90974,List1A,black,woman,,,,,"{""Q0"":""ruth and luke is kissing""}","<img src=""stim_listA/kiss3.gif""</stim_listA>",is kissing,
null,"<div style=""font-size:60px;"">+</div>",,html-keyboard-response,242,1386608,0.0-17.0-0.4,90974,List1A,black,woman,,,,null,,,,
null,"<img src=""stim_listA/talk3.gif""</stim_listA>",,html-keyboard-response,243,1388615,0.0-17.0-1.4,90974,List1A,black,woman,,,,null,,,,
null,is talking to,,html-keyboard-response,244,1390616,0.0-17.0-2.4,90974,List1A,black,woman,,,,null,,,,
10814,,,survey-text,245,1401431,0.0-17.0-3.4,90974,List1A,black,woman,,,,,"{""Q0"":""jane is talking to luke""}","<img src=""stim_listA/talk3.gif""</stim_listA>",is talking to,
null,"<div style=""font-size:60px;"">+</div>",,html-keyboard-response,246,1401934,0.0-17.0-0.5,90974,List1A,black,woman,,,,null,,,,
null,"<img src=""stim_listA/shout7.gif""</stim_listA>",,html-keyboard-response,247,1403940,0.0-17.0-1.5,90974,List1A,black,woman,,,,null,,,,
null,is shouting at,,html-keyboard-response,248,1405946,0.0-17.0-2.5,90974,List1A,black,woman,,,,null,,,,
11995,,,survey-text,249,1417941,0.0-17.0-3.5,90974,List1A,black,woman,,,,,"{""Q0"":""beth is shouting at ruth""}","<img src=""stim_listA/shout7.gif""</stim_listA>",is shouting at,
null,"<div style=""font-size:60px;"">+</div>",,html-keyboard-response,250,1418448,0.0-17.0-0.6,90974,List1A,black,woman,,,,null,,,,
null,"<img src=""stim_listA/kiss7.gif""</stim_listA>",,html-keyboard-response,251,1420454,0.0-17.0-1.6,90974,List1A,black,woman,,,,null,,,,
null,is kissing,,html-keyboard-response,252,1422457,0.0-17.0-2.6,90974,List1A,black,woman,,,,null,,,,
11558,,,survey-text,253,1434015,0.0-17.0-3.6,90974,List1A,black,woman,,,,,"{""Q0"":""beth and ruth is kissing""}","<img src=""stim_listA/kiss7.gif""</stim_listA>",is kissing,
null,"<div style=""font-size:60px;"">+</div>",,html-keyboard-response,254,1434521,0.0-17.0-0.7,90974,List1A,black,woman,,,,null,,,,
null,"<img src=""stim_listA/argue8.gif""</stim_listA>",,html-keyboard-response,255,1436523,0.0-17.0-1.7,90974,List1A,black,woman,,,,null,,,,
null,are arguing with each other,,html-keyboard-response,256,1438524,0.0-17.0-2.7,90974,List1A,black,woman,,,,null,,,,
19776,,,survey-text,257,1458302,0.0-17.0-3.7,90974,List1A,black,woman,,,,,"{""Q0"":""jane and beth is arguing with each other""}","<img src=""stim_listA/argue8.gif""</stim_listA>",are arguing with each other,
null,"<div style=""font-size:60px;"">+</div>",,html-keyboard-response,258,1458803,0.0-17.0-0.8,90974,List1A,black,woman,,,,null,,,,
null,"<img src=""stim_listA/shout2.gif""</stim_listA>",,html-keyboard-response,259,1460810,0.0-17.0-1.8,90974,List1A,black,woman,,,,null,,,,
null,are shouting at each other,,html-keyboard-response,260,1462811,0.0-17.0-2.8,90974,List1A,black,woman,,,,null,,,,
21516,,,survey-text,261,1484327,0.0-17.0-3.8,90974,List1A,black,woman,,,,,"{""Q0"":""kate and mike are shouting at each other""}","<img src=""stim_listA/shout2.gif""</stim_listA>",are shouting at each other,
null,"<div style=""font-size:60px;"">+</div>",,html-keyboard-response,262,1484833,0.0-17.0-0.9,90974,List1A,black,woman,,,,null,,,,
null,"<img src=""stim_listA/meet1.gif""</stim_listA>",,html-keyboard-response,263,1486835,0.0-17.0-1.9,90974,List1A,black,woman,,,,null,,,,
null,is meeting,,html-keyboard-response,264,1488839,0.0-17.0-2.9,90974,List1A,black,woman,,,,null,,,,
10363,,,survey-text,265,1499202,0.0-17.0-3.9,90974,List1A,black,woman,,,,,"{""Q0"":""mike is meeting kate""}","<img src=""stim_listA/meet1.gif""</stim_listA>",is meeting,
null,"<div style=""font-size:60px;"">+</div>",,html-keyboard-response,266,1499708,0.0-17.0-0.10,90974,List1A,black,woman,,,,null,,,,
null,"<img src=""stim_listA/dance3.gif""</stim_listA>",,html-keyboard-response,267,1501714,0.0-17.0-1.10,90974,List1A,black,woman,,,,null,,,,
null,is dancing with,,html-keyboard-response,268,1503715,0.0-17.0-2.10,90974,List1A,black,woman,,,,null,,,,
10523,,,survey-text,269,1514239,0.0-17.0-3.10,90974,List1A,black,woman,,,,,"{""Q0"":""luke is dancing with jane""}","<img src=""stim_listA/dance3.gif""</stim_listA>",is dancing with,
null,"<div style=""font-size:60px;"">+</div>",,html-keyboard-response,270,1514746,0.0-17.0-0.11,90974,List1A,black,woman,,,,null,,,,
null,"<img src=""stim_listA/fight6.gif""</stim_listA>",,html-keyboard-response,271,1516749,0.0-17.0-1.11,90974,List1A,black,woman,,,,null,,,,
null,are fighting each other,,html-keyboard-response,272,1518754,0.0-17.0-2.11,90974,List1A,black,woman,,,,null,,,,
20249,,,survey-text,273,1539004,0.0-17.0-3.11,90974,List1A,black,woman,,,,,"{""Q0"":""luke and fred are fighting each other""}","<img src=""stim_listA/fight6.gif""</stim_listA>",are fighting each other,
null,"<div style=""font-size:60px;"">+</div>",,html-keyboard-response,274,1539506,0.0-17.0-0.12,90974,List1A,black,woman,,,,null,,,,
null,"<img src=""stim_listA/argue2.gif""</stim_listA>",,html-keyboard-response,275,1541511,0.0-17.0-1.12,90974,List1A,black,woman,,,,null,,,,
null,are arguing with each other,,html-keyboard-response,276,1543515,0.0-17.0-2.12,90974,List1A,black,woman,,,,null,,,,
41133,,,survey-text,277,1584650,0.0-17.0-3.12,90974,List1A,black,woman,,,,,"{""Q0"":""kate and fred are arguing with each other""}","<img src=""stim_listA/argue2.gif""</stim_listA>",are arguing with each other,
null,"<div style=""font-size:60px;"">+</div>",,html-keyboard-response,278,1585153,0.0-17.0-0.13,90974,List1A,black,woman,,,,null,,,,
null,"<img src=""stim_listA/kiss5.gif""</stim_listA>",,html-keyboard-response,279,1587159,0.0-17.0-1.13,90974,List1A,black,woman,,,,null,,,,
null,is kissing,,html-keyboard-response,280,1589160,0.0-17.0-2.13,90974,List1A,black,woman,,,,null,,,,
11669,,,survey-text,281,1600831,0.0-17.0-3.13,90974,List1A,black,woman,,,,,"{""Q0"":""fred and luke is kissing""}","<img src=""stim_listA/kiss5.gif""</stim_listA>",is kissing,
null,"<div style=""font-size:60px;"">+</div>",,html-keyboard-response,282,1601337,0.0-17.0-0.14,90974,List1A,black,woman,,,,null,,,,
null,"<img src=""stim_listA/hug3.gif""</stim_listA>",,html-keyboard-response,283,1603341,0.0-17.0-1.14,90974,List1A,black,woman,,,,null,,,,
null,is hugging,,html-keyboard-response,284,1605345,0.0-17.0-2.14,90974,List1A,black,woman,,,,null,,,,
12105,,,survey-text,285,1617450,0.0-17.0-3.14,90974,List1A,black,woman,,,,,"{""Q0"":""luke and ruth is hugging""}","<img src=""stim_listA/hug3.gif""</stim_listA>",is hugging,
null,"<div style=""font-size:60px;"">+</div>",,html-keyboard-response,286,1617956,0.0-17.0-0.15,90974,List1A,black,woman,,,,null,,,,
null,"<img src=""stim_listA/dance7.gif""</stim_listA>",,html-keyboard-response,287,1619963,0.0-17.0-1.15,90974,List1A,black,woman,,,,null,,,,
null,is dancing with,,html-keyboard-response,288,1621965,0.0-17.0-2.15,90974,List1A,black,woman,,,,null,,,,
10458,,,survey-text,289,1632424,0.0-17.0-3.15,90974,List1A,black,woman,,,,,"{""Q0"":""beth is dancing with jane""}","<img src=""stim_listA/dance7.gif""</stim_listA>",is dancing with,
null,"<div style=""font-size:60px;"">+</div>",,html-keyboard-response,290,1632927,0.0-17.0-0.16,90974,List1A,black,woman,,,,null,,,,
null,"<img src=""stim_listA/touch8.gif""</stim_listA>",,html-keyboard-response,291,1634933,0.0-17.0-1.16,90974,List1A,black,woman,,,,null,,,,
null,are touching each other,,html-keyboard-response,292,1636938,0.0-17.0-2.16,90974,List1A,black,woman,,,,null,,,,
13285,,,survey-text,293,1650225,0.0-17.0-3.16,90974,List1A,black,woman,,,,,"{""Q0"":""beth and ruth are toughing each other""}","<img src=""stim_listA/touch8.gif""</stim_listA>",are touching each other,
null,"<div style=""font-size:60px;"">+</div>",,html-keyboard-response,294,1650731,0.0-17.0-0.17,90974,List1A,black,woman,,,,null,,,,
null,"<img src=""stim_listA/argue1.gif""</stim_listA>",,html-keyboard-response,295,1652737,0.0-17.0-1.17,90974,List1A,black,woman,,,,null,,,,
null,is arguing with,,html-keyboard-response,296,1654738,0.0-17.0-2.17,90974,List1A,black,woman,,,,null,,,,
16229,,,survey-text,297,1670968,0.0-17.0-3.17,90974,List1A,black,woman,,,,,"{""Q0"":""mike is arguing with beth""}","<img src=""stim_listA/argue1.gif""</stim_listA>",is arguing with,
null,"<div style=""font-size:60px;"">+</div>",,html-keyboard-response,298,1671470,0.0-17.0-0.18,90974,List1A,black,woman,,,,null,,,,
null,"<img src=""stim_listA/meet2.gif""</stim_listA>",,html-keyboard-response,299,1673476,0.0-17.0-1.18,90974,List1A,black,woman,,,,null,,,,
null,are meeting each other,,html-keyboard-response,300,1675481,0.0-17.0-2.18,90974,List1A,black,woman,,,,null,,,,
12386,,,survey-text,301,1687867,0.0-17.0-3.18,90974,List1A,black,woman,,,,,"{""Q0"":""fed and beth are meeting each other""}","<img src=""stim_listA/meet2.gif""</stim_listA>",are meeting each other,
null,"<div style=""font-size:60px;"">+</div>",,html-keyboard-response,302,1688373,0.0-17.0-0.19,90974,List1A,black,woman,,,,null,,,,
null,"<img src=""stim_listA/talk4.gif""</stim_listA>",,html-keyboard-response,303,1690380,0.0-17.0-1.19,90974,List1A,black,woman,,,,null,,,,
null,are talking to each other,,html-keyboard-response,304,1692382,0.0-17.0-2.19,90974,List1A,black,woman,,,,null,,,,
15593,,,survey-text,305,1707976,0.0-17.0-3.19,90974,List1A,black,woman,,,,,"{""Q0"":""ruth and dave are talking to each other""}","<img src=""stim_listA/talk4.gif""</stim_listA>",are talking to each other,
5623,"<img src='img/portrait_matrix_list1.JPG' style='width:900px;height:500px;''></img><p>If you have memorised all the portraits and names and are ready to start, press Continue.</p><p><strong>Please note: Your memory of these faces will be tested 4 times during this experiment.</strong></p>",0,html-button-response,306,1713599,0.0-18.0-0.0,90974,List1A,black,woman,,,,,,,,
2295,"<img src=""portrait/WW2.jpg""style=""width:400px;height:400px;""></img>",3,html-button-response,307,1716901,0.0-18.0-1.0,90974,List1A,black,woman,,TRUE,3,,,,,
null,CORRECT,,html-keyboard-response,308,1718408,0.0-18.0-2.0-0.0,90974,List1A,black,woman,,,,null,,,,
3647,"<img src=""portrait/BW1.jpg""style=""width:400px;height:400px;""></img>",0,html-button-response,309,1722057,0.0-18.0-4.0,90974,List1A,black,woman,,TRUE,0,,,,,
null,CORRECT,,html-keyboard-response,310,1723565,0.0-18.0-5.0-0.0,90974,List1A,black,woman,,,,null,,,,
1602,"<img src=""portrait/BW2.jpg""style=""width:400px;height:400px;""></img>",2,html-button-response,311,1725169,0.0-18.0-7.0,90974,List1A,black,woman,,TRUE,2,,,,,
null,CORRECT,,html-keyboard-response,312,1726678,0.0-18.0-8.0-0.0,90974,List1A,black,woman,,,,null,,,,
1881,"<img src=""portrait/WM1.jpg""style=""width:400px;height:400px;""></img>",6,html-button-response,313,1728561,0.0-18.0-10.0,90974,List1A,black,woman,,TRUE,6,,,,,
null,CORRECT,,html-keyboard-response,314,1730073,0.0-18.0-11.0-0.0,90974,List1A,black,woman,,,,null,,,,
1501,"<img src=""portrait/WM2.jpg""style=""width:400px;height:400px;""></img>",7,html-button-response,315,1731575,0.0-18.0-13.0,90974,List1A,black,woman,,TRUE,7,,,,,
null,CORRECT,,html-keyboard-response,316,1733085,0.0-18.0-14.0-0.0,90974,List1A,black,woman,,,,null,,,,
1540,"<img src=""portrait/BM1.jpg""style=""width:400px;height:400px;""></img>",4,html-button-response,317,1734627,0.0-18.0-16.0,90974,List1A,black,woman,,TRUE,4,,,,,
null,CORRECT,,html-keyboard-response,318,1736135,0.0-18.0-17.0-0.0,90974,List1A,black,woman,,,,null,,,,
3334,"<img src=""portrait/BM2.jpg""style=""width:400px;height:400px;""></img>",5,html-button-response,319,1739471,0.0-18.0-19.0,90974,List1A,black,woman,,TRUE,5,,,,,
null,CORRECT,,html-keyboard-response,320,1740980,0.0-18.0-20.0-0.0,90974,List1A,black,woman,,,,null,,,,
2893,"<img src=""portrait/WW1.jpg""style=""width:400px;height:400px;""></img>",1,html-button-response,321,1743875,0.0-18.0-22.0,90974,List1A,black,woman,,TRUE,1,,,,,
null,CORRECT,,html-keyboard-response,322,1745387,0.0-18.0-23.0-0.0,90974,List1A,black,woman,,,,null,,,,
1675,<p>You got 8 out of 8 right first time. Press Continue.</p>,0,html-button-response,323,1747062,0.0-18.0-25.0,90974,List1A,black,woman,,,,,,,,
null,"<div style=""font-size:60px;"">+</div>",,html-keyboard-response,324,1748571,0.0-19.0-0.0,90974,List1A,black,woman,,,,null,,,,
null,"<img src=""stim_listA/fight7.gif""</stim_listA>",,html-keyboard-response,325,1750574,0.0-19.0-1.0,90974,List1A,black,woman,,,,null,,,,
null,is fighting,,html-keyboard-response,326,1752577,0.0-19.0-2.0,90974,List1A,black,woman,,,,null,,,,
10450,,,survey-text,327,1763029,0.0-19.0-3.0,90974,List1A,black,woman,,,,,"{""Q0"":""jane and kate is fighting""}","<img src=""stim_listA/fight7.gif""</stim_listA>",is fighting,
null,"<div style=""font-size:60px;"">+</div>",,html-keyboard-response,328,1763533,0.0-19.0-0.1,90974,List1A,black,woman,,,,null,,,,
null,"<img src=""stim_listA/argue7.gif""</stim_listA>",,html-keyboard-response,329,1765540,0.0-19.0-1.1,90974,List1A,black,woman,,,,null,,,,
null,is arguing with,,html-keyboard-response,330,1767540,0.0-19.0-2.1,90974,List1A,black,woman,,,,null,,,,
11557,,,survey-text,331,1779099,0.0-19.0-3.1,90974,List1A,black,woman,,,,,"{""Q0"":""ruth is arguing with kate""}","<img src=""stim_listA/argue7.gif""</stim_listA>",is arguing with,
null,"<div style=""font-size:60px;"">+</div>",,html-keyboard-response,332,1779605,0.0-19.0-0.2,90974,List1A,black,woman,,,,null,,,,
null,"<img src=""stim_listA/fight8.gif""</stim_listA>",,html-keyboard-response,333,1781611,0.0-19.0-1.2,90974,List1A,black,woman,,,,null,,,,
null,are fighting each other,,html-keyboard-response,334,1783614,0.0-19.0-2.2,90974,List1A,black,woman,,,,null,,,,
14450,,,survey-text,335,1798066,0.0-19.0-3.2,90974,List1A,black,woman,,,,,"{""Q0"":""beth and ruth are fighting each other""}","<img src=""stim_listA/fight8.gif""</stim_listA>",are fighting each other,
null,"<div style=""font-size:60px;"">+</div>",,html-keyboard-response,336,1798572,0.0-19.0-0.3,90974,List1A,black,woman,,,,null,,,,
null,"<img src=""stim_listA/marry6.gif""</stim_listA>",,html-keyboard-response,337,1800574,0.0-19.0-1.3,90974,List1A,black,woman,,,,null,,,,
null,are marrying each other,,html-keyboard-response,338,1802580,0.0-19.0-2.3,90974,List1A,black,woman,,,,null,,,,
17617,,,survey-text,339,1820198,0.0-19.0-3.3,90974,List1A,black,woman,,,,,"{""Q0"":""fred and dave are marrying each other""}","<img src=""stim_listA/marry6.gif""</stim_listA>",are marrying each other,
null,"<div style=""font-size:60px;"">+</div>",,html-keyboard-response,340,1820704,0.0-19.0-0.4,90974,List1A,black,woman,,,,null,,,,
null,"<img src=""stim_listA/fight2.gif""</stim_listA>",,html-keyboard-response,341,1822705,0.0-19.0-1.4,90974,List1A,black,woman,,,,null,,,,
null,are fighting each other,,html-keyboard-response,342,1824710,0.0-19.0-2.4,90974,List1A,black,woman,,,,null,,,,
11049,,,survey-text,343,1835761,0.0-19.0-3.4,90974,List1A,black,woman,,,,,"{""Q0"":""beth and fred are fighting each other""}","<img src=""stim_listA/fight2.gif""</stim_listA>",are fighting each other,
null,"<div style=""font-size:60px;"">+</div>",,html-keyboard-response,344,1836267,0.0-19.0-0.5,90974,List1A,black,woman,,,,null,,,,
null,"<img src=""stim_listA/dance5.gif""</stim_listA>",,html-keyboard-response,345,1838273,0.0-19.0-1.5,90974,List1A,black,woman,,,,null,,,,
null,is dancing with,,html-keyboard-response,346,1840275,0.0-19.0-2.5,90974,List1A,black,woman,,,,null,,,,
10100,,,survey-text,347,1850376,0.0-19.0-3.5,90974,List1A,black,woman,,,,,"{""Q0"":""fred is dancing with dave""}","<img src=""stim_listA/dance5.gif""</stim_listA>",is dancing with,
null,"<div style=""font-size:60px;"">+</div>",,html-keyboard-response,348,1850882,0.0-19.0-0.6,90974,List1A,black,woman,,,,null,,,,
null,"<img src=""stim_listA/touch1.gif""</stim_listA>",,html-keyboard-response,349,1852889,0.0-19.0-1.6,90974,List1A,black,woman,,,,null,,,,
null,is touching,,html-keyboard-response,350,1854889,0.0-19.0-2.6,90974,List1A,black,woman,,,,null,,,,
9865,,,survey-text,351,1864756,0.0-19.0-3.6,90974,List1A,black,woman,,,,,"{""Q0"":""mike and kate is touching""}","<img src=""stim_listA/touch1.gif""</stim_listA>",is touching,
null,"<div style=""font-size:60px;"">+</div>",,html-keyboard-response,352,1865262,0.0-19.0-0.7,90974,List1A,black,woman,,,,null,,,,
null,"<img src=""stim_listA/talk5.gif""</stim_listA>",,html-keyboard-response,353,1867266,0.0-19.0-1.7,90974,List1A,black,woman,,,,null,,,,
null,is talking to,,html-keyboard-response,354,1869267,0.0-19.0-2.7,90974,List1A,black,woman,,,,null,,,,
10965,,,survey-text,355,1880233,0.0-19.0-3.7,90974,List1A,black,woman,,,,,"{""Q0"":""fred is talking to dave""}","<img src=""stim_listA/talk5.gif""</stim_listA>",is talking to,
null,"<div style=""font-size:60px;"">+</div>",,html-keyboard-response,356,1880739,0.0-19.0-0.8,90974,List1A,black,woman,,,,null,,,,
null,"<img src=""stim_listA/marry1.gif""</stim_listA>",,html-keyboard-response,357,1882743,0.0-19.0-1.8,90974,List1A,black,woman,,,,null,,,,
null,is marrying,,html-keyboard-response,358,1884748,0.0-19.0-2.8,90974,List1A,black,woman,,,,null,,,,
10087,,,survey-text,359,1894836,0.0-19.0-3.8,90974,List1A,black,woman,,,,,"{""Q0"":""mike is marrying beth""}","<img src=""stim_listA/marry1.gif""</stim_listA>",is marrying,
null,"<div style=""font-size:60px;"">+</div>",,html-keyboard-response,360,1895342,0.0-19.0-0.9,90974,List1A,black,woman,,,,null,,,,
null,"<img src=""stim_listA/hug4.gif""</stim_listA>",,html-keyboard-response,361,1897344,0.0-19.0-1.9,90974,List1A,black,woman,,,,null,,,,
null,are hugging each other,,html-keyboard-response,362,1899347,0.0-19.0-2.9,90974,List1A,black,woman,,,,null,,,,
11825,,,survey-text,363,1911173,0.0-19.0-3.9,90974,List1A,black,woman,,,,,"{""Q0"":""jane and dave are hugging each other""}","<img src=""stim_listA/hug4.gif""</stim_listA>",are hugging each other,
null,"<div style=""font-size:60px;"">+</div>",,html-keyboard-response,364,1911677,0.0-19.0-0.10,90974,List1A,black,woman,,,,null,,,,
null,"<img src=""stim_listA/kiss4.gif""</stim_listA>",,html-keyboard-response,365,1913680,0.0-19.0-1.10,90974,List1A,black,woman,,,,null,,,,
null,are kissing each other,,html-keyboard-response,366,1915681,0.0-19.0-2.10,90974,List1A,black,woman,,,,null,,,,
16056,,,survey-text,367,1931738,0.0-19.0-3.10,90974,List1A,black,woman,,,,,"{""Q0"":""jane and dave are kissing each other""}","<img src=""stim_listA/kiss4.gif""</stim_listA>",are kissing each other,
null,"<div style=""font-size:60px;"">+</div>",,html-keyboard-response,368,1932244,0.0-19.0-0.11,90974,List1A,black,woman,,,,null,,,,
null,"<img src=""stim_listA/meet6.gif""</stim_listA>",,html-keyboard-response,369,1934250,0.0-19.0-1.11,90974,List1A,black,woman,,,,null,,,,
null,are meeting each other,,html-keyboard-response,370,1936255,0.0-19.0-2.11,90974,List1A,black,woman,,,,null,,,,
14874,,,survey-text,371,1951130,0.0-19.0-3.11,90974,List1A,black,woman,,,,,"{""Q0"":""luke and fred are meeting each other""}","<img src=""stim_listA/meet6.gif""</stim_listA>",are meeting each other,
null,"<div style=""font-size:60px;"">+</div>",,html-keyboard-response,372,1951632,0.0-19.0-0.12,90974,List1A,black,woman,,,,null,,,,
null,"<img src=""stim_listA/meet3.gif""</stim_listA>",,html-keyboard-response,373,1953638,0.0-19.0-1.12,90974,List1A,black,woman,,,,null,,,,
null,is meeting,,html-keyboard-response,374,1955639,0.0-19.0-2.12,90974,List1A,black,woman,,,,null,,,,
7359,,,survey-text,375,1962999,0.0-19.0-3.12,90974,List1A,black,woman,,,,,"{""Q0"":""jane is meeting dave""}","<img src=""stim_listA/meet3.gif""</stim_listA>",is meeting,
null,"<div style=""font-size:60px;"">+</div>",,html-keyboard-response,376,1963504,0.0-19.0-0.13,90974,List1A,black,woman,,,,null,,,,
null,"<img src=""stim_listA/argue6.gif""</stim_listA>",,html-keyboard-response,377,1965510,0.0-19.0-1.13,90974,List1A,black,woman,,,,null,,,,
null,are arguing with each other,,html-keyboard-response,378,1967511,0.0-19.0-2.13,90974,List1A,black,woman,,,,null,,,,
16879,,,survey-text,379,1984391,0.0-19.0-3.13,90974,List1A,black,woman,,,,,"{""Q0"":""dave and fred are arguing with each other""}","<img src=""stim_listA/argue6.gif""</stim_listA>",are arguing with each other,
null,"<div style=""font-size:60px;"">+</div>",,html-keyboard-response,380,1984897,0.0-19.0-0.14,90974,List1A,black,woman,,,,null,,,,
null,"<img src=""stim_listA/fight5.gif""</stim_listA>",,html-keyboard-response,381,1986898,0.0-19.0-1.14,90974,List1A,black,woman,,,,null,,,,
null,is fighting,,html-keyboard-response,382,1988903,0.0-19.0-2.14,90974,List1A,black,woman,,,,null,,,,
8788,,,survey-text,383,1997693,0.0-19.0-3.14,90974,List1A,black,woman,,,,,"{""Q0"":""mike and dave is fighting""}","<img src=""stim_listA/fight5.gif""</stim_listA>",is fighting,
null,"<div style=""font-size:60px;"">+</div>",,html-keyboard-response,384,1998199,0.0-19.0-0.15,90974,List1A,black,woman,,,,null,,,,
null,"<img src=""stim_listA/dance1.gif""</stim_listA>",,html-keyboard-response,385,2000202,0.0-19.0-1.15,90974,List1A,black,woman,,,,null,,,,
null,is dancing with,,html-keyboard-response,386,2002203,0.0-19.0-2.15,90974,List1A,black,woman,,,,null,,,,
13572,,,survey-text,387,2015776,0.0-19.0-3.15,90974,List1A,black,woman,,,,,"{""Q0"":""kate is dancing with fred""}","<img src=""stim_listA/dance1.gif""</stim_listA>",is dancing with,
null,"<div style=""font-size:60px;"">+</div>",,html-keyboard-response,388,2016278,0.0-19.0-0.16,90974,List1A,black,woman,,,,null,,,,
null,"<img src=""stim_listA/hug7.gif""</stim_listA>",,html-keyboard-response,389,2018284,0.0-19.0-1.16,90974,List1A,black,woman,,,,null,,,,
null,is hugging,,html-keyboard-response,390,2020286,0.0-19.0-2.16,90974,List1A,black,woman,,,,null,,,,
41329,,,survey-text,391,2061615,0.0-19.0-3.16,90974,List1A,black,woman,,,,,"{""Q0"":""beth and ruth is hugging""}","<img src=""stim_listA/hug7.gif""</stim_listA>",is hugging,
null,"<div style=""font-size:60px;"">+</div>",,html-keyboard-response,392,2062119,0.0-19.0-0.17,90974,List1A,black,woman,,,,null,,,,
null,"<img src=""stim_listA/talk1.gif""</stim_listA>",,html-keyboard-response,393,2064122,0.0-19.0-1.17,90974,List1A,black,woman,,,,null,,,,
null,is talking to,,html-keyboard-response,394,2066123,0.0-19.0-2.17,90974,List1A,black,woman,,,,null,,,,
13823,,,survey-text,395,2079946,0.0-19.0-3.17,90974,List1A,black,woman,,,,,"{""Q0"":""kate is talking to fred""}","<img src=""stim_listA/talk1.gif""</stim_listA>",is talking to,
null,"<div style=""font-size:60px;"">+</div>",,html-keyboard-response,396,2080452,0.0-19.0-0.18,90974,List1A,black,woman,,,,null,,,,
null,"<img src=""stim_listA/meet7.gif""</stim_listA>",,html-keyboard-response,397,2082454,0.0-19.0-1.18,90974,List1A,black,woman,,,,null,,,,
null,is meeting,,html-keyboard-response,398,2084457,0.0-19.0-2.18,90974,List1A,black,woman,,,,null,,,,
7966,,,survey-text,399,2092424,0.0-19.0-3.18,90974,List1A,black,woman,,,,,"{""Q0"":""jane is meeting kate""}","<img src=""stim_listA/meet7.gif""</stim_listA>",is meeting,
null,"<div style=""font-size:60px;"">+</div>",,html-keyboard-response,400,2092930,0.0-19.0-0.19,90974,List1A,black,woman,,,,null,,,,
null,"<img src=""stim_listA/fight3.gif""</stim_listA>",,html-keyboard-response,401,2094936,0.0-19.0-1.19,90974,List1A,black,woman,,,,null,,,,
null,is fighting,,html-keyboard-response,402,2096937,0.0-19.0-2.19,90974,List1A,black,woman,,,,null,,,,
10973,,,survey-text,403,2107910,0.0-19.0-3.19,90974,List1A,black,woman,,,,,"{""Q0"":""dave and jane is fighting""}","<img src=""stim_listA/fight3.gif""</stim_listA>",is fighting,
4683,<p>Thank you for completing that task.</p><p>The final part of this session is a short questionnaire.</p><p>Press Continue.</p>,0,html-button-response,404,2112594,0.0-20.0,90974,List1A,black,woman,,,,,,,,
42333,,,survey-text,405,2155932,0.0-21.0,90974,List1A,black,woman,,,,,"{""Q0"":""36"",""Q1"":""English"",""Q2"":""English"",""Q3"":""London"",""Q4"":""Black"",""Q5"":""Female""}",,,demographics
59412,,,survey-likert,406,2215350,0.0-22.0,90974,List1A,black,woman,,,,,"{""Q0"":6,""Q1"":6,""Q2"":6,""Q3"":6,""Q4"":6,""Q5"":6,""Q6"":6,""Q7"":1,""Q8"":6,""Q9"":6,""Q10"":1,""Q11"":3,""Q12"":3,""Q13"":2}",,,likert_race
42275,,,survey-likert,407,2257631,0.0-23.0,90974,List1A,black,woman,,,,,"{""Q0"":6,""Q1"":6,""Q2"":6,""Q3"":6,""Q4"":6,""Q5"":4,""Q6"":6,""Q7"":3,""Q8"":6,""Q9"":"""",""Q10"":5,""Q11"":4,""Q12"":3,""Q13"":3}",,,likert_gender
7582,,,survey-text,408,2265215,0.0-24.0,90974,List1A,black,woman,,,,,"{""Q0"":""ccc""}",,,worker_id
18098,,,external-html,409,2283394,0.0-25.0,90974,List1A,black,woman,debrief.html,,,,,,,
