rt,stimulus,button_pressed,trial_type,trial_index,time_elapsed,internal_node_id,subject,list,ppt_race,ppt_gender,url,first_guess,correct,key_press,responses,image_type,phrase_type,test_part
1969,Welcome to the experiment. Press Continue to begin.,0,html-button-response,0,1974,0.0-0.0,91610,List1A,black,man,,,,,,,,
91273,,,external-html,1,94409,0.0-1.0,91610,List1A,black,man,consent.html,,,,,,,
2061,"<p>On the next page, you will see portraits of 8 people and their names.</p><p>Your first task is to take a few minutes to memorise the names of these people.</p><p>You will have to recall their names during the rest of the experiment, so it is</p><p>essential that you try to memorise these people and their names as best as you can.</p><br><p><strong>You will then be tested on your memory of these names and portraits.</strong></p><br><p>The experiment will start after you have completed this memory test.</p><br><p>Ready?</p>",0,html-button-response,2,96473,0.0-2.0,91610,List1A,black,man,,,,,,,,
12230,"<img src='img/portrait_matrix_list1.JPG' style='width:900px;height:500px;''></img><p>If you have memorised all the portraits and names and are ready to start, press Continue.</p><p><strong>Please note: Your memory of these faces will be tested 4 times during this experiment.</strong></p>",0,html-button-response,3,109709,0.0-3.0-0.0,91610,List1A,black,man,,,,,,,,
7016,"<img src=""portrait/WW2.jpg""style=""width:400px;height:400px;""></img>",0,html-button-response,4,117729,0.0-3.0-1.0,91610,List1A,black,man,,TRUE,3,,,,,
3887,"<img src=""portrait/WW2.jpg""style=""width:400px;height:400px;""></img>",3,html-button-response,5,122620,0.0-3.0-3.0-0.0,91610,List1A,black,man,,FALSE,3,,,,,
null,CORRECT,,html-keyboard-response,6,124125,0.0-3.0-3.0-1.0-0.0,91610,List1A,black,man,,,,null,,,,
9223,"<img src=""portrait/WM2.jpg""style=""width:400px;height:400px;""></img>",4,html-button-response,7,133352,0.0-3.0-4.0,91610,List1A,black,man,,TRUE,7,,,,,
1714,"<img src=""portrait/WM2.jpg""style=""width:400px;height:400px;""></img>",7,html-button-response,8,136073,0.0-3.0-6.0-0.0,91610,List1A,black,man,,FALSE,7,,,,,
null,CORRECT,,html-keyboard-response,9,137577,0.0-3.0-6.0-1.0-0.0,91610,List1A,black,man,,,,null,,,,
2767,"<img src=""portrait/WM1.jpg""style=""width:400px;height:400px;""></img>",0,html-button-response,10,140348,0.0-3.0-7.0,91610,List1A,black,man,,TRUE,6,,,,,
2313,"<img src=""portrait/WM1.jpg""style=""width:400px;height:400px;""></img>",6,html-button-response,11,143665,0.0-3.0-9.0-0.0,91610,List1A,black,man,,FALSE,6,,,,,
null,CORRECT,,html-keyboard-response,12,145169,0.0-3.0-9.0-1.0-0.0,91610,List1A,black,man,,,,null,,,,
3237,"<img src=""portrait/BW1.jpg""style=""width:400px;height:400px;""></img>",1,html-button-response,13,148408,0.0-3.0-10.0,91610,List1A,black,man,,TRUE,0,,,,,
1840,"<img src=""portrait/BW1.jpg""style=""width:400px;height:400px;""></img>",0,html-button-response,14,151252,0.0-3.0-12.0-0.0,91610,List1A,black,man,,FALSE,0,,,,,
null,CORRECT,,html-keyboard-response,15,152755,0.0-3.0-12.0-1.0-0.0,91610,List1A,black,man,,,,null,,,,
2987,"<img src=""portrait/WW1.jpg""style=""width:400px;height:400px;""></img>",1,html-button-response,16,155745,0.0-3.0-13.0,91610,List1A,black,man,,TRUE,1,,,,,
null,CORRECT,,html-keyboard-response,17,157248,0.0-3.0-14.0-0.0,91610,List1A,black,man,,,,null,,,,
3436,"<img src=""portrait/BM1.jpg""style=""width:400px;height:400px;""></img>",5,html-button-response,18,160689,0.0-3.0-16.0,91610,List1A,black,man,,TRUE,4,,,,,
1548,"<img src=""portrait/BM1.jpg""style=""width:400px;height:400px;""></img>",4,html-button-response,19,163245,0.0-3.0-18.0-0.0,91610,List1A,black,man,,FALSE,4,,,,,
null,CORRECT,,html-keyboard-response,20,164749,0.0-3.0-18.0-1.0-0.0,91610,List1A,black,man,,,,null,,,,
2399,"<img src=""portrait/BW2.jpg""style=""width:400px;height:400px;""></img>",2,html-button-response,21,167153,0.0-3.0-19.0,91610,List1A,black,man,,TRUE,2,,,,,
null,CORRECT,,html-keyboard-response,22,168657,0.0-3.0-20.0-0.0,91610,List1A,black,man,,,,null,,,,
2182,"<img src=""portrait/BM2.jpg""style=""width:400px;height:400px;""></img>",5,html-button-response,23,170840,0.0-3.0-22.0,91610,List1A,black,man,,TRUE,5,,,,,
null,CORRECT,,html-keyboard-response,24,172345,0.0-3.0-23.0-0.0,91610,List1A,black,man,,,,null,,,,
1428,<p>You got 3 out of 8 right first time. Press Continue.</p>,0,html-button-response,25,173776,0.0-3.0-25.0,91610,List1A,black,man,,,,,,,,
1925,"As you did not score 100%, the memory game will repeat. Press Continue.",0,html-button-response,26,176704,0.0-3.0-26.0-0.0,91610,List1A,black,man,,,,,,,,
5770,"<img src='img/portrait_matrix_list1.JPG' style='width:900px;height:500px;''></img><p>If you have memorised all the portraits and names and are ready to start, press Continue.</p><p><strong>Please note: Your memory of these faces will be tested 4 times during this experiment.</strong></p>",0,html-button-response,27,183480,0.0-3.1-0.1,91610,List1A,black,man,,,,,,,,
3235,"<img src=""portrait/WW2.jpg""style=""width:400px;height:400px;""></img>",3,html-button-response,28,187720,0.0-3.1-1.1,91610,List1A,black,man,,TRUE,3,,,,,
null,CORRECT,,html-keyboard-response,29,189224,0.0-3.1-2.1-0.1,91610,List1A,black,man,,,,null,,,,
2269,"<img src=""portrait/WM2.jpg""style=""width:400px;height:400px;""></img>",7,html-button-response,30,191497,0.0-3.1-4.1,91610,List1A,black,man,,TRUE,7,,,,,
null,CORRECT,,html-keyboard-response,31,192999,0.0-3.1-5.1-0.1,91610,List1A,black,man,,,,null,,,,
5453,"<img src=""portrait/WM1.jpg""style=""width:400px;height:400px;""></img>",6,html-button-response,32,198456,0.0-3.1-7.1,91610,List1A,black,man,,TRUE,6,,,,,
null,CORRECT,,html-keyboard-response,33,199960,0.0-3.1-8.1-0.1,91610,List1A,black,man,,,,null,,,,
2677,"<img src=""portrait/BW1.jpg""style=""width:400px;height:400px;""></img>",0,html-button-response,34,202639,0.0-3.1-10.1,91610,List1A,black,man,,TRUE,0,,,,,
null,CORRECT,,html-keyboard-response,35,204143,0.0-3.1-11.1-0.1,91610,List1A,black,man,,,,null,,,,
4002,"<img src=""portrait/WW1.jpg""style=""width:400px;height:400px;""></img>",1,html-button-response,36,208148,0.0-3.1-13.1,91610,List1A,black,man,,TRUE,1,,,,,
null,CORRECT,,html-keyboard-response,37,209651,0.0-3.1-14.1-0.1,91610,List1A,black,man,,,,null,,,,
5402,"<img src=""portrait/BM1.jpg""style=""width:400px;height:400px;""></img>",5,html-button-response,38,215056,0.0-3.1-16.1,91610,List1A,black,man,,TRUE,4,,,,,
2047,"<img src=""portrait/BM1.jpg""style=""width:400px;height:400px;""></img>",4,html-button-response,39,218108,0.0-3.1-18.1-0.1,91610,List1A,black,man,,FALSE,4,,,,,
null,CORRECT,,html-keyboard-response,40,219612,0.0-3.1-18.1-1.1-0.1,91610,List1A,black,man,,,,null,,,,
1545,"<img src=""portrait/BW2.jpg""style=""width:400px;height:400px;""></img>",2,html-button-response,41,221161,0.0-3.1-19.1,91610,List1A,black,man,,TRUE,2,,,,,
null,CORRECT,,html-keyboard-response,42,222667,0.0-3.1-20.1-0.1,91610,List1A,black,man,,,,null,,,,
2535,"<img src=""portrait/BM2.jpg""style=""width:400px;height:400px;""></img>",6,html-button-response,43,225208,0.0-3.1-22.1,91610,List1A,black,man,,TRUE,5,,,,,
1371,"<img src=""portrait/BM2.jpg""style=""width:400px;height:400px;""></img>",5,html-button-response,44,227584,0.0-3.1-24.1-0.1,91610,List1A,black,man,,FALSE,5,,,,,
null,CORRECT,,html-keyboard-response,45,229090,0.0-3.1-24.1-1.1-0.1,91610,List1A,black,man,,,,null,,,,
1691,<p>You got 6 out of 8 right first time. Press Continue.</p>,0,html-button-response,46,230784,0.0-3.1-25.1,91610,List1A,black,man,,,,,,,,
1577,"As you did not score 100%, the memory game will repeat. Press Continue.",0,html-button-response,47,233363,0.0-3.1-26.1-0.1,91610,List1A,black,man,,,,,,,,
19518,"<img src='img/portrait_matrix_list1.JPG' style='width:900px;height:500px;''></img><p>If you have memorised all the portraits and names and are ready to start, press Continue.</p><p><strong>Please note: Your memory of these faces will be tested 4 times during this experiment.</strong></p>",0,html-button-response,48,253887,0.0-3.2-0.2,91610,List1A,black,man,,,,,,,,
3156,"<img src=""portrait/WW2.jpg""style=""width:400px;height:400px;""></img>",3,html-button-response,49,258047,0.0-3.2-1.2,91610,List1A,black,man,,TRUE,3,,,,,
null,CORRECT,,html-keyboard-response,50,259551,0.0-3.2-2.2-0.2,91610,List1A,black,man,,,,null,,,,
2799,"<img src=""portrait/WM2.jpg""style=""width:400px;height:400px;""></img>",7,html-button-response,51,262352,0.0-3.2-4.2,91610,List1A,black,man,,TRUE,7,,,,,
null,CORRECT,,html-keyboard-response,52,263855,0.0-3.2-5.2-0.2,91610,List1A,black,man,,,,null,,,,
4004,"<img src=""portrait/WM1.jpg""style=""width:400px;height:400px;""></img>",6,html-button-response,53,267864,0.0-3.2-7.2,91610,List1A,black,man,,TRUE,6,,,,,
null,CORRECT,,html-keyboard-response,54,269366,0.0-3.2-8.2-0.2,91610,List1A,black,man,,,,null,,,,
2451,"<img src=""portrait/BW1.jpg""style=""width:400px;height:400px;""></img>",0,html-button-response,55,271819,0.0-3.2-10.2,91610,List1A,black,man,,TRUE,0,,,,,
null,CORRECT,,html-keyboard-response,56,273324,0.0-3.2-11.2-0.2,91610,List1A,black,man,,,,null,,,,
3469,"<img src=""portrait/WW1.jpg""style=""width:400px;height:400px;""></img>",1,html-button-response,57,276796,0.0-3.2-13.2,91610,List1A,black,man,,TRUE,1,,,,,
null,CORRECT,,html-keyboard-response,58,278301,0.0-3.2-14.2-0.2,91610,List1A,black,man,,,,null,,,,
3483,"<img src=""portrait/BM1.jpg""style=""width:400px;height:400px;""></img>",4,html-button-response,59,281791,0.0-3.2-16.2,91610,List1A,black,man,,TRUE,4,,,,,
null,CORRECT,,html-keyboard-response,60,283295,0.0-3.2-17.2-0.2,91610,List1A,black,man,,,,null,,,,
2964,"<img src=""portrait/BW2.jpg""style=""width:400px;height:400px;""></img>",2,html-button-response,61,286263,0.0-3.2-19.2,91610,List1A,black,man,,TRUE,2,,,,,
null,CORRECT,,html-keyboard-response,62,287767,0.0-3.2-20.2-0.2,91610,List1A,black,man,,,,null,,,,
3078,"<img src=""portrait/BM2.jpg""style=""width:400px;height:400px;""></img>",5,html-button-response,63,290848,0.0-3.2-22.2,91610,List1A,black,man,,TRUE,5,,,,,
null,CORRECT,,html-keyboard-response,64,292351,0.0-3.2-23.2-0.2,91610,List1A,black,man,,,,null,,,,
1398,<p>You got 8 out of 8 right first time. Press Continue.</p>,0,html-button-response,65,293751,0.0-3.2-25.2,91610,List1A,black,man,,,,,,,,
19078,"<p>In this experiment, you will view photographs of the people from the memory game interacting.</p><p>By using the <strong>exact</strong> phrase given <i>after</i> the photograph appears and recalling the correct names of the people in the photographs, form a sentence describing the interaction. You do not need to capitalise names.</p><p>Type your answer in the space provided. Please complete every sentence before moving onto the next trial.</p><p>You will only have a few seconds to memorise each given photograph and phrase before you can respond, so try your best to focus.</p><p>An example is given below. Press 'Continue' when you are ready.</p><img src='img/speaking_example_v2.jpg' style='width:800px;height:460px;''></img>",0,html-button-response,66,313835,0.0-4.0,91610,List1A,black,man,,,,,,,,
2000,"<p>Before the experiment starts, you will watch two example trials. Press 'Continue'.</p>",0,html-button-response,67,316838,0.0-5.0,91610,List1A,black,man,,,,,,,,
null,<img src='img/speaking_WW.gif'></img>,,html-keyboard-response,68,319844,0.0-6.0,91610,List1A,black,man,,,,null,,,,
null,<p>is speaking to</p>,,html-keyboard-response,69,321845,0.0-7.0,91610,List1A,black,man,,,,null,,,,
1510,<p><b>Answer:</b> kate is speaking to beth</p>,0,html-button-response,70,323355,0.0-8.0,91610,List1A,black,man,,,,,,,,
null,<img src='img/pointing_BM.gif'></img>,,html-keyboard-response,71,326360,0.0-9.0,91610,List1A,black,man,,,,null,,,,
null,<p>are pointing at each other</p>,,html-keyboard-response,72,328360,0.0-10.0,91610,List1A,black,man,,,,null,,,,
3006,<p><b>Answer:</b> luke and dave are pointing at each other</p>,0,html-button-response,73,331367,0.0-11.0,91610,List1A,black,man,,,,,,,,
1201,"<p>Ready to start the experiment?</p><br><p><strong>Remember to describe the picture using a full sentence,</strong></p><p><strong>that combines the names of the people with the given phrase.</strong></p><p><strong>If you do not do this correctly you will not be paid.</strong></p><p><strong> You do not need to capitalise names or use punctuation.</strong></p><br><p>Press 'Continue' to begin.</p>",0,html-button-response,74,333571,0.0-12.0,91610,List1A,black,man,,,,,,,,
null,"<div style=""font-size:60px;"">+</div>",,html-keyboard-response,75,335074,0.0-13.0-0.0,91610,List1A,black,man,,,,null,,,,
null,"<img src=""stim_listA/marry4.gif""</stim_listA>",,html-keyboard-response,76,337077,0.0-13.0-1.0,91610,List1A,black,man,,,,null,,,,
null,are marrying each other,,html-keyboard-response,77,339079,0.0-13.0-2.0,91610,List1A,black,man,,,,null,,,,
15081,,,survey-text,78,354163,0.0-13.0-3.0,91610,List1A,black,man,,,,,"{""Q0"":""Luke and Jane""}","<img src=""stim_listA/marry4.gif""</stim_listA>",are marrying each other,
null,"<div style=""font-size:60px;"">+</div>",,html-keyboard-response,79,354666,0.0-13.0-0.1,91610,List1A,black,man,,,,null,,,,
null,"<img src=""stim_listA/shout7.gif""</stim_listA>",,html-keyboard-response,80,356670,0.0-13.0-1.1,91610,List1A,black,man,,,,null,,,,
null,is shouting at,,html-keyboard-response,81,358673,0.0-13.0-2.1,91610,List1A,black,man,,,,null,,,,
6651,,,survey-text,82,365326,0.0-13.0-3.1,91610,List1A,black,man,,,,,"{""Q0"":""Ruth and Beth""}","<img src=""stim_listA/shout7.gif""</stim_listA>",is shouting at,
null,"<div style=""font-size:60px;"">+</div>",,html-keyboard-response,83,365829,0.0-13.0-0.2,91610,List1A,black,man,,,,null,,,,
null,"<img src=""stim_listA/touch6.gif""</stim_listA>",,html-keyboard-response,84,367830,0.0-13.0-1.2,91610,List1A,black,man,,,,null,,,,
null,are touching each other,,html-keyboard-response,85,369833,0.0-13.0-2.2,91610,List1A,black,man,,,,null,,,,
9616,,,survey-text,86,379451,0.0-13.0-3.2,91610,List1A,black,man,,,,,"{""Q0"":""Fred and Luke""}","<img src=""stim_listA/touch6.gif""</stim_listA>",are touching each other,
null,"<div style=""font-size:60px;"">+</div>",,html-keyboard-response,87,379952,0.0-13.0-0.3,91610,List1A,black,man,,,,null,,,,
null,"<img src=""stim_listA/dance6.gif""</stim_listA>",,html-keyboard-response,88,381956,0.0-13.0-1.3,91610,List1A,black,man,,,,null,,,,
null,are dancing with each other,,html-keyboard-response,89,383960,0.0-13.0-2.3,91610,List1A,black,man,,,,null,,,,
10004,,,survey-text,90,393967,0.0-13.0-3.3,91610,List1A,black,man,,,,,"{""Q0"":""Luke and Mike""}","<img src=""stim_listA/dance6.gif""</stim_listA>",are dancing with each other,
null,"<div style=""font-size:60px;"">+</div>",,html-keyboard-response,91,394468,0.0-13.0-0.4,91610,List1A,black,man,,,,null,,,,
null,"<img src=""stim_listA/hug7.gif""</stim_listA>",,html-keyboard-response,92,396471,0.0-13.0-1.4,91610,List1A,black,man,,,,null,,,,
null,is hugging,,html-keyboard-response,93,398473,0.0-13.0-2.4,91610,List1A,black,man,,,,null,,,,
5489,,,survey-text,94,403963,0.0-13.0-3.4,91610,List1A,black,man,,,,,"{""Q0"":""Ruth and Beth""}","<img src=""stim_listA/hug7.gif""</stim_listA>",is hugging,
null,"<div style=""font-size:60px;"">+</div>",,html-keyboard-response,95,404464,0.0-13.0-0.5,91610,List1A,black,man,,,,null,,,,
null,"<img src=""stim_listA/argue2.gif""</stim_listA>",,html-keyboard-response,96,406467,0.0-13.0-1.5,91610,List1A,black,man,,,,null,,,,
null,are arguing with each other,,html-keyboard-response,97,408471,0.0-13.0-2.5,91610,List1A,black,man,,,,null,,,,
19585,,,survey-text,98,428058,0.0-13.0-3.5,91610,List1A,black,man,,,,,"{""Q0"":""Fred and Kate""}","<img src=""stim_listA/argue2.gif""</stim_listA>",are arguing with each other,
null,"<div style=""font-size:60px;"">+</div>",,html-keyboard-response,99,428561,0.0-13.0-0.6,91610,List1A,black,man,,,,null,,,,
null,"<img src=""stim_listA/fight7.gif""</stim_listA>",,html-keyboard-response,100,430565,0.0-13.0-1.6,91610,List1A,black,man,,,,null,,,,
null,is fighting,,html-keyboard-response,101,432584,0.0-13.0-2.6,91610,List1A,black,man,,,,null,,,,
4872,,,survey-text,102,437459,0.0-13.0-3.6,91610,List1A,black,man,,,,,"{""Q0"":""Jane and Kate""}","<img src=""stim_listA/fight7.gif""</stim_listA>",is fighting,
null,"<div style=""font-size:60px;"">+</div>",,html-keyboard-response,103,437961,0.0-13.0-0.7,91610,List1A,black,man,,,,null,,,,
null,"<img src=""stim_listA/talk8.gif""</stim_listA>",,html-keyboard-response,104,439965,0.0-13.0-1.7,91610,List1A,black,man,,,,null,,,,
null,are talking to each other,,html-keyboard-response,105,441968,0.0-13.0-2.7,91610,List1A,black,man,,,,null,,,,
9691,,,survey-text,106,451662,0.0-13.0-3.7,91610,List1A,black,man,,,,,"{""Q0"":""Dave and Beth""}","<img src=""stim_listA/talk8.gif""</stim_listA>",are talking to each other,
null,"<div style=""font-size:60px;"">+</div>",,html-keyboard-response,107,452164,0.0-13.0-0.8,91610,List1A,black,man,,,,null,,,,
null,"<img src=""stim_listA/hug1.gif""</stim_listA>",,html-keyboard-response,108,454165,0.0-13.0-1.8,91610,List1A,black,man,,,,null,,,,
null,is hugging,,html-keyboard-response,109,456167,0.0-13.0-2.8,91610,List1A,black,man,,,,null,,,,
36813,,,survey-text,110,492982,0.0-13.0-3.8,91610,List1A,black,man,,,,,"{""Q0"":""Beth and Fred""}","<img src=""stim_listA/hug1.gif""</stim_listA>",is hugging,
null,"<div style=""font-size:60px;"">+</div>",,html-keyboard-response,111,493486,0.0-13.0-0.9,91610,List1A,black,man,,,,null,,,,
null,"<img src=""stim_listA/kiss4.gif""</stim_listA>",,html-keyboard-response,112,495492,0.0-13.0-1.9,91610,List1A,black,man,,,,null,,,,
null,are kissing each other,,html-keyboard-response,113,497496,0.0-13.0-2.9,91610,List1A,black,man,,,,null,,,,
24351,,,survey-text,114,521849,0.0-13.0-3.9,91610,List1A,black,man,,,,,"{""Q0"":""Jane and Beth""}","<img src=""stim_listA/kiss4.gif""</stim_listA>",are kissing each other,
null,"<div style=""font-size:60px;"">+</div>",,html-keyboard-response,115,522352,0.0-13.0-0.10,91610,List1A,black,man,,,,null,,,,
null,"<img src=""stim_listA/fight6.gif""</stim_listA>",,html-keyboard-response,116,524355,0.0-13.0-1.10,91610,List1A,black,man,,,,null,,,,
null,are fighting each other,,html-keyboard-response,117,526357,0.0-13.0-2.10,91610,List1A,black,man,,,,null,,,,
5855,,,survey-text,118,532213,0.0-13.0-3.10,91610,List1A,black,man,,,,,"{""Q0"":""Luke and Fred""}","<img src=""stim_listA/fight6.gif""</stim_listA>",are fighting each other,
null,"<div style=""font-size:60px;"">+</div>",,html-keyboard-response,119,532716,0.0-13.0-0.11,91610,List1A,black,man,,,,null,,,,
null,"<img src=""stim_listA/dance8.gif""</stim_listA>",,html-keyboard-response,120,534718,0.0-13.0-1.11,91610,List1A,black,man,,,,null,,,,
null,are dancing with each other,,html-keyboard-response,121,536720,0.0-13.0-2.11,91610,List1A,black,man,,,,null,,,,
6955,,,survey-text,122,543677,0.0-13.0-3.11,91610,List1A,black,man,,,,,"{""Q0"":""Ruth and Kate""}","<img src=""stim_listA/dance8.gif""</stim_listA>",are dancing with each other,
null,"<div style=""font-size:60px;"">+</div>",,html-keyboard-response,123,544179,0.0-13.0-0.12,91610,List1A,black,man,,,,null,,,,
null,"<img src=""stim_listA/marry3.gif""</stim_listA>",,html-keyboard-response,124,546183,0.0-13.0-1.12,91610,List1A,black,man,,,,null,,,,
null,is marrying,,html-keyboard-response,125,548184,0.0-13.0-2.12,91610,List1A,black,man,,,,null,,,,
4244,,,survey-text,126,552429,0.0-13.0-3.12,91610,List1A,black,man,,,,,"{""Q0"":""Ruth and Dave""}","<img src=""stim_listA/marry3.gif""</stim_listA>",is marrying,
null,"<div style=""font-size:60px;"">+</div>",,html-keyboard-response,127,552931,0.0-13.0-0.13,91610,List1A,black,man,,,,null,,,,
null,"<img src=""stim_listA/hug4.gif""</stim_listA>",,html-keyboard-response,128,554933,0.0-13.0-1.13,91610,List1A,black,man,,,,null,,,,
null,are hugging each other,,html-keyboard-response,129,556935,0.0-13.0-2.13,91610,List1A,black,man,,,,null,,,,
40665,,,survey-text,130,597601,0.0-13.0-3.13,91610,List1A,black,man,,,,,"{""Q0"":""Dave and Jane""}","<img src=""stim_listA/hug4.gif""</stim_listA>",are hugging each other,
null,"<div style=""font-size:60px;"">+</div>",,html-keyboard-response,131,598102,0.0-13.0-0.14,91610,List1A,black,man,,,,null,,,,
null,"<img src=""stim_listA/talk6.gif""</stim_listA>",,html-keyboard-response,132,600105,0.0-13.0-1.14,91610,List1A,black,man,,,,null,,,,
null,are talking to each other,,html-keyboard-response,133,602105,0.0-13.0-2.14,91610,List1A,black,man,,,,null,,,,
6705,,,survey-text,134,608813,0.0-13.0-3.14,91610,List1A,black,man,,,,,"{""Q0"":""Jane and Luke""}","<img src=""stim_listA/talk6.gif""</stim_listA>",are talking to each other,
null,"<div style=""font-size:60px;"">+</div>",,html-keyboard-response,135,609318,0.0-13.0-0.15,91610,List1A,black,man,,,,null,,,,
null,"<img src=""stim_listA/dance3.gif""</stim_listA>",,html-keyboard-response,136,611325,0.0-13.0-1.15,91610,List1A,black,man,,,,null,,,,
null,is dancing with,,html-keyboard-response,137,613329,0.0-13.0-2.15,91610,List1A,black,man,,,,null,,,,
5014,,,survey-text,138,618345,0.0-13.0-3.15,91610,List1A,black,man,,,,,"{""Q0"":""Jane and Luke""}","<img src=""stim_listA/dance3.gif""</stim_listA>",is dancing with,
null,"<div style=""font-size:60px;"">+</div>",,html-keyboard-response,139,618849,0.0-13.0-0.16,91610,List1A,black,man,,,,null,,,,
null,"<img src=""stim_listA/hug5.gif""</stim_listA>",,html-keyboard-response,140,620854,0.0-13.0-1.16,91610,List1A,black,man,,,,null,,,,
null,is hugging,,html-keyboard-response,141,622857,0.0-13.0-2.16,91610,List1A,black,man,,,,null,,,,
5190,,,survey-text,142,628049,0.0-13.0-3.16,91610,List1A,black,man,,,,,"{""Q0"":""Luke and Fred""}","<img src=""stim_listA/hug5.gif""</stim_listA>",is hugging,
null,"<div style=""font-size:60px;"">+</div>",,html-keyboard-response,143,628551,0.0-13.0-0.17,91610,List1A,black,man,,,,null,,,,
null,"<img src=""stim_listA/dance2.gif""</stim_listA>",,html-keyboard-response,144,630554,0.0-13.0-1.17,91610,List1A,black,man,,,,null,,,,
null,are dancing with each other,,html-keyboard-response,145,632557,0.0-13.0-2.17,91610,List1A,black,man,,,,null,,,,
6132,,,survey-text,146,638693,0.0-13.0-3.17,91610,List1A,black,man,,,,,"{""Q0"":""Mike and Beth""}","<img src=""stim_listA/dance2.gif""</stim_listA>",are dancing with each other,
null,"<div style=""font-size:60px;"">+</div>",,html-keyboard-response,147,639195,0.0-13.0-0.18,91610,List1A,black,man,,,,null,,,,
null,"<img src=""stim_listA/marry2.gif""</stim_listA>",,html-keyboard-response,148,641197,0.0-13.0-1.18,91610,List1A,black,man,,,,null,,,,
null,are marrying each other,,html-keyboard-response,149,643199,0.0-13.0-2.18,91610,List1A,black,man,,,,null,,,,
4219,,,survey-text,150,647420,0.0-13.0-3.18,91610,List1A,black,man,,,,,"{""Q0"":""Fred and Kate""}","<img src=""stim_listA/marry2.gif""</stim_listA>",are marrying each other,
null,"<div style=""font-size:60px;"">+</div>",,html-keyboard-response,151,647923,0.0-13.0-0.19,91610,List1A,black,man,,,,null,,,,
null,"<img src=""stim_listA/fight8.gif""</stim_listA>",,html-keyboard-response,152,649928,0.0-13.0-1.19,91610,List1A,black,man,,,,null,,,,
null,are fighting each other,,html-keyboard-response,153,651929,0.0-13.0-2.19,91610,List1A,black,man,,,,null,,,,
9514,,,survey-text,154,661445,0.0-13.0-3.19,91610,List1A,black,man,,,,,"{""Q0"":""Ruth and Beth""}","<img src=""stim_listA/fight8.gif""</stim_listA>",are fighting each other,
4690,"<img src='img/portrait_matrix_list1.JPG' style='width:900px;height:500px;''></img><p>If you have memorised all the portraits and names and are ready to start, press Continue.</p><p><strong>Please note: Your memory of these faces will be tested 4 times during this experiment.</strong></p>",0,html-button-response,155,666137,0.0-14.0-0.0,91610,List1A,black,man,,,,,,,,
7852,"<img src=""portrait/WM1.jpg""style=""width:400px;height:400px;""></img>",6,html-button-response,156,674993,0.0-14.0-1.0,91610,List1A,black,man,,TRUE,6,,,,,
null,CORRECT,,html-keyboard-response,157,676497,0.0-14.0-2.0-0.0,91610,List1A,black,man,,,,null,,,,
4213,"<img src=""portrait/WW1.jpg""style=""width:400px;height:400px;""></img>",1,html-button-response,158,680712,0.0-14.0-4.0,91610,List1A,black,man,,TRUE,1,,,,,
null,CORRECT,,html-keyboard-response,159,682216,0.0-14.0-5.0-0.0,91610,List1A,black,man,,,,null,,,,
2988,"<img src=""portrait/BW2.jpg""style=""width:400px;height:400px;""></img>",2,html-button-response,160,685209,0.0-14.0-7.0,91610,List1A,black,man,,TRUE,2,,,,,
null,CORRECT,,html-keyboard-response,161,686713,0.0-14.0-8.0-0.0,91610,List1A,black,man,,,,null,,,,
2292,"<img src=""portrait/WM2.jpg""style=""width:400px;height:400px;""></img>",7,html-button-response,162,689008,0.0-14.0-10.0,91610,List1A,black,man,,TRUE,7,,,,,
null,CORRECT,,html-keyboard-response,163,690512,0.0-14.0-11.0-0.0,91610,List1A,black,man,,,,null,,,,
5498,"<img src=""portrait/BW1.jpg""style=""width:400px;height:400px;""></img>",0,html-button-response,164,696012,0.0-14.0-13.0,91610,List1A,black,man,,TRUE,0,,,,,
null,CORRECT,,html-keyboard-response,165,697515,0.0-14.0-14.0-0.0,91610,List1A,black,man,,,,null,,,,
2957,"<img src=""portrait/WW2.jpg""style=""width:400px;height:400px;""></img>",3,html-button-response,166,700476,0.0-14.0-16.0,91610,List1A,black,man,,TRUE,3,,,,,
null,CORRECT,,html-keyboard-response,167,701980,0.0-14.0-17.0-0.0,91610,List1A,black,man,,,,null,,,,
2651,"<img src=""portrait/BM1.jpg""style=""width:400px;height:400px;""></img>",4,html-button-response,168,704632,0.0-14.0-19.0,91610,List1A,black,man,,TRUE,4,,,,,
null,CORRECT,,html-keyboard-response,169,706137,0.0-14.0-20.0-0.0,91610,List1A,black,man,,,,null,,,,
3100,"<img src=""portrait/BM2.jpg""style=""width:400px;height:400px;""></img>",5,html-button-response,170,709240,0.0-14.0-22.0,91610,List1A,black,man,,TRUE,5,,,,,
null,CORRECT,,html-keyboard-response,171,710745,0.0-14.0-23.0-0.0,91610,List1A,black,man,,,,null,,,,
1730,<p>You got 8 out of 8 right first time. Press Continue.</p>,0,html-button-response,172,712476,0.0-14.0-25.0,91610,List1A,black,man,,,,,,,,
null,"<div style=""font-size:60px;"">+</div>",,html-keyboard-response,173,713983,0.0-15.0-0.0,91610,List1A,black,man,,,,null,,,,
null,"<img src=""stim_listA/touch4.gif""</stim_listA>",,html-keyboard-response,174,715985,0.0-15.0-1.0,91610,List1A,black,man,,,,null,,,,
null,are touching each other,,html-keyboard-response,175,717987,0.0-15.0-2.0,91610,List1A,black,man,,,,null,,,,
15168,,,survey-text,176,733156,0.0-15.0-3.0,91610,List1A,black,man,,,,,"{""Q0"":""Luke and Ruth""}","<img src=""stim_listA/touch4.gif""</stim_listA>",are touching each other,
null,"<div style=""font-size:60px;"">+</div>",,html-keyboard-response,177,733659,0.0-15.0-0.1,91610,List1A,black,man,,,,null,,,,
null,"<img src=""stim_listA/meet4.gif""</stim_listA>",,html-keyboard-response,178,735660,0.0-15.0-1.1,91610,List1A,black,man,,,,null,,,,
null,are meeting each other,,html-keyboard-response,179,737662,0.0-15.0-2.1,91610,List1A,black,man,,,,null,,,,
7840,,,survey-text,180,745503,0.0-15.0-3.1,91610,List1A,black,man,,,,,"{""Q0"":""Luke and Ruth""}","<img src=""stim_listA/meet4.gif""</stim_listA>",are meeting each other,
null,"<div style=""font-size:60px;"">+</div>",,html-keyboard-response,181,746005,0.0-15.0-0.2,91610,List1A,black,man,,,,null,,,,
null,"<img src=""stim_listA/shout5.gif""</stim_listA>",,html-keyboard-response,182,748008,0.0-15.0-1.2,91610,List1A,black,man,,,,null,,,,
null,is shouting at,,html-keyboard-response,183,750012,0.0-15.0-2.2,91610,List1A,black,man,,,,null,,,,
8592,,,survey-text,184,758608,0.0-15.0-3.2,91610,List1A,black,man,,,,,"{""Q0"":""Fred and Luke""}","<img src=""stim_listA/shout5.gif""</stim_listA>",is shouting at,
null,"<div style=""font-size:60px;"">+</div>",,html-keyboard-response,185,759112,0.0-15.0-0.3,91610,List1A,black,man,,,,null,,,,
null,"<img src=""stim_listA/kiss8.gif""</stim_listA>",,html-keyboard-response,186,761118,0.0-15.0-1.3,91610,List1A,black,man,,,,null,,,,
null,are kissing each other,,html-keyboard-response,187,763122,0.0-15.0-2.3,91610,List1A,black,man,,,,null,,,,
8127,,,survey-text,188,771252,0.0-15.0-3.3,91610,List1A,black,man,,,,,"{""Q0"":""Jane and Beth""}","<img src=""stim_listA/kiss8.gif""</stim_listA>",are kissing each other,
null,"<div style=""font-size:60px;"">+</div>",,html-keyboard-response,189,771754,0.0-15.0-0.4,91610,List1A,black,man,,,,null,,,,
null,"<img src=""stim_listA/meet8.gif""</stim_listA>",,html-keyboard-response,190,773757,0.0-15.0-1.4,91610,List1A,black,man,,,,null,,,,
null,are meeting each other,,html-keyboard-response,191,775758,0.0-15.0-2.4,91610,List1A,black,man,,,,null,,,,
14100,,,survey-text,192,789860,0.0-15.0-3.4,91610,List1A,black,man,,,,,"{""Q0"":""Ruth and Beth""}","<img src=""stim_listA/meet8.gif""</stim_listA>",are meeting each other,
null,"<div style=""font-size:60px;"">+</div>",,html-keyboard-response,193,790362,0.0-15.0-0.5,91610,List1A,black,man,,,,null,,,,
null,"<img src=""stim_listA/shout3.gif""</stim_listA>",,html-keyboard-response,194,792366,0.0-15.0-1.5,91610,List1A,black,man,,,,null,,,,
null,is shouting at,,html-keyboard-response,195,794368,0.0-15.0-2.5,91610,List1A,black,man,,,,null,,,,
8565,,,survey-text,196,802936,0.0-15.0-3.5,91610,List1A,black,man,,,,,"{""Q0"":""Luke and Ruth""}","<img src=""stim_listA/shout3.gif""</stim_listA>",is shouting at,
null,"<div style=""font-size:60px;"">+</div>",,html-keyboard-response,197,803439,0.0-15.0-0.6,91610,List1A,black,man,,,,null,,,,
null,"<img src=""stim_listA/marry5.gif""</stim_listA>",,html-keyboard-response,198,805443,0.0-15.0-1.6,91610,List1A,black,man,,,,null,,,,
null,is marrying,,html-keyboard-response,199,807447,0.0-15.0-2.6,91610,List1A,black,man,,,,null,,,,
8538,,,survey-text,200,815987,0.0-15.0-3.6,91610,List1A,black,man,,,,,"{""Q0"":""Luke and Mike""}","<img src=""stim_listA/marry5.gif""</stim_listA>",is marrying,
null,"<div style=""font-size:60px;"">+</div>",,html-keyboard-response,201,816489,0.0-15.0-0.7,91610,List1A,black,man,,,,null,,,,
null,"<img src=""stim_listA/hug2.gif""</stim_listA>",,html-keyboard-response,202,818492,0.0-15.0-1.7,91610,List1A,black,man,,,,null,,,,
null,are hugging each other,,html-keyboard-response,203,820494,0.0-15.0-2.7,91610,List1A,black,man,,,,null,,,,
8718,,,survey-text,204,829215,0.0-15.0-3.7,91610,List1A,black,man,,,,,"{""Q0"":""Mike and Kate""}","<img src=""stim_listA/hug2.gif""</stim_listA>",are hugging each other,
null,"<div style=""font-size:60px;"">+</div>",,html-keyboard-response,205,829718,0.0-15.0-0.8,91610,List1A,black,man,,,,null,,,,
null,"<img src=""stim_listA/talk2.gif""</stim_listA>",,html-keyboard-response,206,831721,0.0-15.0-1.8,91610,List1A,black,man,,,,null,,,,
null,are talking to each other,,html-keyboard-response,207,833724,0.0-15.0-2.8,91610,List1A,black,man,,,,null,,,,
8077,,,survey-text,208,841803,0.0-15.0-3.8,91610,List1A,black,man,,,,,"{""Q0"":""Beth and Mike""}","<img src=""stim_listA/talk2.gif""</stim_listA>",are talking to each other,
null,"<div style=""font-size:60px;"">+</div>",,html-keyboard-response,209,842305,0.0-15.0-0.9,91610,List1A,black,man,,,,null,,,,
null,"<img src=""stim_listA/shout8.gif""</stim_listA>",,html-keyboard-response,210,844308,0.0-15.0-1.9,91610,List1A,black,man,,,,null,,,,
null,are shouting at each other,,html-keyboard-response,211,846308,0.0-15.0-2.9,91610,List1A,black,man,,,,null,,,,
7869,,,survey-text,212,854179,0.0-15.0-3.9,91610,List1A,black,man,,,,,"{""Q0"":""Jane and Kate""}","<img src=""stim_listA/shout8.gif""</stim_listA>",are shouting at each other,
null,"<div style=""font-size:60px;"">+</div>",,html-keyboard-response,213,854682,0.0-15.0-0.10,91610,List1A,black,man,,,,null,,,,
null,"<img src=""stim_listA/meet2.gif""</stim_listA>",,html-keyboard-response,214,856685,0.0-15.0-1.10,91610,List1A,black,man,,,,null,,,,
null,are meeting each other,,html-keyboard-response,215,858687,0.0-15.0-2.10,91610,List1A,black,man,,,,null,,,,
10203,,,survey-text,216,868891,0.0-15.0-3.10,91610,List1A,black,man,,,,,"{""Q0"":""Fred and Beth""}","<img src=""stim_listA/meet2.gif""</stim_listA>",are meeting each other,
null,"<div style=""font-size:60px;"">+</div>",,html-keyboard-response,217,869391,0.0-15.0-0.11,91610,List1A,black,man,,,,null,,,,
null,"<img src=""stim_listA/marry6.gif""</stim_listA>",,html-keyboard-response,218,871394,0.0-15.0-1.11,91610,List1A,black,man,,,,null,,,,
null,are marrying each other,,html-keyboard-response,219,873396,0.0-15.0-2.11,91610,List1A,black,man,,,,null,,,,
8570,,,survey-text,220,881966,0.0-15.0-3.11,91610,List1A,black,man,,,,,"{""Q0"":""Fred and Dave""}","<img src=""stim_listA/marry6.gif""</stim_listA>",are marrying each other,
null,"<div style=""font-size:60px;"">+</div>",,html-keyboard-response,221,882468,0.0-15.0-0.12,91610,List1A,black,man,,,,null,,,,
null,"<img src=""stim_listA/kiss2.gif""</stim_listA>",,html-keyboard-response,222,884470,0.0-15.0-1.12,91610,List1A,black,man,,,,null,,,,
null,are kissing each other,,html-keyboard-response,223,886471,0.0-15.0-2.12,91610,List1A,black,man,,,,null,,,,
14066,,,survey-text,224,900539,0.0-15.0-3.12,91610,List1A,black,man,,,,,"{""Q0"":""Mike and Kate""}","<img src=""stim_listA/kiss2.gif""</stim_listA>",are kissing each other,
null,"<div style=""font-size:60px;"">+</div>",,html-keyboard-response,225,901040,0.0-15.0-0.13,91610,List1A,black,man,,,,null,,,,
null,"<img src=""stim_listA/argue8.gif""</stim_listA>",,html-keyboard-response,226,903042,0.0-15.0-1.13,91610,List1A,black,man,,,,null,,,,
null,are arguing with each other,,html-keyboard-response,227,905043,0.0-15.0-2.13,91610,List1A,black,man,,,,null,,,,
8390,,,survey-text,228,913435,0.0-15.0-3.13,91610,List1A,black,man,,,,,"{""Q0"":""Jane and Beth""}","<img src=""stim_listA/argue8.gif""</stim_listA>",are arguing with each other,
null,"<div style=""font-size:60px;"">+</div>",,html-keyboard-response,229,913940,0.0-15.0-0.14,91610,List1A,black,man,,,,null,,,,
null,"<img src=""stim_listA/argue5.gif""</stim_listA>",,html-keyboard-response,230,915946,0.0-15.0-1.14,91610,List1A,black,man,,,,null,,,,
null,is arguing with,,html-keyboard-response,231,917949,0.0-15.0-2.14,91610,List1A,black,man,,,,null,,,,
8135,,,survey-text,232,926087,0.0-15.0-3.14,91610,List1A,black,man,,,,,"{""Q0"":""Luke and Mike""}","<img src=""stim_listA/argue5.gif""</stim_listA>",is arguing with,
null,"<div style=""font-size:60px;"">+</div>",,html-keyboard-response,233,926592,0.0-15.0-0.15,91610,List1A,black,man,,,,null,,,,
null,"<img src=""stim_listA/touch3.gif""</stim_listA>",,html-keyboard-response,234,928597,0.0-15.0-1.15,91610,List1A,black,man,,,,null,,,,
null,is touching,,html-keyboard-response,235,930600,0.0-15.0-2.15,91610,List1A,black,man,,,,null,,,,
8367,,,survey-text,236,938971,0.0-15.0-3.15,91610,List1A,black,man,,,,,"{""Q0"":""Dave and Jane""}","<img src=""stim_listA/touch3.gif""</stim_listA>",is touching,
null,"<div style=""font-size:60px;"">+</div>",,html-keyboard-response,237,939472,0.0-15.0-0.16,91610,List1A,black,man,,,,null,,,,
null,"<img src=""stim_listA/fight3.gif""</stim_listA>",,html-keyboard-response,238,941475,0.0-15.0-1.16,91610,List1A,black,man,,,,null,,,,
null,is fighting,,html-keyboard-response,239,943477,0.0-15.0-2.16,91610,List1A,black,man,,,,null,,,,
6600,,,survey-text,240,950079,0.0-15.0-3.16,91610,List1A,black,man,,,,,"{""Q0"":""Dave and Jane""}","<img src=""stim_listA/fight3.gif""</stim_listA>",is fighting,
null,"<div style=""font-size:60px;"">+</div>",,html-keyboard-response,241,950581,0.0-15.0-0.17,91610,List1A,black,man,,,,null,,,,
null,"<img src=""stim_listA/shout6.gif""</stim_listA>",,html-keyboard-response,242,952585,0.0-15.0-1.17,91610,List1A,black,man,,,,null,,,,
null,are shouting at each other,,html-keyboard-response,243,954587,0.0-15.0-2.17,91610,List1A,black,man,,,,null,,,,
6328,,,survey-text,244,960918,0.0-15.0-3.17,91610,List1A,black,man,,,,,"{""Q0"":""Dave and Mike""}","<img src=""stim_listA/shout6.gif""</stim_listA>",are shouting at each other,
null,"<div style=""font-size:60px;"">+</div>",,html-keyboard-response,245,961420,0.0-15.0-0.18,91610,List1A,black,man,,,,null,,,,
null,"<img src=""stim_listA/fight4.gif""</stim_listA>",,html-keyboard-response,246,963423,0.0-15.0-1.18,91610,List1A,black,man,,,,null,,,,
null,are fighting each other,,html-keyboard-response,247,965424,0.0-15.0-2.18,91610,List1A,black,man,,,,null,,,,
7006,,,survey-text,248,972431,0.0-15.0-3.18,91610,List1A,black,man,,,,,"{""Q0"":""Luke and Ruth""}","<img src=""stim_listA/fight4.gif""</stim_listA>",are fighting each other,
null,"<div style=""font-size:60px;"">+</div>",,html-keyboard-response,249,972933,0.0-15.0-0.19,91610,List1A,black,man,,,,null,,,,
null,"<img src=""stim_listA/dance1.gif""</stim_listA>",,html-keyboard-response,250,974937,0.0-15.0-1.19,91610,List1A,black,man,,,,null,,,,
null,is dancing with,,html-keyboard-response,251,976941,0.0-15.0-2.19,91610,List1A,black,man,,,,null,,,,
22658,,,survey-text,252,999601,0.0-15.0-3.19,91610,List1A,black,man,,,,,"{""Q0"":""Fred and Katie""}","<img src=""stim_listA/dance1.gif""</stim_listA>",is dancing with,
3717,"<img src='img/portrait_matrix_list1.JPG' style='width:900px;height:500px;''></img><p>If you have memorised all the portraits and names and are ready to start, press Continue.</p><p><strong>Please note: Your memory of these faces will be tested 4 times during this experiment.</strong></p>",0,html-button-response,253,1003322,0.0-16.0-0.0,91610,List1A,black,man,,,,,,,,
5644,"<img src=""portrait/BW2.jpg""style=""width:400px;height:400px;""></img>",2,html-button-response,254,1009970,0.0-16.0-1.0,91610,List1A,black,man,,TRUE,2,,,,,
null,CORRECT,,html-keyboard-response,255,1011475,0.0-16.0-2.0-0.0,91610,List1A,black,man,,,,null,,,,
2731,"<img src=""portrait/BM1.jpg""style=""width:400px;height:400px;""></img>",4,html-button-response,256,1014210,0.0-16.0-4.0,91610,List1A,black,man,,TRUE,4,,,,,
null,CORRECT,,html-keyboard-response,257,1015714,0.0-16.0-5.0-0.0,91610,List1A,black,man,,,,null,,,,
32555,"<img src=""portrait/WW1.jpg""style=""width:400px;height:400px;""></img>",1,html-button-response,258,1048274,0.0-16.0-7.0,91610,List1A,black,man,,TRUE,1,,,,,
null,CORRECT,,html-keyboard-response,259,1049778,0.0-16.0-8.0-0.0,91610,List1A,black,man,,,,null,,,,
2958,"<img src=""portrait/BM2.jpg""style=""width:400px;height:400px;""></img>",5,html-button-response,260,1052738,0.0-16.0-10.0,91610,List1A,black,man,,TRUE,5,,,,,
null,CORRECT,,html-keyboard-response,261,1054242,0.0-16.0-11.0-0.0,91610,List1A,black,man,,,,null,,,,
2812,"<img src=""portrait/WW2.jpg""style=""width:400px;height:400px;""></img>",3,html-button-response,262,1057058,0.0-16.0-13.0,91610,List1A,black,man,,TRUE,3,,,,,
null,CORRECT,,html-keyboard-response,263,1058561,0.0-16.0-14.0-0.0,91610,List1A,black,man,,,,null,,,,
2553,"<img src=""portrait/BW1.jpg""style=""width:400px;height:400px;""></img>",0,html-button-response,264,1061117,0.0-16.0-16.0,91610,List1A,black,man,,TRUE,0,,,,,
null,CORRECT,,html-keyboard-response,265,1062623,0.0-16.0-17.0-0.0,91610,List1A,black,man,,,,null,,,,
2692,"<img src=""portrait/WM2.jpg""style=""width:400px;height:400px;""></img>",7,html-button-response,266,1065317,0.0-16.0-19.0,91610,List1A,black,man,,TRUE,7,,,,,
null,CORRECT,,html-keyboard-response,267,1066823,0.0-16.0-20.0-0.0,91610,List1A,black,man,,,,null,,,,
3965,"<img src=""portrait/WM1.jpg""style=""width:400px;height:400px;""></img>",6,html-button-response,268,1070790,0.0-16.0-22.0,91610,List1A,black,man,,TRUE,6,,,,,
null,CORRECT,,html-keyboard-response,269,1072294,0.0-16.0-23.0-0.0,91610,List1A,black,man,,,,null,,,,
1095,<p>You got 8 out of 8 right first time. Press Continue.</p>,0,html-button-response,270,1073394,0.0-16.0-25.0,91610,List1A,black,man,,,,,,,,
null,"<div style=""font-size:60px;"">+</div>",,html-keyboard-response,271,1074898,0.0-17.0-0.0,91610,List1A,black,man,,,,null,,,,
null,"<img src=""stim_listA/touch1.gif""</stim_listA>",,html-keyboard-response,272,1076900,0.0-17.0-1.0,91610,List1A,black,man,,,,null,,,,
null,is touching,,html-keyboard-response,273,1078903,0.0-17.0-2.0,91610,List1A,black,man,,,,null,,,,
9201,,,survey-text,274,1088105,0.0-17.0-3.0,91610,List1A,black,man,,,,,"{""Q0"":""Mike and Kate""}","<img src=""stim_listA/touch1.gif""</stim_listA>",is touching,
null,"<div style=""font-size:60px;"">+</div>",,html-keyboard-response,275,1088606,0.0-17.0-0.1,91610,List1A,black,man,,,,null,,,,
null,"<img src=""stim_listA/kiss6.gif""</stim_listA>",,html-keyboard-response,276,1090609,0.0-17.0-1.1,91610,List1A,black,man,,,,null,,,,
null,are kissing each other,,html-keyboard-response,277,1092611,0.0-17.0-2.1,91610,List1A,black,man,,,,null,,,,
6949,,,survey-text,278,1099561,0.0-17.0-3.1,91610,List1A,black,man,,,,,"{""Q0"":""Mike and Dave""}","<img src=""stim_listA/kiss6.gif""</stim_listA>",are kissing each other,
null,"<div style=""font-size:60px;"">+</div>",,html-keyboard-response,279,1100062,0.0-17.0-0.2,91610,List1A,black,man,,,,null,,,,
null,"<img src=""stim_listA/shout2.gif""</stim_listA>",,html-keyboard-response,280,1102064,0.0-17.0-1.2,91610,List1A,black,man,,,,null,,,,
null,are shouting at each other,,html-keyboard-response,281,1104067,0.0-17.0-2.2,91610,List1A,black,man,,,,null,,,,
14148,,,survey-text,282,1118216,0.0-17.0-3.2,91610,List1A,black,man,,,,,"{""Q0"":""Mike and Kate""}","<img src=""stim_listA/shout2.gif""</stim_listA>",are shouting at each other,
null,"<div style=""font-size:60px;"">+</div>",,html-keyboard-response,283,1118721,0.0-17.0-0.3,91610,List1A,black,man,,,,null,,,,
null,"<img src=""stim_listA/shout4.gif""</stim_listA>",,html-keyboard-response,284,1120727,0.0-17.0-1.3,91610,List1A,black,man,,,,null,,,,
null,are shouting at each other,,html-keyboard-response,285,1122730,0.0-17.0-2.3,91610,List1A,black,man,,,,null,,,,
9131,,,survey-text,286,1131864,0.0-17.0-3.3,91610,List1A,black,man,,,,,"{""Q0"":""Dave and Jane""}","<img src=""stim_listA/shout4.gif""</stim_listA>",are shouting at each other,
null,"<div style=""font-size:60px;"">+</div>",,html-keyboard-response,287,1132367,0.0-17.0-0.4,91610,List1A,black,man,,,,null,,,,
null,"<img src=""stim_listA/marry1.gif""</stim_listA>",,html-keyboard-response,288,1134369,0.0-17.0-1.4,91610,List1A,black,man,,,,null,,,,
null,is marrying,,html-keyboard-response,289,1136372,0.0-17.0-2.4,91610,List1A,black,man,,,,null,,,,
8039,,,survey-text,290,1144412,0.0-17.0-3.4,91610,List1A,black,man,,,,,"{""Q0"":""Mike and Beth""}","<img src=""stim_listA/marry1.gif""</stim_listA>",is marrying,
null,"<div style=""font-size:60px;"">+</div>",,html-keyboard-response,291,1144914,0.0-17.0-0.5,91610,List1A,black,man,,,,null,,,,
null,"<img src=""stim_listA/talk5.gif""</stim_listA>",,html-keyboard-response,292,1146916,0.0-17.0-1.5,91610,List1A,black,man,,,,null,,,,
null,is talking to,,html-keyboard-response,293,1148919,0.0-17.0-2.5,91610,List1A,black,man,,,,null,,,,
15132,,,survey-text,294,1164053,0.0-17.0-3.5,91610,List1A,black,man,,,,,"{""Q0"":""Fred and Dave""}","<img src=""stim_listA/talk5.gif""</stim_listA>",is talking to,
null,"<div style=""font-size:60px;"">+</div>",,html-keyboard-response,295,1164555,0.0-17.0-0.6,91610,List1A,black,man,,,,null,,,,
null,"<img src=""stim_listA/hug3.gif""</stim_listA>",,html-keyboard-response,296,1166558,0.0-17.0-1.6,91610,List1A,black,man,,,,null,,,,
null,is hugging,,html-keyboard-response,297,1168560,0.0-17.0-2.6,91610,List1A,black,man,,,,null,,,,
7460,,,survey-text,298,1176021,0.0-17.0-3.6,91610,List1A,black,man,,,,,"{""Q0"":""Luke and Jane""}","<img src=""stim_listA/hug3.gif""</stim_listA>",is hugging,
null,"<div style=""font-size:60px;"">+</div>",,html-keyboard-response,299,1176524,0.0-17.0-0.7,91610,List1A,black,man,,,,null,,,,
null,"<img src=""stim_listA/touch8.gif""</stim_listA>",,html-keyboard-response,300,1178529,0.0-17.0-1.7,91610,List1A,black,man,,,,null,,,,
null,are touching each other,,html-keyboard-response,301,1180532,0.0-17.0-2.7,91610,List1A,black,man,,,,null,,,,
8162,,,survey-text,302,1188696,0.0-17.0-3.7,91610,List1A,black,man,,,,,"{""Q0"":""Ruth and Beth""}","<img src=""stim_listA/touch8.gif""</stim_listA>",are touching each other,
null,"<div style=""font-size:60px;"">+</div>",,html-keyboard-response,303,1189199,0.0-17.0-0.8,91610,List1A,black,man,,,,null,,,,
null,"<img src=""stim_listA/talk4.gif""</stim_listA>",,html-keyboard-response,304,1191200,0.0-17.0-1.8,91610,List1A,black,man,,,,null,,,,
null,are talking to each other,,html-keyboard-response,305,1193203,0.0-17.0-2.8,91610,List1A,black,man,,,,null,,,,
5784,,,survey-text,306,1198988,0.0-17.0-3.8,91610,List1A,black,man,,,,,"{""Q0"":""Ruth and Dave""}","<img src=""stim_listA/talk4.gif""</stim_listA>",are talking to each other,
null,"<div style=""font-size:60px;"">+</div>",,html-keyboard-response,307,1199491,0.0-17.0-0.9,91610,List1A,black,man,,,,null,,,,
null,"<img src=""stim_listA/shout1.gif""</stim_listA>",,html-keyboard-response,308,1201494,0.0-17.0-1.9,91610,List1A,black,man,,,,null,,,,
null,is shouting at,,html-keyboard-response,309,1203496,0.0-17.0-2.9,91610,List1A,black,man,,,,null,,,,
5533,,,survey-text,310,1209033,0.0-17.0-3.9,91610,List1A,black,man,,,,,"{""Q0"":""Fred and Beth""}","<img src=""stim_listA/shout1.gif""</stim_listA>",is shouting at,
null,"<div style=""font-size:60px;"">+</div>",,html-keyboard-response,311,1209534,0.0-17.0-0.10,91610,List1A,black,man,,,,null,,,,
null,"<img src=""stim_listA/argue3.gif""</stim_listA>",,html-keyboard-response,312,1211537,0.0-17.0-1.10,91610,List1A,black,man,,,,null,,,,
null,is arguing with,,html-keyboard-response,313,1213539,0.0-17.0-2.10,91610,List1A,black,man,,,,null,,,,
6803,,,survey-text,314,1220344,0.0-17.0-3.10,91610,List1A,black,man,,,,,"{""Q0"":""Ruth and Dave""}","<img src=""stim_listA/argue3.gif""</stim_listA>",is arguing with,
null,"<div style=""font-size:60px;"">+</div>",,html-keyboard-response,315,1220845,0.0-17.0-0.11,91610,List1A,black,man,,,,null,,,,
null,"<img src=""stim_listA/hug6.gif""</stim_listA>",,html-keyboard-response,316,1222848,0.0-17.0-1.11,91610,List1A,black,man,,,,null,,,,
null,are hugging each other,,html-keyboard-response,317,1224849,0.0-17.0-2.11,91610,List1A,black,man,,,,null,,,,
6822,,,survey-text,318,1231672,0.0-17.0-3.11,91610,List1A,black,man,,,,,"{""Q0"":""Dave and Mike""}","<img src=""stim_listA/hug6.gif""</stim_listA>",are hugging each other,
null,"<div style=""font-size:60px;"">+</div>",,html-keyboard-response,319,1232192,0.0-17.0-0.12,91610,List1A,black,man,,,,null,,,,
null,"<img src=""stim_listA/touch7.gif""</stim_listA>",,html-keyboard-response,320,1234196,0.0-17.0-1.12,91610,List1A,black,man,,,,null,,,,
null,is touching,,html-keyboard-response,321,1236198,0.0-17.0-2.12,91610,List1A,black,man,,,,null,,,,
7052,,,survey-text,322,1243251,0.0-17.0-3.12,91610,List1A,black,man,,,,,"{""Q0"":""Jane and Kate""}","<img src=""stim_listA/touch7.gif""</stim_listA>",is touching,
null,"<div style=""font-size:60px;"">+</div>",,html-keyboard-response,323,1243753,0.0-17.0-0.13,91610,List1A,black,man,,,,null,,,,
null,"<img src=""stim_listA/talk1.gif""</stim_listA>",,html-keyboard-response,324,1245756,0.0-17.0-1.13,91610,List1A,black,man,,,,null,,,,
null,is talking to,,html-keyboard-response,325,1247757,0.0-17.0-2.13,91610,List1A,black,man,,,,null,,,,
40437,,,survey-text,326,1288196,0.0-17.0-3.13,91610,List1A,black,man,,,,,"{""Q0"":""Fred and Kate""}","<img src=""stim_listA/talk1.gif""</stim_listA>",is talking to,
null,"<div style=""font-size:60px;"">+</div>",,html-keyboard-response,327,1288700,0.0-17.0-0.14,91610,List1A,black,man,,,,null,,,,
null,"<img src=""stim_listA/dance5.gif""</stim_listA>",,html-keyboard-response,328,1290707,0.0-17.0-1.14,91610,List1A,black,man,,,,null,,,,
null,is dancing with,,html-keyboard-response,329,1292718,0.0-17.0-2.14,91610,List1A,black,man,,,,null,,,,
11387,,,survey-text,330,1304107,0.0-17.0-3.14,91610,List1A,black,man,,,,,"{""Q0"":""Fred and Dave""}","<img src=""stim_listA/dance5.gif""</stim_listA>",is dancing with,
null,"<div style=""font-size:60px;"">+</div>",,html-keyboard-response,331,1304610,0.0-17.0-0.15,91610,List1A,black,man,,,,null,,,,
null,"<img src=""stim_listA/kiss3.gif""</stim_listA>",,html-keyboard-response,332,1306612,0.0-17.0-1.15,91610,List1A,black,man,,,,null,,,,
null,is kissing,,html-keyboard-response,333,1308614,0.0-17.0-2.15,91610,List1A,black,man,,,,null,,,,
7772,,,survey-text,334,1316387,0.0-17.0-3.15,91610,List1A,black,man,,,,,"{""Q0"":""Ruth and Luke""}","<img src=""stim_listA/kiss3.gif""</stim_listA>",is kissing,
null,"<div style=""font-size:60px;"">+</div>",,html-keyboard-response,335,1316890,0.0-17.0-0.16,91610,List1A,black,man,,,,null,,,,
null,"<img src=""stim_listA/meet5.gif""</stim_listA>",,html-keyboard-response,336,1318896,0.0-17.0-1.16,91610,List1A,black,man,,,,null,,,,
null,is meeting,,html-keyboard-response,337,1320900,0.0-17.0-2.16,91610,List1A,black,man,,,,null,,,,
7693,,,survey-text,338,1328595,0.0-17.0-3.16,91610,List1A,black,man,,,,,"{""Q0"":""Dave and Mike""}","<img src=""stim_listA/meet5.gif""</stim_listA>",is meeting,
null,"<div style=""font-size:60px;"">+</div>",,html-keyboard-response,339,1329099,0.0-17.0-0.17,91610,List1A,black,man,,,,null,,,,
null,"<img src=""stim_listA/argue6.gif""</stim_listA>",,html-keyboard-response,340,1331103,0.0-17.0-1.17,91610,List1A,black,man,,,,null,,,,
null,are arguing with each other,,html-keyboard-response,341,1333105,0.0-17.0-2.17,91610,List1A,black,man,,,,null,,,,
12324,,,survey-text,342,1345431,0.0-17.0-3.17,91610,List1A,black,man,,,,,"{""Q0"":""Dave and Fred""}","<img src=""stim_listA/argue6.gif""</stim_listA>",are arguing with each other,
null,"<div style=""font-size:60px;"">+</div>",,html-keyboard-response,343,1345933,0.0-17.0-0.18,91610,List1A,black,man,,,,null,,,,
null,"<img src=""stim_listA/touch5.gif""</stim_listA>",,html-keyboard-response,344,1347934,0.0-17.0-1.18,91610,List1A,black,man,,,,null,,,,
null,is touching,,html-keyboard-response,345,1349937,0.0-17.0-2.18,91610,List1A,black,man,,,,null,,,,
5761,,,survey-text,346,1355700,0.0-17.0-3.18,91610,List1A,black,man,,,,,"{""Q0"":""Dave and Mike""}","<img src=""stim_listA/touch5.gif""</stim_listA>",is touching,
null,"<div style=""font-size:60px;"">+</div>",,html-keyboard-response,347,1356201,0.0-17.0-0.19,91610,List1A,black,man,,,,null,,,,
null,"<img src=""stim_listA/kiss5.gif""</stim_listA>",,html-keyboard-response,348,1358205,0.0-17.0-1.19,91610,List1A,black,man,,,,null,,,,
null,is kissing,,html-keyboard-response,349,1360207,0.0-17.0-2.19,91610,List1A,black,man,,,,null,,,,
7139,,,survey-text,350,1367347,0.0-17.0-3.19,91610,List1A,black,man,,,,,"{""Q0"":""Luke and Fred""}","<img src=""stim_listA/kiss5.gif""</stim_listA>",is kissing,
2530,"<img src='img/portrait_matrix_list1.JPG' style='width:900px;height:500px;''></img><p>If you have memorised all the portraits and names and are ready to start, press Continue.</p><p><strong>Please note: Your memory of these faces will be tested 4 times during this experiment.</strong></p>",0,html-button-response,351,1369880,0.0-18.0-0.0,91610,List1A,black,man,,,,,,,,
4748,"<img src=""portrait/BM1.jpg""style=""width:400px;height:400px;""></img>",4,html-button-response,352,1375631,0.0-18.0-1.0,91610,List1A,black,man,,TRUE,4,,,,,
null,CORRECT,,html-keyboard-response,353,1377134,0.0-18.0-2.0-0.0,91610,List1A,black,man,,,,null,,,,
22441,"<img src=""portrait/BW1.jpg""style=""width:400px;height:400px;""></img>",0,html-button-response,354,1399579,0.0-18.0-4.0,91610,List1A,black,man,,TRUE,0,,,,,
null,CORRECT,,html-keyboard-response,355,1401084,0.0-18.0-5.0-0.0,91610,List1A,black,man,,,,null,,,,
3070,"<img src=""portrait/BM2.jpg""style=""width:400px;height:400px;""></img>",5,html-button-response,356,1404164,0.0-18.0-7.0,91610,List1A,black,man,,TRUE,5,,,,,
null,CORRECT,,html-keyboard-response,357,1405669,0.0-18.0-8.0-0.0,91610,List1A,black,man,,,,null,,,,
2794,"<img src=""portrait/BW2.jpg""style=""width:400px;height:400px;""></img>",2,html-button-response,358,1408467,0.0-18.0-10.0,91610,List1A,black,man,,TRUE,2,,,,,
null,CORRECT,,html-keyboard-response,359,1409972,0.0-18.0-11.0-0.0,91610,List1A,black,man,,,,null,,,,
3748,"<img src=""portrait/WM1.jpg""style=""width:400px;height:400px;""></img>",6,html-button-response,360,1413723,0.0-18.0-13.0,91610,List1A,black,man,,TRUE,6,,,,,
null,CORRECT,,html-keyboard-response,361,1415226,0.0-18.0-14.0-0.0,91610,List1A,black,man,,,,null,,,,
2381,"<img src=""portrait/WM2.jpg""style=""width:400px;height:400px;""></img>",7,html-button-response,362,1417611,0.0-18.0-16.0,91610,List1A,black,man,,TRUE,7,,,,,
null,CORRECT,,html-keyboard-response,363,1419115,0.0-18.0-17.0-0.0,91610,List1A,black,man,,,,null,,,,
4997,"<img src=""portrait/WW2.jpg""style=""width:400px;height:400px;""></img>",3,html-button-response,364,1424115,0.0-18.0-19.0,91610,List1A,black,man,,TRUE,3,,,,,
null,CORRECT,,html-keyboard-response,365,1425619,0.0-18.0-20.0-0.0,91610,List1A,black,man,,,,null,,,,
6525,"<img src=""portrait/WW1.jpg""style=""width:400px;height:400px;""></img>",1,html-button-response,366,1432147,0.0-18.0-22.0,91610,List1A,black,man,,TRUE,1,,,,,
null,CORRECT,,html-keyboard-response,367,1433650,0.0-18.0-23.0-0.0,91610,List1A,black,man,,,,null,,,,
1208,<p>You got 8 out of 8 right first time. Press Continue.</p>,0,html-button-response,368,1434862,0.0-18.0-25.0,91610,List1A,black,man,,,,,,,,
null,"<div style=""font-size:60px;"">+</div>",,html-keyboard-response,369,1436367,0.0-19.0-0.0,91610,List1A,black,man,,,,null,,,,
null,"<img src=""stim_listA/marry8.gif""</stim_listA>",,html-keyboard-response,370,1438371,0.0-19.0-1.0,91610,List1A,black,man,,,,null,,,,
null,are marrying each other,,html-keyboard-response,371,1440372,0.0-19.0-2.0,91610,List1A,black,man,,,,null,,,,
8225,,,survey-text,372,1448599,0.0-19.0-3.0,91610,List1A,black,man,,,,,"{""Q0"":""Jane and Beth""}","<img src=""stim_listA/marry8.gif""</stim_listA>",are marrying each other,
null,"<div style=""font-size:60px;"">+</div>",,html-keyboard-response,373,1449103,0.0-19.0-0.1,91610,List1A,black,man,,,,null,,,,
null,"<img src=""stim_listA/argue1.gif""</stim_listA>",,html-keyboard-response,374,1451108,0.0-19.0-1.1,91610,List1A,black,man,,,,null,,,,
null,is arguing with,,html-keyboard-response,375,1453111,0.0-19.0-2.1,91610,List1A,black,man,,,,null,,,,
6827,,,survey-text,376,1459942,0.0-19.0-3.1,91610,List1A,black,man,,,,,"{""Q0"":""Beth and Mike""}","<img src=""stim_listA/argue1.gif""</stim_listA>",is arguing with,
null,"<div style=""font-size:60px;"">+</div>",,html-keyboard-response,377,1460444,0.0-19.0-0.2,91610,List1A,black,man,,,,null,,,,
null,"<img src=""stim_listA/argue4.gif""</stim_listA>",,html-keyboard-response,378,1462446,0.0-19.0-1.2,91610,List1A,black,man,,,,null,,,,
null,are arguing with each other,,html-keyboard-response,379,1464448,0.0-19.0-2.2,91610,List1A,black,man,,,,null,,,,
6111,,,survey-text,380,1470561,0.0-19.0-3.2,91610,List1A,black,man,,,,,"{""Q0"":""Jane and Luke""}","<img src=""stim_listA/argue4.gif""</stim_listA>",are arguing with each other,
null,"<div style=""font-size:60px;"">+</div>",,html-keyboard-response,381,1471064,0.0-19.0-0.3,91610,List1A,black,man,,,,null,,,,
null,"<img src=""stim_listA/meet6.gif""</stim_listA>",,html-keyboard-response,382,1473066,0.0-19.0-1.3,91610,List1A,black,man,,,,null,,,,
null,are meeting each other,,html-keyboard-response,383,1475070,0.0-19.0-2.3,91610,List1A,black,man,,,,null,,,,
6055,,,survey-text,384,1481126,0.0-19.0-3.3,91610,List1A,black,man,,,,,"{""Q0"":""Fred and Luke""}","<img src=""stim_listA/meet6.gif""</stim_listA>",are meeting each other,
null,"<div style=""font-size:60px;"">+</div>",,html-keyboard-response,385,1481628,0.0-19.0-0.4,91610,List1A,black,man,,,,null,,,,
null,"<img src=""stim_listA/marry7.gif""</stim_listA>",,html-keyboard-response,386,1483631,0.0-19.0-1.4,91610,List1A,black,man,,,,null,,,,
null,is marrying,,html-keyboard-response,387,1485632,0.0-19.0-2.4,91610,List1A,black,man,,,,null,,,,
10029,,,survey-text,388,1495662,0.0-19.0-3.4,91610,List1A,black,man,,,,,"{""Q0"":""Kate and Ruth""}","<img src=""stim_listA/marry7.gif""</stim_listA>",is marrying,
null,"<div style=""font-size:60px;"">+</div>",,html-keyboard-response,389,1496164,0.0-19.0-0.5,91610,List1A,black,man,,,,null,,,,
null,"<img src=""stim_listA/talk3.gif""</stim_listA>",,html-keyboard-response,390,1498167,0.0-19.0-1.5,91610,List1A,black,man,,,,null,,,,
null,is talking to,,html-keyboard-response,391,1500168,0.0-19.0-2.5,91610,List1A,black,man,,,,null,,,,
9540,,,survey-text,392,1509709,0.0-19.0-3.5,91610,List1A,black,man,,,,,"{""Q0"":""Jane and Luke""}","<img src=""stim_listA/talk3.gif""</stim_listA>",is talking to,
null,"<div style=""font-size:60px;"">+</div>",,html-keyboard-response,393,1510210,0.0-19.0-0.6,91610,List1A,black,man,,,,null,,,,
null,"<img src=""stim_listA/meet3.gif""</stim_listA>",,html-keyboard-response,394,1512213,0.0-19.0-1.6,91610,List1A,black,man,,,,null,,,,
null,is meeting,,html-keyboard-response,395,1514215,0.0-19.0-2.6,91610,List1A,black,man,,,,null,,,,
40373,,,survey-text,396,1554590,0.0-19.0-3.6,91610,List1A,black,man,,,,,"{""Q0"":""Jane and Dave""}","<img src=""stim_listA/meet3.gif""</stim_listA>",is meeting,
null,"<div style=""font-size:60px;"">+</div>",,html-keyboard-response,397,1555091,0.0-19.0-0.7,91610,List1A,black,man,,,,null,,,,
null,"<img src=""stim_listA/dance7.gif""</stim_listA>",,html-keyboard-response,398,1557093,0.0-19.0-1.7,91610,List1A,black,man,,,,null,,,,
null,is dancing with,,html-keyboard-response,399,1559096,0.0-19.0-2.7,91610,List1A,black,man,,,,null,,,,
6504,,,survey-text,400,1565601,0.0-19.0-3.7,91610,List1A,black,man,,,,,"{""Q0"":""Jane and Beth""}","<img src=""stim_listA/dance7.gif""</stim_listA>",is dancing with,
null,"<div style=""font-size:60px;"">+</div>",,html-keyboard-response,401,1566103,0.0-19.0-0.8,91610,List1A,black,man,,,,null,,,,
null,"<img src=""stim_listA/fight2.gif""</stim_listA>",,html-keyboard-response,402,1568105,0.0-19.0-1.8,91610,List1A,black,man,,,,null,,,,
null,are fighting each other,,html-keyboard-response,403,1570106,0.0-19.0-2.8,91610,List1A,black,man,,,,null,,,,
6054,,,survey-text,404,1576161,0.0-19.0-3.8,91610,List1A,black,man,,,,,"{""Q0"":""Fred and Beth""}","<img src=""stim_listA/fight2.gif""</stim_listA>",are fighting each other,
null,"<div style=""font-size:60px;"">+</div>",,html-keyboard-response,405,1576664,0.0-19.0-0.9,91610,List1A,black,man,,,,null,,,,
null,"<img src=""stim_listA/kiss7.gif""</stim_listA>",,html-keyboard-response,406,1578666,0.0-19.0-1.9,91610,List1A,black,man,,,,null,,,,
null,is kissing,,html-keyboard-response,407,1580668,0.0-19.0-2.9,91610,List1A,black,man,,,,null,,,,
4480,,,survey-text,408,1585149,0.0-19.0-3.9,91610,List1A,black,man,,,,,"{""Q0"":""Ruth and Beth""}","<img src=""stim_listA/kiss7.gif""</stim_listA>",is kissing,
null,"<div style=""font-size:60px;"">+</div>",,html-keyboard-response,409,1585651,0.0-19.0-0.10,91610,List1A,black,man,,,,null,,,,
null,"<img src=""stim_listA/meet7.gif""</stim_listA>",,html-keyboard-response,410,1587653,0.0-19.0-1.10,91610,List1A,black,man,,,,null,,,,
null,is meeting,,html-keyboard-response,411,1589655,0.0-19.0-2.10,91610,List1A,black,man,,,,null,,,,
8098,,,survey-text,412,1597753,0.0-19.0-3.10,91610,List1A,black,man,,,,,"{""Q0"":""Jane and Kate""}","<img src=""stim_listA/meet7.gif""</stim_listA>",is meeting,
null,"<div style=""font-size:60px;"">+</div>",,html-keyboard-response,413,1598257,0.0-19.0-0.11,91610,List1A,black,man,,,,null,,,,
null,"<img src=""stim_listA/talk7.gif""</stim_listA>",,html-keyboard-response,414,1600259,0.0-19.0-1.11,91610,List1A,black,man,,,,null,,,,
null,is talking to,,html-keyboard-response,415,1602265,0.0-19.0-2.11,91610,List1A,black,man,,,,null,,,,
5000,,,survey-text,416,1607269,0.0-19.0-3.11,91610,List1A,black,man,,,,,"{""Q0"":""Jane and Beth""}","<img src=""stim_listA/talk7.gif""</stim_listA>",is talking to,
null,"<div style=""font-size:60px;"">+</div>",,html-keyboard-response,417,1607773,0.0-19.0-0.12,91610,List1A,black,man,,,,null,,,,
null,"<img src=""stim_listA/dance4.gif""</stim_listA>",,html-keyboard-response,418,1609777,0.0-19.0-1.12,91610,List1A,black,man,,,,null,,,,
null,are dancing with each other,,html-keyboard-response,419,1611781,0.0-19.0-2.12,91610,List1A,black,man,,,,null,,,,
5515,,,survey-text,420,1617297,0.0-19.0-3.12,91610,List1A,black,man,,,,,"{""Q0"":""Dave and Ruth""}","<img src=""stim_listA/dance4.gif""</stim_listA>",are dancing with each other,
null,"<div style=""font-size:60px;"">+</div>",,html-keyboard-response,421,1617800,0.0-19.0-0.13,91610,List1A,black,man,,,,null,,,,
null,"<img src=""stim_listA/fight5.gif""</stim_listA>",,html-keyboard-response,422,1619803,0.0-19.0-1.13,91610,List1A,black,man,,,,null,,,,
null,is fighting,,html-keyboard-response,423,1621804,0.0-19.0-2.13,91610,List1A,black,man,,,,null,,,,
5738,,,survey-text,424,1627544,0.0-19.0-3.13,91610,List1A,black,man,,,,,"{""Q0"":""Dave and Mike""}","<img src=""stim_listA/fight5.gif""</stim_listA>",is fighting,
null,"<div style=""font-size:60px;"">+</div>",,html-keyboard-response,425,1628047,0.0-19.0-0.14,91610,List1A,black,man,,,,null,,,,
null,"<img src=""stim_listA/fight1.gif""</stim_listA>",,html-keyboard-response,426,1630052,0.0-19.0-1.14,91610,List1A,black,man,,,,null,,,,
null,is fighting,,html-keyboard-response,427,1632053,0.0-19.0-2.14,91610,List1A,black,man,,,,null,,,,
4957,,,survey-text,428,1637011,0.0-19.0-3.14,91610,List1A,black,man,,,,,"{""Q0"":""Mike and Kate""}","<img src=""stim_listA/fight1.gif""</stim_listA>",is fighting,
null,"<div style=""font-size:60px;"">+</div>",,html-keyboard-response,429,1637514,0.0-19.0-0.15,91610,List1A,black,man,,,,null,,,,
null,"<img src=""stim_listA/touch2.gif""</stim_listA>",,html-keyboard-response,430,1639516,0.0-19.0-1.15,91610,List1A,black,man,,,,null,,,,
null,are touching each other,,html-keyboard-response,431,1641517,0.0-19.0-2.15,91610,List1A,black,man,,,,null,,,,
6374,,,survey-text,432,1647893,0.0-19.0-3.15,91610,List1A,black,man,,,,,"{""Q0"":""Fred and Beth""}","<img src=""stim_listA/touch2.gif""</stim_listA>",are touching each other,
null,"<div style=""font-size:60px;"">+</div>",,html-keyboard-response,433,1648395,0.0-19.0-0.16,91610,List1A,black,man,,,,null,,,,
null,"<img src=""stim_listA/hug8.gif""</stim_listA>",,html-keyboard-response,434,1650398,0.0-19.0-1.16,91610,List1A,black,man,,,,null,,,,
null,are hugging each other,,html-keyboard-response,435,1652399,0.0-19.0-2.16,91610,List1A,black,man,,,,null,,,,
4427,,,survey-text,436,1656829,0.0-19.0-3.16,91610,List1A,black,man,,,,,"{""Q0"":""Ruth and Kate""}","<img src=""stim_listA/hug8.gif""</stim_listA>",are hugging each other,
null,"<div style=""font-size:60px;"">+</div>",,html-keyboard-response,437,1657330,0.0-19.0-0.17,91610,List1A,black,man,,,,null,,,,
null,"<img src=""stim_listA/argue7.gif""</stim_listA>",,html-keyboard-response,438,1659334,0.0-19.0-1.17,91610,List1A,black,man,,,,null,,,,
null,is arguing with,,html-keyboard-response,439,1661337,0.0-19.0-2.17,91610,List1A,black,man,,,,null,,,,
5002,,,survey-text,440,1666341,0.0-19.0-3.17,91610,List1A,black,man,,,,,"{""Q0"":""Ruth and Kate""}","<img src=""stim_listA/argue7.gif""</stim_listA>",is arguing with,
null,"<div style=""font-size:60px;"">+</div>",,html-keyboard-response,441,1666844,0.0-19.0-0.18,91610,List1A,black,man,,,,null,,,,
null,"<img src=""stim_listA/meet1.gif""</stim_listA>",,html-keyboard-response,442,1668852,0.0-19.0-1.18,91610,List1A,black,man,,,,null,,,,
null,is meeting,,html-keyboard-response,443,1670856,0.0-19.0-2.18,91610,List1A,black,man,,,,null,,,,
5556,,,survey-text,444,1676417,0.0-19.0-3.18,91610,List1A,black,man,,,,,"{""Q0"":""Mike and Kate""}","<img src=""stim_listA/meet1.gif""</stim_listA>",is meeting,
null,"<div style=""font-size:60px;"">+</div>",,html-keyboard-response,445,1676920,0.0-19.0-0.19,91610,List1A,black,man,,,,null,,,,
null,"<img src=""stim_listA/kiss1.gif""</stim_listA>",,html-keyboard-response,446,1678924,0.0-19.0-1.19,91610,List1A,black,man,,,,null,,,,
null,is kissing,,html-keyboard-response,447,1680925,0.0-19.0-2.19,91610,List1A,black,man,,,,null,,,,
5017,,,survey-text,448,1685944,0.0-19.0-3.19,91610,List1A,black,man,,,,,"{""Q0"":""Fred and Beth""}","<img src=""stim_listA/kiss1.gif""</stim_listA>",is kissing,
2651,<p>Thank you for completing that task.</p><p>The final part of this session is a short questionnaire.</p><p>Press Continue.</p>,0,html-button-response,449,1688597,0.0-20.0,91610,List1A,black,man,,,,,,,,
14587,,,survey-text,450,1704189,0.0-21.0,91610,List1A,black,man,,,,,"{""Q0"":""26"",""Q1"":""English"",""Q2"":""English"",""Q3"":""USA"",""Q4"":""White"",""Q5"":""Male""}",,,demographics
29887,,,survey-likert,451,1734081,0.0-22.0,91610,List1A,black,man,,,,,"{""Q0"":3,""Q1"":3,""Q2"":3,""Q3"":3,""Q4"":3,""Q5"":3,""Q6"":3,""Q7"":3,""Q8"":3,""Q9"":3,""Q10"":3,""Q11"":3,""Q12"":3,""Q13"":3}",,,likert_race
24447,,,survey-likert,452,1758537,0.0-23.0,91610,List1A,black,man,,,,,"{""Q0"":3,""Q1"":3,""Q2"":3,""Q3"":3,""Q4"":3,""Q5"":3,""Q6"":3,""Q7"":3,""Q8"":3,""Q9"":3,""Q10"":3,""Q11"":3,""Q12"":3,""Q13"":3}",,,likert_gender
6536,,,survey-text,453,1765075,0.0-24.0,91610,List1A,black,man,,,,,"{""Q0"":""ccc""}",,,worker_id
16192,,,external-html,454,1781544,0.0-25.0,91610,List1A,black,man,debrief.html,,,,,,,
