rt,stimulus,button_pressed,trial_type,trial_index,time_elapsed,internal_node_id,subject,list,ppt_race,ppt_gender,url,first_guess,correct,key_press,responses,image_type,phrase_type,test_part
1730,Welcome to the experiment. Press Continue to begin.,0,html-button-response,0,1736,0.0-0.0,91844,List1A,black,woman,,,,,,,,
6020,,,external-html,1,8894,0.0-1.0,91844,List1A,black,woman,consent.html,,,,,,,
1388,"<p>On the next page, you will see portraits of 8 people and their names.</p><p>Your first task is to take a few minutes to memorise the names of these people.</p><p>You will have to recall their names during the rest of the experiment, so it is</p><p>essential that you try to memorise these people and their names as best as you can.</p><br><p><strong>You will then be tested on your memory of these names and portraits.</strong></p><br><p>The experiment will start after you have completed this memory test.</p><br><p>Ready?</p>",0,html-button-response,2,10284,0.0-2.0,91844,List1A,black,woman,,,,,,,,
25987,"<img src='img/portrait_matrix_list1.JPG' style='width:900px;height:500px;''></img><p>If you have memorised all the portraits and names and are ready to start, press Continue.</p><p><strong>Please note: Your memory of these faces will be tested 4 times during this experiment.</strong></p>",0,html-button-response,3,37275,0.0-3.0-0.0,91844,List1A,black,woman,,,,,,,,
7203,"<img src=""portrait/BM1.jpg""style=""width:400px;height:400px;""></img>",5,html-button-response,4,45481,0.0-3.0-1.0,91844,List1A,black,woman,,TRUE,4,,,,,
5739,"<img src=""portrait/BM1.jpg""style=""width:400px;height:400px;""></img>",4,html-button-response,5,52228,0.0-3.0-3.0-0.0,91844,List1A,black,woman,,FALSE,4,,,,,
null,CORRECT,,html-keyboard-response,6,53738,0.0-3.0-3.0-1.0-0.0,91844,List1A,black,woman,,,,null,,,,
2120,"<img src=""portrait/WM2.jpg""style=""width:400px;height:400px;""></img>",7,html-button-response,7,55862,0.0-3.0-4.0,91844,List1A,black,woman,,TRUE,7,,,,,
null,CORRECT,,html-keyboard-response,8,57366,0.0-3.0-5.0-0.0,91844,List1A,black,woman,,,,null,,,,
2198,"<img src=""portrait/WM1.jpg""style=""width:400px;height:400px;""></img>",5,html-button-response,9,59566,0.0-3.0-7.0,91844,List1A,black,woman,,TRUE,6,,,,,
2926,"<img src=""portrait/WM1.jpg""style=""width:400px;height:400px;""></img>",6,html-button-response,10,63496,0.0-3.0-9.0-0.0,91844,List1A,black,woman,,FALSE,6,,,,,
null,CORRECT,,html-keyboard-response,11,65007,0.0-3.0-9.0-1.0-0.0,91844,List1A,black,woman,,,,null,,,,
3068,"<img src=""portrait/WW1.jpg""style=""width:400px;height:400px;""></img>",3,html-button-response,12,68076,0.0-3.0-10.0,91844,List1A,black,woman,,TRUE,1,,,,,
2218,"<img src=""portrait/WW1.jpg""style=""width:400px;height:400px;""></img>",1,html-button-response,13,71299,0.0-3.0-12.0-0.0,91844,List1A,black,woman,,FALSE,1,,,,,
null,CORRECT,,html-keyboard-response,14,72809,0.0-3.0-12.0-1.0-0.0,91844,List1A,black,woman,,,,null,,,,
2396,"<img src=""portrait/BM2.jpg""style=""width:400px;height:400px;""></img>",5,html-button-response,15,75208,0.0-3.0-13.0,91844,List1A,black,woman,,TRUE,5,,,,,
null,CORRECT,,html-keyboard-response,16,76716,0.0-3.0-14.0-0.0,91844,List1A,black,woman,,,,null,,,,
4728,"<img src=""portrait/WW2.jpg""style=""width:400px;height:400px;""></img>",3,html-button-response,17,81445,0.0-3.0-16.0,91844,List1A,black,woman,,TRUE,3,,,,,
null,CORRECT,,html-keyboard-response,18,82952,0.0-3.0-17.0-0.0,91844,List1A,black,woman,,,,null,,,,
5029,"<img src=""portrait/BW1.jpg""style=""width:400px;height:400px;""></img>",2,html-button-response,19,87983,0.0-3.0-19.0,91844,List1A,black,woman,,TRUE,0,,,,,
3246,"<img src=""portrait/BW1.jpg""style=""width:400px;height:400px;""></img>",0,html-button-response,20,92235,0.0-3.0-21.0-0.0,91844,List1A,black,woman,,FALSE,0,,,,,
null,CORRECT,,html-keyboard-response,21,93745,0.0-3.0-21.0-1.0-0.0,91844,List1A,black,woman,,,,null,,,,
1848,"<img src=""portrait/BW2.jpg""style=""width:400px;height:400px;""></img>",2,html-button-response,22,95594,0.0-3.0-22.0,91844,List1A,black,woman,,TRUE,2,,,,,
null,CORRECT,,html-keyboard-response,23,97101,0.0-3.0-23.0-0.0,91844,List1A,black,woman,,,,null,,,,
3730,<p>You got 4 out of 8 right first time. Press Continue.</p>,0,html-button-response,24,100834,0.0-3.0-25.0,91844,List1A,black,woman,,,,,,,,
2901,"As you did not score 100%, the memory game will repeat. Press Continue.",0,html-button-response,25,104739,0.0-3.0-26.0-0.0,91844,List1A,black,woman,,,,,,,,
35997,"<img src='img/portrait_matrix_list1.JPG' style='width:900px;height:500px;''></img><p>If you have memorised all the portraits and names and are ready to start, press Continue.</p><p><strong>Please note: Your memory of these faces will be tested 4 times during this experiment.</strong></p>",0,html-button-response,26,141740,0.0-3.1-0.1,91844,List1A,black,woman,,,,,,,,
6210,"<img src=""portrait/BM1.jpg""style=""width:400px;height:400px;""></img>",5,html-button-response,27,148953,0.0-3.1-1.1,91844,List1A,black,woman,,TRUE,4,,,,,
1614,"<img src=""portrait/BM1.jpg""style=""width:400px;height:400px;""></img>",4,html-button-response,28,151571,0.0-3.1-3.1-0.1,91844,List1A,black,woman,,FALSE,4,,,,,
null,CORRECT,,html-keyboard-response,29,153075,0.0-3.1-3.1-1.1-0.1,91844,List1A,black,woman,,,,null,,,,
1588,"<img src=""portrait/WM2.jpg""style=""width:400px;height:400px;""></img>",7,html-button-response,30,154665,0.0-3.1-4.1,91844,List1A,black,woman,,TRUE,7,,,,,
null,CORRECT,,html-keyboard-response,31,156169,0.0-3.1-5.1-0.1,91844,List1A,black,woman,,,,null,,,,
3834,"<img src=""portrait/WM1.jpg""style=""width:400px;height:400px;""></img>",6,html-button-response,32,160006,0.0-3.1-7.1,91844,List1A,black,woman,,TRUE,6,,,,,
null,CORRECT,,html-keyboard-response,33,161513,0.0-3.1-8.1-0.1,91844,List1A,black,woman,,,,null,,,,
3627,"<img src=""portrait/WW1.jpg""style=""width:400px;height:400px;""></img>",3,html-button-response,34,165142,0.0-3.1-10.1,91844,List1A,black,woman,,TRUE,1,,,,,
2677,"<img src=""portrait/WW1.jpg""style=""width:400px;height:400px;""></img>",1,html-button-response,35,168822,0.0-3.1-12.1-0.1,91844,List1A,black,woman,,FALSE,1,,,,,
null,CORRECT,,html-keyboard-response,36,170332,0.0-3.1-12.1-1.1-0.1,91844,List1A,black,woman,,,,null,,,,
12890,"<img src=""portrait/BM2.jpg""style=""width:400px;height:400px;""></img>",5,html-button-response,37,183224,0.0-3.1-13.1,91844,List1A,black,woman,,TRUE,5,,,,,
null,CORRECT,,html-keyboard-response,38,184731,0.0-3.1-14.1-0.1,91844,List1A,black,woman,,,,null,,,,
6263,"<img src=""portrait/WW2.jpg""style=""width:400px;height:400px;""></img>",3,html-button-response,39,190997,0.0-3.1-16.1,91844,List1A,black,woman,,TRUE,3,,,,,
null,CORRECT,,html-keyboard-response,40,192499,0.0-3.1-17.1-0.1,91844,List1A,black,woman,,,,null,,,,
6827,"<img src=""portrait/BW1.jpg""style=""width:400px;height:400px;""></img>",1,html-button-response,41,199329,0.0-3.1-19.1,91844,List1A,black,woman,,TRUE,0,,,,,
2424,"<img src=""portrait/BW1.jpg""style=""width:400px;height:400px;""></img>",0,html-button-response,42,202758,0.0-3.1-21.1-0.1,91844,List1A,black,woman,,FALSE,0,,,,,
null,CORRECT,,html-keyboard-response,43,204265,0.0-3.1-21.1-1.1-0.1,91844,List1A,black,woman,,,,null,,,,
1432,"<img src=""portrait/BW2.jpg""style=""width:400px;height:400px;""></img>",1,html-button-response,44,205698,0.0-3.1-22.1,91844,List1A,black,woman,,TRUE,2,,,,,
2430,"<img src=""portrait/BW2.jpg""style=""width:400px;height:400px;""></img>",2,html-button-response,45,209132,0.0-3.1-24.1-0.1,91844,List1A,black,woman,,FALSE,2,,,,,
null,CORRECT,,html-keyboard-response,46,210638,0.0-3.1-24.1-1.1-0.1,91844,List1A,black,woman,,,,null,,,,
2015,<p>You got 4 out of 8 right first time. Press Continue.</p>,0,html-button-response,47,212655,0.0-3.1-25.1,91844,List1A,black,woman,,,,,,,,
1962,"As you did not score 100%, the memory game will repeat. Press Continue.",0,html-button-response,48,215624,0.0-3.1-26.1-0.1,91844,List1A,black,woman,,,,,,,,
42689,"<img src='img/portrait_matrix_list1.JPG' style='width:900px;height:500px;''></img><p>If you have memorised all the portraits and names and are ready to start, press Continue.</p><p><strong>Please note: Your memory of these faces will be tested 4 times during this experiment.</strong></p>",0,html-button-response,49,259316,0.0-3.2-0.2,91844,List1A,black,woman,,,,,,,,
11095,"<img src=""portrait/BM1.jpg""style=""width:400px;height:400px;""></img>",5,html-button-response,50,271417,0.0-3.2-1.2,91844,List1A,black,woman,,TRUE,4,,,,,
4592,"<img src=""portrait/BM1.jpg""style=""width:400px;height:400px;""></img>",4,html-button-response,51,277021,0.0-3.2-3.2-0.2,91844,List1A,black,woman,,FALSE,4,,,,,
null,CORRECT,,html-keyboard-response,52,278530,0.0-3.2-3.2-1.2-0.2,91844,List1A,black,woman,,,,null,,,,
1522,"<img src=""portrait/WM2.jpg""style=""width:400px;height:400px;""></img>",7,html-button-response,53,280054,0.0-3.2-4.2,91844,List1A,black,woman,,TRUE,7,,,,,
null,CORRECT,,html-keyboard-response,54,281563,0.0-3.2-5.2-0.2,91844,List1A,black,woman,,,,null,,,,
4323,"<img src=""portrait/WM1.jpg""style=""width:400px;height:400px;""></img>",6,html-button-response,55,285889,0.0-3.2-7.2,91844,List1A,black,woman,,TRUE,6,,,,,
null,CORRECT,,html-keyboard-response,56,287397,0.0-3.2-8.2-0.2,91844,List1A,black,woman,,,,null,,,,
5918,"<img src=""portrait/WW1.jpg""style=""width:400px;height:400px;""></img>",3,html-button-response,57,293317,0.0-3.2-10.2,91844,List1A,black,woman,,TRUE,1,,,,,
5479,"<img src=""portrait/WW1.jpg""style=""width:400px;height:400px;""></img>",1,html-button-response,58,299800,0.0-3.2-12.2-0.2,91844,List1A,black,woman,,FALSE,1,,,,,
null,CORRECT,,html-keyboard-response,59,301307,0.0-3.2-12.2-1.2-0.2,91844,List1A,black,woman,,,,null,,,,
8695,"<img src=""portrait/BM2.jpg""style=""width:400px;height:400px;""></img>",4,html-button-response,60,310004,0.0-3.2-13.2,91844,List1A,black,woman,,TRUE,5,,,,,
2146,"<img src=""portrait/BM2.jpg""style=""width:400px;height:400px;""></img>",5,html-button-response,61,313155,0.0-3.2-15.2-0.2,91844,List1A,black,woman,,FALSE,5,,,,,
null,CORRECT,,html-keyboard-response,62,314666,0.0-3.2-15.2-1.2-0.2,91844,List1A,black,woman,,,,null,,,,
3146,"<img src=""portrait/WW2.jpg""style=""width:400px;height:400px;""></img>",3,html-button-response,63,317814,0.0-3.2-16.2,91844,List1A,black,woman,,TRUE,3,,,,,
null,CORRECT,,html-keyboard-response,64,319320,0.0-3.2-17.2-0.2,91844,List1A,black,woman,,,,null,,,,
7545,"<img src=""portrait/BW1.jpg""style=""width:400px;height:400px;""></img>",0,html-button-response,65,326866,0.0-3.2-19.2,91844,List1A,black,woman,,TRUE,0,,,,,
null,CORRECT,,html-keyboard-response,66,328377,0.0-3.2-20.2-0.2,91844,List1A,black,woman,,,,null,,,,
3082,"<img src=""portrait/BW2.jpg""style=""width:400px;height:400px;""></img>",2,html-button-response,67,331461,0.0-3.2-22.2,91844,List1A,black,woman,,TRUE,2,,,,,
null,CORRECT,,html-keyboard-response,68,332973,0.0-3.2-23.2-0.2,91844,List1A,black,woman,,,,null,,,,
1655,<p>You got 5 out of 8 right first time. Press Continue.</p>,0,html-button-response,69,334629,0.0-3.2-25.2,91844,List1A,black,woman,,,,,,,,
3962,"As you did not score 100%, the memory game will repeat. Press Continue.",0,html-button-response,70,339599,0.0-3.2-26.2-0.2,91844,List1A,black,woman,,,,,,,,
6328,"<img src='img/portrait_matrix_list1.JPG' style='width:900px;height:500px;''></img><p>If you have memorised all the portraits and names and are ready to start, press Continue.</p><p><strong>Please note: Your memory of these faces will be tested 4 times during this experiment.</strong></p>",0,html-button-response,71,346930,0.0-3.3-0.3,91844,List1A,black,woman,,,,,,,,
4852,"<img src=""portrait/BM1.jpg""style=""width:400px;height:400px;""></img>",4,html-button-response,72,352788,0.0-3.3-1.3,91844,List1A,black,woman,,TRUE,4,,,,,
null,CORRECT,,html-keyboard-response,73,354297,0.0-3.3-2.3-0.3,91844,List1A,black,woman,,,,null,,,,
1667,"<img src=""portrait/WM2.jpg""style=""width:400px;height:400px;""></img>",7,html-button-response,74,355965,0.0-3.3-4.3,91844,List1A,black,woman,,TRUE,7,,,,,
null,CORRECT,,html-keyboard-response,75,357471,0.0-3.3-5.3-0.3,91844,List1A,black,woman,,,,null,,,,
4632,"<img src=""portrait/WM1.jpg""style=""width:400px;height:400px;""></img>",6,html-button-response,76,362104,0.0-3.3-7.3,91844,List1A,black,woman,,TRUE,6,,,,,
null,CORRECT,,html-keyboard-response,77,363610,0.0-3.3-8.3-0.3,91844,List1A,black,woman,,,,null,,,,
4809,"<img src=""portrait/WW1.jpg""style=""width:400px;height:400px;""></img>",1,html-button-response,78,368421,0.0-3.3-10.3,91844,List1A,black,woman,,TRUE,1,,,,,
null,CORRECT,,html-keyboard-response,79,369927,0.0-3.3-11.3-0.3,91844,List1A,black,woman,,,,null,,,,
3127,"<img src=""portrait/BM2.jpg""style=""width:400px;height:400px;""></img>",5,html-button-response,80,373056,0.0-3.3-13.3,91844,List1A,black,woman,,TRUE,5,,,,,
null,CORRECT,,html-keyboard-response,81,374566,0.0-3.3-14.3-0.3,91844,List1A,black,woman,,,,null,,,,
3609,"<img src=""portrait/WW2.jpg""style=""width:400px;height:400px;""></img>",3,html-button-response,82,378177,0.0-3.3-16.3,91844,List1A,black,woman,,TRUE,3,,,,,
null,CORRECT,,html-keyboard-response,83,379684,0.0-3.3-17.3-0.3,91844,List1A,black,woman,,,,null,,,,
3572,"<img src=""portrait/BW1.jpg""style=""width:400px;height:400px;""></img>",0,html-button-response,84,383258,0.0-3.3-19.3,91844,List1A,black,woman,,TRUE,0,,,,,
null,CORRECT,,html-keyboard-response,85,384766,0.0-3.3-20.3-0.3,91844,List1A,black,woman,,,,null,,,,
1773,"<img src=""portrait/BW2.jpg""style=""width:400px;height:400px;""></img>",2,html-button-response,86,386541,0.0-3.3-22.3,91844,List1A,black,woman,,TRUE,2,,,,,
null,CORRECT,,html-keyboard-response,87,388048,0.0-3.3-23.3-0.3,91844,List1A,black,woman,,,,null,,,,
1655,<p>You got 8 out of 8 right first time. Press Continue.</p>,0,html-button-response,88,389704,0.0-3.3-25.3,91844,List1A,black,woman,,,,,,,,
24207,"<p>In this experiment, you will view photographs of the people from the memory game interacting.</p><p>By using the <strong>exact</strong> phrase given <i>after</i> the photograph appears and recalling the correct names of the people in the photographs, form a sentence describing the interaction. You do not need to capitalise names.</p><p>Type your answer in the space provided. Please complete every sentence before moving onto the next trial.</p><p>You will only have a few seconds to memorise each given photograph and phrase before you can respond, so try your best to focus.</p><p>An example is given below. Press 'Continue' when you are ready.</p><img src='img/speaking_example_v2.jpg' style='width:800px;height:460px;''></img>",0,html-button-response,89,414914,0.0-4.0,91844,List1A,black,woman,,,,,,,,
2034,"<p>Before the experiment starts, you will watch two example trials. Press 'Continue'.</p>",0,html-button-response,90,417954,0.0-5.0,91844,List1A,black,woman,,,,,,,,
null,<img src='img/speaking_WW.gif'></img>,,html-keyboard-response,91,420965,0.0-6.0,91844,List1A,black,woman,,,,null,,,,
null,<p>is speaking to</p>,,html-keyboard-response,92,422970,0.0-7.0,91844,List1A,black,woman,,,,null,,,,
2242,<p><b>Answer:</b> kate is speaking to beth</p>,0,html-button-response,93,425214,0.0-8.0,91844,List1A,black,woman,,,,,,,,
null,<img src='img/pointing_BM.gif'></img>,,html-keyboard-response,94,428219,0.0-9.0,91844,List1A,black,woman,,,,null,,,,
null,<p>are pointing at each other</p>,,html-keyboard-response,95,430223,0.0-10.0,91844,List1A,black,woman,,,,null,,,,
1486,<p><b>Answer:</b> luke and dave are pointing at each other</p>,0,html-button-response,96,431710,0.0-11.0,91844,List1A,black,woman,,,,,,,,
1531,"<p>Ready to start the experiment?</p><br><p><strong>Remember to describe the picture using a full sentence,</strong></p><p><strong> that combines the names of the people with the given phrase.</strong></p><p><strong> You do not need to capitalise names or use punctuation.</strong></p><br><p>Press 'Continue' to begin.</p>",0,html-button-response,97,434247,0.0-12.0,91844,List1A,black,woman,,,,,,,,
null,"<div style=""font-size:60px;"">+</div>",,html-keyboard-response,98,435750,0.0-13.0-0.0,91844,List1A,black,woman,,,,null,,,,
null,"<img src=""stim_listA/fight3.gif""</stim_listA>",,html-keyboard-response,99,437753,0.0-13.0-1.0,91844,List1A,black,woman,,,,null,,,,
null,is fighting,,html-keyboard-response,100,439758,0.0-13.0-2.0,91844,List1A,black,woman,,,,null,,,,
20033,,,survey-text,101,459792,0.0-13.0-3.0,91844,List1A,black,woman,,,,,"{""Q0"":""dave and jane are talking""}","<img src=""stim_listA/fight3.gif""</stim_listA>",is fighting,
null,"<div style=""font-size:60px;"">+</div>",,html-keyboard-response,102,460296,0.0-13.0-0.1,91844,List1A,black,woman,,,,null,,,,
null,"<img src=""stim_listA/fight5.gif""</stim_listA>",,html-keyboard-response,103,462302,0.0-13.0-1.1,91844,List1A,black,woman,,,,null,,,,
null,is fighting,,html-keyboard-response,104,464308,0.0-13.0-2.1,91844,List1A,black,woman,,,,null,,,,
9359,,,survey-text,105,473667,0.0-13.0-3.1,91844,List1A,black,woman,,,,,"{""Q0"":""dave and mike are fighting""}","<img src=""stim_listA/fight5.gif""</stim_listA>",is fighting,
null,"<div style=""font-size:60px;"">+</div>",,html-keyboard-response,106,474172,0.0-13.0-0.2,91844,List1A,black,woman,,,,null,,,,
null,"<img src=""stim_listA/kiss4.gif""</stim_listA>",,html-keyboard-response,107,476178,0.0-13.0-1.2,91844,List1A,black,woman,,,,null,,,,
null,are kissing each other,,html-keyboard-response,108,478179,0.0-13.0-2.2,91844,List1A,black,woman,,,,null,,,,
17342,,,survey-text,109,495523,0.0-13.0-3.2,91844,List1A,black,woman,,,,,"{""Q0"":""dave and jane are kissing each other""}","<img src=""stim_listA/kiss4.gif""</stim_listA>",are kissing each other,
null,"<div style=""font-size:60px;"">+</div>",,html-keyboard-response,110,496026,0.0-13.0-0.3,91844,List1A,black,woman,,,,null,,,,
null,"<img src=""stim_listA/marry2.gif""</stim_listA>",,html-keyboard-response,111,498030,0.0-13.0-1.3,91844,List1A,black,woman,,,,null,,,,
null,are marrying each other,,html-keyboard-response,112,500035,0.0-13.0-2.3,91844,List1A,black,woman,,,,null,,,,
16033,,,survey-text,113,516070,0.0-13.0-3.3,91844,List1A,black,woman,,,,,"{""Q0"":""fred and kate are holding hands""}","<img src=""stim_listA/marry2.gif""</stim_listA>",are marrying each other,
null,"<div style=""font-size:60px;"">+</div>",,html-keyboard-response,114,516573,0.0-13.0-0.4,91844,List1A,black,woman,,,,null,,,,
null,"<img src=""stim_listA/hug7.gif""</stim_listA>",,html-keyboard-response,115,518576,0.0-13.0-1.4,91844,List1A,black,woman,,,,null,,,,
null,is hugging,,html-keyboard-response,116,520577,0.0-13.0-2.4,91844,List1A,black,woman,,,,null,,,,
15541,,,survey-text,117,536120,0.0-13.0-3.4,91844,List1A,black,woman,,,,,"{""Q0"":""ruth and beth are hugging""}","<img src=""stim_listA/hug7.gif""</stim_listA>",is hugging,
null,"<div style=""font-size:60px;"">+</div>",,html-keyboard-response,118,536622,0.0-13.0-0.5,91844,List1A,black,woman,,,,null,,,,
null,"<img src=""stim_listA/hug4.gif""</stim_listA>",,html-keyboard-response,119,538626,0.0-13.0-1.5,91844,List1A,black,woman,,,,null,,,,
null,are hugging each other,,html-keyboard-response,120,540631,0.0-13.0-2.5,91844,List1A,black,woman,,,,null,,,,
15339,,,survey-text,121,555972,0.0-13.0-3.5,91844,List1A,black,woman,,,,,"{""Q0"":""dave and jane are hugging each other""}","<img src=""stim_listA/hug4.gif""</stim_listA>",are hugging each other,
null,"<div style=""font-size:60px;"">+</div>",,html-keyboard-response,122,556475,0.0-13.0-0.6,91844,List1A,black,woman,,,,null,,,,
null,"<img src=""stim_listA/shout2.gif""</stim_listA>",,html-keyboard-response,123,558481,0.0-13.0-1.6,91844,List1A,black,woman,,,,null,,,,
null,are shouting at each other,,html-keyboard-response,124,560485,0.0-13.0-2.6,91844,List1A,black,woman,,,,null,,,,
14256,,,survey-text,125,574742,0.0-13.0-3.6,91844,List1A,black,woman,,,,,"{""Q0"":""mike and kate are shouting at each other""}","<img src=""stim_listA/shout2.gif""</stim_listA>",are shouting at each other,
null,"<div style=""font-size:60px;"">+</div>",,html-keyboard-response,126,575245,0.0-13.0-0.7,91844,List1A,black,woman,,,,null,,,,
null,"<img src=""stim_listA/meet6.gif""</stim_listA>",,html-keyboard-response,127,577250,0.0-13.0-1.7,91844,List1A,black,woman,,,,null,,,,
null,are meeting each other,,html-keyboard-response,128,579255,0.0-13.0-2.7,91844,List1A,black,woman,,,,null,,,,
23757,,,survey-text,129,603014,0.0-13.0-3.7,91844,List1A,black,woman,,,,,"{""Q0"":""fred and luke are meeting each other""}","<img src=""stim_listA/meet6.gif""</stim_listA>",are meeting each other,
null,"<div style=""font-size:60px;"">+</div>",,html-keyboard-response,130,603517,0.0-13.0-0.8,91844,List1A,black,woman,,,,null,,,,
null,"<img src=""stim_listA/talk2.gif""</stim_listA>",,html-keyboard-response,131,605519,0.0-13.0-1.8,91844,List1A,black,woman,,,,null,,,,
null,are talking to each other,,html-keyboard-response,132,607524,0.0-13.0-2.8,91844,List1A,black,woman,,,,null,,,,
12534,,,survey-text,133,620059,0.0-13.0-3.8,91844,List1A,black,woman,,,,,"{""Q0"":""mike and beth are talking to each other""}","<img src=""stim_listA/talk2.gif""</stim_listA>",are talking to each other,
null,"<div style=""font-size:60px;"">+</div>",,html-keyboard-response,134,620562,0.0-13.0-0.9,91844,List1A,black,woman,,,,null,,,,
null,"<img src=""stim_listA/marry1.gif""</stim_listA>",,html-keyboard-response,135,622564,0.0-13.0-1.9,91844,List1A,black,woman,,,,null,,,,
null,is marrying,,html-keyboard-response,136,624566,0.0-13.0-2.9,91844,List1A,black,woman,,,,null,,,,
9484,,,survey-text,137,634051,0.0-13.0-3.9,91844,List1A,black,woman,,,,,"{""Q0"":""mike and beth are marrying""}","<img src=""stim_listA/marry1.gif""</stim_listA>",is marrying,
null,"<div style=""font-size:60px;"">+</div>",,html-keyboard-response,138,634552,0.0-13.0-0.10,91844,List1A,black,woman,,,,null,,,,
null,"<img src=""stim_listA/hug5.gif""</stim_listA>",,html-keyboard-response,139,636558,0.0-13.0-1.10,91844,List1A,black,woman,,,,null,,,,
null,is hugging,,html-keyboard-response,140,638561,0.0-13.0-2.10,91844,List1A,black,woman,,,,null,,,,
10756,,,survey-text,141,649317,0.0-13.0-3.10,91844,List1A,black,woman,,,,,"{""Q0"":""fred and luke are hugging""}","<img src=""stim_listA/hug5.gif""</stim_listA>",is hugging,
null,"<div style=""font-size:60px;"">+</div>",,html-keyboard-response,142,649820,0.0-13.0-0.11,91844,List1A,black,woman,,,,null,,,,
null,"<img src=""stim_listA/argue3.gif""</stim_listA>",,html-keyboard-response,143,651822,0.0-13.0-1.11,91844,List1A,black,woman,,,,null,,,,
null,is arguing with,,html-keyboard-response,144,653823,0.0-13.0-2.11,91844,List1A,black,woman,,,,null,,,,
20131,,,survey-text,145,673957,0.0-13.0-3.11,91844,List1A,black,woman,,,,,"{""Q0"":""dave and ruth are pointing at each other""}","<img src=""stim_listA/argue3.gif""</stim_listA>",is arguing with,
null,"<div style=""font-size:60px;"">+</div>",,html-keyboard-response,146,674458,0.0-13.0-0.12,91844,List1A,black,woman,,,,null,,,,
null,"<img src=""stim_listA/dance8.gif""</stim_listA>",,html-keyboard-response,147,676462,0.0-13.0-1.12,91844,List1A,black,woman,,,,null,,,,
null,are dancing with each other,,html-keyboard-response,148,678465,0.0-13.0-2.12,91844,List1A,black,woman,,,,null,,,,
14275,,,survey-text,149,692741,0.0-13.0-3.12,91844,List1A,black,woman,,,,,"{""Q0"":""ruth and kate are dancing""}","<img src=""stim_listA/dance8.gif""</stim_listA>",are dancing with each other,
null,"<div style=""font-size:60px;"">+</div>",,html-keyboard-response,150,693243,0.0-13.0-0.13,91844,List1A,black,woman,,,,null,,,,
null,"<img src=""stim_listA/marry7.gif""</stim_listA>",,html-keyboard-response,151,695245,0.0-13.0-1.13,91844,List1A,black,woman,,,,null,,,,
null,is marrying,,html-keyboard-response,152,697246,0.0-13.0-2.13,91844,List1A,black,woman,,,,null,,,,
9042,,,survey-text,153,706288,0.0-13.0-3.13,91844,List1A,black,woman,,,,,"{""Q0"":""ruth and kate are marrying""}","<img src=""stim_listA/marry7.gif""</stim_listA>",is marrying,
null,"<div style=""font-size:60px;"">+</div>",,html-keyboard-response,154,706789,0.0-13.0-0.14,91844,List1A,black,woman,,,,null,,,,
null,"<img src=""stim_listA/touch1.gif""</stim_listA>",,html-keyboard-response,155,708793,0.0-13.0-1.14,91844,List1A,black,woman,,,,null,,,,
null,is touching,,html-keyboard-response,156,710795,0.0-13.0-2.14,91844,List1A,black,woman,,,,null,,,,
9564,,,survey-text,157,720359,0.0-13.0-3.14,91844,List1A,black,woman,,,,,"{""Q0"":""kate and mike are touching""}","<img src=""stim_listA/touch1.gif""</stim_listA>",is touching,
null,"<div style=""font-size:60px;"">+</div>",,html-keyboard-response,158,720862,0.0-13.0-0.15,91844,List1A,black,woman,,,,null,,,,
null,"<img src=""stim_listA/kiss8.gif""</stim_listA>",,html-keyboard-response,159,722864,0.0-13.0-1.15,91844,List1A,black,woman,,,,null,,,,
null,are kissing each other,,html-keyboard-response,160,724868,0.0-13.0-2.15,91844,List1A,black,woman,,,,null,,,,
9358,,,survey-text,161,734226,0.0-13.0-3.15,91844,List1A,black,woman,,,,,"{""Q0"":""kate and ruth are kissing""}","<img src=""stim_listA/kiss8.gif""</stim_listA>",are kissing each other,
null,"<div style=""font-size:60px;"">+</div>",,html-keyboard-response,162,734729,0.0-13.0-0.16,91844,List1A,black,woman,,,,null,,,,
null,"<img src=""stim_listA/meet4.gif""</stim_listA>",,html-keyboard-response,163,736734,0.0-13.0-1.16,91844,List1A,black,woman,,,,null,,,,
null,are meeting each other,,html-keyboard-response,164,738736,0.0-13.0-2.16,91844,List1A,black,woman,,,,null,,,,
13672,,,survey-text,165,752410,0.0-13.0-3.16,91844,List1A,black,woman,,,,,"{""Q0"":""ruth and dave are meeting""}","<img src=""stim_listA/meet4.gif""</stim_listA>",are meeting each other,
null,"<div style=""font-size:60px;"">+</div>",,html-keyboard-response,166,752912,0.0-13.0-0.17,91844,List1A,black,woman,,,,null,,,,
null,"<img src=""stim_listA/kiss3.gif""</stim_listA>",,html-keyboard-response,167,754914,0.0-13.0-1.17,91844,List1A,black,woman,,,,null,,,,
null,is kissing,,html-keyboard-response,168,756919,0.0-13.0-2.17,91844,List1A,black,woman,,,,null,,,,
7761,,,survey-text,169,764681,0.0-13.0-3.17,91844,List1A,black,woman,,,,,"{""Q0"":""dave and ruth are kissing""}","<img src=""stim_listA/kiss3.gif""</stim_listA>",is kissing,
null,"<div style=""font-size:60px;"">+</div>",,html-keyboard-response,170,765184,0.0-13.0-0.18,91844,List1A,black,woman,,,,null,,,,
null,"<img src=""stim_listA/shout6.gif""</stim_listA>",,html-keyboard-response,171,767189,0.0-13.0-1.18,91844,List1A,black,woman,,,,null,,,,
null,are shouting at each other,,html-keyboard-response,172,769192,0.0-13.0-2.18,91844,List1A,black,woman,,,,null,,,,
13073,,,survey-text,173,782267,0.0-13.0-3.18,91844,List1A,black,woman,,,,,"{""Q0"":""mike and luke are fighting""}","<img src=""stim_listA/shout6.gif""</stim_listA>",are shouting at each other,
null,"<div style=""font-size:60px;"">+</div>",,html-keyboard-response,174,782769,0.0-13.0-0.19,91844,List1A,black,woman,,,,null,,,,
null,"<img src=""stim_listA/meet5.gif""</stim_listA>",,html-keyboard-response,175,784775,0.0-13.0-1.19,91844,List1A,black,woman,,,,null,,,,
null,is meeting,,html-keyboard-response,176,786779,0.0-13.0-2.19,91844,List1A,black,woman,,,,null,,,,
8986,,,survey-text,177,795765,0.0-13.0-3.19,91844,List1A,black,woman,,,,,"{""Q0"":""mike and luke are meeting""}","<img src=""stim_listA/meet5.gif""</stim_listA>",is meeting,
11515,"<img src='img/portrait_matrix_list1.JPG' style='width:900px;height:500px;''></img><p>If you have memorised all the portraits and names and are ready to start, press Continue.</p><p><strong>Please note: Your memory of these faces will be tested 4 times during this experiment.</strong></p>",0,html-button-response,178,807281,0.0-14.0-0.0,91844,List1A,black,woman,,,,,,,,
7381,"<img src=""portrait/BM1.jpg""style=""width:400px;height:400px;""></img>",4,html-button-response,179,815670,0.0-14.0-1.0,91844,List1A,black,woman,,TRUE,4,,,,,
null,CORRECT,,html-keyboard-response,180,817177,0.0-14.0-2.0-0.0,91844,List1A,black,woman,,,,null,,,,
4917,"<img src=""portrait/WW1.jpg""style=""width:400px;height:400px;""></img>",1,html-button-response,181,822096,0.0-14.0-4.0,91844,List1A,black,woman,,TRUE,1,,,,,
null,CORRECT,,html-keyboard-response,182,823604,0.0-14.0-5.0-0.0,91844,List1A,black,woman,,,,null,,,,
4858,"<img src=""portrait/BW2.jpg""style=""width:400px;height:400px;""></img>",2,html-button-response,183,828464,0.0-14.0-7.0,91844,List1A,black,woman,,TRUE,2,,,,,
null,CORRECT,,html-keyboard-response,184,829971,0.0-14.0-8.0-0.0,91844,List1A,black,woman,,,,null,,,,
3081,"<img src=""portrait/WM1.jpg""style=""width:400px;height:400px;""></img>",6,html-button-response,185,833054,0.0-14.0-10.0,91844,List1A,black,woman,,TRUE,6,,,,,
null,CORRECT,,html-keyboard-response,186,834565,0.0-14.0-11.0-0.0,91844,List1A,black,woman,,,,null,,,,
4636,"<img src=""portrait/WW2.jpg""style=""width:400px;height:400px;""></img>",1,html-button-response,187,839202,0.0-14.0-13.0,91844,List1A,black,woman,,TRUE,3,,,,,
2135,"<img src=""portrait/WW2.jpg""style=""width:400px;height:400px;""></img>",3,html-button-response,188,842340,0.0-14.0-15.0-0.0,91844,List1A,black,woman,,FALSE,3,,,,,
null,CORRECT,,html-keyboard-response,189,843849,0.0-14.0-15.0-1.0-0.0,91844,List1A,black,woman,,,,null,,,,
3952,"<img src=""portrait/BW1.jpg""style=""width:400px;height:400px;""></img>",0,html-button-response,190,847803,0.0-14.0-16.0,91844,List1A,black,woman,,TRUE,0,,,,,
null,CORRECT,,html-keyboard-response,191,849312,0.0-14.0-17.0-0.0,91844,List1A,black,woman,,,,null,,,,
1851,"<img src=""portrait/WM2.jpg""style=""width:400px;height:400px;""></img>",7,html-button-response,192,851166,0.0-14.0-19.0,91844,List1A,black,woman,,TRUE,7,,,,,
null,CORRECT,,html-keyboard-response,193,852673,0.0-14.0-20.0-0.0,91844,List1A,black,woman,,,,null,,,,
3548,"<img src=""portrait/BM2.jpg""style=""width:400px;height:400px;""></img>",5,html-button-response,194,856222,0.0-14.0-22.0,91844,List1A,black,woman,,TRUE,5,,,,,
null,CORRECT,,html-keyboard-response,195,857733,0.0-14.0-23.0-0.0,91844,List1A,black,woman,,,,null,,,,
1306,<p>You got 7 out of 8 right first time. Press Continue.</p>,0,html-button-response,196,859041,0.0-14.0-25.0,91844,List1A,black,woman,,,,,,,,
1721,"As you did not score 100%, the memory game will repeat. Press Continue.",0,html-button-response,197,861766,0.0-14.0-26.0-0.0,91844,List1A,black,woman,,,,,,,,
2058,"<img src='img/portrait_matrix_list1.JPG' style='width:900px;height:500px;''></img><p>If you have memorised all the portraits and names and are ready to start, press Continue.</p><p><strong>Please note: Your memory of these faces will be tested 4 times during this experiment.</strong></p>",0,html-button-response,198,864832,0.0-14.1-0.1,91844,List1A,black,woman,,,,,,,,
6221,"<img src=""portrait/BM1.jpg""style=""width:400px;height:400px;""></img>",4,html-button-response,199,872056,0.0-14.1-1.1,91844,List1A,black,woman,,TRUE,4,,,,,
null,CORRECT,,html-keyboard-response,200,873568,0.0-14.1-2.1-0.1,91844,List1A,black,woman,,,,null,,,,
6405,"<img src=""portrait/WW1.jpg""style=""width:400px;height:400px;""></img>",1,html-button-response,201,879974,0.0-14.1-4.1,91844,List1A,black,woman,,TRUE,1,,,,,
null,CORRECT,,html-keyboard-response,202,881480,0.0-14.1-5.1-0.1,91844,List1A,black,woman,,,,null,,,,
4025,"<img src=""portrait/BW2.jpg""style=""width:400px;height:400px;""></img>",2,html-button-response,203,885507,0.0-14.1-7.1,91844,List1A,black,woman,,TRUE,2,,,,,
null,CORRECT,,html-keyboard-response,204,887010,0.0-14.1-8.1-0.1,91844,List1A,black,woman,,,,null,,,,
2606,"<img src=""portrait/WM1.jpg""style=""width:400px;height:400px;""></img>",6,html-button-response,205,889618,0.0-14.1-10.1,91844,List1A,black,woman,,TRUE,6,,,,,
null,CORRECT,,html-keyboard-response,206,891130,0.0-14.1-11.1-0.1,91844,List1A,black,woman,,,,null,,,,
5010,"<img src=""portrait/WW2.jpg""style=""width:400px;height:400px;""></img>",3,html-button-response,207,896141,0.0-14.1-13.1,91844,List1A,black,woman,,TRUE,3,,,,,
null,CORRECT,,html-keyboard-response,208,897653,0.0-14.1-14.1-0.1,91844,List1A,black,woman,,,,null,,,,
4891,"<img src=""portrait/BW1.jpg""style=""width:400px;height:400px;""></img>",0,html-button-response,209,902546,0.0-14.1-16.1,91844,List1A,black,woman,,TRUE,0,,,,,
null,CORRECT,,html-keyboard-response,210,904057,0.0-14.1-17.1-0.1,91844,List1A,black,woman,,,,null,,,,
1896,"<img src=""portrait/WM2.jpg""style=""width:400px;height:400px;""></img>",7,html-button-response,211,905955,0.0-14.1-19.1,91844,List1A,black,woman,,TRUE,7,,,,,
null,CORRECT,,html-keyboard-response,212,907465,0.0-14.1-20.1-0.1,91844,List1A,black,woman,,,,null,,,,
3870,"<img src=""portrait/BM2.jpg""style=""width:400px;height:400px;""></img>",5,html-button-response,213,911338,0.0-14.1-22.1,91844,List1A,black,woman,,TRUE,5,,,,,
null,CORRECT,,html-keyboard-response,214,912843,0.0-14.1-23.1-0.1,91844,List1A,black,woman,,,,null,,,,
1692,<p>You got 8 out of 8 right first time. Press Continue.</p>,0,html-button-response,215,914537,0.0-14.1-25.1,91844,List1A,black,woman,,,,,,,,
null,"<div style=""font-size:60px;"">+</div>",,html-keyboard-response,216,916041,0.0-15.0-0.0,91844,List1A,black,woman,,,,null,,,,
null,"<img src=""stim_listA/fight1.gif""</stim_listA>",,html-keyboard-response,217,918044,0.0-15.0-1.0,91844,List1A,black,woman,,,,null,,,,
null,is fighting,,html-keyboard-response,218,920046,0.0-15.0-2.0,91844,List1A,black,woman,,,,null,,,,
12707,,,survey-text,219,932755,0.0-15.0-3.0,91844,List1A,black,woman,,,,,"{""Q0"":""mike and kate are fighting""}","<img src=""stim_listA/fight1.gif""</stim_listA>",is fighting,
null,"<div style=""font-size:60px;"">+</div>",,html-keyboard-response,220,933256,0.0-15.0-0.1,91844,List1A,black,woman,,,,null,,,,
null,"<img src=""stim_listA/argue4.gif""</stim_listA>",,html-keyboard-response,221,935259,0.0-15.0-1.1,91844,List1A,black,woman,,,,null,,,,
null,are arguing with each other,,html-keyboard-response,222,937264,0.0-15.0-2.1,91844,List1A,black,woman,,,,null,,,,
12398,,,survey-text,223,949663,0.0-15.0-3.1,91844,List1A,black,woman,,,,,"{""Q0"":""luke and jane are meeting""}","<img src=""stim_listA/argue4.gif""</stim_listA>",are arguing with each other,
null,"<div style=""font-size:60px;"">+</div>",,html-keyboard-response,224,950167,0.0-15.0-0.2,91844,List1A,black,woman,,,,null,,,,
null,"<img src=""stim_listA/dance1.gif""</stim_listA>",,html-keyboard-response,225,952173,0.0-15.0-1.2,91844,List1A,black,woman,,,,null,,,,
null,is dancing with,,html-keyboard-response,226,954175,0.0-15.0-2.2,91844,List1A,black,woman,,,,null,,,,
12021,,,survey-text,227,966197,0.0-15.0-3.2,91844,List1A,black,woman,,,,,"{""Q0"":""fred and kate are dancing""}","<img src=""stim_listA/dance1.gif""</stim_listA>",is dancing with,
null,"<div style=""font-size:60px;"">+</div>",,html-keyboard-response,228,966702,0.0-15.0-0.3,91844,List1A,black,woman,,,,null,,,,
null,"<img src=""stim_listA/kiss7.gif""</stim_listA>",,html-keyboard-response,229,968704,0.0-15.0-1.3,91844,List1A,black,woman,,,,null,,,,
null,is kissing,,html-keyboard-response,230,970706,0.0-15.0-2.3,91844,List1A,black,woman,,,,null,,,,
10494,,,survey-text,231,981202,0.0-15.0-3.3,91844,List1A,black,woman,,,,,"{""Q0"":""ruth and beth are kissing""}","<img src=""stim_listA/kiss7.gif""</stim_listA>",is kissing,
null,"<div style=""font-size:60px;"">+</div>",,html-keyboard-response,232,981704,0.0-15.0-0.4,91844,List1A,black,woman,,,,null,,,,
null,"<img src=""stim_listA/marry5.gif""</stim_listA>",,html-keyboard-response,233,983710,0.0-15.0-1.4,91844,List1A,black,woman,,,,null,,,,
null,is marrying,,html-keyboard-response,234,985714,0.0-15.0-2.4,91844,List1A,black,woman,,,,null,,,,
9671,,,survey-text,235,995385,0.0-15.0-3.4,91844,List1A,black,woman,,,,,"{""Q0"":""mike and luke are marrying""}","<img src=""stim_listA/marry5.gif""</stim_listA>",is marrying,
null,"<div style=""font-size:60px;"">+</div>",,html-keyboard-response,236,995891,0.0-15.0-0.5,91844,List1A,black,woman,,,,null,,,,
null,"<img src=""stim_listA/talk4.gif""</stim_listA>",,html-keyboard-response,237,997896,0.0-15.0-1.5,91844,List1A,black,woman,,,,null,,,,
null,are talking to each other,,html-keyboard-response,238,999898,0.0-15.0-2.5,91844,List1A,black,woman,,,,null,,,,
11940,,,survey-text,239,1011840,0.0-15.0-3.5,91844,List1A,black,woman,,,,,"{""Q0"":""ruth and dave are talking to each other""}","<img src=""stim_listA/talk4.gif""</stim_listA>",are talking to each other,
null,"<div style=""font-size:60px;"">+</div>",,html-keyboard-response,240,1012346,0.0-15.0-0.6,91844,List1A,black,woman,,,,null,,,,
null,"<img src=""stim_listA/argue5.gif""</stim_listA>",,html-keyboard-response,241,1014348,0.0-15.0-1.6,91844,List1A,black,woman,,,,null,,,,
null,is arguing with,,html-keyboard-response,242,1016354,0.0-15.0-2.6,91844,List1A,black,woman,,,,null,,,,
9766,,,survey-text,243,1026120,0.0-15.0-3.6,91844,List1A,black,woman,,,,,"{""Q0"":""mike and luke are fighting""}","<img src=""stim_listA/argue5.gif""</stim_listA>",is arguing with,
null,"<div style=""font-size:60px;"">+</div>",,html-keyboard-response,244,1026625,0.0-15.0-0.7,91844,List1A,black,woman,,,,null,,,,
null,"<img src=""stim_listA/hug2.gif""</stim_listA>",,html-keyboard-response,245,1028629,0.0-15.0-1.7,91844,List1A,black,woman,,,,null,,,,
null,are hugging each other,,html-keyboard-response,246,1030631,0.0-15.0-2.7,91844,List1A,black,woman,,,,null,,,,
12808,,,survey-text,247,1043441,0.0-15.0-3.7,91844,List1A,black,woman,,,,,"{""Q0"":""mike and kate are hugging each other""}","<img src=""stim_listA/hug2.gif""</stim_listA>",are hugging each other,
null,"<div style=""font-size:60px;"">+</div>",,html-keyboard-response,248,1043944,0.0-15.0-0.8,91844,List1A,black,woman,,,,null,,,,
null,"<img src=""stim_listA/marry6.gif""</stim_listA>",,html-keyboard-response,249,1045945,0.0-15.0-1.8,91844,List1A,black,woman,,,,null,,,,
null,are marrying each other,,html-keyboard-response,250,1047946,0.0-15.0-2.8,91844,List1A,black,woman,,,,null,,,,
11178,,,survey-text,251,1059125,0.0-15.0-3.8,91844,List1A,black,woman,,,,,"{""Q0"":""dave and fred are marrying each other""}","<img src=""stim_listA/marry6.gif""</stim_listA>",are marrying each other,
null,"<div style=""font-size:60px;"">+</div>",,html-keyboard-response,252,1059627,0.0-15.0-0.9,91844,List1A,black,woman,,,,null,,,,
null,"<img src=""stim_listA/argue7.gif""</stim_listA>",,html-keyboard-response,253,1061633,0.0-15.0-1.9,91844,List1A,black,woman,,,,null,,,,
null,is arguing with,,html-keyboard-response,254,1063636,0.0-15.0-2.9,91844,List1A,black,woman,,,,null,,,,
7939,,,survey-text,255,1071576,0.0-15.0-3.9,91844,List1A,black,woman,,,,,"{""Q0"":""ruth and kate are fighting""}","<img src=""stim_listA/argue7.gif""</stim_listA>",is arguing with,
null,"<div style=""font-size:60px;"">+</div>",,html-keyboard-response,256,1072081,0.0-15.0-0.10,91844,List1A,black,woman,,,,null,,,,
null,"<img src=""stim_listA/touch7.gif""</stim_listA>",,html-keyboard-response,257,1074084,0.0-15.0-1.10,91844,List1A,black,woman,,,,null,,,,
null,is touching,,html-keyboard-response,258,1076087,0.0-15.0-2.10,91844,List1A,black,woman,,,,null,,,,
9867,,,survey-text,259,1085955,0.0-15.0-3.10,91844,List1A,black,woman,,,,,"{""Q0"":""jane and kate""}","<img src=""stim_listA/touch7.gif""</stim_listA>",is touching,
null,"<div style=""font-size:60px;"">+</div>",,html-keyboard-response,260,1086456,0.0-15.0-0.11,91844,List1A,black,woman,,,,null,,,,
null,"<img src=""stim_listA/hug1.gif""</stim_listA>",,html-keyboard-response,261,1088463,0.0-15.0-1.11,91844,List1A,black,woman,,,,null,,,,
null,is hugging,,html-keyboard-response,262,1090465,0.0-15.0-2.11,91844,List1A,black,woman,,,,null,,,,
8573,,,survey-text,263,1099040,0.0-15.0-3.11,91844,List1A,black,woman,,,,,"{""Q0"":""fred and beth are hugging""}","<img src=""stim_listA/hug1.gif""</stim_listA>",is hugging,
null,"<div style=""font-size:60px;"">+</div>",,html-keyboard-response,264,1099542,0.0-15.0-0.12,91844,List1A,black,woman,,,,null,,,,
null,"<img src=""stim_listA/shout5.gif""</stim_listA>",,html-keyboard-response,265,1101546,0.0-15.0-1.12,91844,List1A,black,woman,,,,null,,,,
null,is shouting at,,html-keyboard-response,266,1103551,0.0-15.0-2.12,91844,List1A,black,woman,,,,null,,,,
11364,,,survey-text,267,1114917,0.0-15.0-3.12,91844,List1A,black,woman,,,,,"{""Q0"":""fred is shouting at luke""}","<img src=""stim_listA/shout5.gif""</stim_listA>",is shouting at,
null,"<div style=""font-size:60px;"">+</div>",,html-keyboard-response,268,1115419,0.0-15.0-0.13,91844,List1A,black,woman,,,,null,,,,
null,"<img src=""stim_listA/dance3.gif""</stim_listA>",,html-keyboard-response,269,1117425,0.0-15.0-1.13,91844,List1A,black,woman,,,,null,,,,
null,is dancing with,,html-keyboard-response,270,1119426,0.0-15.0-2.13,91844,List1A,black,woman,,,,null,,,,
9974,,,survey-text,271,1129402,0.0-15.0-3.13,91844,List1A,black,woman,,,,,"{""Q0"":""luke is dancing with jane""}","<img src=""stim_listA/dance3.gif""</stim_listA>",is dancing with,
null,"<div style=""font-size:60px;"">+</div>",,html-keyboard-response,272,1129904,0.0-15.0-0.14,91844,List1A,black,woman,,,,null,,,,
null,"<img src=""stim_listA/hug6.gif""</stim_listA>",,html-keyboard-response,273,1131910,0.0-15.0-1.14,91844,List1A,black,woman,,,,null,,,,
null,are hugging each other,,html-keyboard-response,274,1133911,0.0-15.0-2.14,91844,List1A,black,woman,,,,null,,,,
11114,,,survey-text,275,1145027,0.0-15.0-3.14,91844,List1A,black,woman,,,,,"{""Q0"":""luke and mike are hugging each other""}","<img src=""stim_listA/hug6.gif""</stim_listA>",are hugging each other,
null,"<div style=""font-size:60px;"">+</div>",,html-keyboard-response,276,1145528,0.0-15.0-0.15,91844,List1A,black,woman,,,,null,,,,
null,"<img src=""stim_listA/dance6.gif""</stim_listA>",,html-keyboard-response,277,1147533,0.0-15.0-1.15,91844,List1A,black,woman,,,,null,,,,
null,are dancing with each other,,html-keyboard-response,278,1149534,0.0-15.0-2.15,91844,List1A,black,woman,,,,null,,,,
13634,,,survey-text,279,1163169,0.0-15.0-3.15,91844,List1A,black,woman,,,,,"{""Q0"":""mike and luke are dancing with each other""}","<img src=""stim_listA/dance6.gif""</stim_listA>",are dancing with each other,
null,"<div style=""font-size:60px;"">+</div>",,html-keyboard-response,280,1163673,0.0-15.0-0.16,91844,List1A,black,woman,,,,null,,,,
null,"<img src=""stim_listA/talk3.gif""</stim_listA>",,html-keyboard-response,281,1165677,0.0-15.0-1.16,91844,List1A,black,woman,,,,null,,,,
null,is talking to,,html-keyboard-response,282,1167678,0.0-15.0-2.16,91844,List1A,black,woman,,,,null,,,,
8022,,,survey-text,283,1175701,0.0-15.0-3.16,91844,List1A,black,woman,,,,,"{""Q0"":""luke is talking to jane""}","<img src=""stim_listA/talk3.gif""</stim_listA>",is talking to,
null,"<div style=""font-size:60px;"">+</div>",,html-keyboard-response,284,1176203,0.0-15.0-0.17,91844,List1A,black,woman,,,,null,,,,
null,"<img src=""stim_listA/meet7.gif""</stim_listA>",,html-keyboard-response,285,1178209,0.0-15.0-1.17,91844,List1A,black,woman,,,,null,,,,
null,is meeting,,html-keyboard-response,286,1180214,0.0-15.0-2.17,91844,List1A,black,woman,,,,null,,,,
13527,,,survey-text,287,1193741,0.0-15.0-3.17,91844,List1A,black,woman,,,,,"{""Q0"":""kate and jane are meeting""}","<img src=""stim_listA/meet7.gif""</stim_listA>",is meeting,
null,"<div style=""font-size:60px;"">+</div>",,html-keyboard-response,288,1194247,0.0-15.0-0.18,91844,List1A,black,woman,,,,null,,,,
null,"<img src=""stim_listA/dance7.gif""</stim_listA>",,html-keyboard-response,289,1196252,0.0-15.0-1.18,91844,List1A,black,woman,,,,null,,,,
null,is dancing with,,html-keyboard-response,290,1198257,0.0-15.0-2.18,91844,List1A,black,woman,,,,null,,,,
7984,,,survey-text,291,1206243,0.0-15.0-3.18,91844,List1A,black,woman,,,,,"{""Q0"":""beth and jane are dancing""}","<img src=""stim_listA/dance7.gif""</stim_listA>",is dancing with,
null,"<div style=""font-size:60px;"">+</div>",,html-keyboard-response,292,1206747,0.0-15.0-0.19,91844,List1A,black,woman,,,,null,,,,
null,"<img src=""stim_listA/meet1.gif""</stim_listA>",,html-keyboard-response,293,1208750,0.0-15.0-1.19,91844,List1A,black,woman,,,,null,,,,
null,is meeting,,html-keyboard-response,294,1210751,0.0-15.0-2.19,91844,List1A,black,woman,,,,null,,,,
8890,,,survey-text,295,1219643,0.0-15.0-3.19,91844,List1A,black,woman,,,,,"{""Q0"":""kate and mike are meeting""}","<img src=""stim_listA/meet1.gif""</stim_listA>",is meeting,
3864,"<img src='img/portrait_matrix_list1.JPG' style='width:900px;height:500px;''></img><p>If you have memorised all the portraits and names and are ready to start, press Continue.</p><p><strong>Please note: Your memory of these faces will be tested 4 times during this experiment.</strong></p>",0,html-button-response,296,1223508,0.0-16.0-0.0,91844,List1A,black,woman,,,,,,,,
5645,"<img src=""portrait/BM2.jpg""style=""width:400px;height:400px;""></img>",5,html-button-response,297,1230161,0.0-16.0-1.0,91844,List1A,black,woman,,TRUE,5,,,,,
null,CORRECT,,html-keyboard-response,298,1231670,0.0-16.0-2.0-0.0,91844,List1A,black,woman,,,,null,,,,
4685,"<img src=""portrait/BW1.jpg""style=""width:400px;height:400px;""></img>",0,html-button-response,299,1236357,0.0-16.0-4.0,91844,List1A,black,woman,,TRUE,0,,,,,
null,CORRECT,,html-keyboard-response,300,1237861,0.0-16.0-5.0-0.0,91844,List1A,black,woman,,,,null,,,,
2107,"<img src=""portrait/WM2.jpg""style=""width:400px;height:400px;""></img>",7,html-button-response,301,1239970,0.0-16.0-7.0,91844,List1A,black,woman,,TRUE,7,,,,,
null,CORRECT,,html-keyboard-response,302,1241477,0.0-16.0-8.0-0.0,91844,List1A,black,woman,,,,null,,,,
3444,"<img src=""portrait/BM1.jpg""style=""width:400px;height:400px;""></img>",4,html-button-response,303,1244923,0.0-16.0-10.0,91844,List1A,black,woman,,TRUE,4,,,,,
null,CORRECT,,html-keyboard-response,304,1246433,0.0-16.0-11.0-0.0,91844,List1A,black,woman,,,,null,,,,
5257,"<img src=""portrait/WW2.jpg""style=""width:400px;height:400px;""></img>",3,html-button-response,305,1251692,0.0-16.0-13.0,91844,List1A,black,woman,,TRUE,3,,,,,
null,CORRECT,,html-keyboard-response,306,1253200,0.0-16.0-14.0-0.0,91844,List1A,black,woman,,,,null,,,,
4075,"<img src=""portrait/BW2.jpg""style=""width:400px;height:400px;""></img>",2,html-button-response,307,1257277,0.0-16.0-16.0,91844,List1A,black,woman,,TRUE,2,,,,,
null,CORRECT,,html-keyboard-response,308,1258784,0.0-16.0-17.0-0.0,91844,List1A,black,woman,,,,null,,,,
3291,"<img src=""portrait/WW1.jpg""style=""width:400px;height:400px;""></img>",1,html-button-response,309,1262077,0.0-16.0-19.0,91844,List1A,black,woman,,TRUE,1,,,,,
null,CORRECT,,html-keyboard-response,310,1263589,0.0-16.0-20.0-0.0,91844,List1A,black,woman,,,,null,,,,
1731,"<img src=""portrait/WM1.jpg""style=""width:400px;height:400px;""></img>",6,html-button-response,311,1265322,0.0-16.0-22.0,91844,List1A,black,woman,,TRUE,6,,,,,
null,CORRECT,,html-keyboard-response,312,1266828,0.0-16.0-23.0-0.0,91844,List1A,black,woman,,,,null,,,,
1495,<p>You got 8 out of 8 right first time. Press Continue.</p>,0,html-button-response,313,1268325,0.0-16.0-25.0,91844,List1A,black,woman,,,,,,,,
null,"<div style=""font-size:60px;"">+</div>",,html-keyboard-response,314,1269831,0.0-17.0-0.0,91844,List1A,black,woman,,,,null,,,,
null,"<img src=""stim_listA/touch4.gif""</stim_listA>",,html-keyboard-response,315,1271838,0.0-17.0-1.0,91844,List1A,black,woman,,,,null,,,,
null,are touching each other,,html-keyboard-response,316,1273841,0.0-17.0-2.0,91844,List1A,black,woman,,,,null,,,,
15322,,,survey-text,317,1289164,0.0-17.0-3.0,91844,List1A,black,woman,,,,,"{""Q0"":""luke and ruth are touching each other""}","<img src=""stim_listA/touch4.gif""</stim_listA>",are touching each other,
null,"<div style=""font-size:60px;"">+</div>",,html-keyboard-response,318,1289666,0.0-17.0-0.1,91844,List1A,black,woman,,,,null,,,,
null,"<img src=""stim_listA/shout1.gif""</stim_listA>",,html-keyboard-response,319,1291668,0.0-17.0-1.1,91844,List1A,black,woman,,,,null,,,,
null,is shouting at,,html-keyboard-response,320,1293671,0.0-17.0-2.1,91844,List1A,black,woman,,,,null,,,,
11444,,,survey-text,321,1305115,0.0-17.0-3.1,91844,List1A,black,woman,,,,,"{""Q0"":""beth is shouting at fred""}","<img src=""stim_listA/shout1.gif""</stim_listA>",is shouting at,
null,"<div style=""font-size:60px;"">+</div>",,html-keyboard-response,322,1305620,0.0-17.0-0.2,91844,List1A,black,woman,,,,null,,,,
null,"<img src=""stim_listA/marry8.gif""</stim_listA>",,html-keyboard-response,323,1307622,0.0-17.0-1.2,91844,List1A,black,woman,,,,null,,,,
null,are marrying each other,,html-keyboard-response,324,1309627,0.0-17.0-2.2,91844,List1A,black,woman,,,,null,,,,
12469,,,survey-text,325,1322098,0.0-17.0-3.2,91844,List1A,black,woman,,,,,"{""Q0"":""beth and jane are marrying""}","<img src=""stim_listA/marry8.gif""</stim_listA>",are marrying each other,
null,"<div style=""font-size:60px;"">+</div>",,html-keyboard-response,326,1322600,0.0-17.0-0.3,91844,List1A,black,woman,,,,null,,,,
null,"<img src=""stim_listA/kiss1.gif""</stim_listA>",,html-keyboard-response,327,1324605,0.0-17.0-1.3,91844,List1A,black,woman,,,,null,,,,
null,is kissing,,html-keyboard-response,328,1326606,0.0-17.0-2.3,91844,List1A,black,woman,,,,null,,,,
12698,,,survey-text,329,1339306,0.0-17.0-3.3,91844,List1A,black,woman,,,,,"{""Q0"":""beth and fred are kissing""}","<img src=""stim_listA/kiss1.gif""</stim_listA>",is kissing,
null,"<div style=""font-size:60px;"">+</div>",,html-keyboard-response,330,1339813,0.0-17.0-0.4,91844,List1A,black,woman,,,,null,,,,
null,"<img src=""stim_listA/argue8.gif""</stim_listA>",,html-keyboard-response,331,1341817,0.0-17.0-1.4,91844,List1A,black,woman,,,,null,,,,
null,are arguing with each other,,html-keyboard-response,332,1343818,0.0-17.0-2.4,91844,List1A,black,woman,,,,null,,,,
15138,,,survey-text,333,1358958,0.0-17.0-3.4,91844,List1A,black,woman,,,,,"{""Q0"":""jane and beth are arguing with each other""}","<img src=""stim_listA/argue8.gif""</stim_listA>",are arguing with each other,
null,"<div style=""font-size:60px;"">+</div>",,html-keyboard-response,334,1359462,0.0-17.0-0.5,91844,List1A,black,woman,,,,null,,,,
null,"<img src=""stim_listA/fight2.gif""</stim_listA>",,html-keyboard-response,335,1361465,0.0-17.0-1.5,91844,List1A,black,woman,,,,null,,,,
null,are fighting each other,,html-keyboard-response,336,1363466,0.0-17.0-2.5,91844,List1A,black,woman,,,,null,,,,
6519,,,survey-text,337,1369987,0.0-17.0-3.5,91844,List1A,black,woman,,,,,"{""Q0"":""blah blah blah""}","<img src=""stim_listA/fight2.gif""</stim_listA>",are fighting each other,
null,"<div style=""font-size:60px;"">+</div>",,html-keyboard-response,338,1370490,0.0-17.0-0.6,91844,List1A,black,woman,,,,null,,,,
null,"<img src=""stim_listA/talk6.gif""</stim_listA>",,html-keyboard-response,339,1372491,0.0-17.0-1.6,91844,List1A,black,woman,,,,null,,,,
null,are talking to each other,,html-keyboard-response,340,1374492,0.0-17.0-2.6,91844,List1A,black,woman,,,,null,,,,
5629,,,survey-text,341,1380123,0.0-17.0-3.6,91844,List1A,black,woman,,,,,"{""Q0"":""blah blah blah""}","<img src=""stim_listA/talk6.gif""</stim_listA>",are talking to each other,
null,"<div style=""font-size:60px;"">+</div>",,html-keyboard-response,342,1380625,0.0-17.0-0.7,91844,List1A,black,woman,,,,null,,,,
null,"<img src=""stim_listA/shout4.gif""</stim_listA>",,html-keyboard-response,343,1382627,0.0-17.0-1.7,91844,List1A,black,woman,,,,null,,,,
null,are shouting at each other,,html-keyboard-response,344,1384631,0.0-17.0-2.7,91844,List1A,black,woman,,,,null,,,,
5903,,,survey-text,345,1390535,0.0-17.0-3.7,91844,List1A,black,woman,,,,,"{""Q0"":""blah blah blah""}","<img src=""stim_listA/shout4.gif""</stim_listA>",are shouting at each other,
null,"<div style=""font-size:60px;"">+</div>",,html-keyboard-response,346,1391037,0.0-17.0-0.8,91844,List1A,black,woman,,,,null,,,,
null,"<img src=""stim_listA/touch5.gif""</stim_listA>",,html-keyboard-response,347,1393042,0.0-17.0-1.8,91844,List1A,black,woman,,,,null,,,,
null,is touching,,html-keyboard-response,348,1395047,0.0-17.0-2.8,91844,List1A,black,woman,,,,null,,,,
3355,,,survey-text,349,1398403,0.0-17.0-3.8,91844,List1A,black,woman,,,,,"{""Q0"":""blah""}","<img src=""stim_listA/touch5.gif""</stim_listA>",is touching,
null,"<div style=""font-size:60px;"">+</div>",,html-keyboard-response,350,1398906,0.0-17.0-0.9,91844,List1A,black,woman,,,,null,,,,
null,"<img src=""stim_listA/marry4.gif""</stim_listA>",,html-keyboard-response,351,1400909,0.0-17.0-1.9,91844,List1A,black,woman,,,,null,,,,
null,are marrying each other,,html-keyboard-response,352,1402914,0.0-17.0-2.9,91844,List1A,black,woman,,,,null,,,,
3545,,,survey-text,353,1406460,0.0-17.0-3.9,91844,List1A,black,woman,,,,,"{""Q0"":""blah""}","<img src=""stim_listA/marry4.gif""</stim_listA>",are marrying each other,
null,"<div style=""font-size:60px;"">+</div>",,html-keyboard-response,354,1406963,0.0-17.0-0.10,91844,List1A,black,woman,,,,null,,,,
null,"<img src=""stim_listA/fight6.gif""</stim_listA>",,html-keyboard-response,355,1408966,0.0-17.0-1.10,91844,List1A,black,woman,,,,null,,,,
null,are fighting each other,,html-keyboard-response,356,1410967,0.0-17.0-2.10,91844,List1A,black,woman,,,,null,,,,
3972,,,survey-text,357,1414939,0.0-17.0-3.10,91844,List1A,black,woman,,,,,"{""Q0"":""blah""}","<img src=""stim_listA/fight6.gif""</stim_listA>",are fighting each other,
null,"<div style=""font-size:60px;"">+</div>",,html-keyboard-response,358,1415443,0.0-17.0-0.11,91844,List1A,black,woman,,,,null,,,,
null,"<img src=""stim_listA/talk1.gif""</stim_listA>",,html-keyboard-response,359,1417444,0.0-17.0-1.11,91844,List1A,black,woman,,,,null,,,,
null,is talking to,,html-keyboard-response,360,1419446,0.0-17.0-2.11,91844,List1A,black,woman,,,,null,,,,
3559,,,survey-text,361,1423006,0.0-17.0-3.11,91844,List1A,black,woman,,,,,"{""Q0"":""blah""}","<img src=""stim_listA/talk1.gif""</stim_listA>",is talking to,
null,"<div style=""font-size:60px;"">+</div>",,html-keyboard-response,362,1423508,0.0-17.0-0.12,91844,List1A,black,woman,,,,null,,,,
null,"<img src=""stim_listA/argue1.gif""</stim_listA>",,html-keyboard-response,363,1425510,0.0-17.0-1.12,91844,List1A,black,woman,,,,null,,,,
null,is arguing with,,html-keyboard-response,364,1427512,0.0-17.0-2.12,91844,List1A,black,woman,,,,null,,,,
3531,,,survey-text,365,1431044,0.0-17.0-3.12,91844,List1A,black,woman,,,,,"{""Q0"":""blah""}","<img src=""stim_listA/argue1.gif""</stim_listA>",is arguing with,
null,"<div style=""font-size:60px;"">+</div>",,html-keyboard-response,366,1431547,0.0-17.0-0.13,91844,List1A,black,woman,,,,null,,,,
null,"<img src=""stim_listA/shout3.gif""</stim_listA>",,html-keyboard-response,367,1433553,0.0-17.0-1.13,91844,List1A,black,woman,,,,null,,,,
null,is shouting at,,html-keyboard-response,368,1435556,0.0-17.0-2.13,91844,List1A,black,woman,,,,null,,,,
3722,,,survey-text,369,1439279,0.0-17.0-3.13,91844,List1A,black,woman,,,,,"{""Q0"":""blah""}","<img src=""stim_listA/shout3.gif""</stim_listA>",is shouting at,
null,"<div style=""font-size:60px;"">+</div>",,html-keyboard-response,370,1439782,0.0-17.0-0.14,91844,List1A,black,woman,,,,null,,,,
null,"<img src=""stim_listA/dance2.gif""</stim_listA>",,html-keyboard-response,371,1441785,0.0-17.0-1.14,91844,List1A,black,woman,,,,null,,,,
null,are dancing with each other,,html-keyboard-response,372,1443790,0.0-17.0-2.14,91844,List1A,black,woman,,,,null,,,,
3298,,,survey-text,373,1447090,0.0-17.0-3.14,91844,List1A,black,woman,,,,,"{""Q0"":""blah""}","<img src=""stim_listA/dance2.gif""</stim_listA>",are dancing with each other,
null,"<div style=""font-size:60px;"">+</div>",,html-keyboard-response,374,1447592,0.0-17.0-0.15,91844,List1A,black,woman,,,,null,,,,
null,"<img src=""stim_listA/talk8.gif""</stim_listA>",,html-keyboard-response,375,1449594,0.0-17.0-1.15,91844,List1A,black,woman,,,,null,,,,
null,are talking to each other,,html-keyboard-response,376,1451600,0.0-17.0-2.15,91844,List1A,black,woman,,,,null,,,,
3297,,,survey-text,377,1454898,0.0-17.0-3.15,91844,List1A,black,woman,,,,,"{""Q0"":""blah""}","<img src=""stim_listA/talk8.gif""</stim_listA>",are talking to each other,
null,"<div style=""font-size:60px;"">+</div>",,html-keyboard-response,378,1455399,0.0-17.0-0.16,91844,List1A,black,woman,,,,null,,,,
null,"<img src=""stim_listA/touch3.gif""</stim_listA>",,html-keyboard-response,379,1457402,0.0-17.0-1.16,91844,List1A,black,woman,,,,null,,,,
null,is touching,,html-keyboard-response,380,1459404,0.0-17.0-2.16,91844,List1A,black,woman,,,,null,,,,
3852,,,survey-text,381,1463258,0.0-17.0-3.16,91844,List1A,black,woman,,,,,"{""Q0"":""blah""}","<img src=""stim_listA/touch3.gif""</stim_listA>",is touching,
null,"<div style=""font-size:60px;"">+</div>",,html-keyboard-response,382,1463761,0.0-17.0-0.17,91844,List1A,black,woman,,,,null,,,,
null,"<img src=""stim_listA/touch2.gif""</stim_listA>",,html-keyboard-response,383,1465767,0.0-17.0-1.17,91844,List1A,black,woman,,,,null,,,,
null,are touching each other,,html-keyboard-response,384,1467770,0.0-17.0-2.17,91844,List1A,black,woman,,,,null,,,,
3107,,,survey-text,385,1470878,0.0-17.0-3.17,91844,List1A,black,woman,,,,,"{""Q0"":""ccc""}","<img src=""stim_listA/touch2.gif""</stim_listA>",are touching each other,
null,"<div style=""font-size:60px;"">+</div>",,html-keyboard-response,386,1471380,0.0-17.0-0.18,91844,List1A,black,woman,,,,null,,,,
null,"<img src=""stim_listA/meet8.gif""</stim_listA>",,html-keyboard-response,387,1473387,0.0-17.0-1.18,91844,List1A,black,woman,,,,null,,,,
null,are meeting each other,,html-keyboard-response,388,1475395,0.0-17.0-2.18,91844,List1A,black,woman,,,,null,,,,
4672,,,survey-text,389,1480068,0.0-17.0-3.18,91844,List1A,black,woman,,,,,"{""Q0"":""cccc""}","<img src=""stim_listA/meet8.gif""</stim_listA>",are meeting each other,
null,"<div style=""font-size:60px;"">+</div>",,html-keyboard-response,390,1480571,0.0-17.0-0.19,91844,List1A,black,woman,,,,null,,,,
null,"<img src=""stim_listA/fight7.gif""</stim_listA>",,html-keyboard-response,391,1482574,0.0-17.0-1.19,91844,List1A,black,woman,,,,null,,,,
null,is fighting,,html-keyboard-response,392,1484578,0.0-17.0-2.19,91844,List1A,black,woman,,,,null,,,,
2839,,,survey-text,393,1487418,0.0-17.0-3.19,91844,List1A,black,woman,,,,,"{""Q0"":""cccc""}","<img src=""stim_listA/fight7.gif""</stim_listA>",is fighting,
3064,"<img src='img/portrait_matrix_list1.JPG' style='width:900px;height:500px;''></img><p>If you have memorised all the portraits and names and are ready to start, press Continue.</p><p><strong>Please note: Your memory of these faces will be tested 4 times during this experiment.</strong></p>",0,html-button-response,394,1490484,0.0-18.0-0.0,91844,List1A,black,woman,,,,,,,,
5499,"<img src=""portrait/WW2.jpg""style=""width:400px;height:400px;""></img>",3,html-button-response,395,1496987,0.0-18.0-1.0,91844,List1A,black,woman,,TRUE,3,,,,,
null,CORRECT,,html-keyboard-response,396,1498490,0.0-18.0-2.0-0.0,91844,List1A,black,woman,,,,null,,,,
3362,"<img src=""portrait/BW2.jpg""style=""width:400px;height:400px;""></img>",2,html-button-response,397,1501854,0.0-18.0-4.0,91844,List1A,black,woman,,TRUE,2,,,,,
null,CORRECT,,html-keyboard-response,398,1503357,0.0-18.0-5.0-0.0,91844,List1A,black,woman,,,,null,,,,
2587,"<img src=""portrait/WW1.jpg""style=""width:400px;height:400px;""></img>",1,html-button-response,399,1505946,0.0-18.0-7.0,91844,List1A,black,woman,,TRUE,1,,,,,
null,CORRECT,,html-keyboard-response,400,1507455,0.0-18.0-8.0-0.0,91844,List1A,black,woman,,,,null,,,,
1777,"<img src=""portrait/WM1.jpg""style=""width:400px;height:400px;""></img>",6,html-button-response,401,1509234,0.0-18.0-10.0,91844,List1A,black,woman,,TRUE,6,,,,,
null,CORRECT,,html-keyboard-response,402,1510736,0.0-18.0-11.0-0.0,91844,List1A,black,woman,,,,null,,,,
4628,"<img src=""portrait/BM2.jpg""style=""width:400px;height:400px;""></img>",5,html-button-response,403,1515367,0.0-18.0-13.0,91844,List1A,black,woman,,TRUE,5,,,,,
null,CORRECT,,html-keyboard-response,404,1516869,0.0-18.0-14.0-0.0,91844,List1A,black,woman,,,,null,,,,
1229,"<img src=""portrait/BM1.jpg""style=""width:400px;height:400px;""></img>",4,html-button-response,405,1518099,0.0-18.0-16.0,91844,List1A,black,woman,,TRUE,4,,,,,
null,CORRECT,,html-keyboard-response,406,1519610,0.0-18.0-17.0-0.0,91844,List1A,black,woman,,,,null,,,,
2102,"<img src=""portrait/BW1.jpg""style=""width:400px;height:400px;""></img>",0,html-button-response,407,1521714,0.0-18.0-19.0,91844,List1A,black,woman,,TRUE,0,,,,,
null,CORRECT,,html-keyboard-response,408,1523225,0.0-18.0-20.0-0.0,91844,List1A,black,woman,,,,null,,,,
1256,"<img src=""portrait/WM2.jpg""style=""width:400px;height:400px;""></img>",7,html-button-response,409,1524483,0.0-18.0-22.0,91844,List1A,black,woman,,TRUE,7,,,,,
null,CORRECT,,html-keyboard-response,410,1525986,0.0-18.0-23.0-0.0,91844,List1A,black,woman,,,,null,,,,
2106,<p>You got 8 out of 8 right first time. Press Continue.</p>,0,html-button-response,411,1528093,0.0-18.0-25.0,91844,List1A,black,woman,,,,,,,,
null,"<div style=""font-size:60px;"">+</div>",,html-keyboard-response,412,1529597,0.0-19.0-0.0,91844,List1A,black,woman,,,,null,,,,
null,"<img src=""stim_listA/kiss5.gif""</stim_listA>",,html-keyboard-response,413,1531601,0.0-19.0-1.0,91844,List1A,black,woman,,,,null,,,,
null,is kissing,,html-keyboard-response,414,1533602,0.0-19.0-2.0,91844,List1A,black,woman,,,,null,,,,
12277,,,survey-text,415,1545881,0.0-19.0-3.0,91844,List1A,black,woman,,,,,"{""Q0"":""fred is kissing luke""}","<img src=""stim_listA/kiss5.gif""</stim_listA>",is kissing,
null,"<div style=""font-size:60px;"">+</div>",,html-keyboard-response,416,1546383,0.0-19.0-0.1,91844,List1A,black,woman,,,,null,,,,
null,"<img src=""stim_listA/kiss2.gif""</stim_listA>",,html-keyboard-response,417,1548387,0.0-19.0-1.1,91844,List1A,black,woman,,,,null,,,,
null,are kissing each other,,html-keyboard-response,418,1550391,0.0-19.0-2.1,91844,List1A,black,woman,,,,null,,,,
10150,,,survey-text,419,1560542,0.0-19.0-3.1,91844,List1A,black,woman,,,,,"{""Q0"":""mike and kate are kissing""}","<img src=""stim_listA/kiss2.gif""</stim_listA>",are kissing each other,
null,"<div style=""font-size:60px;"">+</div>",,html-keyboard-response,420,1561046,0.0-19.0-0.2,91844,List1A,black,woman,,,,null,,,,
null,"<img src=""stim_listA/marry3.gif""</stim_listA>",,html-keyboard-response,421,1563048,0.0-19.0-1.2,91844,List1A,black,woman,,,,null,,,,
null,is marrying,,html-keyboard-response,422,1565050,0.0-19.0-2.2,91844,List1A,black,woman,,,,null,,,,
7348,,,survey-text,423,1572399,0.0-19.0-3.2,91844,List1A,black,woman,,,,,"{""Q0"":""dave is marrying ruth""}","<img src=""stim_listA/marry3.gif""</stim_listA>",is marrying,
null,"<div style=""font-size:60px;"">+</div>",,html-keyboard-response,424,1572902,0.0-19.0-0.3,91844,List1A,black,woman,,,,null,,,,
null,"<img src=""stim_listA/touch8.gif""</stim_listA>",,html-keyboard-response,425,1574908,0.0-19.0-1.3,91844,List1A,black,woman,,,,null,,,,
null,are touching each other,,html-keyboard-response,426,1576913,0.0-19.0-2.3,91844,List1A,black,woman,,,,null,,,,
12194,,,survey-text,427,1589108,0.0-19.0-3.3,91844,List1A,black,woman,,,,,"{""Q0"":""ruth and beth are touching each other""}","<img src=""stim_listA/touch8.gif""</stim_listA>",are touching each other,
null,"<div style=""font-size:60px;"">+</div>",,html-keyboard-response,428,1589610,0.0-19.0-0.4,91844,List1A,black,woman,,,,null,,,,
null,"<img src=""stim_listA/hug3.gif""</stim_listA>",,html-keyboard-response,429,1591613,0.0-19.0-1.4,91844,List1A,black,woman,,,,null,,,,
null,is hugging,,html-keyboard-response,430,1593615,0.0-19.0-2.4,91844,List1A,black,woman,,,,null,,,,
11690,,,survey-text,431,1605306,0.0-19.0-3.4,91844,List1A,black,woman,,,,,"{""Q0"":""ruth and luke are hugging""}","<img src=""stim_listA/hug3.gif""</stim_listA>",is hugging,
null,"<div style=""font-size:60px;"">+</div>",,html-keyboard-response,432,1605808,0.0-19.0-0.5,91844,List1A,black,woman,,,,null,,,,
null,"<img src=""stim_listA/shout8.gif""</stim_listA>",,html-keyboard-response,433,1607811,0.0-19.0-1.5,91844,List1A,black,woman,,,,null,,,,
null,are shouting at each other,,html-keyboard-response,434,1609813,0.0-19.0-2.5,91844,List1A,black,woman,,,,null,,,,
13262,,,survey-text,435,1623076,0.0-19.0-3.5,91844,List1A,black,woman,,,,,"{""Q0"":""jane and kate are shouting at each other""}","<img src=""stim_listA/shout8.gif""</stim_listA>",are shouting at each other,
null,"<div style=""font-size:60px;"">+</div>",,html-keyboard-response,436,1623582,0.0-19.0-0.6,91844,List1A,black,woman,,,,null,,,,
null,"<img src=""stim_listA/dance5.gif""</stim_listA>",,html-keyboard-response,437,1625587,0.0-19.0-1.6,91844,List1A,black,woman,,,,null,,,,
null,is dancing with,,html-keyboard-response,438,1627588,0.0-19.0-2.6,91844,List1A,black,woman,,,,null,,,,
9558,,,survey-text,439,1637148,0.0-19.0-3.6,91844,List1A,black,woman,,,,,"{""Q0"":""fred is dancing with dave""}","<img src=""stim_listA/dance5.gif""</stim_listA>",is dancing with,
null,"<div style=""font-size:60px;"">+</div>",,html-keyboard-response,440,1637650,0.0-19.0-0.7,91844,List1A,black,woman,,,,null,,,,
null,"<img src=""stim_listA/argue2.gif""</stim_listA>",,html-keyboard-response,441,1639656,0.0-19.0-1.7,91844,List1A,black,woman,,,,null,,,,
null,are arguing with each other,,html-keyboard-response,442,1641658,0.0-19.0-2.7,91844,List1A,black,woman,,,,null,,,,
14254,,,survey-text,443,1655914,0.0-19.0-3.7,91844,List1A,black,woman,,,,,"{""Q0"":""kate and fred are arguing with each other""}","<img src=""stim_listA/argue2.gif""</stim_listA>",are arguing with each other,
null,"<div style=""font-size:60px;"">+</div>",,html-keyboard-response,444,1656418,0.0-19.0-0.8,91844,List1A,black,woman,,,,null,,,,
null,"<img src=""stim_listA/touch6.gif""</stim_listA>",,html-keyboard-response,445,1658423,0.0-19.0-1.8,91844,List1A,black,woman,,,,null,,,,
null,are touching each other,,html-keyboard-response,446,1660424,0.0-19.0-2.8,91844,List1A,black,woman,,,,null,,,,
10655,,,survey-text,447,1671079,0.0-19.0-3.8,91844,List1A,black,woman,,,,,"{""Q0"":""fred and luke are touching each other""}","<img src=""stim_listA/touch6.gif""</stim_listA>",are touching each other,
null,"<div style=""font-size:60px;"">+</div>",,html-keyboard-response,448,1671584,0.0-19.0-0.9,91844,List1A,black,woman,,,,null,,,,
null,"<img src=""stim_listA/fight4.gif""</stim_listA>",,html-keyboard-response,449,1673589,0.0-19.0-1.9,91844,List1A,black,woman,,,,null,,,,
null,are fighting each other,,html-keyboard-response,450,1675591,0.0-19.0-2.9,91844,List1A,black,woman,,,,null,,,,
11490,,,survey-text,451,1687083,0.0-19.0-3.9,91844,List1A,black,woman,,,,,"{""Q0"":""ruth and luke are fighting each other""}","<img src=""stim_listA/fight4.gif""</stim_listA>",are fighting each other,
null,"<div style=""font-size:60px;"">+</div>",,html-keyboard-response,452,1687585,0.0-19.0-0.10,91844,List1A,black,woman,,,,null,,,,
null,"<img src=""stim_listA/shout7.gif""</stim_listA>",,html-keyboard-response,453,1689592,0.0-19.0-1.10,91844,List1A,black,woman,,,,null,,,,
null,is shouting at,,html-keyboard-response,454,1691594,0.0-19.0-2.10,91844,List1A,black,woman,,,,null,,,,
7539,,,survey-text,455,1699135,0.0-19.0-3.10,91844,List1A,black,woman,,,,,"{""Q0"":""ruth is shouting at beth""}","<img src=""stim_listA/shout7.gif""</stim_listA>",is shouting at,
null,"<div style=""font-size:60px;"">+</div>",,html-keyboard-response,456,1699638,0.0-19.0-0.11,91844,List1A,black,woman,,,,null,,,,
null,"<img src=""stim_listA/meet2.gif""</stim_listA>",,html-keyboard-response,457,1701645,0.0-19.0-1.11,91844,List1A,black,woman,,,,null,,,,
null,are meeting each other,,html-keyboard-response,458,1703650,0.0-19.0-2.11,91844,List1A,black,woman,,,,null,,,,
13251,,,survey-text,459,1716902,0.0-19.0-3.11,91844,List1A,black,woman,,,,,"{""Q0"":""beth and fred are meeting each other""}","<img src=""stim_listA/meet2.gif""</stim_listA>",are meeting each other,
null,"<div style=""font-size:60px;"">+</div>",,html-keyboard-response,460,1717408,0.0-19.0-0.12,91844,List1A,black,woman,,,,null,,,,
null,"<img src=""stim_listA/talk7.gif""</stim_listA>",,html-keyboard-response,461,1719413,0.0-19.0-1.12,91844,List1A,black,woman,,,,null,,,,
null,is talking to,,html-keyboard-response,462,1721414,0.0-19.0-2.12,91844,List1A,black,woman,,,,null,,,,
8698,,,survey-text,463,1730113,0.0-19.0-3.12,91844,List1A,black,woman,,,,,"{""Q0"":""beth is talking to jane""}","<img src=""stim_listA/talk7.gif""</stim_listA>",is talking to,
null,"<div style=""font-size:60px;"">+</div>",,html-keyboard-response,464,1730615,0.0-19.0-0.13,91844,List1A,black,woman,,,,null,,,,
null,"<img src=""stim_listA/argue6.gif""</stim_listA>",,html-keyboard-response,465,1732616,0.0-19.0-1.13,91844,List1A,black,woman,,,,null,,,,
null,are arguing with each other,,html-keyboard-response,466,1734621,0.0-19.0-2.13,91844,List1A,black,woman,,,,null,,,,
14450,,,survey-text,467,1749074,0.0-19.0-3.13,91844,List1A,black,woman,,,,,"{""Q0"":""dave and fred are arguing with ecah other""}","<img src=""stim_listA/argue6.gif""</stim_listA>",are arguing with each other,
null,"<div style=""font-size:60px;"">+</div>",,html-keyboard-response,468,1749578,0.0-19.0-0.14,91844,List1A,black,woman,,,,null,,,,
null,"<img src=""stim_listA/kiss6.gif""</stim_listA>",,html-keyboard-response,469,1751584,0.0-19.0-1.14,91844,List1A,black,woman,,,,null,,,,
null,are kissing each other,,html-keyboard-response,470,1753588,0.0-19.0-2.14,91844,List1A,black,woman,,,,null,,,,
10016,,,survey-text,471,1763605,0.0-19.0-3.14,91844,List1A,black,woman,,,,,"{""Q0"":""mike and dave are kissing each other""}","<img src=""stim_listA/kiss6.gif""</stim_listA>",are kissing each other,
null,"<div style=""font-size:60px;"">+</div>",,html-keyboard-response,472,1764109,0.0-19.0-0.15,91844,List1A,black,woman,,,,null,,,,
null,"<img src=""stim_listA/fight8.gif""</stim_listA>",,html-keyboard-response,473,1766115,0.0-19.0-1.15,91844,List1A,black,woman,,,,null,,,,
null,are fighting each other,,html-keyboard-response,474,1768118,0.0-19.0-2.15,91844,List1A,black,woman,,,,null,,,,
13476,,,survey-text,475,1781597,0.0-19.0-3.15,91844,List1A,black,woman,,,,,"{""Q0"":""ruth and beth are fighting each other""}","<img src=""stim_listA/fight8.gif""</stim_listA>",are fighting each other,
null,"<div style=""font-size:60px;"">+</div>",,html-keyboard-response,476,1782098,0.0-19.0-0.16,91844,List1A,black,woman,,,,null,,,,
null,"<img src=""stim_listA/hug8.gif""</stim_listA>",,html-keyboard-response,477,1784103,0.0-19.0-1.16,91844,List1A,black,woman,,,,null,,,,
null,are hugging each other,,html-keyboard-response,478,1786105,0.0-19.0-2.16,91844,List1A,black,woman,,,,null,,,,
10688,,,survey-text,479,1796794,0.0-19.0-3.16,91844,List1A,black,woman,,,,,"{""Q0"":""jane and kate are hugging each other""}","<img src=""stim_listA/hug8.gif""</stim_listA>",are hugging each other,
null,"<div style=""font-size:60px;"">+</div>",,html-keyboard-response,480,1797298,0.0-19.0-0.17,91844,List1A,black,woman,,,,null,,,,
null,"<img src=""stim_listA/talk5.gif""</stim_listA>",,html-keyboard-response,481,1799302,0.0-19.0-1.17,91844,List1A,black,woman,,,,null,,,,
null,is talking to,,html-keyboard-response,482,1801304,0.0-19.0-2.17,91844,List1A,black,woman,,,,null,,,,
9372,,,survey-text,483,1810677,0.0-19.0-3.17,91844,List1A,black,woman,,,,,"{""Q0"":""fred is talking to dave""}","<img src=""stim_listA/talk5.gif""</stim_listA>",is talking to,
null,"<div style=""font-size:60px;"">+</div>",,html-keyboard-response,484,1811179,0.0-19.0-0.18,91844,List1A,black,woman,,,,null,,,,
null,"<img src=""stim_listA/meet3.gif""</stim_listA>",,html-keyboard-response,485,1813185,0.0-19.0-1.18,91844,List1A,black,woman,,,,null,,,,
null,is meeting,,html-keyboard-response,486,1815190,0.0-19.0-2.18,91844,List1A,black,woman,,,,null,,,,
7520,,,survey-text,487,1822711,0.0-19.0-3.18,91844,List1A,black,woman,,,,,"{""Q0"":""dave is meeting jane""}","<img src=""stim_listA/meet3.gif""</stim_listA>",is meeting,
null,"<div style=""font-size:60px;"">+</div>",,html-keyboard-response,488,1823214,0.0-19.0-0.19,91844,List1A,black,woman,,,,null,,,,
null,"<img src=""stim_listA/dance4.gif""</stim_listA>",,html-keyboard-response,489,1825217,0.0-19.0-1.19,91844,List1A,black,woman,,,,null,,,,
null,are dancing with each other,,html-keyboard-response,490,1827218,0.0-19.0-2.19,91844,List1A,black,woman,,,,null,,,,
11461,,,survey-text,491,1838681,0.0-19.0-3.19,91844,List1A,black,woman,,,,,"{""Q0"":""ruth and dave are dancing with each other""}","<img src=""stim_listA/dance4.gif""</stim_listA>",are dancing with each other,
2906,<p>Thank you for completing that task.</p><p>The final part of this session is a short questionnaire.</p><p>Press Continue.</p>,0,html-button-response,492,1841589,0.0-20.0,91844,List1A,black,woman,,,,,,,,
20759,,,survey-text,493,1863353,0.0-21.0,91844,List1A,black,woman,,,,,"{""Q0"":""27"",""Q1"":""english"",""Q2"":""english"",""Q3"":""us"",""Q4"":""black"",""Q5"":""female""}",,,demographics
34399,,,survey-likert,494,1897763,0.0-22.0,91844,List1A,black,woman,,,,,"{""Q0"":5,""Q1"":5,""Q2"":5,""Q3"":5,""Q4"":5,""Q5"":5,""Q6"":5,""Q7"":5,""Q8"":5,""Q9"":5,""Q10"":5,""Q11"":5,""Q12"":5,""Q13"":5}",,,likert_race
26128,,,survey-likert,495,1923899,0.0-23.0,91844,List1A,black,woman,,,,,"{""Q0"":5,""Q1"":5,""Q2"":5,""Q3"":5,""Q4"":5,""Q5"":5,""Q6"":5,""Q7"":5,""Q8"":5,""Q9"":5,""Q10"":5,""Q11"":"""",""Q12"":5,""Q13"":5}",,,likert_gender
10069,,,survey-text,496,1933970,0.0-24.0,91844,List1A,black,woman,,,,,"{""Q0"":""ccc""}",,,worker_id
2552,,,external-html,497,1936775,0.0-25.0,91844,List1A,black,woman,debrief.html,,,,,,,
