rt,stimulus,button_pressed,trial_type,trial_index,time_elapsed,internal_node_id,subject,list,ppt_race,ppt_gender,url,first_guess,correct,key_press,responses,image_type,phrase_type,test_part
1950,Welcome to the experiment. Press Continue to begin.,0,html-button-response,0,1980,0.0-0.0,92479,List2B,black,man,,,,,,,,
77024,,,external-html,1,80048,0.0-1.0,92479,List2B,black,man,consent.html,,,,,,,
7783,"<p>On the next page, you will see portraits of 8 people and their names.</p><p>Your first task is to take a few minutes to memorise the names of these people.</p><p>You will have to recall their names during the rest of the experiment, so it is</p><p>essential that you try to memorise these people and their names as best as you can.</p><br><p><strong>You will then be tested on your memory of these names and portraits.</strong></p><br><p>The experiment will start after you have completed this memory test.</p><br><p>Ready?</p>",0,html-button-response,2,87832,0.0-2.0,92479,List2B,black,man,,,,,,,,
110456,"<img src='img/portrait_matrix_list2.JPG' style='width:900px;height:500px;''></img><p>If you have memorised all the portraits and names and are ready to start, press Continue.</p><p><strong>Please note: Your memory of these faces will be tested 4 times during this experiment.</strong></p>",0,html-button-response,3,199292,0.0-3.0-0.0,92479,List2B,black,man,,,,,,,,
3029,"<img src=""portrait/BW2.jpg""style=""width:400px;height:400px;""></img>",2,html-button-response,4,203323,0.0-3.0-1.0,92479,List2B,black,man,,TRUE,2,,,,,
null,CORRECT,,html-keyboard-response,5,204828,0.0-3.0-2.0-0.0,92479,List2B,black,man,,,,null,,,,
2021,"<img src=""portrait/BM1.jpg""style=""width:400px;height:400px;""></img>",4,html-button-response,6,206850,0.0-3.0-4.0,92479,List2B,black,man,,TRUE,4,,,,,
null,CORRECT,,html-keyboard-response,7,208354,0.0-3.0-5.0-0.0,92479,List2B,black,man,,,,null,,,,
1851,"<img src=""portrait/WM2.jpg""style=""width:400px;height:400px;""></img>",7,html-button-response,8,210206,0.0-3.0-7.0,92479,List2B,black,man,,TRUE,7,,,,,
null,CORRECT,,html-keyboard-response,9,211710,0.0-3.0-8.0-0.0,92479,List2B,black,man,,,,null,,,,
2437,"<img src=""portrait/WM1.jpg""style=""width:400px;height:400px;""></img>",6,html-button-response,10,214147,0.0-3.0-10.0,92479,List2B,black,man,,TRUE,6,,,,,
null,CORRECT,,html-keyboard-response,11,215649,0.0-3.0-11.0-0.0,92479,List2B,black,man,,,,null,,,,
2246,"<img src=""portrait/BW1.jpg""style=""width:400px;height:400px;""></img>",0,html-button-response,12,217896,0.0-3.0-13.0,92479,List2B,black,man,,TRUE,0,,,,,
null,CORRECT,,html-keyboard-response,13,219399,0.0-3.0-14.0-0.0,92479,List2B,black,man,,,,null,,,,
2114,"<img src=""portrait/BM2.jpg""style=""width:400px;height:400px;""></img>",5,html-button-response,14,221514,0.0-3.0-16.0,92479,List2B,black,man,,TRUE,5,,,,,
null,CORRECT,,html-keyboard-response,15,223017,0.0-3.0-17.0-0.0,92479,List2B,black,man,,,,null,,,,
2377,"<img src=""portrait/WW1.jpg""style=""width:400px;height:400px;""></img>",1,html-button-response,16,225394,0.0-3.0-19.0,92479,List2B,black,man,,TRUE,1,,,,,
null,CORRECT,,html-keyboard-response,17,226896,0.0-3.0-20.0-0.0,92479,List2B,black,man,,,,null,,,,
1933,"<img src=""portrait/WW2.jpg""style=""width:400px;height:400px;""></img>",3,html-button-response,18,228830,0.0-3.0-22.0,92479,List2B,black,man,,TRUE,3,,,,,
null,CORRECT,,html-keyboard-response,19,230334,0.0-3.0-23.0-0.0,92479,List2B,black,man,,,,null,,,,
2103,<p>You got 8 out of 8 right first time. Press Continue.</p>,0,html-button-response,20,232438,0.0-3.0-25.0,92479,List2B,black,man,,,,,,,,
37939,"<p>In this experiment, you will view photographs of the people from the memory game interacting.</p><p>By using the <strong>exact</strong> phrase given <i>after</i> the photograph appears and recalling the correct names of the people in the photographs, form a sentence describing the interaction. You do not need to capitalise names.</p><p>Type your answer in the space provided. Please complete every sentence before moving onto the next trial.</p><p>You will only have a few seconds to memorise each given photograph and phrase before you can respond, so try your best to focus.</p><p>An example is given below. Press 'Continue' when you are ready.</p><img src='img/speaking_example_v2.jpg' style='width:800px;height:460px;''></img>",0,html-button-response,21,271381,0.0-4.0,92479,List2B,black,man,,,,,,,,
2040,"<p>Before the experiment starts, you will watch two example trials. Press 'Continue'.</p>",0,html-button-response,22,274424,0.0-5.0,92479,List2B,black,man,,,,,,,,
null,<img src='img/speaking_WW.gif'></img>,,html-keyboard-response,23,277428,0.0-6.0,92479,List2B,black,man,,,,null,,,,
null,<p>is speaking to</p>,,html-keyboard-response,24,279429,0.0-7.0,92479,List2B,black,man,,,,null,,,,
4576,<p><b>Answer:</b> jane is speaking to ruth</p>,0,html-button-response,25,284006,0.0-8.0,92479,List2B,black,man,,,,,,,,
null,<img src='img/pointing_BM.gif'></img>,,html-keyboard-response,26,287010,0.0-9.0,92479,List2B,black,man,,,,null,,,,
null,<p>are pointing at each other</p>,,html-keyboard-response,27,289011,0.0-10.0,92479,List2B,black,man,,,,null,,,,
2129,<p><b>Answer:</b> fred and mike are pointing at each other</p>,0,html-button-response,28,291141,0.0-11.0,92479,List2B,black,man,,,,,,,,
6907,"<p>Ready to start the experiment?</p><br><p><strong>Remember to describe the picture using a full sentence,</strong></p><p><strong>that combines the names of the people with the given phrase.</strong></p><p><strong>If you do not do this correctly you will not be paid.</strong></p><p><strong> You do not need to capitalise names or use punctuation.</strong></p><br><p>Press 'Continue' to begin.</p>",0,html-button-response,29,299050,0.0-12.0,92479,List2B,black,man,,,,,,,,
null,"<div style=""font-size:60px;"">+</div>",,html-keyboard-response,30,300553,0.0-13.0-0.0,92479,List2B,black,man,,,,null,,,,
null,"<img src=""stim_listB/argue4.gif""</stim_listB>",,html-keyboard-response,31,302557,0.0-13.0-1.0,92479,List2B,black,man,,,,null,,,,
null,are arguing with each other,,html-keyboard-response,32,304558,0.0-13.0-2.0,92479,List2B,black,man,,,,null,,,,
10064,,,survey-text,33,314623,0.0-13.0-3.0,92479,List2B,black,man,,,,,"{""Q0"":""kate and fred are arguing with each other""}","<img src=""stim_listB/argue4.gif""</stim_listB>",are arguing with each other,
null,"<div style=""font-size:60px;"">+</div>",,html-keyboard-response,34,315126,0.0-13.0-0.1,92479,List2B,black,man,,,,null,,,,
null,"<img src=""stim_listB/talk5.gif""</stim_listB>",,html-keyboard-response,35,317127,0.0-13.0-1.1,92479,List2B,black,man,,,,null,,,,
null,is talking to,,html-keyboard-response,36,319128,0.0-13.0-2.1,92479,List2B,black,man,,,,null,,,,
5842,,,survey-text,37,324972,0.0-13.0-3.1,92479,List2B,black,man,,,,,"{""Q0"":""mike is talking to luke""}","<img src=""stim_listB/talk5.gif""</stim_listB>",is talking to,
null,"<div style=""font-size:60px;"">+</div>",,html-keyboard-response,38,325474,0.0-13.0-0.2,92479,List2B,black,man,,,,null,,,,
null,"<img src=""stim_listB/marry1.gif""</stim_listB>",,html-keyboard-response,39,327475,0.0-13.0-1.2,92479,List2B,black,man,,,,null,,,,
null,is marrying,,html-keyboard-response,40,329477,0.0-13.0-2.2,92479,List2B,black,man,,,,null,,,,
6860,,,survey-text,41,336339,0.0-13.0-3.2,92479,List2B,black,man,,,,,"{""Q0"":""ruth is marrying dave""}","<img src=""stim_listB/marry1.gif""</stim_listB>",is marrying,
null,"<div style=""font-size:60px;"">+</div>",,html-keyboard-response,42,336839,0.0-13.0-0.3,92479,List2B,black,man,,,,null,,,,
null,"<img src=""stim_listB/dance8.gif""</stim_listB>",,html-keyboard-response,43,338842,0.0-13.0-1.3,92479,List2B,black,man,,,,null,,,,
null,are dancing with each other,,html-keyboard-response,44,340843,0.0-13.0-2.3,92479,List2B,black,man,,,,null,,,,
16129,,,survey-text,45,356973,0.0-13.0-3.3,92479,List2B,black,man,,,,,"{""Q0"":""beth and jane are dancing with each other""}","<img src=""stim_listB/dance8.gif""</stim_listB>",are dancing with each other,
null,"<div style=""font-size:60px;"">+</div>",,html-keyboard-response,46,357474,0.0-13.0-0.4,92479,List2B,black,man,,,,null,,,,
null,"<img src=""stim_listB/touch1.gif""</stim_listB>",,html-keyboard-response,47,359477,0.0-13.0-1.4,92479,List2B,black,man,,,,null,,,,
null,is touching,,html-keyboard-response,48,361479,0.0-13.0-2.4,92479,List2B,black,man,,,,null,,,,
7726,,,survey-text,49,369205,0.0-13.0-3.4,92479,List2B,black,man,,,,,"{""Q0"":""jane is touching dave""}","<img src=""stim_listB/touch1.gif""</stim_listB>",is touching,
null,"<div style=""font-size:60px;"">+</div>",,html-keyboard-response,50,369707,0.0-13.0-0.5,92479,List2B,black,man,,,,null,,,,
null,"<img src=""stim_listB/talk8.gif""</stim_listB>",,html-keyboard-response,51,371708,0.0-13.0-1.5,92479,List2B,black,man,,,,null,,,,
null,are talking to each other,,html-keyboard-response,52,373710,0.0-13.0-2.5,92479,List2B,black,man,,,,null,,,,
7676,,,survey-text,53,381387,0.0-13.0-3.5,92479,List2B,black,man,,,,,"{""Q0"":""beth and jane are talking to each other""}","<img src=""stim_listB/talk8.gif""</stim_listB>",are talking to each other,
null,"<div style=""font-size:60px;"">+</div>",,html-keyboard-response,54,381888,0.0-13.0-0.6,92479,List2B,black,man,,,,null,,,,
null,"<img src=""stim_listB/hug2.gif""</stim_listB>",,html-keyboard-response,55,383891,0.0-13.0-1.6,92479,List2B,black,man,,,,null,,,,
null,are hugging each other,,html-keyboard-response,56,385892,0.0-13.0-2.6,92479,List2B,black,man,,,,null,,,,
8289,,,survey-text,57,394182,0.0-13.0-3.6,92479,List2B,black,man,,,,,"{""Q0"":""jane and dave are hugging each other""}","<img src=""stim_listB/hug2.gif""</stim_listB>",are hugging each other,
null,"<div style=""font-size:60px;"">+</div>",,html-keyboard-response,58,394684,0.0-13.0-0.7,92479,List2B,black,man,,,,null,,,,
null,"<img src=""stim_listB/shout4.gif""</stim_listB>",,html-keyboard-response,59,396686,0.0-13.0-1.7,92479,List2B,black,man,,,,null,,,,
null,are shouting at each other,,html-keyboard-response,60,398687,0.0-13.0-2.7,92479,List2B,black,man,,,,null,,,,
8154,,,survey-text,61,406842,0.0-13.0-3.7,92479,List2B,black,man,,,,,"{""Q0"":""mike and kate are shouting at each other""}","<img src=""stim_listB/shout4.gif""</stim_listB>",are shouting at each other,
null,"<div style=""font-size:60px;"">+</div>",,html-keyboard-response,62,407344,0.0-13.0-0.8,92479,List2B,black,man,,,,null,,,,
null,"<img src=""stim_listB/talk1.gif""</stim_listB>",,html-keyboard-response,63,409347,0.0-13.0-1.8,92479,List2B,black,man,,,,null,,,,
null,is talking to,,html-keyboard-response,64,411349,0.0-13.0-2.8,92479,List2B,black,man,,,,null,,,,
5639,,,survey-text,65,416988,0.0-13.0-3.8,92479,List2B,black,man,,,,,"{""Q0"":""jane is talking to luke""}","<img src=""stim_listB/talk1.gif""</stim_listB>",is talking to,
null,"<div style=""font-size:60px;"">+</div>",,html-keyboard-response,66,417493,0.0-13.0-0.9,92479,List2B,black,man,,,,null,,,,
null,"<img src=""stim_listB/hug6.gif""</stim_listB>",,html-keyboard-response,67,419495,0.0-13.0-1.9,92479,List2B,black,man,,,,null,,,,
null,are hugging each other,,html-keyboard-response,68,421496,0.0-13.0-2.9,92479,List2B,black,man,,,,null,,,,
6543,,,survey-text,69,428041,0.0-13.0-3.9,92479,List2B,black,man,,,,,"{""Q0"":""mike and dave are hugging each other""}","<img src=""stim_listB/hug6.gif""</stim_listB>",are hugging each other,
null,"<div style=""font-size:60px;"">+</div>",,html-keyboard-response,70,428542,0.0-13.0-0.10,92479,List2B,black,man,,,,null,,,,
null,"<img src=""stim_listB/kiss6.gif""</stim_listB>",,html-keyboard-response,71,430544,0.0-13.0-1.10,92479,List2B,black,man,,,,null,,,,
null,are kissing each other,,html-keyboard-response,72,432545,0.0-13.0-2.10,92479,List2B,black,man,,,,null,,,,
6215,,,survey-text,73,438760,0.0-13.0-3.10,92479,List2B,black,man,,,,,"{""Q0"":""mike and dave are kissing each other""}","<img src=""stim_listB/kiss6.gif""</stim_listB>",are kissing each other,
null,"<div style=""font-size:60px;"">+</div>",,html-keyboard-response,74,439262,0.0-13.0-0.11,92479,List2B,black,man,,,,null,,,,
null,"<img src=""stim_listB/dance1.gif""</stim_listB>",,html-keyboard-response,75,441263,0.0-13.0-1.11,92479,List2B,black,man,,,,null,,,,
null,is dancing with,,html-keyboard-response,76,443266,0.0-13.0-2.11,92479,List2B,black,man,,,,null,,,,
5438,,,survey-text,77,448705,0.0-13.0-3.11,92479,List2B,black,man,,,,,"{""Q0"":""jane is dancing with luke""}","<img src=""stim_listB/dance1.gif""</stim_listB>",is dancing with,
null,"<div style=""font-size:60px;"">+</div>",,html-keyboard-response,78,449207,0.0-13.0-0.12,92479,List2B,black,man,,,,null,,,,
null,"<img src=""stim_listB/argue6.gif""</stim_listB>",,html-keyboard-response,79,451208,0.0-13.0-1.12,92479,List2B,black,man,,,,null,,,,
null,are arguing with each other,,html-keyboard-response,80,453210,0.0-13.0-2.12,92479,List2B,black,man,,,,null,,,,
7731,,,survey-text,81,460941,0.0-13.0-3.12,92479,List2B,black,man,,,,,"{""Q0"":""mike and luke are arguing with each other""}","<img src=""stim_listB/argue6.gif""</stim_listB>",are arguing with each other,
null,"<div style=""font-size:60px;"">+</div>",,html-keyboard-response,82,461442,0.0-13.0-0.13,92479,List2B,black,man,,,,null,,,,
null,"<img src=""stim_listB/fight3.gif""</stim_listB>",,html-keyboard-response,83,463444,0.0-13.0-1.13,92479,List2B,black,man,,,,null,,,,
null,is fighting,,html-keyboard-response,84,465445,0.0-13.0-2.13,92479,List2B,black,man,,,,null,,,,
6355,,,survey-text,85,471802,0.0-13.0-3.13,92479,List2B,black,man,,,,,"{""Q0"":""mike is fighting kate""}","<img src=""stim_listB/fight3.gif""</stim_listB>",is fighting,
null,"<div style=""font-size:60px;"">+</div>",,html-keyboard-response,86,472303,0.0-13.0-0.14,92479,List2B,black,man,,,,null,,,,
null,"<img src=""stim_listB/fight8.gif""</stim_listB>",,html-keyboard-response,87,474305,0.0-13.0-1.14,92479,List2B,black,man,,,,null,,,,
null,are fighting each other,,html-keyboard-response,88,476307,0.0-13.0-2.14,92479,List2B,black,man,,,,null,,,,
10742,,,survey-text,89,487050,0.0-13.0-3.14,92479,List2B,black,man,,,,,"{""Q0"":""beth and ruth are fighting each other""}","<img src=""stim_listB/fight8.gif""</stim_listB>",are fighting each other,
null,"<div style=""font-size:60px;"">+</div>",,html-keyboard-response,90,487551,0.0-13.0-0.15,92479,List2B,black,man,,,,null,,,,
null,"<img src=""stim_listB/shout7.gif""</stim_listB>",,html-keyboard-response,91,489552,0.0-13.0-1.15,92479,List2B,black,man,,,,null,,,,
null,is shouting at,,html-keyboard-response,92,491555,0.0-13.0-2.15,92479,List2B,black,man,,,,null,,,,
7745,,,survey-text,93,499300,0.0-13.0-3.15,92479,List2B,black,man,,,,,"{""Q0"":""ruth is shouting at beth""}","<img src=""stim_listB/shout7.gif""</stim_listB>",is shouting at,
null,"<div style=""font-size:60px;"">+</div>",,html-keyboard-response,94,499803,0.0-13.0-0.16,92479,List2B,black,man,,,,null,,,,
null,"<img src=""stim_listB/hug5.gif""</stim_listB>",,html-keyboard-response,95,501805,0.0-13.0-1.16,92479,List2B,black,man,,,,null,,,,
null,is hugging,,html-keyboard-response,96,503807,0.0-13.0-2.16,92479,List2B,black,man,,,,null,,,,
5093,,,survey-text,97,508902,0.0-13.0-3.16,92479,List2B,black,man,,,,,"{""Q0"":""fred is hugging luke""}","<img src=""stim_listB/hug5.gif""</stim_listB>",is hugging,
null,"<div style=""font-size:60px;"">+</div>",,html-keyboard-response,98,509403,0.0-13.0-0.17,92479,List2B,black,man,,,,null,,,,
null,"<img src=""stim_listB/marry5.gif""</stim_listB>",,html-keyboard-response,99,511405,0.0-13.0-1.17,92479,List2B,black,man,,,,null,,,,
null,is marrying,,html-keyboard-response,100,513406,0.0-13.0-2.17,92479,List2B,black,man,,,,null,,,,
4763,,,survey-text,101,518171,0.0-13.0-3.17,92479,List2B,black,man,,,,,"{""Q0"":""fred is marrying dave""}","<img src=""stim_listB/marry5.gif""</stim_listB>",is marrying,
null,"<div style=""font-size:60px;"">+</div>",,html-keyboard-response,102,518672,0.0-13.0-0.18,92479,List2B,black,man,,,,null,,,,
null,"<img src=""stim_listB/fight5.gif""</stim_listB>",,html-keyboard-response,103,520674,0.0-13.0-1.18,92479,List2B,black,man,,,,null,,,,
null,is fighting,,html-keyboard-response,104,522675,0.0-13.0-2.18,92479,List2B,black,man,,,,null,,,,
5539,,,survey-text,105,528215,0.0-13.0-3.18,92479,List2B,black,man,,,,,"{""Q0"":""dave is fighting mike""}","<img src=""stim_listB/fight5.gif""</stim_listB>",is fighting,
null,"<div style=""font-size:60px;"">+</div>",,html-keyboard-response,106,528716,0.0-13.0-0.19,92479,List2B,black,man,,,,null,,,,
null,"<img src=""stim_listB/touch6.gif""</stim_listB>",,html-keyboard-response,107,530718,0.0-13.0-1.19,92479,List2B,black,man,,,,null,,,,
null,are touching each other,,html-keyboard-response,108,532719,0.0-13.0-2.19,92479,List2B,black,man,,,,null,,,,
8435,,,survey-text,109,541156,0.0-13.0-3.19,92479,List2B,black,man,,,,,"{""Q0"":""fred and luke are touching each other""}","<img src=""stim_listB/touch6.gif""</stim_listB>",are touching each other,
5711,"<img src='img/portrait_matrix_list2.JPG' style='width:900px;height:500px;''></img><p>If you have memorised all the portraits and names and are ready to start, press Continue.</p><p><strong>Please note: Your memory of these faces will be tested 4 times during this experiment.</strong></p>",0,html-button-response,110,546868,0.0-14.0-0.0,92479,List2B,black,man,,,,,,,,
3128,"<img src=""portrait/BW1.jpg""style=""width:400px;height:400px;""></img>",0,html-button-response,111,550999,0.0-14.0-1.0,92479,List2B,black,man,,TRUE,0,,,,,
null,CORRECT,,html-keyboard-response,112,552501,0.0-14.0-2.0-0.0,92479,List2B,black,man,,,,null,,,,
1881,"<img src=""portrait/BW2.jpg""style=""width:400px;height:400px;""></img>",2,html-button-response,113,554384,0.0-14.0-4.0,92479,List2B,black,man,,TRUE,2,,,,,
null,CORRECT,,html-keyboard-response,114,555886,0.0-14.0-5.0-0.0,92479,List2B,black,man,,,,null,,,,
1943,"<img src=""portrait/BM2.jpg""style=""width:400px;height:400px;""></img>",5,html-button-response,115,557829,0.0-14.0-7.0,92479,List2B,black,man,,TRUE,5,,,,,
null,CORRECT,,html-keyboard-response,116,559331,0.0-14.0-8.0-0.0,92479,List2B,black,man,,,,null,,,,
1801,"<img src=""portrait/WM1.jpg""style=""width:400px;height:400px;""></img>",6,html-button-response,117,561134,0.0-14.0-10.0,92479,List2B,black,man,,TRUE,6,,,,,
null,CORRECT,,html-keyboard-response,118,562636,0.0-14.0-11.0-0.0,92479,List2B,black,man,,,,null,,,,
1558,"<img src=""portrait/WM2.jpg""style=""width:400px;height:400px;""></img>",7,html-button-response,119,564196,0.0-14.0-13.0,92479,List2B,black,man,,TRUE,7,,,,,
null,CORRECT,,html-keyboard-response,120,565699,0.0-14.0-14.0-0.0,92479,List2B,black,man,,,,null,,,,
1529,"<img src=""portrait/WW1.jpg""style=""width:400px;height:400px;""></img>",1,html-button-response,121,567228,0.0-14.0-16.0,92479,List2B,black,man,,TRUE,1,,,,,
null,CORRECT,,html-keyboard-response,122,568732,0.0-14.0-17.0-0.0,92479,List2B,black,man,,,,null,,,,
1458,"<img src=""portrait/WW2.jpg""style=""width:400px;height:400px;""></img>",3,html-button-response,123,570190,0.0-14.0-19.0,92479,List2B,black,man,,TRUE,3,,,,,
null,CORRECT,,html-keyboard-response,124,571693,0.0-14.0-20.0-0.0,92479,List2B,black,man,,,,null,,,,
1619,"<img src=""portrait/BM1.jpg""style=""width:400px;height:400px;""></img>",4,html-button-response,125,573313,0.0-14.0-22.0,92479,List2B,black,man,,TRUE,4,,,,,
null,CORRECT,,html-keyboard-response,126,574815,0.0-14.0-23.0-0.0,92479,List2B,black,man,,,,null,,,,
1509,<p>You got 8 out of 8 right first time. Press Continue.</p>,0,html-button-response,127,576325,0.0-14.0-25.0,92479,List2B,black,man,,,,,,,,
null,"<div style=""font-size:60px;"">+</div>",,html-keyboard-response,128,577828,0.0-15.0-0.0,92479,List2B,black,man,,,,null,,,,
null,"<img src=""stim_listB/hug3.gif""</stim_listB>",,html-keyboard-response,129,579830,0.0-15.0-1.0,92479,List2B,black,man,,,,null,,,,
null,is hugging,,html-keyboard-response,130,581831,0.0-15.0-2.0,92479,List2B,black,man,,,,null,,,,
4649,,,survey-text,131,586480,0.0-15.0-3.0,92479,List2B,black,man,,,,,"{""Q0"":""beth is hugging fred""}","<img src=""stim_listB/hug3.gif""</stim_listB>",is hugging,
null,"<div style=""font-size:60px;"">+</div>",,html-keyboard-response,132,586982,0.0-15.0-0.1,92479,List2B,black,man,,,,null,,,,
null,"<img src=""stim_listB/touch8.gif""</stim_listB>",,html-keyboard-response,133,588983,0.0-15.0-1.1,92479,List2B,black,man,,,,null,,,,
null,are touching each other,,html-keyboard-response,134,590985,0.0-15.0-2.1,92479,List2B,black,man,,,,null,,,,
6748,,,survey-text,135,597733,0.0-15.0-3.1,92479,List2B,black,man,,,,,"{""Q0"":""beth and ruth are touching each other""}","<img src=""stim_listB/touch8.gif""</stim_listB>",are touching each other,
null,"<div style=""font-size:60px;"">+</div>",,html-keyboard-response,136,598234,0.0-15.0-0.2,92479,List2B,black,man,,,,null,,,,
null,"<img src=""stim_listB/argue8.gif""</stim_listB>",,html-keyboard-response,137,600235,0.0-15.0-1.2,92479,List2B,black,man,,,,null,,,,
null,are arguing with each other,,html-keyboard-response,138,602237,0.0-15.0-2.2,92479,List2B,black,man,,,,null,,,,
6879,,,survey-text,139,609117,0.0-15.0-3.2,92479,List2B,black,man,,,,,"{""Q0"":""ruth and kate are arguing with each other""}","<img src=""stim_listB/argue8.gif""</stim_listB>",are arguing with each other,
null,"<div style=""font-size:60px;"">+</div>",,html-keyboard-response,140,609619,0.0-15.0-0.3,92479,List2B,black,man,,,,null,,,,
null,"<img src=""stim_listB/dance6.gif""</stim_listB>",,html-keyboard-response,141,611621,0.0-15.0-1.3,92479,List2B,black,man,,,,null,,,,
null,are dancing with each other,,html-keyboard-response,142,613624,0.0-15.0-2.3,92479,List2B,black,man,,,,null,,,,
8977,,,survey-text,143,622601,0.0-15.0-3.3,92479,List2B,black,man,,,,,"{""Q0"":""dave and fred are dancing with each other""}","<img src=""stim_listB/dance6.gif""</stim_listB>",are dancing with each other,
null,"<div style=""font-size:60px;"">+</div>",,html-keyboard-response,144,623102,0.0-15.0-0.4,92479,List2B,black,man,,,,null,,,,
null,"<img src=""stim_listB/meet2.gif""</stim_listB>",,html-keyboard-response,145,625104,0.0-15.0-1.4,92479,List2B,black,man,,,,null,,,,
null,are meeting each other,,html-keyboard-response,146,627105,0.0-15.0-2.4,92479,List2B,black,man,,,,null,,,,
6859,,,survey-text,147,633966,0.0-15.0-3.4,92479,List2B,black,man,,,,,"{""Q0"":""ruth and luke are meeting each other""}","<img src=""stim_listB/meet2.gif""</stim_listB>",are meeting each other,
null,"<div style=""font-size:60px;"">+</div>",,html-keyboard-response,148,634467,0.0-15.0-0.5,92479,List2B,black,man,,,,null,,,,
null,"<img src=""stim_listB/touch5.gif""</stim_listB>",,html-keyboard-response,149,636468,0.0-15.0-1.5,92479,List2B,black,man,,,,null,,,,
null,is touching,,html-keyboard-response,150,638470,0.0-15.0-2.5,92479,List2B,black,man,,,,null,,,,
5247,,,survey-text,151,643718,0.0-15.0-3.5,92479,List2B,black,man,,,,,"{""Q0"":""mike is touching dave""}","<img src=""stim_listB/touch5.gif""</stim_listB>",is touching,
null,"<div style=""font-size:60px;"">+</div>",,html-keyboard-response,152,644219,0.0-15.0-0.6,92479,List2B,black,man,,,,null,,,,
null,"<img src=""stim_listB/kiss7.gif""</stim_listB>",,html-keyboard-response,153,646220,0.0-15.0-1.6,92479,List2B,black,man,,,,null,,,,
null,is kissing,,html-keyboard-response,154,648221,0.0-15.0-2.6,92479,List2B,black,man,,,,null,,,,
8431,,,survey-text,155,656653,0.0-15.0-3.6,92479,List2B,black,man,,,,,"{""Q0"":""beth is kissing ruth""}","<img src=""stim_listB/kiss7.gif""</stim_listB>",is kissing,
null,"<div style=""font-size:60px;"">+</div>",,html-keyboard-response,156,657155,0.0-15.0-0.7,92479,List2B,black,man,,,,null,,,,
null,"<img src=""stim_listB/marry2.gif""</stim_listB>",,html-keyboard-response,157,659157,0.0-15.0-1.7,92479,List2B,black,man,,,,null,,,,
null,are marrying each other,,html-keyboard-response,158,661159,0.0-15.0-2.7,92479,List2B,black,man,,,,null,,,,
9946,,,survey-text,159,671106,0.0-15.0-3.7,92479,List2B,black,man,,,,,"{""Q0"":""luke and jane are marrying each other""}","<img src=""stim_listB/marry2.gif""</stim_listB>",are marrying each other,
null,"<div style=""font-size:60px;"">+</div>",,html-keyboard-response,160,671607,0.0-15.0-0.8,92479,List2B,black,man,,,,null,,,,
null,"<img src=""stim_listB/fight6.gif""</stim_listB>",,html-keyboard-response,161,673609,0.0-15.0-1.8,92479,List2B,black,man,,,,null,,,,
null,are fighting each other,,html-keyboard-response,162,675610,0.0-15.0-2.8,92479,List2B,black,man,,,,null,,,,
8113,,,survey-text,163,683724,0.0-15.0-3.8,92479,List2B,black,man,,,,,"{""Q0"":""luke and fred are fighting each other""}","<img src=""stim_listB/fight6.gif""</stim_listB>",are fighting each other,
null,"<div style=""font-size:60px;"">+</div>",,html-keyboard-response,164,684225,0.0-15.0-0.9,92479,List2B,black,man,,,,null,,,,
null,"<img src=""stim_listB/meet3.gif""</stim_listB>",,html-keyboard-response,165,686227,0.0-15.0-1.9,92479,List2B,black,man,,,,null,,,,
null,is meeting,,html-keyboard-response,166,688228,0.0-15.0-2.9,92479,List2B,black,man,,,,null,,,,
5125,,,survey-text,167,693354,0.0-15.0-3.9,92479,List2B,black,man,,,,,"{""Q0"":""kate is meeting mike""}","<img src=""stim_listB/meet3.gif""</stim_listB>",is meeting,
null,"<div style=""font-size:60px;"">+</div>",,html-keyboard-response,168,693856,0.0-15.0-0.10,92479,List2B,black,man,,,,null,,,,
null,"<img src=""stim_listB/shout6.gif""</stim_listB>",,html-keyboard-response,169,695858,0.0-15.0-1.10,92479,List2B,black,man,,,,null,,,,
null,are shouting at each other,,html-keyboard-response,170,697860,0.0-15.0-2.10,92479,List2B,black,man,,,,null,,,,
6705,,,survey-text,171,704566,0.0-15.0-3.10,92479,List2B,black,man,,,,,"{""Q0"":""dave and mike are shouting at each other""}","<img src=""stim_listB/shout6.gif""</stim_listB>",are shouting at each other,
null,"<div style=""font-size:60px;"">+</div>",,html-keyboard-response,172,705068,0.0-15.0-0.11,92479,List2B,black,man,,,,null,,,,
null,"<img src=""stim_listB/hug8.gif""</stim_listB>",,html-keyboard-response,173,707071,0.0-15.0-1.11,92479,List2B,black,man,,,,null,,,,
null,are hugging each other,,html-keyboard-response,174,709072,0.0-15.0-2.11,92479,List2B,black,man,,,,null,,,,
9224,,,survey-text,175,718297,0.0-15.0-3.11,92479,List2B,black,man,,,,,"{""Q0"":""kate and jane are hugging each other""}","<img src=""stim_listB/hug8.gif""</stim_listB>",are hugging each other,
null,"<div style=""font-size:60px;"">+</div>",,html-keyboard-response,176,718799,0.0-15.0-0.12,92479,List2B,black,man,,,,null,,,,
null,"<img src=""stim_listB/touch2.gif""</stim_listB>",,html-keyboard-response,177,720802,0.0-15.0-1.12,92479,List2B,black,man,,,,null,,,,
null,are touching each other,,html-keyboard-response,178,722804,0.0-15.0-2.12,92479,List2B,black,man,,,,null,,,,
12623,,,survey-text,179,735429,0.0-15.0-3.12,92479,List2B,black,man,,,,,"{""Q0"":""luke and ruth are touching each other""}","<img src=""stim_listB/touch2.gif""</stim_listB>",are touching each other,
null,"<div style=""font-size:60px;"">+</div>",,html-keyboard-response,180,735930,0.0-15.0-0.13,92479,List2B,black,man,,,,null,,,,
null,"<img src=""stim_listB/argue1.gif""</stim_listB>",,html-keyboard-response,181,737932,0.0-15.0-1.13,92479,List2B,black,man,,,,null,,,,
null,is arguing with,,html-keyboard-response,182,739933,0.0-15.0-2.13,92479,List2B,black,man,,,,null,,,,
13113,,,survey-text,183,753048,0.0-15.0-3.13,92479,List2B,black,man,,,,,"{""Q0"":""ruth is arguing with dave""}","<img src=""stim_listB/argue1.gif""</stim_listB>",is arguing with,
null,"<div style=""font-size:60px;"">+</div>",,html-keyboard-response,184,753549,0.0-15.0-0.14,92479,List2B,black,man,,,,null,,,,
null,"<img src=""stim_listB/argue5.gif""</stim_listB>",,html-keyboard-response,185,755550,0.0-15.0-1.14,92479,List2B,black,man,,,,null,,,,
null,is arguing with,,html-keyboard-response,186,757552,0.0-15.0-2.14,92479,List2B,black,man,,,,null,,,,
5690,,,survey-text,187,763243,0.0-15.0-3.14,92479,List2B,black,man,,,,,"{""Q0"":""dave is arguing with fred""}","<img src=""stim_listB/argue5.gif""</stim_listB>",is arguing with,
null,"<div style=""font-size:60px;"">+</div>",,html-keyboard-response,188,763744,0.0-15.0-0.15,92479,List2B,black,man,,,,null,,,,
null,"<img src=""stim_listB/fight4.gif""</stim_listB>",,html-keyboard-response,189,765746,0.0-15.0-1.15,92479,List2B,black,man,,,,null,,,,
null,are fighting each other,,html-keyboard-response,190,767747,0.0-15.0-2.15,92479,List2B,black,man,,,,null,,,,
8829,,,survey-text,191,776576,0.0-15.0-3.15,92479,List2B,black,man,,,,,"{""Q0"":""fred and beth are fighting each other""}","<img src=""stim_listB/fight4.gif""</stim_listB>",are fighting each other,
null,"<div style=""font-size:60px;"">+</div>",,html-keyboard-response,192,777079,0.0-15.0-0.16,92479,List2B,black,man,,,,null,,,,
null,"<img src=""stim_listB/fight7.gif""</stim_listB>",,html-keyboard-response,193,779081,0.0-15.0-1.16,92479,List2B,black,man,,,,null,,,,
null,is fighting,,html-keyboard-response,194,781082,0.0-15.0-2.16,92479,List2B,black,man,,,,null,,,,
7658,,,survey-text,195,788742,0.0-15.0-3.16,92479,List2B,black,man,,,,,"{""Q0"":""kate is fighting jane""}","<img src=""stim_listB/fight7.gif""</stim_listB>",is fighting,
null,"<div style=""font-size:60px;"">+</div>",,html-keyboard-response,196,789243,0.0-15.0-0.17,92479,List2B,black,man,,,,null,,,,
null,"<img src=""stim_listB/meet4.gif""</stim_listB>",,html-keyboard-response,197,791245,0.0-15.0-1.17,92479,List2B,black,man,,,,null,,,,
null,are meeting each other,,html-keyboard-response,198,793247,0.0-15.0-2.17,92479,List2B,black,man,,,,null,,,,
8474,,,survey-text,199,801722,0.0-15.0-3.17,92479,List2B,black,man,,,,,"{""Q0"":""beth and fred are meeting each other""}","<img src=""stim_listB/meet4.gif""</stim_listB>",are meeting each other,
null,"<div style=""font-size:60px;"">+</div>",,html-keyboard-response,200,802225,0.0-15.0-0.18,92479,List2B,black,man,,,,null,,,,
null,"<img src=""stim_listB/talk4.gif""</stim_listB>",,html-keyboard-response,201,804226,0.0-15.0-1.18,92479,List2B,black,man,,,,null,,,,
null,are talking to each other,,html-keyboard-response,202,806227,0.0-15.0-2.18,92479,List2B,black,man,,,,null,,,,
8248,,,survey-text,203,814477,0.0-15.0-3.18,92479,List2B,black,man,,,,,"{""Q0"":""mike and beth are talking to each other""}","<img src=""stim_listB/talk4.gif""</stim_listB>",are talking to each other,
null,"<div style=""font-size:60px;"">+</div>",,html-keyboard-response,204,814979,0.0-15.0-0.19,92479,List2B,black,man,,,,null,,,,
null,"<img src=""stim_listB/fight1.gif""</stim_listB>",,html-keyboard-response,205,816980,0.0-15.0-1.19,92479,List2B,black,man,,,,null,,,,
null,is fighting,,html-keyboard-response,206,818983,0.0-15.0-2.19,92479,List2B,black,man,,,,null,,,,
5145,,,survey-text,207,824128,0.0-15.0-3.19,92479,List2B,black,man,,,,,"{""Q0"":""dave is fighting jane""}","<img src=""stim_listB/fight1.gif""</stim_listB>",is fighting,
2014,"<img src='img/portrait_matrix_list2.JPG' style='width:900px;height:500px;''></img><p>If you have memorised all the portraits and names and are ready to start, press Continue.</p><p><strong>Please note: Your memory of these faces will be tested 4 times during this experiment.</strong></p>",0,html-button-response,208,826143,0.0-16.0-0.0,92479,List2B,black,man,,,,,,,,
2211,"<img src=""portrait/WM2.jpg""style=""width:400px;height:400px;""></img>",7,html-button-response,209,829357,0.0-16.0-1.0,92479,List2B,black,man,,TRUE,7,,,,,
null,CORRECT,,html-keyboard-response,210,830860,0.0-16.0-2.0-0.0,92479,List2B,black,man,,,,null,,,,
1397,"<img src=""portrait/BM1.jpg""style=""width:400px;height:400px;""></img>",4,html-button-response,211,832258,0.0-16.0-4.0,92479,List2B,black,man,,TRUE,4,,,,,
null,CORRECT,,html-keyboard-response,212,833761,0.0-16.0-5.0-0.0,92479,List2B,black,man,,,,null,,,,
2142,"<img src=""portrait/WW1.jpg""style=""width:400px;height:400px;""></img>",1,html-button-response,213,835905,0.0-16.0-7.0,92479,List2B,black,man,,TRUE,1,,,,,
null,CORRECT,,html-keyboard-response,214,837407,0.0-16.0-8.0-0.0,92479,List2B,black,man,,,,null,,,,
1740,"<img src=""portrait/BW2.jpg""style=""width:400px;height:400px;""></img>",2,html-button-response,215,839148,0.0-16.0-10.0,92479,List2B,black,man,,TRUE,2,,,,,
null,CORRECT,,html-keyboard-response,216,840652,0.0-16.0-11.0-0.0,92479,List2B,black,man,,,,null,,,,
1972,"<img src=""portrait/WM1.jpg""style=""width:400px;height:400px;""></img>",6,html-button-response,217,842624,0.0-16.0-13.0,92479,List2B,black,man,,TRUE,6,,,,,
null,CORRECT,,html-keyboard-response,218,844127,0.0-16.0-14.0-0.0,92479,List2B,black,man,,,,null,,,,
1851,"<img src=""portrait/WW2.jpg""style=""width:400px;height:400px;""></img>",3,html-button-response,219,845979,0.0-16.0-16.0,92479,List2B,black,man,,TRUE,3,,,,,
null,CORRECT,,html-keyboard-response,220,847482,0.0-16.0-17.0-0.0,92479,List2B,black,man,,,,null,,,,
1568,"<img src=""portrait/BW1.jpg""style=""width:400px;height:400px;""></img>",0,html-button-response,221,849051,0.0-16.0-19.0,92479,List2B,black,man,,TRUE,0,,,,,
null,CORRECT,,html-keyboard-response,222,850554,0.0-16.0-20.0-0.0,92479,List2B,black,man,,,,null,,,,
1517,"<img src=""portrait/BM2.jpg""style=""width:400px;height:400px;""></img>",5,html-button-response,223,852073,0.0-16.0-22.0,92479,List2B,black,man,,TRUE,5,,,,,
null,CORRECT,,html-keyboard-response,224,853577,0.0-16.0-23.0-0.0,92479,List2B,black,man,,,,null,,,,
1275,<p>You got 8 out of 8 right first time. Press Continue.</p>,0,html-button-response,225,854853,0.0-16.0-25.0,92479,List2B,black,man,,,,,,,,
null,"<div style=""font-size:60px;"">+</div>",,html-keyboard-response,226,856356,0.0-17.0-0.0,92479,List2B,black,man,,,,null,,,,
null,"<img src=""stim_listB/dance2.gif""</stim_listB>",,html-keyboard-response,227,858357,0.0-17.0-1.0,92479,List2B,black,man,,,,null,,,,
null,are dancing with each other,,html-keyboard-response,228,860359,0.0-17.0-2.0,92479,List2B,black,man,,,,null,,,,
10618,,,survey-text,229,870978,0.0-17.0-3.0,92479,List2B,black,man,,,,,"{""Q0"":""ruth and dave are dancing with each other""}","<img src=""stim_listB/dance2.gif""</stim_listB>",are dancing with each other,
null,"<div style=""font-size:60px;"">+</div>",,html-keyboard-response,230,871479,0.0-17.0-0.1,92479,List2B,black,man,,,,null,,,,
null,"<img src=""stim_listB/talk2.gif""</stim_listB>",,html-keyboard-response,231,873481,0.0-17.0-1.1,92479,List2B,black,man,,,,null,,,,
null,are talking to each other,,html-keyboard-response,232,875482,0.0-17.0-2.1,92479,List2B,black,man,,,,null,,,,
6746,,,survey-text,233,882230,0.0-17.0-3.1,92479,List2B,black,man,,,,,"{""Q0"":""dave and ruth are talking to each other""}","<img src=""stim_listB/talk2.gif""</stim_listB>",are talking to each other,
null,"<div style=""font-size:60px;"">+</div>",,html-keyboard-response,234,882731,0.0-17.0-0.2,92479,List2B,black,man,,,,null,,,,
null,"<img src=""stim_listB/touch3.gif""</stim_listB>",,html-keyboard-response,235,884733,0.0-17.0-1.2,92479,List2B,black,man,,,,null,,,,
null,is touching,,html-keyboard-response,236,886736,0.0-17.0-2.2,92479,List2B,black,man,,,,null,,,,
4409,,,survey-text,237,891145,0.0-17.0-3.2,92479,List2B,black,man,,,,,"{""Q0"":""kate is touching mike""}","<img src=""stim_listB/touch3.gif""</stim_listB>",is touching,
null,"<div style=""font-size:60px;"">+</div>",,html-keyboard-response,238,891647,0.0-17.0-0.3,92479,List2B,black,man,,,,null,,,,
null,"<img src=""stim_listB/meet1.gif""</stim_listB>",,html-keyboard-response,239,893649,0.0-17.0-1.3,92479,List2B,black,man,,,,null,,,,
null,is meeting,,html-keyboard-response,240,895650,0.0-17.0-2.3,92479,List2B,black,man,,,,null,,,,
4410,,,survey-text,241,900061,0.0-17.0-3.3,92479,List2B,black,man,,,,,"{""Q0"":""jane is meeting dave""}","<img src=""stim_listB/meet1.gif""</stim_listB>",is meeting,
null,"<div style=""font-size:60px;"">+</div>",,html-keyboard-response,242,900562,0.0-17.0-0.4,92479,List2B,black,man,,,,null,,,,
null,"<img src=""stim_listB/marry7.gif""</stim_listB>",,html-keyboard-response,243,902565,0.0-17.0-1.4,92479,List2B,black,man,,,,null,,,,
null,is marrying,,html-keyboard-response,244,904567,0.0-17.0-2.4,92479,List2B,black,man,,,,null,,,,
6996,,,survey-text,245,911565,0.0-17.0-3.4,92479,List2B,black,man,,,,,"{""Q0"":""jane is marrying beth""}","<img src=""stim_listB/marry7.gif""</stim_listB>",is marrying,
null,"<div style=""font-size:60px;"">+</div>",,html-keyboard-response,246,912067,0.0-17.0-0.5,92479,List2B,black,man,,,,null,,,,
null,"<img src=""stim_listB/argue7.gif""</stim_listB>",,html-keyboard-response,247,914069,0.0-17.0-1.5,92479,List2B,black,man,,,,null,,,,
null,is arguing with,,html-keyboard-response,248,916070,0.0-17.0-2.5,92479,List2B,black,man,,,,null,,,,
8151,,,survey-text,249,924223,0.0-17.0-3.5,92479,List2B,black,man,,,,,"{""Q0"":""jane is arguing with beth""}","<img src=""stim_listB/argue7.gif""</stim_listB>",is arguing with,
null,"<div style=""font-size:60px;"">+</div>",,html-keyboard-response,250,924725,0.0-17.0-0.6,92479,List2B,black,man,,,,null,,,,
null,"<img src=""stim_listB/shout8.gif""</stim_listB>",,html-keyboard-response,251,926727,0.0-17.0-1.6,92479,List2B,black,man,,,,null,,,,
null,are shouting at each other,,html-keyboard-response,252,928729,0.0-17.0-2.6,92479,List2B,black,man,,,,null,,,,
10497,,,survey-text,253,939228,0.0-17.0-3.6,92479,List2B,black,man,,,,,"{""Q0"":""jane and kate are shouting at each other""}","<img src=""stim_listB/shout8.gif""</stim_listB>",are shouting at each other,
null,"<div style=""font-size:60px;"">+</div>",,html-keyboard-response,254,939730,0.0-17.0-0.7,92479,List2B,black,man,,,,null,,,,
null,"<img src=""stim_listB/kiss5.gif""</stim_listB>",,html-keyboard-response,255,941732,0.0-17.0-1.7,92479,List2B,black,man,,,,null,,,,
null,is kissing,,html-keyboard-response,256,943734,0.0-17.0-2.7,92479,List2B,black,man,,,,null,,,,
4326,,,survey-text,257,948062,0.0-17.0-3.7,92479,List2B,black,man,,,,,"{""Q0"":""fred is kissing luke""}","<img src=""stim_listB/kiss5.gif""</stim_listB>",is kissing,
null,"<div style=""font-size:60px;"">+</div>",,html-keyboard-response,258,948564,0.0-17.0-0.8,92479,List2B,black,man,,,,null,,,,
null,"<img src=""stim_listB/shout2.gif""</stim_listB>",,html-keyboard-response,259,950566,0.0-17.0-1.8,92479,List2B,black,man,,,,null,,,,
null,are shouting at each other,,html-keyboard-response,260,952568,0.0-17.0-2.8,92479,List2B,black,man,,,,null,,,,
10578,,,survey-text,261,963146,0.0-17.0-3.8,92479,List2B,black,man,,,,,"{""Q0"":""jane and dave are shouting at each other""}","<img src=""stim_listB/shout2.gif""</stim_listB>",are shouting at each other,
null,"<div style=""font-size:60px;"">+</div>",,html-keyboard-response,262,963648,0.0-17.0-0.9,92479,List2B,black,man,,,,null,,,,
null,"<img src=""stim_listB/talk7.gif""</stim_listB>",,html-keyboard-response,263,965650,0.0-17.0-1.9,92479,List2B,black,man,,,,null,,,,
null,is talking to,,html-keyboard-response,264,967651,0.0-17.0-2.9,92479,List2B,black,man,,,,null,,,,
5829,,,survey-text,265,973481,0.0-17.0-3.9,92479,List2B,black,man,,,,,"{""Q0"":""kate is talking to ruth""}","<img src=""stim_listB/talk7.gif""</stim_listB>",is talking to,
null,"<div style=""font-size:60px;"">+</div>",,html-keyboard-response,266,973983,0.0-17.0-0.10,92479,List2B,black,man,,,,null,,,,
null,"<img src=""stim_listB/marry4.gif""</stim_listB>",,html-keyboard-response,267,975984,0.0-17.0-1.10,92479,List2B,black,man,,,,null,,,,
null,are marrying each other,,html-keyboard-response,268,977986,0.0-17.0-2.10,92479,List2B,black,man,,,,null,,,,
6536,,,survey-text,269,984522,0.0-17.0-3.10,92479,List2B,black,man,,,,,"{""Q0"":""fred and kate are marrying each other""}","<img src=""stim_listB/marry4.gif""</stim_listB>",are marrying each other,
null,"<div style=""font-size:60px;"">+</div>",,html-keyboard-response,270,985024,0.0-17.0-0.11,92479,List2B,black,man,,,,null,,,,
null,"<img src=""stim_listB/dance3.gif""</stim_listB>",,html-keyboard-response,271,987025,0.0-17.0-1.11,92479,List2B,black,man,,,,null,,,,
null,is dancing with,,html-keyboard-response,272,989027,0.0-17.0-2.11,92479,List2B,black,man,,,,null,,,,
5848,,,survey-text,273,994877,0.0-17.0-3.11,92479,List2B,black,man,,,,,"{""Q0"":""fred is dancing with kate""}","<img src=""stim_listB/dance3.gif""</stim_listB>",is dancing with,
null,"<div style=""font-size:60px;"">+</div>",,html-keyboard-response,274,995378,0.0-17.0-0.12,92479,List2B,black,man,,,,null,,,,
null,"<img src=""stim_listB/kiss4.gif""</stim_listB>",,html-keyboard-response,275,997380,0.0-17.0-1.12,92479,List2B,black,man,,,,null,,,,
null,are kissing each other,,html-keyboard-response,276,999381,0.0-17.0-2.12,92479,List2B,black,man,,,,null,,,,
7577,,,survey-text,277,1006959,0.0-17.0-3.12,92479,List2B,black,man,,,,,"{""Q0"":""mike and kate are kissing each other""}","<img src=""stim_listB/kiss4.gif""</stim_listB>",are kissing each other,
null,"<div style=""font-size:60px;"">+</div>",,html-keyboard-response,278,1007461,0.0-17.0-0.13,92479,List2B,black,man,,,,null,,,,
null,"<img src=""stim_listB/shout1.gif""</stim_listB>",,html-keyboard-response,279,1009463,0.0-17.0-1.13,92479,List2B,black,man,,,,null,,,,
null,is shouting at,,html-keyboard-response,280,1011465,0.0-17.0-2.13,92479,List2B,black,man,,,,null,,,,
5630,,,survey-text,281,1017096,0.0-17.0-3.13,92479,List2B,black,man,,,,,"{""Q0"":""luke is shouting at ruth""}","<img src=""stim_listB/shout1.gif""</stim_listB>",is shouting at,
null,"<div style=""font-size:60px;"">+</div>",,html-keyboard-response,282,1017599,0.0-17.0-0.14,92479,List2B,black,man,,,,null,,,,
null,"<img src=""stim_listB/dance4.gif""</stim_listB>",,html-keyboard-response,283,1019602,0.0-17.0-1.14,92479,List2B,black,man,,,,null,,,,
null,are dancing with each other,,html-keyboard-response,284,1021603,0.0-17.0-2.14,92479,List2B,black,man,,,,null,,,,
8114,,,survey-text,285,1029718,0.0-17.0-3.14,92479,List2B,black,man,,,,,"{""Q0"":""mike and beth are dancing with each other""}","<img src=""stim_listB/dance4.gif""</stim_listB>",are dancing with each other,
null,"<div style=""font-size:60px;"">+</div>",,html-keyboard-response,286,1030219,0.0-17.0-0.15,92479,List2B,black,man,,,,null,,,,
null,"<img src=""stim_listB/meet7.gif""</stim_listB>",,html-keyboard-response,287,1032222,0.0-17.0-1.15,92479,List2B,black,man,,,,null,,,,
null,is meeting,,html-keyboard-response,288,1034224,0.0-17.0-2.15,92479,List2B,black,man,,,,null,,,,
4045,,,survey-text,289,1038270,0.0-17.0-3.15,92479,List2B,black,man,,,,,"{""Q0"":""kate is meeting jane""}","<img src=""stim_listB/meet7.gif""</stim_listB>",is meeting,
null,"<div style=""font-size:60px;"">+</div>",,html-keyboard-response,290,1038772,0.0-17.0-0.16,92479,List2B,black,man,,,,null,,,,
null,"<img src=""stim_listB/hug7.gif""</stim_listB>",,html-keyboard-response,291,1040774,0.0-17.0-1.16,92479,List2B,black,man,,,,null,,,,
null,is hugging,,html-keyboard-response,292,1042776,0.0-17.0-2.16,92479,List2B,black,man,,,,null,,,,
3994,,,survey-text,293,1046771,0.0-17.0-3.16,92479,List2B,black,man,,,,,"{""Q0"":""beth is hugging ruth""}","<img src=""stim_listB/hug7.gif""</stim_listB>",is hugging,
null,"<div style=""font-size:60px;"">+</div>",,html-keyboard-response,294,1047272,0.0-17.0-0.17,92479,List2B,black,man,,,,null,,,,
null,"<img src=""stim_listB/shout3.gif""</stim_listB>",,html-keyboard-response,295,1049274,0.0-17.0-1.17,92479,List2B,black,man,,,,null,,,,
null,is shouting at,,html-keyboard-response,296,1051275,0.0-17.0-2.17,92479,List2B,black,man,,,,null,,,,
5860,,,survey-text,297,1057136,0.0-17.0-3.17,92479,List2B,black,man,,,,,"{""Q0"":""fred is shouting at beth""}","<img src=""stim_listB/shout3.gif""</stim_listB>",is shouting at,
null,"<div style=""font-size:60px;"">+</div>",,html-keyboard-response,298,1057638,0.0-17.0-0.18,92479,List2B,black,man,,,,null,,,,
null,"<img src=""stim_listB/shout5.gif""</stim_listB>",,html-keyboard-response,299,1059640,0.0-17.0-1.18,92479,List2B,black,man,,,,null,,,,
null,is shouting at,,html-keyboard-response,300,1061642,0.0-17.0-2.18,92479,List2B,black,man,,,,null,,,,
4871,,,survey-text,301,1066513,0.0-17.0-3.18,92479,List2B,black,man,,,,,"{""Q0"":""luke is shouting at fred""}","<img src=""stim_listB/shout5.gif""</stim_listB>",is shouting at,
null,"<div style=""font-size:60px;"">+</div>",,html-keyboard-response,302,1067016,0.0-17.0-0.19,92479,List2B,black,man,,,,null,,,,
null,"<img src=""stim_listB/meet8.gif""</stim_listB>",,html-keyboard-response,303,1069017,0.0-17.0-1.19,92479,List2B,black,man,,,,null,,,,
null,are meeting each other,,html-keyboard-response,304,1071020,0.0-17.0-2.19,92479,List2B,black,man,,,,null,,,,
6644,,,survey-text,305,1077664,0.0-17.0-3.19,92479,List2B,black,man,,,,,"{""Q0"":""beth and ruth are meeting each other""}","<img src=""stim_listB/meet8.gif""</stim_listB>",are meeting each other,
1590,"<img src='img/portrait_matrix_list2.JPG' style='width:900px;height:500px;''></img><p>If you have memorised all the portraits and names and are ready to start, press Continue.</p><p><strong>Please note: Your memory of these faces will be tested 4 times during this experiment.</strong></p>",0,html-button-response,306,1079256,0.0-18.0-0.0,92479,List2B,black,man,,,,,,,,
2242,"<img src=""portrait/WM1.jpg""style=""width:400px;height:400px;""></img>",6,html-button-response,307,1082500,0.0-18.0-1.0,92479,List2B,black,man,,TRUE,6,,,,,
null,CORRECT,,html-keyboard-response,308,1084003,0.0-18.0-2.0-0.0,92479,List2B,black,man,,,,null,,,,
1850,"<img src=""portrait/BM1.jpg""style=""width:400px;height:400px;""></img>",4,html-button-response,309,1085854,0.0-18.0-4.0,92479,List2B,black,man,,TRUE,4,,,,,
null,CORRECT,,html-keyboard-response,310,1087356,0.0-18.0-5.0-0.0,92479,List2B,black,man,,,,null,,,,
1327,"<img src=""portrait/WW2.jpg""style=""width:400px;height:400px;""></img>",3,html-button-response,311,1088684,0.0-18.0-7.0,92479,List2B,black,man,,TRUE,3,,,,,
null,CORRECT,,html-keyboard-response,312,1090187,0.0-18.0-8.0-0.0,92479,List2B,black,man,,,,null,,,,
1769,"<img src=""portrait/BW2.jpg""style=""width:400px;height:400px;""></img>",2,html-button-response,313,1091958,0.0-18.0-10.0,92479,List2B,black,man,,TRUE,2,,,,,
null,CORRECT,,html-keyboard-response,314,1093460,0.0-18.0-11.0-0.0,92479,List2B,black,man,,,,null,,,,
1397,"<img src=""portrait/BW1.jpg""style=""width:400px;height:400px;""></img>",0,html-button-response,315,1094859,0.0-18.0-13.0,92479,List2B,black,man,,TRUE,0,,,,,
null,CORRECT,,html-keyboard-response,316,1096362,0.0-18.0-14.0-0.0,92479,List2B,black,man,,,,null,,,,
1386,"<img src=""portrait/BM2.jpg""style=""width:400px;height:400px;""></img>",5,html-button-response,317,1097750,0.0-18.0-16.0,92479,List2B,black,man,,TRUE,5,,,,,
null,CORRECT,,html-keyboard-response,318,1099252,0.0-18.0-17.0-0.0,92479,List2B,black,man,,,,null,,,,
1397,"<img src=""portrait/WM2.jpg""style=""width:400px;height:400px;""></img>",7,html-button-response,319,1100651,0.0-18.0-19.0,92479,List2B,black,man,,TRUE,7,,,,,
null,CORRECT,,html-keyboard-response,320,1102155,0.0-18.0-20.0-0.0,92479,List2B,black,man,,,,null,,,,
1457,"<img src=""portrait/WW1.jpg""style=""width:400px;height:400px;""></img>",1,html-button-response,321,1103612,0.0-18.0-22.0,92479,List2B,black,man,,TRUE,1,,,,,
null,CORRECT,,html-keyboard-response,322,1105117,0.0-18.0-23.0-0.0,92479,List2B,black,man,,,,null,,,,
1154,<p>You got 8 out of 8 right first time. Press Continue.</p>,0,html-button-response,323,1106271,0.0-18.0-25.0,92479,List2B,black,man,,,,,,,,
null,"<div style=""font-size:60px;"">+</div>",,html-keyboard-response,324,1107774,0.0-19.0-0.0,92479,List2B,black,man,,,,null,,,,
null,"<img src=""stim_listB/kiss8.gif""</stim_listB>",,html-keyboard-response,325,1109775,0.0-19.0-1.0,92479,List2B,black,man,,,,null,,,,
null,are kissing each other,,html-keyboard-response,326,1111778,0.0-19.0-2.0,92479,List2B,black,man,,,,null,,,,
7164,,,survey-text,327,1118942,0.0-19.0-3.0,92479,List2B,black,man,,,,,"{""Q0"":""kate and jane are kissing each other""}","<img src=""stim_listB/kiss8.gif""</stim_listB>",are kissing each other,
null,"<div style=""font-size:60px;"">+</div>",,html-keyboard-response,328,1119445,0.0-19.0-0.1,92479,List2B,black,man,,,,null,,,,
null,"<img src=""stim_listB/dance7.gif""</stim_listB>",,html-keyboard-response,329,1121447,0.0-19.0-1.1,92479,List2B,black,man,,,,null,,,,
null,is dancing with,,html-keyboard-response,330,1123449,0.0-19.0-2.1,92479,List2B,black,man,,,,null,,,,
7598,,,survey-text,331,1131048,0.0-19.0-3.1,92479,List2B,black,man,,,,,"{""Q0"":""kate is dancing with ruth""}","<img src=""stim_listB/dance7.gif""</stim_listB>",is dancing with,
null,"<div style=""font-size:60px;"">+</div>",,html-keyboard-response,332,1131550,0.0-19.0-0.2,92479,List2B,black,man,,,,null,,,,
null,"<img src=""stim_listB/argue2.gif""</stim_listB>",,html-keyboard-response,333,1133551,0.0-19.0-1.2,92479,List2B,black,man,,,,null,,,,
null,are arguing with each other,,html-keyboard-response,334,1135554,0.0-19.0-2.2,92479,List2B,black,man,,,,null,,,,
8260,,,survey-text,335,1143815,0.0-19.0-3.2,92479,List2B,black,man,,,,,"{""Q0"":""luke and jane are arguing with each other""}","<img src=""stim_listB/argue2.gif""</stim_listB>",are arguing with each other,
null,"<div style=""font-size:60px;"">+</div>",,html-keyboard-response,336,1144316,0.0-19.0-0.3,92479,List2B,black,man,,,,null,,,,
null,"<img src=""stim_listB/touch7.gif""</stim_listB>",,html-keyboard-response,337,1146317,0.0-19.0-1.3,92479,List2B,black,man,,,,null,,,,
null,is touching,,html-keyboard-response,338,1148319,0.0-19.0-2.3,92479,List2B,black,man,,,,null,,,,
4640,,,survey-text,339,1152959,0.0-19.0-3.3,92479,List2B,black,man,,,,,"{""Q0"":""kate is touching jane""}","<img src=""stim_listB/touch7.gif""</stim_listB>",is touching,
null,"<div style=""font-size:60px;"">+</div>",,html-keyboard-response,340,1153461,0.0-19.0-0.4,92479,List2B,black,man,,,,null,,,,
null,"<img src=""stim_listB/marry3.gif""</stim_listB>",,html-keyboard-response,341,1155462,0.0-19.0-1.4,92479,List2B,black,man,,,,null,,,,
null,is marrying,,html-keyboard-response,342,1157464,0.0-19.0-2.4,92479,List2B,black,man,,,,null,,,,
6301,,,survey-text,343,1163766,0.0-19.0-3.4,92479,List2B,black,man,,,,,"{""Q0"":""beth is marrying mike""}","<img src=""stim_listB/marry3.gif""</stim_listB>",is marrying,
null,"<div style=""font-size:60px;"">+</div>",,html-keyboard-response,344,1164268,0.0-19.0-0.5,92479,List2B,black,man,,,,null,,,,
null,"<img src=""stim_listB/hug4.gif""</stim_listB>",,html-keyboard-response,345,1166270,0.0-19.0-1.5,92479,List2B,black,man,,,,null,,,,
null,are hugging each other,,html-keyboard-response,346,1168272,0.0-19.0-2.5,92479,List2B,black,man,,,,null,,,,
6049,,,survey-text,347,1174321,0.0-19.0-3.5,92479,List2B,black,man,,,,,"{""Q0"":""kate and mike are hugging each other""}","<img src=""stim_listB/hug4.gif""</stim_listB>",are hugging each other,
null,"<div style=""font-size:60px;"">+</div>",,html-keyboard-response,348,1174823,0.0-19.0-0.6,92479,List2B,black,man,,,,null,,,,
null,"<img src=""stim_listB/hug1.gif""</stim_listB>",,html-keyboard-response,349,1176824,0.0-19.0-1.6,92479,List2B,black,man,,,,null,,,,
null,is hugging,,html-keyboard-response,350,1178826,0.0-19.0-2.6,92479,List2B,black,man,,,,null,,,,
6613,,,survey-text,351,1185440,0.0-19.0-3.6,92479,List2B,black,man,,,,,"{""Q0"":""ruth is hugging luke""}","<img src=""stim_listB/hug1.gif""</stim_listB>",is hugging,
null,"<div style=""font-size:60px;"">+</div>",,html-keyboard-response,352,1185942,0.0-19.0-0.7,92479,List2B,black,man,,,,null,,,,
null,"<img src=""stim_listB/dance5.gif""</stim_listB>",,html-keyboard-response,353,1187943,0.0-19.0-1.7,92479,List2B,black,man,,,,null,,,,
null,is dancing with,,html-keyboard-response,354,1189946,0.0-19.0-2.7,92479,List2B,black,man,,,,null,,,,
4668,,,survey-text,355,1194615,0.0-19.0-3.7,92479,List2B,black,man,,,,,"{""Q0"":""mike is dancing with luke""}","<img src=""stim_listB/dance5.gif""</stim_listB>",is dancing with,
null,"<div style=""font-size:60px;"">+</div>",,html-keyboard-response,356,1195116,0.0-19.0-0.8,92479,List2B,black,man,,,,null,,,,
null,"<img src=""stim_listB/talk6.gif""</stim_listB>",,html-keyboard-response,357,1197118,0.0-19.0-1.8,92479,List2B,black,man,,,,null,,,,
null,are talking to each other,,html-keyboard-response,358,1199120,0.0-19.0-2.8,92479,List2B,black,man,,,,null,,,,
7177,,,survey-text,359,1206297,0.0-19.0-3.8,92479,List2B,black,man,,,,,"{""Q0"":""fred and dave are talking to each other""}","<img src=""stim_listB/talk6.gif""</stim_listB>",are talking to each other,
null,"<div style=""font-size:60px;"">+</div>",,html-keyboard-response,360,1206799,0.0-19.0-0.9,92479,List2B,black,man,,,,null,,,,
null,"<img src=""stim_listB/kiss1.gif""</stim_listB>",,html-keyboard-response,361,1208801,0.0-19.0-1.9,92479,List2B,black,man,,,,null,,,,
null,is kissing,,html-keyboard-response,362,1210802,0.0-19.0-2.9,92479,List2B,black,man,,,,null,,,,
5173,,,survey-text,363,1215976,0.0-19.0-3.9,92479,List2B,black,man,,,,,"{""Q0"":""ruth is kissing luke""}","<img src=""stim_listB/kiss1.gif""</stim_listB>",is kissing,
null,"<div style=""font-size:60px;"">+</div>",,html-keyboard-response,364,1216477,0.0-19.0-0.10,92479,List2B,black,man,,,,null,,,,
null,"<img src=""stim_listB/fight2.gif""</stim_listB>",,html-keyboard-response,365,1218479,0.0-19.0-1.10,92479,List2B,black,man,,,,null,,,,
null,are fighting each other,,html-keyboard-response,366,1220481,0.0-19.0-2.10,92479,List2B,black,man,,,,null,,,,
9286,,,survey-text,367,1229768,0.0-19.0-3.10,92479,List2B,black,man,,,,,"{""Q0"":""ruth and luke are fighting each other""}","<img src=""stim_listB/fight2.gif""</stim_listB>",are fighting each other,
null,"<div style=""font-size:60px;"">+</div>",,html-keyboard-response,368,1230270,0.0-19.0-0.11,92479,List2B,black,man,,,,null,,,,
null,"<img src=""stim_listB/meet6.gif""</stim_listB>",,html-keyboard-response,369,1232272,0.0-19.0-1.11,92479,List2B,black,man,,,,null,,,,
null,are meeting each other,,html-keyboard-response,370,1234273,0.0-19.0-2.11,92479,List2B,black,man,,,,null,,,,
6059,,,survey-text,371,1240334,0.0-19.0-3.11,92479,List2B,black,man,,,,,"{""Q0"":""luke and fred are meeting each other""}","<img src=""stim_listB/meet6.gif""</stim_listB>",are meeting each other,
null,"<div style=""font-size:60px;"">+</div>",,html-keyboard-response,372,1240836,0.0-19.0-0.12,92479,List2B,black,man,,,,null,,,,
null,"<img src=""stim_listB/kiss2.gif""</stim_listB>",,html-keyboard-response,373,1242839,0.0-19.0-1.12,92479,List2B,black,man,,,,null,,,,
null,are kissing each other,,html-keyboard-response,374,1244840,0.0-19.0-2.12,92479,List2B,black,man,,,,null,,,,
8551,,,survey-text,375,1253391,0.0-19.0-3.12,92479,List2B,black,man,,,,,"{""Q0"":""jane and dave are kissing each other""}","<img src=""stim_listB/kiss2.gif""</stim_listB>",are kissing each other,
null,"<div style=""font-size:60px;"">+</div>",,html-keyboard-response,376,1253892,0.0-19.0-0.13,92479,List2B,black,man,,,,null,,,,
null,"<img src=""stim_listB/marry6.gif""</stim_listB>",,html-keyboard-response,377,1255894,0.0-19.0-1.13,92479,List2B,black,man,,,,null,,,,
null,are marrying each other,,html-keyboard-response,378,1257895,0.0-19.0-2.13,92479,List2B,black,man,,,,null,,,,
6724,,,survey-text,379,1264620,0.0-19.0-3.13,92479,List2B,black,man,,,,,"{""Q0"":""luke and mike are marrying each other""}","<img src=""stim_listB/marry6.gif""</stim_listB>",are marrying each other,
null,"<div style=""font-size:60px;"">+</div>",,html-keyboard-response,380,1265121,0.0-19.0-0.14,92479,List2B,black,man,,,,null,,,,
null,"<img src=""stim_listB/argue3.gif""</stim_listB>",,html-keyboard-response,381,1267123,0.0-19.0-1.14,92479,List2B,black,man,,,,null,,,,
null,is arguing with,,html-keyboard-response,382,1269124,0.0-19.0-2.14,92479,List2B,black,man,,,,null,,,,
5706,,,survey-text,383,1274832,0.0-19.0-3.14,92479,List2B,black,man,,,,,"{""Q0"":""mike is arguing with beth""}","<img src=""stim_listB/argue3.gif""</stim_listB>",is arguing with,
null,"<div style=""font-size:60px;"">+</div>",,html-keyboard-response,384,1275334,0.0-19.0-0.15,92479,List2B,black,man,,,,null,,,,
null,"<img src=""stim_listB/meet5.gif""</stim_listB>",,html-keyboard-response,385,1277335,0.0-19.0-1.15,92479,List2B,black,man,,,,null,,,,
null,is meeting,,html-keyboard-response,386,1279336,0.0-19.0-2.15,92479,List2B,black,man,,,,null,,,,
5514,,,survey-text,387,1284852,0.0-19.0-3.15,92479,List2B,black,man,,,,,"{""Q0"":""mike is meeting dave""}","<img src=""stim_listB/meet5.gif""</stim_listB>",is meeting,
null,"<div style=""font-size:60px;"">+</div>",,html-keyboard-response,388,1285354,0.0-19.0-0.16,92479,List2B,black,man,,,,null,,,,
null,"<img src=""stim_listB/touch4.gif""</stim_listB>",,html-keyboard-response,389,1287355,0.0-19.0-1.16,92479,List2B,black,man,,,,null,,,,
null,are touching each other,,html-keyboard-response,390,1289356,0.0-19.0-2.16,92479,List2B,black,man,,,,null,,,,
6984,,,survey-text,391,1296342,0.0-19.0-3.16,92479,List2B,black,man,,,,,"{""Q0"":""beth and fred are touching each other""}","<img src=""stim_listB/touch4.gif""</stim_listB>",are touching each other,
null,"<div style=""font-size:60px;"">+</div>",,html-keyboard-response,392,1296843,0.0-19.0-0.17,92479,List2B,black,man,,,,null,,,,
null,"<img src=""stim_listB/kiss3.gif""</stim_listB>",,html-keyboard-response,393,1298846,0.0-19.0-1.17,92479,List2B,black,man,,,,null,,,,
null,is kissing,,html-keyboard-response,394,1300847,0.0-19.0-2.17,92479,List2B,black,man,,,,null,,,,
4396,,,survey-text,395,1305245,0.0-19.0-3.17,92479,List2B,black,man,,,,,"{""Q0"":""beth is kissing fred""}","<img src=""stim_listB/kiss3.gif""</stim_listB>",is kissing,
null,"<div style=""font-size:60px;"">+</div>",,html-keyboard-response,396,1305746,0.0-19.0-0.18,92479,List2B,black,man,,,,null,,,,
null,"<img src=""stim_listB/talk3.gif""</stim_listB>",,html-keyboard-response,397,1307747,0.0-19.0-1.18,92479,List2B,black,man,,,,null,,,,
null,is talking to,,html-keyboard-response,398,1309749,0.0-19.0-2.18,92479,List2B,black,man,,,,null,,,,
5615,,,survey-text,399,1315365,0.0-19.0-3.18,92479,List2B,black,man,,,,,"{""Q0"":""kate is talking to fred""}","<img src=""stim_listB/talk3.gif""</stim_listB>",is talking to,
null,"<div style=""font-size:60px;"">+</div>",,html-keyboard-response,400,1315866,0.0-19.0-0.19,92479,List2B,black,man,,,,null,,,,
null,"<img src=""stim_listB/marry8.gif""</stim_listB>",,html-keyboard-response,401,1317867,0.0-19.0-1.19,92479,List2B,black,man,,,,null,,,,
null,are marrying each other,,html-keyboard-response,402,1319870,0.0-19.0-2.19,92479,List2B,black,man,,,,null,,,,
9124,,,survey-text,403,1328995,0.0-19.0-3.19,92479,List2B,black,man,,,,,"{""Q0"":""ruth and kate are marrying each other""}","<img src=""stim_listB/marry8.gif""</stim_listB>",are marrying each other,
1893,<p>Thank you for completing that task.</p><p>The final part of this session is a short questionnaire.</p><p>Press Continue.</p>,0,html-button-response,404,1330888,0.0-20.0,92479,List2B,black,man,,,,,,,,
16476,,,survey-text,405,1348367,0.0-21.0,92479,List2B,black,man,,,,,"{""Q0"":""24"",""Q1"":""English"",""Q2"":""English"",""Q3"":""England"",""Q4"":""Black"",""Q5"":""Male""}",,,demographics
195049,,,survey-likert,406,1543421,0.0-22.0,92479,List2B,black,man,,,,,"{""Q0"":6,""Q1"":6,""Q2"":6,""Q3"":6,""Q4"":6,""Q5"":6,""Q6"":6,""Q7"":6,""Q8"":6,""Q9"":6,""Q10"":5,""Q11"":5,""Q12"":4,""Q13"":3}",,,likert_race
90251,,,survey-likert,407,1633681,0.0-23.0,92479,List2B,black,man,,,,,"{""Q0"":4,""Q1"":4,""Q2"":4,""Q3"":5,""Q4"":4,""Q5"":4,""Q6"":3,""Q7"":1,""Q8"":1,""Q9"":1,""Q10"":4,""Q11"":1,""Q12"":5,""Q13"":5}",,,likert_gender
8542,,,survey-text,408,1642229,0.0-24.0,92479,List2B,black,man,,,,,"{""Q0"":""ccc""}",,,worker_id
31985,,,external-html,409,1674297,0.0-25.0,92479,List2B,black,man,debrief.html,,,,,,,
