rt,stimulus,button_pressed,trial_type,trial_index,time_elapsed,internal_node_id,subject,list,ppt_race,ppt_gender,url,first_guess,correct,key_press,responses,image_type,phrase_type,test_part
5837,Welcome to the experiment. Press Continue to begin.,0,html-button-response,0,5842,0.0-0.0,92753,List1A,black,man,,,,,,,,
96293,,,external-html,1,103251,0.0-1.0,92753,List1A,black,man,consent.html,,,,,,,
13846,"<p>On the next page, you will see portraits of 8 people and their names.</p><p>Your first task is to take a few minutes to memorise the names of these people.</p><p>You will have to recall their names during the rest of the experiment, so it is</p><p>essential that you try to memorise these people and their names as best as you can.</p><br><p><strong>You will then be tested on your memory of these names and portraits.</strong></p><br><p>The experiment will start after you have completed this memory test.</p><br><p>Ready?</p>",0,html-button-response,2,117099,0.0-2.0,92753,List1A,black,man,,,,,,,,
77022,"<img src='img/portrait_matrix_list1.JPG' style='width:900px;height:500px;''></img><p>If you have memorised all the portraits and names and are ready to start, press Continue.</p><p><strong>Please note: Your memory of these faces will be tested 4 times during this experiment.</strong></p>",0,html-button-response,3,195130,0.0-3.0-0.0,92753,List1A,black,man,,,,,,,,
8116,"<img src=""portrait/WM1.jpg""style=""width:400px;height:400px;""></img>",6,html-button-response,4,204250,0.0-3.0-1.0,92753,List1A,black,man,,TRUE,6,,,,,
null,CORRECT,,html-keyboard-response,5,205771,0.0-3.0-2.0-0.0,92753,List1A,black,man,,,,null,,,,
18092,"<img src=""portrait/WW1.jpg""style=""width:400px;height:400px;""></img>",2,html-button-response,6,223866,0.0-3.0-4.0,92753,List1A,black,man,,TRUE,1,,,,,
4194,"<img src=""portrait/WW1.jpg""style=""width:400px;height:400px;""></img>",1,html-button-response,7,229074,0.0-3.0-6.0-0.0,92753,List1A,black,man,,FALSE,1,,,,,
null,CORRECT,,html-keyboard-response,8,230592,0.0-3.0-6.0-1.0-0.0,92753,List1A,black,man,,,,null,,,,
4959,"<img src=""portrait/WW2.jpg""style=""width:400px;height:400px;""></img>",3,html-button-response,9,235554,0.0-3.0-7.0,92753,List1A,black,man,,TRUE,3,,,,,
null,CORRECT,,html-keyboard-response,10,237076,0.0-3.0-8.0-0.0,92753,List1A,black,man,,,,null,,,,
5619,"<img src=""portrait/BM1.jpg""style=""width:400px;height:400px;""></img>",4,html-button-response,11,242698,0.0-3.0-10.0,92753,List1A,black,man,,TRUE,4,,,,,
null,CORRECT,,html-keyboard-response,12,244220,0.0-3.0-11.0-0.0,92753,List1A,black,man,,,,null,,,,
4995,"<img src=""portrait/BM2.jpg""style=""width:400px;height:400px;""></img>",5,html-button-response,13,249218,0.0-3.0-13.0,92753,List1A,black,man,,TRUE,5,,,,,
null,CORRECT,,html-keyboard-response,14,250736,0.0-3.0-14.0-0.0,92753,List1A,black,man,,,,null,,,,
9328,"<img src=""portrait/BW1.jpg""style=""width:400px;height:400px;""></img>",2,html-button-response,15,260067,0.0-3.0-16.0,92753,List1A,black,man,,TRUE,0,,,,,
8356,"<img src=""portrait/BW1.jpg""style=""width:400px;height:400px;""></img>",0,html-button-response,16,269434,0.0-3.0-18.0-0.0,92753,List1A,black,man,,FALSE,0,,,,,
null,CORRECT,,html-keyboard-response,17,270944,0.0-3.0-18.0-1.0-0.0,92753,List1A,black,man,,,,null,,,,
8817,"<img src=""portrait/WM2.jpg""style=""width:400px;height:400px;""></img>",7,html-button-response,18,279762,0.0-3.0-19.0,92753,List1A,black,man,,TRUE,7,,,,,
null,CORRECT,,html-keyboard-response,19,281270,0.0-3.0-20.0-0.0,92753,List1A,black,man,,,,null,,,,
5027,"<img src=""portrait/BW2.jpg""style=""width:400px;height:400px;""></img>",0,html-button-response,20,286298,0.0-3.0-22.0,92753,List1A,black,man,,TRUE,2,,,,,
1839,"<img src=""portrait/BW2.jpg""style=""width:400px;height:400px;""></img>",2,html-button-response,21,289146,0.0-3.0-24.0-0.0,92753,List1A,black,man,,FALSE,2,,,,,
null,CORRECT,,html-keyboard-response,22,290667,0.0-3.0-24.0-1.0-0.0,92753,List1A,black,man,,,,null,,,,
4501,<p>You got 5 out of 8 right first time. Press Continue.</p>,0,html-button-response,23,295170,0.0-3.0-25.0,92753,List1A,black,man,,,,,,,,
5842,"As you did not score 100%, the memory game will repeat. Press Continue.",0,html-button-response,24,302026,0.0-3.0-26.0-0.0,92753,List1A,black,man,,,,,,,,
50649,"<img src='img/portrait_matrix_list1.JPG' style='width:900px;height:500px;''></img><p>If you have memorised all the portraits and names and are ready to start, press Continue.</p><p><strong>Please note: Your memory of these faces will be tested 4 times during this experiment.</strong></p>",0,html-button-response,25,353693,0.0-3.1-0.1,92753,List1A,black,man,,,,,,,,
4498,"<img src=""portrait/WM1.jpg""style=""width:400px;height:400px;""></img>",6,html-button-response,26,359205,0.0-3.1-1.1,92753,List1A,black,man,,TRUE,6,,,,,
null,CORRECT,,html-keyboard-response,27,360716,0.0-3.1-2.1-0.1,92753,List1A,black,man,,,,null,,,,
11767,"<img src=""portrait/WW1.jpg""style=""width:400px;height:400px;""></img>",1,html-button-response,28,372485,0.0-3.1-4.1,92753,List1A,black,man,,TRUE,1,,,,,
null,CORRECT,,html-keyboard-response,29,374004,0.0-3.1-5.1-0.1,92753,List1A,black,man,,,,null,,,,
3967,"<img src=""portrait/WW2.jpg""style=""width:400px;height:400px;""></img>",3,html-button-response,30,377973,0.0-3.1-7.1,92753,List1A,black,man,,TRUE,3,,,,,
null,CORRECT,,html-keyboard-response,31,379487,0.0-3.1-8.1-0.1,92753,List1A,black,man,,,,null,,,,
5820,"<img src=""portrait/BM1.jpg""style=""width:400px;height:400px;""></img>",4,html-button-response,32,385309,0.0-3.1-10.1,92753,List1A,black,man,,TRUE,4,,,,,
null,CORRECT,,html-keyboard-response,33,386819,0.0-3.1-11.1-0.1,92753,List1A,black,man,,,,null,,,,
9136,"<img src=""portrait/BM2.jpg""style=""width:400px;height:400px;""></img>",5,html-button-response,34,395957,0.0-3.1-13.1,92753,List1A,black,man,,TRUE,5,,,,,
null,CORRECT,,html-keyboard-response,35,397466,0.0-3.1-14.1-0.1,92753,List1A,black,man,,,,null,,,,
8746,"<img src=""portrait/BW1.jpg""style=""width:400px;height:400px;""></img>",0,html-button-response,36,406213,0.0-3.1-16.1,92753,List1A,black,man,,TRUE,0,,,,,
null,CORRECT,,html-keyboard-response,37,407731,0.0-3.1-17.1-0.1,92753,List1A,black,man,,,,null,,,,
1633,"<img src=""portrait/WM2.jpg""style=""width:400px;height:400px;""></img>",7,html-button-response,38,409365,0.0-3.1-19.1,92753,List1A,black,man,,TRUE,7,,,,,
null,CORRECT,,html-keyboard-response,39,410880,0.0-3.1-20.1-0.1,92753,List1A,black,man,,,,null,,,,
4969,"<img src=""portrait/BW2.jpg""style=""width:400px;height:400px;""></img>",2,html-button-response,40,415850,0.0-3.1-22.1,92753,List1A,black,man,,TRUE,2,,,,,
null,CORRECT,,html-keyboard-response,41,417374,0.0-3.1-23.1-0.1,92753,List1A,black,man,,,,null,,,,
3867,<p>You got 8 out of 8 right first time. Press Continue.</p>,0,html-button-response,42,421242,0.0-3.1-25.1,92753,List1A,black,man,,,,,,,,
26424,"<p>In this experiment, you will view photographs of the people from the memory game interacting.</p><p>By using the <strong>exact</strong> phrase given <i>after</i> the photograph appears and recalling the correct names of the people in the photographs, form a sentence describing the interaction. You do not need to capitalise names.</p><p>Type your answer in the space provided. Please complete every sentence before moving onto the next trial.</p><p>You will only have a few seconds to memorise each given photograph and phrase before you can respond, so try your best to focus.</p><p>An example is given below. Press 'Continue' when you are ready.</p><img src='img/speaking_example_v2.jpg' style='width:800px;height:460px;''></img>",0,html-button-response,43,448682,0.0-4.0,92753,List1A,black,man,,,,,,,,
1932,"<p>Before the experiment starts, you will watch two example trials. Press 'Continue'.</p>",0,html-button-response,44,451626,0.0-5.0,92753,List1A,black,man,,,,,,,,
null,<img src='img/speaking_WW.gif'></img>,,html-keyboard-response,45,454654,0.0-6.0,92753,List1A,black,man,,,,null,,,,
null,<p>is speaking to</p>,,html-keyboard-response,46,456668,0.0-7.0,92753,List1A,black,man,,,,null,,,,
4446,<p><b>Answer:</b> kate is speaking to beth</p>,0,html-button-response,47,461114,0.0-8.0,92753,List1A,black,man,,,,,,,,
null,<img src='img/pointing_BM.gif'></img>,,html-keyboard-response,48,464130,0.0-9.0,92753,List1A,black,man,,,,null,,,,
null,<p>are pointing at each other</p>,,html-keyboard-response,49,466142,0.0-10.0,92753,List1A,black,man,,,,null,,,,
4547,<p><b>Answer:</b> luke and dave are pointing at each other</p>,0,html-button-response,50,470690,0.0-11.0,92753,List1A,black,man,,,,,,,,
14148,"<p>Ready to start the experiment?</p><br><p><strong>Remember to describe the picture using a full sentence,</strong></p><p><strong>that combines the names of the people with the given phrase.</strong></p><p><strong>If you do not do this correctly you will not be paid.</strong></p><p><strong> You do not need to capitalise names or use punctuation.</strong></p><br><p>Press 'Continue' to begin.</p>",0,html-button-response,51,485845,0.0-12.0,92753,List1A,black,man,,,,,,,,
null,"<div style=""font-size:60px;"">+</div>",,html-keyboard-response,52,487374,0.0-13.0-0.0,92753,List1A,black,man,,,,null,,,,
null,"<img src=""stim_listA/dance7.gif""</stim_listA>",,html-keyboard-response,53,489377,0.0-13.0-1.0,92753,List1A,black,man,,,,null,,,,
null,is dancing with,,html-keyboard-response,54,491384,0.0-13.0-2.0,92753,List1A,black,man,,,,null,,,,
18971,,,survey-text,55,510357,0.0-13.0-3.0,92753,List1A,black,man,,,,,"{""Q0"":""jane and beth""}","<img src=""stim_listA/dance7.gif""</stim_listA>",is dancing with,
null,"<div style=""font-size:60px;"">+</div>",,html-keyboard-response,56,510866,0.0-13.0-0.1,92753,List1A,black,man,,,,null,,,,
null,"<img src=""stim_listA/kiss2.gif""</stim_listA>",,html-keyboard-response,57,512881,0.0-13.0-1.1,92753,List1A,black,man,,,,null,,,,
null,are kissing each other,,html-keyboard-response,58,514894,0.0-13.0-2.1,92753,List1A,black,man,,,,null,,,,
13908,,,survey-text,59,528805,0.0-13.0-3.1,92753,List1A,black,man,,,,,"{""Q0"":""kate and mike""}","<img src=""stim_listA/kiss2.gif""</stim_listA>",are kissing each other,
null,"<div style=""font-size:60px;"">+</div>",,html-keyboard-response,60,529312,0.0-13.0-0.2,92753,List1A,black,man,,,,null,,,,
null,"<img src=""stim_listA/meet8.gif""</stim_listA>",,html-keyboard-response,61,531320,0.0-13.0-1.2,92753,List1A,black,man,,,,null,,,,
null,are meeting each other,,html-keyboard-response,62,533334,0.0-13.0-2.2,92753,List1A,black,man,,,,null,,,,
34293,,,survey-text,63,567629,0.0-13.0-3.2,92753,List1A,black,man,,,,,"{""Q0"":""beth and ruth are meeting each other""}","<img src=""stim_listA/meet8.gif""</stim_listA>",are meeting each other,
null,"<div style=""font-size:60px;"">+</div>",,html-keyboard-response,64,568142,0.0-13.0-0.3,92753,List1A,black,man,,,,null,,,,
null,"<img src=""stim_listA/dance2.gif""</stim_listA>",,html-keyboard-response,65,570154,0.0-13.0-1.3,92753,List1A,black,man,,,,null,,,,
null,are dancing with each other,,html-keyboard-response,66,572169,0.0-13.0-2.3,92753,List1A,black,man,,,,null,,,,
14506,,,survey-text,67,586677,0.0-13.0-3.3,92753,List1A,black,man,,,,,"{""Q0"":""mike and beth are dancing with echother""}","<img src=""stim_listA/dance2.gif""</stim_listA>",are dancing with each other,
null,"<div style=""font-size:60px;"">+</div>",,html-keyboard-response,68,587187,0.0-13.0-0.4,92753,List1A,black,man,,,,null,,,,
null,"<img src=""stim_listA/touch8.gif""</stim_listA>",,html-keyboard-response,69,589192,0.0-13.0-1.4,92753,List1A,black,man,,,,null,,,,
null,are touching each other,,html-keyboard-response,70,591196,0.0-13.0-2.4,92753,List1A,black,man,,,,null,,,,
16312,,,survey-text,71,607509,0.0-13.0-3.4,92753,List1A,black,man,,,,,"{""Q0"":""beth and ruth are greeting eachother""}","<img src=""stim_listA/touch8.gif""</stim_listA>",are touching each other,
null,"<div style=""font-size:60px;"">+</div>",,html-keyboard-response,72,608015,0.0-13.0-0.5,92753,List1A,black,man,,,,null,,,,
null,"<img src=""stim_listA/meet6.gif""</stim_listA>",,html-keyboard-response,73,610017,0.0-13.0-1.5,92753,List1A,black,man,,,,null,,,,
null,are meeting each other,,html-keyboard-response,74,612030,0.0-13.0-2.5,92753,List1A,black,man,,,,null,,,,
14134,,,survey-text,75,626165,0.0-13.0-3.5,92753,List1A,black,man,,,,,"{""Q0"":""fred and luke are meeting eachother""}","<img src=""stim_listA/meet6.gif""</stim_listA>",are meeting each other,
null,"<div style=""font-size:60px;"">+</div>",,html-keyboard-response,76,626668,0.0-13.0-0.6,92753,List1A,black,man,,,,null,,,,
null,"<img src=""stim_listA/hug3.gif""</stim_listA>",,html-keyboard-response,77,628684,0.0-13.0-1.6,92753,List1A,black,man,,,,null,,,,
null,is hugging,,html-keyboard-response,78,630698,0.0-13.0-2.6,92753,List1A,black,man,,,,null,,,,
14210,,,survey-text,79,644909,0.0-13.0-3.6,92753,List1A,black,man,,,,,"{""Q0"":""luke and ruth are hugging eachother""}","<img src=""stim_listA/hug3.gif""</stim_listA>",is hugging,
null,"<div style=""font-size:60px;"">+</div>",,html-keyboard-response,80,645424,0.0-13.0-0.7,92753,List1A,black,man,,,,null,,,,
null,"<img src=""stim_listA/dance6.gif""</stim_listA>",,html-keyboard-response,81,647427,0.0-13.0-1.7,92753,List1A,black,man,,,,null,,,,
null,are dancing with each other,,html-keyboard-response,82,649439,0.0-13.0-2.7,92753,List1A,black,man,,,,null,,,,
8861,,,survey-text,83,658301,0.0-13.0-3.7,92753,List1A,black,man,,,,,"{""Q0"":""luke and mike are dancing with eachother""}","<img src=""stim_listA/dance6.gif""</stim_listA>",are dancing with each other,
null,"<div style=""font-size:60px;"">+</div>",,html-keyboard-response,84,658808,0.0-13.0-0.8,92753,List1A,black,man,,,,null,,,,
null,"<img src=""stim_listA/marry1.gif""</stim_listA>",,html-keyboard-response,85,660812,0.0-13.0-1.8,92753,List1A,black,man,,,,null,,,,
null,is marrying,,html-keyboard-response,86,662826,0.0-13.0-2.8,92753,List1A,black,man,,,,null,,,,
12368,,,survey-text,87,675196,0.0-13.0-3.8,92753,List1A,black,man,,,,,"{""Q0"":""mike and beth is marrying""}","<img src=""stim_listA/marry1.gif""</stim_listA>",is marrying,
null,"<div style=""font-size:60px;"">+</div>",,html-keyboard-response,88,675702,0.0-13.0-0.9,92753,List1A,black,man,,,,null,,,,
null,"<img src=""stim_listA/talk6.gif""</stim_listA>",,html-keyboard-response,89,677705,0.0-13.0-1.9,92753,List1A,black,man,,,,null,,,,
null,are talking to each other,,html-keyboard-response,90,679707,0.0-13.0-2.9,92753,List1A,black,man,,,,null,,,,
10943,,,survey-text,91,690651,0.0-13.0-3.9,92753,List1A,black,man,,,,,"{""Q0"":""luke and mike are talking to eachother""}","<img src=""stim_listA/talk6.gif""</stim_listA>",are talking to each other,
null,"<div style=""font-size:60px;"">+</div>",,html-keyboard-response,92,691168,0.0-13.0-0.10,92753,List1A,black,man,,,,null,,,,
null,"<img src=""stim_listA/talk7.gif""</stim_listA>",,html-keyboard-response,93,693169,0.0-13.0-1.10,92753,List1A,black,man,,,,null,,,,
null,is talking to,,html-keyboard-response,94,695171,0.0-13.0-2.10,92753,List1A,black,man,,,,null,,,,
16191,,,survey-text,95,711363,0.0-13.0-3.10,92753,List1A,black,man,,,,,"{""Q0"":""jane and beth is talking to""}","<img src=""stim_listA/talk7.gif""</stim_listA>",is talking to,
null,"<div style=""font-size:60px;"">+</div>",,html-keyboard-response,96,711869,0.0-13.0-0.11,92753,List1A,black,man,,,,null,,,,
null,"<img src=""stim_listA/hug6.gif""</stim_listA>",,html-keyboard-response,97,713879,0.0-13.0-1.11,92753,List1A,black,man,,,,null,,,,
null,are hugging each other,,html-keyboard-response,98,715896,0.0-13.0-2.11,92753,List1A,black,man,,,,null,,,,
9450,,,survey-text,99,725347,0.0-13.0-3.11,92753,List1A,black,man,,,,,"{""Q0"":""mike and dave are hugging eachother""}","<img src=""stim_listA/hug6.gif""</stim_listA>",are hugging each other,
null,"<div style=""font-size:60px;"">+</div>",,html-keyboard-response,100,725849,0.0-13.0-0.12,92753,List1A,black,man,,,,null,,,,
null,"<img src=""stim_listA/touch2.gif""</stim_listA>",,html-keyboard-response,101,727858,0.0-13.0-1.12,92753,List1A,black,man,,,,null,,,,
null,are touching each other,,html-keyboard-response,102,729872,0.0-13.0-2.12,92753,List1A,black,man,,,,null,,,,
12261,,,survey-text,103,742135,0.0-13.0-3.12,92753,List1A,black,man,,,,,"{""Q0"":""beth and fred are touching eachother""}","<img src=""stim_listA/touch2.gif""</stim_listA>",are touching each other,
null,"<div style=""font-size:60px;"">+</div>",,html-keyboard-response,104,742646,0.0-13.0-0.13,92753,List1A,black,man,,,,null,,,,
null,"<img src=""stim_listA/kiss3.gif""</stim_listA>",,html-keyboard-response,105,744650,0.0-13.0-1.13,92753,List1A,black,man,,,,null,,,,
null,is kissing,,html-keyboard-response,106,746666,0.0-13.0-2.13,92753,List1A,black,man,,,,null,,,,
24435,,,survey-text,107,771103,0.0-13.0-3.13,92753,List1A,black,man,,,,,"{""Q0"":""luke and ruth is kissing""}","<img src=""stim_listA/kiss3.gif""</stim_listA>",is kissing,
null,"<div style=""font-size:60px;"">+</div>",,html-keyboard-response,108,771613,0.0-13.0-0.14,92753,List1A,black,man,,,,null,,,,
null,"<img src=""stim_listA/meet5.gif""</stim_listA>",,html-keyboard-response,109,773622,0.0-13.0-1.14,92753,List1A,black,man,,,,null,,,,
null,is meeting,,html-keyboard-response,110,775638,0.0-13.0-2.14,92753,List1A,black,man,,,,null,,,,
5911,,,survey-text,111,781550,0.0-13.0-3.14,92753,List1A,black,man,,,,,"{""Q0"":""mike and dave is meeting""}","<img src=""stim_listA/meet5.gif""</stim_listA>",is meeting,
null,"<div style=""font-size:60px;"">+</div>",,html-keyboard-response,112,782057,0.0-13.0-0.15,92753,List1A,black,man,,,,null,,,,
null,"<img src=""stim_listA/fight6.gif""</stim_listA>",,html-keyboard-response,113,784069,0.0-13.0-1.15,92753,List1A,black,man,,,,null,,,,
null,are fighting each other,,html-keyboard-response,114,786071,0.0-13.0-2.15,92753,List1A,black,man,,,,null,,,,
15431,,,survey-text,115,801503,0.0-13.0-3.15,92753,List1A,black,man,,,,,"{""Q0"":""luke and fred are fighting each other""}","<img src=""stim_listA/fight6.gif""</stim_listA>",are fighting each other,
null,"<div style=""font-size:60px;"">+</div>",,html-keyboard-response,116,802009,0.0-13.0-0.16,92753,List1A,black,man,,,,null,,,,
null,"<img src=""stim_listA/fight5.gif""</stim_listA>",,html-keyboard-response,117,804021,0.0-13.0-1.16,92753,List1A,black,man,,,,null,,,,
null,is fighting,,html-keyboard-response,118,806035,0.0-13.0-2.16,92753,List1A,black,man,,,,null,,,,
7099,,,survey-text,119,813135,0.0-13.0-3.16,92753,List1A,black,man,,,,,"{""Q0"":""mike and dave is fighting""}","<img src=""stim_listA/fight5.gif""</stim_listA>",is fighting,
null,"<div style=""font-size:60px;"">+</div>",,html-keyboard-response,120,813637,0.0-13.0-0.17,92753,List1A,black,man,,,,null,,,,
null,"<img src=""stim_listA/dance3.gif""</stim_listA>",,html-keyboard-response,121,815640,0.0-13.0-1.17,92753,List1A,black,man,,,,null,,,,
null,is dancing with,,html-keyboard-response,122,817657,0.0-13.0-2.17,92753,List1A,black,man,,,,null,,,,
15437,,,survey-text,123,833095,0.0-13.0-3.17,92753,List1A,black,man,,,,,"{""Q0"":""luke and jane is dancing with""}","<img src=""stim_listA/dance3.gif""</stim_listA>",is dancing with,
null,"<div style=""font-size:60px;"">+</div>",,html-keyboard-response,124,833605,0.0-13.0-0.18,92753,List1A,black,man,,,,null,,,,
null,"<img src=""stim_listA/talk8.gif""</stim_listA>",,html-keyboard-response,125,835617,0.0-13.0-1.18,92753,List1A,black,man,,,,null,,,,
null,are talking to each other,,html-keyboard-response,126,837632,0.0-13.0-2.18,92753,List1A,black,man,,,,null,,,,
17635,,,survey-text,127,855270,0.0-13.0-3.18,92753,List1A,black,man,,,,,"{""Q0"":""kate and ruth is talking""}","<img src=""stim_listA/talk8.gif""</stim_listA>",are talking to each other,
null,"<div style=""font-size:60px;"">+</div>",,html-keyboard-response,128,855772,0.0-13.0-0.19,92753,List1A,black,man,,,,null,,,,
null,"<img src=""stim_listA/argue8.gif""</stim_listA>",,html-keyboard-response,129,857785,0.0-13.0-1.19,92753,List1A,black,man,,,,null,,,,
null,are arguing with each other,,html-keyboard-response,130,859799,0.0-13.0-2.19,92753,List1A,black,man,,,,null,,,,
31693,,,survey-text,131,891493,0.0-13.0-3.19,92753,List1A,black,man,,,,,"{""Q0"":""jane and beth are arguing""}","<img src=""stim_listA/argue8.gif""</stim_listA>",are arguing with each other,
38707,"<img src='img/portrait_matrix_list1.JPG' style='width:900px;height:500px;''></img><p>If you have memorised all the portraits and names and are ready to start, press Continue.</p><p><strong>Please note: Your memory of these faces will be tested 4 times during this experiment.</strong></p>",0,html-button-response,132,930202,0.0-14.0-0.0,92753,List1A,black,man,,,,,,,,
5130,"<img src=""portrait/WW1.jpg""style=""width:400px;height:400px;""></img>",1,html-button-response,133,936338,0.0-14.0-1.0,92753,List1A,black,man,,TRUE,1,,,,,
null,CORRECT,,html-keyboard-response,134,937842,0.0-14.0-2.0-0.0,92753,List1A,black,man,,,,null,,,,
3213,"<img src=""portrait/BM2.jpg""style=""width:400px;height:400px;""></img>",5,html-button-response,135,941058,0.0-14.0-4.0,92753,List1A,black,man,,TRUE,5,,,,,
null,CORRECT,,html-keyboard-response,136,942581,0.0-14.0-5.0-0.0,92753,List1A,black,man,,,,null,,,,
2090,"<img src=""portrait/WW2.jpg""style=""width:400px;height:400px;""></img>",3,html-button-response,137,944674,0.0-14.0-7.0,92753,List1A,black,man,,TRUE,3,,,,,
null,CORRECT,,html-keyboard-response,138,946200,0.0-14.0-8.0-0.0,92753,List1A,black,man,,,,null,,,,
3087,"<img src=""portrait/BM1.jpg""style=""width:400px;height:400px;""></img>",4,html-button-response,139,949290,0.0-14.0-10.0,92753,List1A,black,man,,TRUE,4,,,,,
null,CORRECT,,html-keyboard-response,140,950815,0.0-14.0-11.0-0.0,92753,List1A,black,man,,,,null,,,,
6872,"<img src=""portrait/BW1.jpg""style=""width:400px;height:400px;""></img>",0,html-button-response,141,957690,0.0-14.0-13.0,92753,List1A,black,man,,TRUE,0,,,,,
null,CORRECT,,html-keyboard-response,142,959212,0.0-14.0-14.0-0.0,92753,List1A,black,man,,,,null,,,,
5354,"<img src=""portrait/WM1.jpg""style=""width:400px;height:400px;""></img>",6,html-button-response,143,964570,0.0-14.0-16.0,92753,List1A,black,man,,TRUE,6,,,,,
null,CORRECT,,html-keyboard-response,144,966079,0.0-14.0-17.0-0.0,92753,List1A,black,man,,,,null,,,,
1480,"<img src=""portrait/WM2.jpg""style=""width:400px;height:400px;""></img>",7,html-button-response,145,967562,0.0-14.0-19.0,92753,List1A,black,man,,TRUE,7,,,,,
null,CORRECT,,html-keyboard-response,146,969094,0.0-14.0-20.0-0.0,92753,List1A,black,man,,,,null,,,,
1410,"<img src=""portrait/BW2.jpg""style=""width:400px;height:400px;""></img>",2,html-button-response,147,970506,0.0-14.0-22.0,92753,List1A,black,man,,TRUE,2,,,,,
null,CORRECT,,html-keyboard-response,148,972027,0.0-14.0-23.0-0.0,92753,List1A,black,man,,,,null,,,,
1173,<p>You got 8 out of 8 right first time. Press Continue.</p>,0,html-button-response,149,973202,0.0-14.0-25.0,92753,List1A,black,man,,,,,,,,
null,"<div style=""font-size:60px;"">+</div>",,html-keyboard-response,150,974726,0.0-15.0-0.0,92753,List1A,black,man,,,,null,,,,
null,"<img src=""stim_listA/marry7.gif""</stim_listA>",,html-keyboard-response,151,976736,0.0-15.0-1.0,92753,List1A,black,man,,,,null,,,,
null,is marrying,,html-keyboard-response,152,978750,0.0-15.0-2.0,92753,List1A,black,man,,,,null,,,,
23352,,,survey-text,153,1002105,0.0-15.0-3.0,92753,List1A,black,man,,,,,"{""Q0"":""kate and ruth is marrying""}","<img src=""stim_listA/marry7.gif""</stim_listA>",is marrying,
null,"<div style=""font-size:60px;"">+</div>",,html-keyboard-response,154,1002614,0.0-15.0-0.1,92753,List1A,black,man,,,,null,,,,
null,"<img src=""stim_listA/shout6.gif""</stim_listA>",,html-keyboard-response,155,1004631,0.0-15.0-1.1,92753,List1A,black,man,,,,null,,,,
null,are shouting at each other,,html-keyboard-response,156,1006645,0.0-15.0-2.1,92753,List1A,black,man,,,,null,,,,
19642,,,survey-text,157,1026289,0.0-15.0-3.1,92753,List1A,black,man,,,,,"{""Q0"":""mike and dave are shouting at eachother""}","<img src=""stim_listA/shout6.gif""</stim_listA>",are shouting at each other,
null,"<div style=""font-size:60px;"">+</div>",,html-keyboard-response,158,1026804,0.0-15.0-0.2,92753,List1A,black,man,,,,null,,,,
null,"<img src=""stim_listA/meet3.gif""</stim_listA>",,html-keyboard-response,159,1028820,0.0-15.0-1.2,92753,List1A,black,man,,,,null,,,,
null,is meeting,,html-keyboard-response,160,1030823,0.0-15.0-2.2,92753,List1A,black,man,,,,null,,,,
8008,,,survey-text,161,1038832,0.0-15.0-3.2,92753,List1A,black,man,,,,,"{""Q0"":""dave and jane is meeting""}","<img src=""stim_listA/meet3.gif""</stim_listA>",is meeting,
null,"<div style=""font-size:60px;"">+</div>",,html-keyboard-response,162,1039340,0.0-15.0-0.3,92753,List1A,black,man,,,,null,,,,
null,"<img src=""stim_listA/marry4.gif""</stim_listA>",,html-keyboard-response,163,1041343,0.0-15.0-1.3,92753,List1A,black,man,,,,null,,,,
null,are marrying each other,,html-keyboard-response,164,1043353,0.0-15.0-2.3,92753,List1A,black,man,,,,null,,,,
7467,,,survey-text,165,1050821,0.0-15.0-3.3,92753,List1A,black,man,,,,,"{""Q0"":""jane and luke""}","<img src=""stim_listA/marry4.gif""</stim_listA>",are marrying each other,
null,"<div style=""font-size:60px;"">+</div>",,html-keyboard-response,166,1051334,0.0-15.0-0.4,92753,List1A,black,man,,,,null,,,,
null,"<img src=""stim_listA/fight7.gif""</stim_listA>",,html-keyboard-response,167,1053346,0.0-15.0-1.4,92753,List1A,black,man,,,,null,,,,
null,is fighting,,html-keyboard-response,168,1055348,0.0-15.0-2.4,92753,List1A,black,man,,,,null,,,,
6480,,,survey-text,169,1061829,0.0-15.0-3.4,92753,List1A,black,man,,,,,"{""Q0"":""jane and kate is fighting""}","<img src=""stim_listA/fight7.gif""</stim_listA>",is fighting,
null,"<div style=""font-size:60px;"">+</div>",,html-keyboard-response,170,1062331,0.0-15.0-0.5,92753,List1A,black,man,,,,null,,,,
null,"<img src=""stim_listA/argue2.gif""</stim_listA>",,html-keyboard-response,171,1064334,0.0-15.0-1.5,92753,List1A,black,man,,,,null,,,,
null,are arguing with each other,,html-keyboard-response,172,1066336,0.0-15.0-2.5,92753,List1A,black,man,,,,null,,,,
9859,,,survey-text,173,1076197,0.0-15.0-3.5,92753,List1A,black,man,,,,,"{""Q0"":""kate and fred are arguing with each other""}","<img src=""stim_listA/argue2.gif""</stim_listA>",are arguing with each other,
null,"<div style=""font-size:60px;"">+</div>",,html-keyboard-response,174,1076704,0.0-15.0-0.6,92753,List1A,black,man,,,,null,,,,
null,"<img src=""stim_listA/touch6.gif""</stim_listA>",,html-keyboard-response,175,1078719,0.0-15.0-1.6,92753,List1A,black,man,,,,null,,,,
null,are touching each other,,html-keyboard-response,176,1080721,0.0-15.0-2.6,92753,List1A,black,man,,,,null,,,,
9539,,,survey-text,177,1090261,0.0-15.0-3.6,92753,List1A,black,man,,,,,"{""Q0"":""fred and luke""}","<img src=""stim_listA/touch6.gif""</stim_listA>",are touching each other,
null,"<div style=""font-size:60px;"">+</div>",,html-keyboard-response,178,1090767,0.0-15.0-0.7,92753,List1A,black,man,,,,null,,,,
null,"<img src=""stim_listA/meet4.gif""</stim_listA>",,html-keyboard-response,179,1092785,0.0-15.0-1.7,92753,List1A,black,man,,,,null,,,,
null,are meeting each other,,html-keyboard-response,180,1094800,0.0-15.0-2.7,92753,List1A,black,man,,,,null,,,,
13307,,,survey-text,181,1108109,0.0-15.0-3.7,92753,List1A,black,man,,,,,"{""Q0"":""luke and ruth are meeting each other""}","<img src=""stim_listA/meet4.gif""</stim_listA>",are meeting each other,
null,"<div style=""font-size:60px;"">+</div>",,html-keyboard-response,182,1108619,0.0-15.0-0.8,92753,List1A,black,man,,,,null,,,,
null,"<img src=""stim_listA/touch3.gif""</stim_listA>",,html-keyboard-response,183,1110622,0.0-15.0-1.8,92753,List1A,black,man,,,,null,,,,
null,is touching,,html-keyboard-response,184,1112630,0.0-15.0-2.8,92753,List1A,black,man,,,,null,,,,
7348,,,survey-text,185,1119979,0.0-15.0-3.8,92753,List1A,black,man,,,,,"{""Q0"":""jane and dave is touching""}","<img src=""stim_listA/touch3.gif""</stim_listA>",is touching,
null,"<div style=""font-size:60px;"">+</div>",,html-keyboard-response,186,1120488,0.0-15.0-0.9,92753,List1A,black,man,,,,null,,,,
null,"<img src=""stim_listA/argue5.gif""</stim_listA>",,html-keyboard-response,187,1122494,0.0-15.0-1.9,92753,List1A,black,man,,,,null,,,,
null,is arguing with,,html-keyboard-response,188,1124510,0.0-15.0-2.9,92753,List1A,black,man,,,,null,,,,
7707,,,survey-text,189,1132219,0.0-15.0-3.9,92753,List1A,black,man,,,,,"{""Q0"":""mike and luke is arguing""}","<img src=""stim_listA/argue5.gif""</stim_listA>",is arguing with,
null,"<div style=""font-size:60px;"">+</div>",,html-keyboard-response,190,1132733,0.0-15.0-0.10,92753,List1A,black,man,,,,null,,,,
null,"<img src=""stim_listA/hug4.gif""</stim_listA>",,html-keyboard-response,191,1134742,0.0-15.0-1.10,92753,List1A,black,man,,,,null,,,,
null,are hugging each other,,html-keyboard-response,192,1136743,0.0-15.0-2.10,92753,List1A,black,man,,,,null,,,,
10754,,,survey-text,193,1147499,0.0-15.0-3.10,92753,List1A,black,man,,,,,"{""Q0"":""dave and jane are hugging each other""}","<img src=""stim_listA/hug4.gif""</stim_listA>",are hugging each other,
null,"<div style=""font-size:60px;"">+</div>",,html-keyboard-response,194,1148001,0.0-15.0-0.11,92753,List1A,black,man,,,,null,,,,
null,"<img src=""stim_listA/kiss1.gif""</stim_listA>",,html-keyboard-response,195,1150016,0.0-15.0-1.11,92753,List1A,black,man,,,,null,,,,
null,is kissing,,html-keyboard-response,196,1152031,0.0-15.0-2.11,92753,List1A,black,man,,,,null,,,,
11274,,,survey-text,197,1163307,0.0-15.0-3.11,92753,List1A,black,man,,,,,"{""Q0"":""fred and beth is kissing""}","<img src=""stim_listA/kiss1.gif""</stim_listA>",is kissing,
null,"<div style=""font-size:60px;"">+</div>",,html-keyboard-response,198,1163808,0.0-15.0-0.12,92753,List1A,black,man,,,,null,,,,
null,"<img src=""stim_listA/marry2.gif""</stim_listA>",,html-keyboard-response,199,1165810,0.0-15.0-1.12,92753,List1A,black,man,,,,null,,,,
null,are marrying each other,,html-keyboard-response,200,1167812,0.0-15.0-2.12,92753,List1A,black,man,,,,null,,,,
13225,,,survey-text,201,1181038,0.0-15.0-3.12,92753,List1A,black,man,,,,,"{""Q0"":""kate and fred are marrying each other""}","<img src=""stim_listA/marry2.gif""</stim_listA>",are marrying each other,
null,"<div style=""font-size:60px;"">+</div>",,html-keyboard-response,202,1181548,0.0-15.0-0.13,92753,List1A,black,man,,,,null,,,,
null,"<img src=""stim_listA/hug5.gif""</stim_listA>",,html-keyboard-response,203,1183563,0.0-15.0-1.13,92753,List1A,black,man,,,,null,,,,
null,is hugging,,html-keyboard-response,204,1185578,0.0-15.0-2.13,92753,List1A,black,man,,,,null,,,,
8777,,,survey-text,205,1194358,0.0-15.0-3.13,92753,List1A,black,man,,,,,"{""Q0"":""fred and luke is hugging""}","<img src=""stim_listA/hug5.gif""</stim_listA>",is hugging,
null,"<div style=""font-size:60px;"">+</div>",,html-keyboard-response,206,1194870,0.0-15.0-0.14,92753,List1A,black,man,,,,null,,,,
null,"<img src=""stim_listA/fight1.gif""</stim_listA>",,html-keyboard-response,207,1196882,0.0-15.0-1.14,92753,List1A,black,man,,,,null,,,,
null,is fighting,,html-keyboard-response,208,1198884,0.0-15.0-2.14,92753,List1A,black,man,,,,null,,,,
9008,,,survey-text,209,1207894,0.0-15.0-3.14,92753,List1A,black,man,,,,,"{""Q0"":""mike and kate is fighting""}","<img src=""stim_listA/fight1.gif""</stim_listA>",is fighting,
null,"<div style=""font-size:60px;"">+</div>",,html-keyboard-response,210,1208399,0.0-15.0-0.15,92753,List1A,black,man,,,,null,,,,
null,"<img src=""stim_listA/touch5.gif""</stim_listA>",,html-keyboard-response,211,1210402,0.0-15.0-1.15,92753,List1A,black,man,,,,null,,,,
null,is touching,,html-keyboard-response,212,1212414,0.0-15.0-2.15,92753,List1A,black,man,,,,null,,,,
10318,,,survey-text,213,1222734,0.0-15.0-3.15,92753,List1A,black,man,,,,,"{""Q0"":""mike and dave is touching""}","<img src=""stim_listA/touch5.gif""</stim_listA>",is touching,
null,"<div style=""font-size:60px;"">+</div>",,html-keyboard-response,214,1223243,0.0-15.0-0.16,92753,List1A,black,man,,,,null,,,,
null,"<img src=""stim_listA/touch4.gif""</stim_listA>",,html-keyboard-response,215,1225254,0.0-15.0-1.16,92753,List1A,black,man,,,,null,,,,
null,are touching each other,,html-keyboard-response,216,1227268,0.0-15.0-2.16,92753,List1A,black,man,,,,null,,,,
20119,,,survey-text,217,1247389,0.0-15.0-3.16,92753,List1A,black,man,,,,,"{""Q0"":""luke and ruth is meeting""}","<img src=""stim_listA/touch4.gif""</stim_listA>",are touching each other,
null,"<div style=""font-size:60px;"">+</div>",,html-keyboard-response,218,1247895,0.0-15.0-0.17,92753,List1A,black,man,,,,null,,,,
null,"<img src=""stim_listA/dance1.gif""</stim_listA>",,html-keyboard-response,219,1249906,0.0-15.0-1.17,92753,List1A,black,man,,,,null,,,,
null,is dancing with,,html-keyboard-response,220,1251919,0.0-15.0-2.17,92753,List1A,black,man,,,,null,,,,
7236,,,survey-text,221,1259157,0.0-15.0-3.17,92753,List1A,black,man,,,,,"{""Q0"":""kate and fred is dancing""}","<img src=""stim_listA/dance1.gif""</stim_listA>",is dancing with,
null,"<div style=""font-size:60px;"">+</div>",,html-keyboard-response,222,1259658,0.0-15.0-0.18,92753,List1A,black,man,,,,null,,,,
null,"<img src=""stim_listA/hug7.gif""</stim_listA>",,html-keyboard-response,223,1261671,0.0-15.0-1.18,92753,List1A,black,man,,,,null,,,,
null,is hugging,,html-keyboard-response,224,1263684,0.0-15.0-2.18,92753,List1A,black,man,,,,null,,,,
15998,,,survey-text,225,1279685,0.0-15.0-3.18,92753,List1A,black,man,,,,,"{""Q0"":""beth and ruth is hugging""}","<img src=""stim_listA/hug7.gif""</stim_listA>",is hugging,
null,"<div style=""font-size:60px;"">+</div>",,html-keyboard-response,226,1280199,0.0-15.0-0.19,92753,List1A,black,man,,,,null,,,,
null,"<img src=""stim_listA/fight2.gif""</stim_listA>",,html-keyboard-response,227,1282201,0.0-15.0-1.19,92753,List1A,black,man,,,,null,,,,
null,are fighting each other,,html-keyboard-response,228,1284215,0.0-15.0-2.19,92753,List1A,black,man,,,,null,,,,
16664,,,survey-text,229,1300882,0.0-15.0-3.19,92753,List1A,black,man,,,,,"{""Q0"":""fred and beth is fighting each other""}","<img src=""stim_listA/fight2.gif""</stim_listA>",are fighting each other,
14871,"<img src='img/portrait_matrix_list1.JPG' style='width:900px;height:500px;''></img><p>If you have memorised all the portraits and names and are ready to start, press Continue.</p><p><strong>Please note: Your memory of these faces will be tested 4 times during this experiment.</strong></p>",0,html-button-response,230,1315754,0.0-16.0-0.0,92753,List1A,black,man,,,,,,,,
4609,"<img src=""portrait/BM1.jpg""style=""width:400px;height:400px;""></img>",4,html-button-response,231,1321378,0.0-16.0-1.0,92753,List1A,black,man,,TRUE,4,,,,,
null,CORRECT,,html-keyboard-response,232,1322895,0.0-16.0-2.0-0.0,92753,List1A,black,man,,,,null,,,,
1472,"<img src=""portrait/WM2.jpg""style=""width:400px;height:400px;""></img>",7,html-button-response,233,1324370,0.0-16.0-4.0,92753,List1A,black,man,,TRUE,7,,,,,
null,CORRECT,,html-keyboard-response,234,1325893,0.0-16.0-5.0-0.0,92753,List1A,black,man,,,,null,,,,
6122,"<img src=""portrait/WW1.jpg""style=""width:400px;height:400px;""></img>",1,html-button-response,235,1332018,0.0-16.0-7.0,92753,List1A,black,man,,TRUE,1,,,,,
null,CORRECT,,html-keyboard-response,236,1333527,0.0-16.0-8.0-0.0,92753,List1A,black,man,,,,null,,,,
2552,"<img src=""portrait/WW2.jpg""style=""width:400px;height:400px;""></img>",3,html-button-response,237,1336082,0.0-16.0-10.0,92753,List1A,black,man,,TRUE,3,,,,,
null,CORRECT,,html-keyboard-response,238,1337616,0.0-16.0-11.0-0.0,92753,List1A,black,man,,,,null,,,,
1639,"<img src=""portrait/BW1.jpg""style=""width:400px;height:400px;""></img>",0,html-button-response,239,1339258,0.0-16.0-13.0,92753,List1A,black,man,,TRUE,0,,,,,
null,CORRECT,,html-keyboard-response,240,1340773,0.0-16.0-14.0-0.0,92753,List1A,black,man,,,,null,,,,
1826,"<img src=""portrait/WM1.jpg""style=""width:400px;height:400px;""></img>",6,html-button-response,241,1342602,0.0-16.0-16.0,92753,List1A,black,man,,TRUE,6,,,,,
null,CORRECT,,html-keyboard-response,242,1344139,0.0-16.0-17.0-0.0,92753,List1A,black,man,,,,null,,,,
2604,"<img src=""portrait/BM2.jpg""style=""width:400px;height:400px;""></img>",5,html-button-response,243,1346746,0.0-16.0-19.0,92753,List1A,black,man,,TRUE,5,,,,,
null,CORRECT,,html-keyboard-response,244,1348272,0.0-16.0-20.0-0.0,92753,List1A,black,man,,,,null,,,,
936,"<img src=""portrait/BW2.jpg""style=""width:400px;height:400px;""></img>",2,html-button-response,245,1349209,0.0-16.0-22.0,92753,List1A,black,man,,TRUE,2,,,,,
null,CORRECT,,html-keyboard-response,246,1350721,0.0-16.0-23.0-0.0,92753,List1A,black,man,,,,null,,,,
1079,<p>You got 8 out of 8 right first time. Press Continue.</p>,0,html-button-response,247,1351801,0.0-16.0-25.0,92753,List1A,black,man,,,,,,,,
null,"<div style=""font-size:60px;"">+</div>",,html-keyboard-response,248,1353309,0.0-17.0-0.0,92753,List1A,black,man,,,,null,,,,
null,"<img src=""stim_listA/shout3.gif""</stim_listA>",,html-keyboard-response,249,1355315,0.0-17.0-1.0,92753,List1A,black,man,,,,null,,,,
null,is shouting at,,html-keyboard-response,250,1357324,0.0-17.0-2.0,92753,List1A,black,man,,,,null,,,,
10245,,,survey-text,251,1367570,0.0-17.0-3.0,92753,List1A,black,man,,,,,"{""Q0"":""luke and ruth is shouting at each other""}","<img src=""stim_listA/shout3.gif""</stim_listA>",is shouting at,
null,"<div style=""font-size:60px;"">+</div>",,html-keyboard-response,252,1368082,0.0-17.0-0.1,92753,List1A,black,man,,,,null,,,,
null,"<img src=""stim_listA/argue6.gif""</stim_listA>",,html-keyboard-response,253,1370089,0.0-17.0-1.1,92753,List1A,black,man,,,,null,,,,
null,are arguing with each other,,html-keyboard-response,254,1372099,0.0-17.0-2.1,92753,List1A,black,man,,,,null,,,,
16141,,,survey-text,255,1388241,0.0-17.0-3.1,92753,List1A,black,man,,,,,"{""Q0"":""dave and fred are arguing with eachother""}","<img src=""stim_listA/argue6.gif""</stim_listA>",are arguing with each other,
null,"<div style=""font-size:60px;"">+</div>",,html-keyboard-response,256,1388744,0.0-17.0-0.2,92753,List1A,black,man,,,,null,,,,
null,"<img src=""stim_listA/talk5.gif""</stim_listA>",,html-keyboard-response,257,1390750,0.0-17.0-1.2,92753,List1A,black,man,,,,null,,,,
null,is talking to,,html-keyboard-response,258,1392766,0.0-17.0-2.2,92753,List1A,black,man,,,,null,,,,
6970,,,survey-text,259,1399737,0.0-17.0-3.2,92753,List1A,black,man,,,,,"{""Q0"":""dave and fred is talking to""}","<img src=""stim_listA/talk5.gif""</stim_listA>",is talking to,
null,"<div style=""font-size:60px;"">+</div>",,html-keyboard-response,260,1400243,0.0-17.0-0.3,92753,List1A,black,man,,,,null,,,,
null,"<img src=""stim_listA/argue1.gif""</stim_listA>",,html-keyboard-response,261,1402248,0.0-17.0-1.3,92753,List1A,black,man,,,,null,,,,
null,is arguing with,,html-keyboard-response,262,1404263,0.0-17.0-2.3,92753,List1A,black,man,,,,null,,,,
7601,,,survey-text,263,1411865,0.0-17.0-3.3,92753,List1A,black,man,,,,,"{""Q0"":""mike and beth is arguing with""}","<img src=""stim_listA/argue1.gif""</stim_listA>",is arguing with,
null,"<div style=""font-size:60px;"">+</div>",,html-keyboard-response,264,1412370,0.0-17.0-0.4,92753,List1A,black,man,,,,null,,,,
null,"<img src=""stim_listA/marry8.gif""</stim_listA>",,html-keyboard-response,265,1414377,0.0-17.0-1.4,92753,List1A,black,man,,,,null,,,,
null,are marrying each other,,html-keyboard-response,266,1416385,0.0-17.0-2.4,92753,List1A,black,man,,,,null,,,,
9663,,,survey-text,267,1426049,0.0-17.0-3.4,92753,List1A,black,man,,,,,"{""Q0"":""jane and beth are marrying each other""}","<img src=""stim_listA/marry8.gif""</stim_listA>",are marrying each other,
null,"<div style=""font-size:60px;"">+</div>",,html-keyboard-response,268,1426565,0.0-17.0-0.5,92753,List1A,black,man,,,,null,,,,
null,"<img src=""stim_listA/touch7.gif""</stim_listA>",,html-keyboard-response,269,1428568,0.0-17.0-1.5,92753,List1A,black,man,,,,null,,,,
null,is touching,,html-keyboard-response,270,1430585,0.0-17.0-2.5,92753,List1A,black,man,,,,null,,,,
5927,,,survey-text,271,1436513,0.0-17.0-3.5,92753,List1A,black,man,,,,,"{""Q0"":""kate and jane is touching""}","<img src=""stim_listA/touch7.gif""</stim_listA>",is touching,
null,"<div style=""font-size:60px;"">+</div>",,html-keyboard-response,272,1437022,0.0-17.0-0.6,92753,List1A,black,man,,,,null,,,,
null,"<img src=""stim_listA/shout8.gif""</stim_listA>",,html-keyboard-response,273,1439028,0.0-17.0-1.6,92753,List1A,black,man,,,,null,,,,
null,are shouting at each other,,html-keyboard-response,274,1441030,0.0-17.0-2.6,92753,List1A,black,man,,,,null,,,,
11914,,,survey-text,275,1452945,0.0-17.0-3.6,92753,List1A,black,man,,,,,"{""Q0"":""kate and jane are shouting at each other""}","<img src=""stim_listA/shout8.gif""</stim_listA>",are shouting at each other,
null,"<div style=""font-size:60px;"">+</div>",,html-keyboard-response,276,1453449,0.0-17.0-0.7,92753,List1A,black,man,,,,null,,,,
null,"<img src=""stim_listA/shout1.gif""</stim_listA>",,html-keyboard-response,277,1455454,0.0-17.0-1.7,92753,List1A,black,man,,,,null,,,,
null,is shouting at,,html-keyboard-response,278,1457456,0.0-17.0-2.7,92753,List1A,black,man,,,,null,,,,
6608,,,survey-text,279,1464065,0.0-17.0-3.7,92753,List1A,black,man,,,,,"{""Q0"":""fred and beth is shouting at""}","<img src=""stim_listA/shout1.gif""</stim_listA>",is shouting at,
null,"<div style=""font-size:60px;"">+</div>",,html-keyboard-response,280,1464582,0.0-17.0-0.8,92753,List1A,black,man,,,,null,,,,
null,"<img src=""stim_listA/dance8.gif""</stim_listA>",,html-keyboard-response,281,1466594,0.0-17.0-1.8,92753,List1A,black,man,,,,null,,,,
null,are dancing with each other,,html-keyboard-response,282,1468597,0.0-17.0-2.8,92753,List1A,black,man,,,,null,,,,
9847,,,survey-text,283,1478445,0.0-17.0-3.8,92753,List1A,black,man,,,,,"{""Q0"":""kate and ruth is dancing""}","<img src=""stim_listA/dance8.gif""</stim_listA>",are dancing with each other,
null,"<div style=""font-size:60px;"">+</div>",,html-keyboard-response,284,1478954,0.0-17.0-0.9,92753,List1A,black,man,,,,null,,,,
null,"<img src=""stim_listA/fight4.gif""</stim_listA>",,html-keyboard-response,285,1480956,0.0-17.0-1.9,92753,List1A,black,man,,,,null,,,,
null,are fighting each other,,html-keyboard-response,286,1482969,0.0-17.0-2.9,92753,List1A,black,man,,,,null,,,,
10202,,,survey-text,287,1493173,0.0-17.0-3.9,92753,List1A,black,man,,,,,"{""Q0"":""ruth and luke are fighting each other""}","<img src=""stim_listA/fight4.gif""</stim_listA>",are fighting each other,
null,"<div style=""font-size:60px;"">+</div>",,html-keyboard-response,288,1493684,0.0-17.0-0.10,92753,List1A,black,man,,,,null,,,,
null,"<img src=""stim_listA/dance5.gif""</stim_listA>",,html-keyboard-response,289,1495696,0.0-17.0-1.10,92753,List1A,black,man,,,,null,,,,
null,is dancing with,,html-keyboard-response,290,1497710,0.0-17.0-2.10,92753,List1A,black,man,,,,null,,,,
8989,,,survey-text,291,1506701,0.0-17.0-3.10,92753,List1A,black,man,,,,,"{""Q0"":""fred and dave is dancing with""}","<img src=""stim_listA/dance5.gif""</stim_listA>",is dancing with,
null,"<div style=""font-size:60px;"">+</div>",,html-keyboard-response,292,1507214,0.0-17.0-0.11,92753,List1A,black,man,,,,null,,,,
null,"<img src=""stim_listA/marry5.gif""</stim_listA>",,html-keyboard-response,293,1509228,0.0-17.0-1.11,92753,List1A,black,man,,,,null,,,,
null,is marrying,,html-keyboard-response,294,1511242,0.0-17.0-2.11,92753,List1A,black,man,,,,null,,,,
7312,,,survey-text,295,1518557,0.0-17.0-3.11,92753,List1A,black,man,,,,,"{""Q0"":""mike and luke is marrying""}","<img src=""stim_listA/marry5.gif""</stim_listA>",is marrying,
null,"<div style=""font-size:60px;"">+</div>",,html-keyboard-response,296,1519062,0.0-17.0-0.12,92753,List1A,black,man,,,,null,,,,
null,"<img src=""stim_listA/shout2.gif""</stim_listA>",,html-keyboard-response,297,1521071,0.0-17.0-1.12,92753,List1A,black,man,,,,null,,,,
null,are shouting at each other,,html-keyboard-response,298,1523073,0.0-17.0-2.12,92753,List1A,black,man,,,,null,,,,
12965,,,survey-text,299,1536040,0.0-17.0-3.12,92753,List1A,black,man,,,,,"{""Q0"":""kate and mike are shouting at each other""}","<img src=""stim_listA/shout2.gif""</stim_listA>",are shouting at each other,
null,"<div style=""font-size:60px;"">+</div>",,html-keyboard-response,300,1536551,0.0-17.0-0.13,92753,List1A,black,man,,,,null,,,,
null,"<img src=""stim_listA/fight8.gif""</stim_listA>",,html-keyboard-response,301,1538555,0.0-17.0-1.13,92753,List1A,black,man,,,,null,,,,
null,are fighting each other,,html-keyboard-response,302,1540562,0.0-17.0-2.13,92753,List1A,black,man,,,,null,,,,
8836,,,survey-text,303,1549400,0.0-17.0-3.13,92753,List1A,black,man,,,,,"{""Q0"":""beth and ruth are fighting each other""}","<img src=""stim_listA/fight8.gif""</stim_listA>",are fighting each other,
null,"<div style=""font-size:60px;"">+</div>",,html-keyboard-response,304,1549901,0.0-17.0-0.14,92753,List1A,black,man,,,,null,,,,
null,"<img src=""stim_listA/meet7.gif""</stim_listA>",,html-keyboard-response,305,1551916,0.0-17.0-1.14,92753,List1A,black,man,,,,null,,,,
null,is meeting,,html-keyboard-response,306,1553920,0.0-17.0-2.14,92753,List1A,black,man,,,,null,,,,
7004,,,survey-text,307,1560928,0.0-17.0-3.14,92753,List1A,black,man,,,,,"{""Q0"":""kate and jane is meeting""}","<img src=""stim_listA/meet7.gif""</stim_listA>",is meeting,
null,"<div style=""font-size:60px;"">+</div>",,html-keyboard-response,308,1561432,0.0-17.0-0.15,92753,List1A,black,man,,,,null,,,,
null,"<img src=""stim_listA/talk1.gif""</stim_listA>",,html-keyboard-response,309,1563448,0.0-17.0-1.15,92753,List1A,black,man,,,,null,,,,
null,is talking to,,html-keyboard-response,310,1565457,0.0-17.0-2.15,92753,List1A,black,man,,,,null,,,,
11133,,,survey-text,311,1576592,0.0-17.0-3.15,92753,List1A,black,man,,,,,"{""Q0"":""kate and fred is talking to""}","<img src=""stim_listA/talk1.gif""</stim_listA>",is talking to,
null,"<div style=""font-size:60px;"">+</div>",,html-keyboard-response,312,1577098,0.0-17.0-0.16,92753,List1A,black,man,,,,null,,,,
null,"<img src=""stim_listA/shout5.gif""</stim_listA>",,html-keyboard-response,313,1579107,0.0-17.0-1.16,92753,List1A,black,man,,,,null,,,,
null,is shouting at,,html-keyboard-response,314,1581109,0.0-17.0-2.16,92753,List1A,black,man,,,,null,,,,
11681,,,survey-text,315,1592792,0.0-17.0-3.16,92753,List1A,black,man,,,,,"{""Q0"":""fred and luke is shouting at""}","<img src=""stim_listA/shout5.gif""</stim_listA>",is shouting at,
null,"<div style=""font-size:60px;"">+</div>",,html-keyboard-response,316,1593293,0.0-17.0-0.17,92753,List1A,black,man,,,,null,,,,
null,"<img src=""stim_listA/meet1.gif""</stim_listA>",,html-keyboard-response,317,1595314,0.0-17.0-1.17,92753,List1A,black,man,,,,null,,,,
null,is meeting,,html-keyboard-response,318,1597324,0.0-17.0-2.17,92753,List1A,black,man,,,,null,,,,
6074,,,survey-text,319,1603400,0.0-17.0-3.17,92753,List1A,black,man,,,,,"{""Q0"":""mike and kate is meeting""}","<img src=""stim_listA/meet1.gif""</stim_listA>",is meeting,
null,"<div style=""font-size:60px;"">+</div>",,html-keyboard-response,320,1603914,0.0-17.0-0.18,92753,List1A,black,man,,,,null,,,,
null,"<img src=""stim_listA/shout7.gif""</stim_listA>",,html-keyboard-response,321,1605927,0.0-17.0-1.18,92753,List1A,black,man,,,,null,,,,
null,is shouting at,,html-keyboard-response,322,1607940,0.0-17.0-2.18,92753,List1A,black,man,,,,null,,,,
9699,,,survey-text,323,1617640,0.0-17.0-3.18,92753,List1A,black,man,,,,,"{""Q0"":""ruth and beth is shouting at""}","<img src=""stim_listA/shout7.gif""</stim_listA>",is shouting at,
null,"<div style=""font-size:60px;"">+</div>",,html-keyboard-response,324,1618145,0.0-17.0-0.19,92753,List1A,black,man,,,,null,,,,
null,"<img src=""stim_listA/argue7.gif""</stim_listA>",,html-keyboard-response,325,1620156,0.0-17.0-1.19,92753,List1A,black,man,,,,null,,,,
null,is arguing with,,html-keyboard-response,326,1622165,0.0-17.0-2.19,92753,List1A,black,man,,,,null,,,,
7425,,,survey-text,327,1629592,0.0-17.0-3.19,92753,List1A,black,man,,,,,"{""Q0"":""kate and ruth is arguing with""}","<img src=""stim_listA/argue7.gif""</stim_listA>",is arguing with,
6479,"<img src='img/portrait_matrix_list1.JPG' style='width:900px;height:500px;''></img><p>If you have memorised all the portraits and names and are ready to start, press Continue.</p><p><strong>Please note: Your memory of these faces will be tested 4 times during this experiment.</strong></p>",0,html-button-response,328,1636072,0.0-18.0-0.0,92753,List1A,black,man,,,,,,,,
2739,"<img src=""portrait/BW1.jpg""style=""width:400px;height:400px;""></img>",0,html-button-response,329,1639824,0.0-18.0-1.0,92753,List1A,black,man,,TRUE,0,,,,,
null,CORRECT,,html-keyboard-response,330,1641333,0.0-18.0-2.0-0.0,92753,List1A,black,man,,,,null,,,,
1514,"<img src=""portrait/BW2.jpg""style=""width:400px;height:400px;""></img>",2,html-button-response,331,1642848,0.0-18.0-4.0,92753,List1A,black,man,,TRUE,2,,,,,
null,CORRECT,,html-keyboard-response,332,1644356,0.0-18.0-5.0-0.0,92753,List1A,black,man,,,,null,,,,
1978,"<img src=""portrait/WW2.jpg""style=""width:400px;height:400px;""></img>",3,html-button-response,333,1646336,0.0-18.0-7.0,92753,List1A,black,man,,TRUE,3,,,,,
null,CORRECT,,html-keyboard-response,334,1647853,0.0-18.0-8.0-0.0,92753,List1A,black,man,,,,null,,,,
1642,"<img src=""portrait/WW1.jpg""style=""width:400px;height:400px;""></img>",1,html-button-response,335,1649496,0.0-18.0-10.0,92753,List1A,black,man,,TRUE,1,,,,,
null,CORRECT,,html-keyboard-response,336,1651018,0.0-18.0-11.0-0.0,92753,List1A,black,man,,,,null,,,,
2108,"<img src=""portrait/BM2.jpg""style=""width:400px;height:400px;""></img>",5,html-button-response,337,1653128,0.0-18.0-13.0,92753,List1A,black,man,,TRUE,5,,,,,
null,CORRECT,,html-keyboard-response,338,1654650,0.0-18.0-14.0-0.0,92753,List1A,black,man,,,,null,,,,
2101,"<img src=""portrait/WM1.jpg""style=""width:400px;height:400px;""></img>",6,html-button-response,339,1656753,0.0-18.0-16.0,92753,List1A,black,man,,TRUE,6,,,,,
null,CORRECT,,html-keyboard-response,340,1658257,0.0-18.0-17.0-0.0,92753,List1A,black,man,,,,null,,,,
1894,"<img src=""portrait/BM1.jpg""style=""width:400px;height:400px;""></img>",4,html-button-response,341,1660153,0.0-18.0-19.0,92753,List1A,black,man,,TRUE,4,,,,,
null,CORRECT,,html-keyboard-response,342,1661676,0.0-18.0-20.0-0.0,92753,List1A,black,man,,,,null,,,,
1667,"<img src=""portrait/WM2.jpg""style=""width:400px;height:400px;""></img>",7,html-button-response,343,1663345,0.0-18.0-22.0,92753,List1A,black,man,,TRUE,7,,,,,
null,CORRECT,,html-keyboard-response,344,1664858,0.0-18.0-23.0-0.0,92753,List1A,black,man,,,,null,,,,
981,<p>You got 8 out of 8 right first time. Press Continue.</p>,0,html-button-response,345,1665841,0.0-18.0-25.0,92753,List1A,black,man,,,,,,,,
null,"<div style=""font-size:60px;"">+</div>",,html-keyboard-response,346,1667358,0.0-19.0-0.0,92753,List1A,black,man,,,,null,,,,
null,"<img src=""stim_listA/hug8.gif""</stim_listA>",,html-keyboard-response,347,1669375,0.0-19.0-1.0,92753,List1A,black,man,,,,null,,,,
null,are hugging each other,,html-keyboard-response,348,1671392,0.0-19.0-2.0,92753,List1A,black,man,,,,null,,,,
15823,,,survey-text,349,1687217,0.0-19.0-3.0,92753,List1A,black,man,,,,,"{""Q0"":""jane and kate are hugging each other""}","<img src=""stim_listA/hug8.gif""</stim_listA>",are hugging each other,
null,"<div style=""font-size:60px;"">+</div>",,html-keyboard-response,350,1687726,0.0-19.0-0.1,92753,List1A,black,man,,,,null,,,,
null,"<img src=""stim_listA/talk3.gif""</stim_listA>",,html-keyboard-response,351,1689729,0.0-19.0-1.1,92753,List1A,black,man,,,,null,,,,
null,is talking to,,html-keyboard-response,352,1691730,0.0-19.0-2.1,92753,List1A,black,man,,,,null,,,,
9493,,,survey-text,353,1701225,0.0-19.0-3.1,92753,List1A,black,man,,,,,"{""Q0"":""luke and jane is talking to""}","<img src=""stim_listA/talk3.gif""</stim_listA>",is talking to,
null,"<div style=""font-size:60px;"">+</div>",,html-keyboard-response,354,1701733,0.0-19.0-0.2,92753,List1A,black,man,,,,null,,,,
null,"<img src=""stim_listA/meet2.gif""</stim_listA>",,html-keyboard-response,355,1703735,0.0-19.0-1.2,92753,List1A,black,man,,,,null,,,,
null,are meeting each other,,html-keyboard-response,356,1705739,0.0-19.0-2.2,92753,List1A,black,man,,,,null,,,,
12354,,,survey-text,357,1718095,0.0-19.0-3.2,92753,List1A,black,man,,,,,"{""Q0"":""beth and fred are meeting each other""}","<img src=""stim_listA/meet2.gif""</stim_listA>",are meeting each other,
null,"<div style=""font-size:60px;"">+</div>",,html-keyboard-response,358,1718605,0.0-19.0-0.3,92753,List1A,black,man,,,,null,,,,
null,"<img src=""stim_listA/kiss6.gif""</stim_listA>",,html-keyboard-response,359,1720620,0.0-19.0-1.3,92753,List1A,black,man,,,,null,,,,
null,are kissing each other,,html-keyboard-response,360,1722636,0.0-19.0-2.3,92753,List1A,black,man,,,,null,,,,
13593,,,survey-text,361,1736231,0.0-19.0-3.3,92753,List1A,black,man,,,,,"{""Q0"":""dave and mike are kissing each other""}","<img src=""stim_listA/kiss6.gif""</stim_listA>",are kissing each other,
null,"<div style=""font-size:60px;"">+</div>",,html-keyboard-response,362,1736738,0.0-19.0-0.4,92753,List1A,black,man,,,,null,,,,
null,"<img src=""stim_listA/touch1.gif""</stim_listA>",,html-keyboard-response,363,1738745,0.0-19.0-1.4,92753,List1A,black,man,,,,null,,,,
null,is touching,,html-keyboard-response,364,1740749,0.0-19.0-2.4,92753,List1A,black,man,,,,null,,,,
6449,,,survey-text,365,1747199,0.0-19.0-3.4,92753,List1A,black,man,,,,,"{""Q0"":""mike and kate is touching""}","<img src=""stim_listA/touch1.gif""</stim_listA>",is touching,
null,"<div style=""font-size:60px;"">+</div>",,html-keyboard-response,366,1747701,0.0-19.0-0.5,92753,List1A,black,man,,,,null,,,,
null,"<img src=""stim_listA/kiss4.gif""</stim_listA>",,html-keyboard-response,367,1749712,0.0-19.0-1.5,92753,List1A,black,man,,,,null,,,,
null,are kissing each other,,html-keyboard-response,368,1751727,0.0-19.0-2.5,92753,List1A,black,man,,,,null,,,,
11007,,,survey-text,369,1762735,0.0-19.0-3.5,92753,List1A,black,man,,,,,"{""Q0"":""jane and dave are kissing each other""}","<img src=""stim_listA/kiss4.gif""</stim_listA>",are kissing each other,
null,"<div style=""font-size:60px;"">+</div>",,html-keyboard-response,370,1763246,0.0-19.0-0.6,92753,List1A,black,man,,,,null,,,,
null,"<img src=""stim_listA/talk4.gif""</stim_listA>",,html-keyboard-response,371,1765248,0.0-19.0-1.6,92753,List1A,black,man,,,,null,,,,
null,are talking to each other,,html-keyboard-response,372,1767257,0.0-19.0-2.6,92753,List1A,black,man,,,,null,,,,
12014,,,survey-text,373,1779273,0.0-19.0-3.6,92753,List1A,black,man,,,,,"{""Q0"":""ruth and dave are talking to each other""}","<img src=""stim_listA/talk4.gif""</stim_listA>",are talking to each other,
null,"<div style=""font-size:60px;"">+</div>",,html-keyboard-response,374,1779785,0.0-19.0-0.7,92753,List1A,black,man,,,,null,,,,
null,"<img src=""stim_listA/talk2.gif""</stim_listA>",,html-keyboard-response,375,1781787,0.0-19.0-1.7,92753,List1A,black,man,,,,null,,,,
null,are talking to each other,,html-keyboard-response,376,1783790,0.0-19.0-2.7,92753,List1A,black,man,,,,null,,,,
16761,,,survey-text,377,1800553,0.0-19.0-3.7,92753,List1A,black,man,,,,,"{""Q0"":""beth and mike are talking to each other""}","<img src=""stim_listA/talk2.gif""</stim_listA>",are talking to each other,
null,"<div style=""font-size:60px;"">+</div>",,html-keyboard-response,378,1801062,0.0-19.0-0.8,92753,List1A,black,man,,,,null,,,,
null,"<img src=""stim_listA/argue3.gif""</stim_listA>",,html-keyboard-response,379,1803065,0.0-19.0-1.8,92753,List1A,black,man,,,,null,,,,
null,is arguing with,,html-keyboard-response,380,1805066,0.0-19.0-2.8,92753,List1A,black,man,,,,null,,,,
7901,,,survey-text,381,1812969,0.0-19.0-3.8,92753,List1A,black,man,,,,,"{""Q0"":""dave and ruth is arguing with""}","<img src=""stim_listA/argue3.gif""</stim_listA>",is arguing with,
null,"<div style=""font-size:60px;"">+</div>",,html-keyboard-response,382,1813470,0.0-19.0-0.9,92753,List1A,black,man,,,,null,,,,
null,"<img src=""stim_listA/kiss5.gif""</stim_listA>",,html-keyboard-response,383,1815485,0.0-19.0-1.9,92753,List1A,black,man,,,,null,,,,
null,is kissing,,html-keyboard-response,384,1817488,0.0-19.0-2.9,92753,List1A,black,man,,,,null,,,,
6911,,,survey-text,385,1824401,0.0-19.0-3.9,92753,List1A,black,man,,,,,"{""Q0"":""fred and luke is kissing""}","<img src=""stim_listA/kiss5.gif""</stim_listA>",is kissing,
null,"<div style=""font-size:60px;"">+</div>",,html-keyboard-response,386,1824904,0.0-19.0-0.10,92753,List1A,black,man,,,,null,,,,
null,"<img src=""stim_listA/dance4.gif""</stim_listA>",,html-keyboard-response,387,1826913,0.0-19.0-1.10,92753,List1A,black,man,,,,null,,,,
null,are dancing with each other,,html-keyboard-response,388,1828925,0.0-19.0-2.10,92753,List1A,black,man,,,,null,,,,
9750,,,survey-text,389,1838676,0.0-19.0-3.10,92753,List1A,black,man,,,,,"{""Q0"":""ruth and dave are dancing with each other""}","<img src=""stim_listA/dance4.gif""</stim_listA>",are dancing with each other,
null,"<div style=""font-size:60px;"">+</div>",,html-keyboard-response,390,1839190,0.0-19.0-0.11,92753,List1A,black,man,,,,null,,,,
null,"<img src=""stim_listA/marry3.gif""</stim_listA>",,html-keyboard-response,391,1841196,0.0-19.0-1.11,92753,List1A,black,man,,,,null,,,,
null,is marrying,,html-keyboard-response,392,1843199,0.0-19.0-2.11,92753,List1A,black,man,,,,null,,,,
10301,,,survey-text,393,1853500,0.0-19.0-3.11,92753,List1A,black,man,,,,,"{""Q0"":""ruth and dave is marrying""}","<img src=""stim_listA/marry3.gif""</stim_listA>",is marrying,
null,"<div style=""font-size:60px;"">+</div>",,html-keyboard-response,394,1854016,0.0-19.0-0.12,92753,List1A,black,man,,,,null,,,,
null,"<img src=""stim_listA/argue4.gif""</stim_listA>",,html-keyboard-response,395,1856030,0.0-19.0-1.12,92753,List1A,black,man,,,,null,,,,
null,are arguing with each other,,html-keyboard-response,396,1858032,0.0-19.0-2.12,92753,List1A,black,man,,,,null,,,,
15123,,,survey-text,397,1873156,0.0-19.0-3.12,92753,List1A,black,man,,,,,"{""Q0"":""jane and luke are arguing with each other""}","<img src=""stim_listA/argue4.gif""</stim_listA>",are arguing with each other,
null,"<div style=""font-size:60px;"">+</div>",,html-keyboard-response,398,1873662,0.0-19.0-0.13,92753,List1A,black,man,,,,null,,,,
null,"<img src=""stim_listA/hug2.gif""</stim_listA>",,html-keyboard-response,399,1875672,0.0-19.0-1.13,92753,List1A,black,man,,,,null,,,,
null,are hugging each other,,html-keyboard-response,400,1877686,0.0-19.0-2.13,92753,List1A,black,man,,,,null,,,,
10532,,,survey-text,401,1888220,0.0-19.0-3.13,92753,List1A,black,man,,,,,"{""Q0"":""kate and mike are hugging each other""}","<img src=""stim_listA/hug2.gif""</stim_listA>",are hugging each other,
null,"<div style=""font-size:60px;"">+</div>",,html-keyboard-response,402,1888735,0.0-19.0-0.14,92753,List1A,black,man,,,,null,,,,
null,"<img src=""stim_listA/kiss8.gif""</stim_listA>",,html-keyboard-response,403,1890747,0.0-19.0-1.14,92753,List1A,black,man,,,,null,,,,
null,are kissing each other,,html-keyboard-response,404,1892749,0.0-19.0-2.14,92753,List1A,black,man,,,,null,,,,
16339,,,survey-text,405,1909089,0.0-19.0-3.14,92753,List1A,black,man,,,,,"{""Q0"":""kate and jane are kissing each other""}","<img src=""stim_listA/kiss8.gif""</stim_listA>",are kissing each other,
null,"<div style=""font-size:60px;"">+</div>",,html-keyboard-response,406,1909598,0.0-19.0-0.15,92753,List1A,black,man,,,,null,,,,
null,"<img src=""stim_listA/kiss7.gif""</stim_listA>",,html-keyboard-response,407,1911612,0.0-19.0-1.15,92753,List1A,black,man,,,,null,,,,
null,is kissing,,html-keyboard-response,408,1913615,0.0-19.0-2.15,92753,List1A,black,man,,,,null,,,,
6304,,,survey-text,409,1919921,0.0-19.0-3.15,92753,List1A,black,man,,,,,"{""Q0"":""beth and ruth is kissing""}","<img src=""stim_listA/kiss7.gif""</stim_listA>",is kissing,
null,"<div style=""font-size:60px;"">+</div>",,html-keyboard-response,410,1920430,0.0-19.0-0.16,92753,List1A,black,man,,,,null,,,,
null,"<img src=""stim_listA/fight3.gif""</stim_listA>",,html-keyboard-response,411,1922440,0.0-19.0-1.16,92753,List1A,black,man,,,,null,,,,
null,is fighting,,html-keyboard-response,412,1924442,0.0-19.0-2.16,92753,List1A,black,man,,,,null,,,,
6222,,,survey-text,413,1930665,0.0-19.0-3.16,92753,List1A,black,man,,,,,"{""Q0"":""dave and jane is fighting""}","<img src=""stim_listA/fight3.gif""</stim_listA>",is fighting,
null,"<div style=""font-size:60px;"">+</div>",,html-keyboard-response,414,1931180,0.0-19.0-0.17,92753,List1A,black,man,,,,null,,,,
null,"<img src=""stim_listA/hug1.gif""</stim_listA>",,html-keyboard-response,415,1933182,0.0-19.0-1.17,92753,List1A,black,man,,,,null,,,,
null,is hugging,,html-keyboard-response,416,1935185,0.0-19.0-2.17,92753,List1A,black,man,,,,null,,,,
6599,,,survey-text,417,1941785,0.0-19.0-3.17,92753,List1A,black,man,,,,,"{""Q0"":""fred and beth is hugging""}","<img src=""stim_listA/hug1.gif""</stim_listA>",is hugging,
null,"<div style=""font-size:60px;"">+</div>",,html-keyboard-response,418,1942287,0.0-19.0-0.18,92753,List1A,black,man,,,,null,,,,
null,"<img src=""stim_listA/shout4.gif""</stim_listA>",,html-keyboard-response,419,1944290,0.0-19.0-1.18,92753,List1A,black,man,,,,null,,,,
null,are shouting at each other,,html-keyboard-response,420,1946291,0.0-19.0-2.18,92753,List1A,black,man,,,,null,,,,
11198,,,survey-text,421,1957492,0.0-19.0-3.18,92753,List1A,black,man,,,,,"{""Q0"":""jane and dave are shouting at each other""}","<img src=""stim_listA/shout4.gif""</stim_listA>",are shouting at each other,
null,"<div style=""font-size:60px;"">+</div>",,html-keyboard-response,422,1958005,0.0-19.0-0.19,92753,List1A,black,man,,,,null,,,,
null,"<img src=""stim_listA/marry6.gif""</stim_listA>",,html-keyboard-response,423,1960013,0.0-19.0-1.19,92753,List1A,black,man,,,,null,,,,
null,are marrying each other,,html-keyboard-response,424,1962016,0.0-19.0-2.19,92753,List1A,black,man,,,,null,,,,
8978,,,survey-text,425,1970996,0.0-19.0-3.19,92753,List1A,black,man,,,,,"{""Q0"":""dave and fred are marrying each other""}","<img src=""stim_listA/marry6.gif""</stim_listA>",are marrying each other,
2543,<p>Thank you for completing that task.</p><p>The final part of this session is a short questionnaire.</p><p>Press Continue.</p>,0,html-button-response,426,1973540,0.0-20.0,92753,List1A,black,man,,,,,,,,
40308,,,survey-text,427,2014852,0.0-21.0,92753,List1A,black,man,,,,,"{""Q0"":""37"",""Q1"":""english"",""Q2"":""english"",""Q3"":""england"",""Q4"":""black Caribbean"",""Q5"":""male""}",,,demographics
37683,,,survey-likert,428,2052540,0.0-22.0,92753,List1A,black,man,,,,,"{""Q0"":4,""Q1"":4,""Q2"":4,""Q3"":5,""Q4"":5,""Q5"":3,""Q6"":"""",""Q7"":4,""Q8"":5,""Q9"":5,""Q10"":4,""Q11"":3,""Q12"":"""",""Q13"":3}",,,likert_race
47545,,,survey-likert,429,2100088,0.0-23.0,92753,List1A,black,man,,,,,"{""Q0"":5,""Q1"":5,""Q2"":5,""Q3"":5,""Q4"":4,""Q5"":4,""Q6"":4,""Q7"":1,""Q8"":5,""Q9"":5,""Q10"":2,""Q11"":2,""Q12"":3,""Q13"":2}",,,likert_gender
5052,,,survey-text,430,2105142,0.0-24.0,92753,List1A,black,man,,,,,"{""Q0"":""ccc""}",,,worker_id
15662,,,external-html,431,2120998,0.0-25.0,92753,List1A,black,man,debrief.html,,,,,,,
