rt,stimulus,button_pressed,trial_type,trial_index,time_elapsed,internal_node_id,subject,list,ppt_race,ppt_gender,url,first_guess,correct,key_press,responses,image_type,phrase_type,test_part
2204,Welcome to the experiment. Press Continue to begin.,0,html-button-response,0,2208,0.0-0.0,93473,List2A,white,woman,,,,,,,,
24649,,,external-html,1,27975,0.0-1.0,93473,List2A,white,woman,consent.html,,,,,,,
11631,"<p>On the next page, you will see portraits of 8 people and their names.</p><p>Your first task is to take a few minutes to memorise the names of these people.</p><p>You will have to recall their names during the rest of the experiment, so it is</p><p>essential that you try to memorise these people and their names as best as you can.</p><br><p><strong>You will then be tested on your memory of these names and portraits.</strong></p><br><p>The experiment will start after you have completed this memory test.</p><br><p>Ready?</p>",0,html-button-response,2,39608,0.0-2.0,93473,List2A,white,woman,,,,,,,,
67618,"<img src='img/portrait_matrix_list2.JPG' style='width:900px;height:500px;''></img><p>If you have memorised all the portraits and names and are ready to start, press Continue.</p><p><strong>Please note: Your memory of these faces will be tested 4 times during this experiment.</strong></p>",0,html-button-response,3,108230,0.0-3.0-0.0,93473,List2A,white,woman,,,,,,,,
10386,"<img src=""portrait/WW1.jpg""style=""width:400px;height:400px;""></img>",3,html-button-response,4,119622,0.0-3.0-1.0,93473,List2A,white,woman,,TRUE,1,,,,,
4478,"<img src=""portrait/WW1.jpg""style=""width:400px;height:400px;""></img>",1,html-button-response,5,125111,0.0-3.0-3.0-0.0,93473,List2A,white,woman,,FALSE,1,,,,,
null,CORRECT,,html-keyboard-response,6,126626,0.0-3.0-3.0-1.0-0.0,93473,List2A,white,woman,,,,null,,,,
7306,"<img src=""portrait/WM2.jpg""style=""width:400px;height:400px;""></img>",7,html-button-response,7,133934,0.0-3.0-4.0,93473,List2A,white,woman,,TRUE,7,,,,,
null,CORRECT,,html-keyboard-response,8,135441,0.0-3.0-5.0-0.0,93473,List2A,white,woman,,,,null,,,,
3491,"<img src=""portrait/BW2.jpg""style=""width:400px;height:400px;""></img>",2,html-button-response,9,138934,0.0-3.0-7.0,93473,List2A,white,woman,,TRUE,2,,,,,
null,CORRECT,,html-keyboard-response,10,140439,0.0-3.0-8.0-0.0,93473,List2A,white,woman,,,,null,,,,
8797,"<img src=""portrait/BW1.jpg""style=""width:400px;height:400px;""></img>",0,html-button-response,11,149237,0.0-3.0-10.0,93473,List2A,white,woman,,TRUE,0,,,,,
null,CORRECT,,html-keyboard-response,12,150765,0.0-3.0-11.0-0.0,93473,List2A,white,woman,,,,null,,,,
3350,"<img src=""portrait/WM1.jpg""style=""width:400px;height:400px;""></img>",6,html-button-response,13,154117,0.0-3.0-13.0,93473,List2A,white,woman,,TRUE,6,,,,,
null,CORRECT,,html-keyboard-response,14,155644,0.0-3.0-14.0-0.0,93473,List2A,white,woman,,,,null,,,,
2368,"<img src=""portrait/BM1.jpg""style=""width:400px;height:400px;""></img>",7,html-button-response,15,158013,0.0-3.0-16.0,93473,List2A,white,woman,,TRUE,4,,,,,
2809,"<img src=""portrait/BM1.jpg""style=""width:400px;height:400px;""></img>",4,html-button-response,16,161837,0.0-3.0-18.0-0.0,93473,List2A,white,woman,,FALSE,4,,,,,
null,CORRECT,,html-keyboard-response,17,163347,0.0-3.0-18.0-1.0-0.0,93473,List2A,white,woman,,,,null,,,,
2466,"<img src=""portrait/BM2.jpg""style=""width:400px;height:400px;""></img>",7,html-button-response,18,165813,0.0-3.0-19.0,93473,List2A,white,woman,,TRUE,5,,,,,
2641,"<img src=""portrait/BM2.jpg""style=""width:400px;height:400px;""></img>",5,html-button-response,19,169464,0.0-3.0-21.0-0.0,93473,List2A,white,woman,,FALSE,5,,,,,
null,CORRECT,,html-keyboard-response,20,170984,0.0-3.0-21.0-1.0-0.0,93473,List2A,white,woman,,,,null,,,,
5608,"<img src=""portrait/WW2.jpg""style=""width:400px;height:400px;""></img>",3,html-button-response,21,176592,0.0-3.0-22.0,93473,List2A,white,woman,,TRUE,3,,,,,
null,CORRECT,,html-keyboard-response,22,178115,0.0-3.0-23.0-0.0,93473,List2A,white,woman,,,,null,,,,
1923,<p>You got 5 out of 8 right first time. Press Continue.</p>,0,html-button-response,23,180040,0.0-3.0-25.0,93473,List2A,white,woman,,,,,,,,
3617,"As you did not score 100%, the memory game will repeat. Press Continue.",0,html-button-response,24,184671,0.0-3.0-26.0-0.0,93473,List2A,white,woman,,,,,,,,
25101,"<img src='img/portrait_matrix_list2.JPG' style='width:900px;height:500px;''></img><p>If you have memorised all the portraits and names and are ready to start, press Continue.</p><p><strong>Please note: Your memory of these faces will be tested 4 times during this experiment.</strong></p>",0,html-button-response,25,210775,0.0-3.1-0.1,93473,List2A,white,woman,,,,,,,,
1815,"<img src=""portrait/WW1.jpg""style=""width:400px;height:400px;""></img>",1,html-button-response,26,213599,0.0-3.1-1.1,93473,List2A,white,woman,,TRUE,1,,,,,
null,CORRECT,,html-keyboard-response,27,215116,0.0-3.1-2.1-0.1,93473,List2A,white,woman,,,,null,,,,
16941,"<img src=""portrait/WM2.jpg""style=""width:400px;height:400px;""></img>",6,html-button-response,28,232059,0.0-3.1-4.1,93473,List2A,white,woman,,TRUE,7,,,,,
1473,"<img src=""portrait/WM2.jpg""style=""width:400px;height:400px;""></img>",7,html-button-response,29,234539,0.0-3.1-6.1-0.1,93473,List2A,white,woman,,FALSE,7,,,,,
null,CORRECT,,html-keyboard-response,30,236065,0.0-3.1-6.1-1.1-0.1,93473,List2A,white,woman,,,,null,,,,
1577,"<img src=""portrait/BW2.jpg""style=""width:400px;height:400px;""></img>",2,html-button-response,31,237643,0.0-3.1-7.1,93473,List2A,white,woman,,TRUE,2,,,,,
null,CORRECT,,html-keyboard-response,32,239161,0.0-3.1-8.1-0.1,93473,List2A,white,woman,,,,null,,,,
5810,"<img src=""portrait/BW1.jpg""style=""width:400px;height:400px;""></img>",0,html-button-response,33,244972,0.0-3.1-10.1,93473,List2A,white,woman,,TRUE,0,,,,,
null,CORRECT,,html-keyboard-response,34,246491,0.0-3.1-11.1-0.1,93473,List2A,white,woman,,,,null,,,,
5710,"<img src=""portrait/WM1.jpg""style=""width:400px;height:400px;""></img>",6,html-button-response,35,252203,0.0-3.1-13.1,93473,List2A,white,woman,,TRUE,6,,,,,
null,CORRECT,,html-keyboard-response,36,253707,0.0-3.1-14.1-0.1,93473,List2A,white,woman,,,,null,,,,
3294,"<img src=""portrait/BM1.jpg""style=""width:400px;height:400px;""></img>",7,html-button-response,37,257003,0.0-3.1-16.1,93473,List2A,white,woman,,TRUE,4,,,,,
1678,"<img src=""portrait/BM1.jpg""style=""width:400px;height:400px;""></img>",4,html-button-response,38,259682,0.0-3.1-18.1-0.1,93473,List2A,white,woman,,FALSE,4,,,,,
null,CORRECT,,html-keyboard-response,39,261185,0.0-3.1-18.1-1.1-0.1,93473,List2A,white,woman,,,,null,,,,
2165,"<img src=""portrait/BM2.jpg""style=""width:400px;height:400px;""></img>",5,html-button-response,40,263355,0.0-3.1-19.1,93473,List2A,white,woman,,TRUE,5,,,,,
null,CORRECT,,html-keyboard-response,41,264881,0.0-3.1-20.1-0.1,93473,List2A,white,woman,,,,null,,,,
1712,"<img src=""portrait/WW2.jpg""style=""width:400px;height:400px;""></img>",3,html-button-response,42,266595,0.0-3.1-22.1,93473,List2A,white,woman,,TRUE,3,,,,,
null,CORRECT,,html-keyboard-response,43,268114,0.0-3.1-23.1-0.1,93473,List2A,white,woman,,,,null,,,,
1752,<p>You got 6 out of 8 right first time. Press Continue.</p>,0,html-button-response,44,269866,0.0-3.1-25.1,93473,List2A,white,woman,,,,,,,,
1706,"As you did not score 100%, the memory game will repeat. Press Continue.",0,html-button-response,45,272586,0.0-3.1-26.1-0.1,93473,List2A,white,woman,,,,,,,,
16541,"<img src='img/portrait_matrix_list2.JPG' style='width:900px;height:500px;''></img><p>If you have memorised all the portraits and names and are ready to start, press Continue.</p><p><strong>Please note: Your memory of these faces will be tested 4 times during this experiment.</strong></p>",0,html-button-response,46,290138,0.0-3.2-0.2,93473,List2A,white,woman,,,,,,,,
7928,"<img src=""portrait/WW1.jpg""style=""width:400px;height:400px;""></img>",1,html-button-response,47,299080,0.0-3.2-1.2,93473,List2A,white,woman,,TRUE,1,,,,,
null,CORRECT,,html-keyboard-response,48,300592,0.0-3.2-2.2-0.2,93473,List2A,white,woman,,,,null,,,,
9831,"<img src=""portrait/WM2.jpg""style=""width:400px;height:400px;""></img>",7,html-button-response,49,310424,0.0-3.2-4.2,93473,List2A,white,woman,,TRUE,7,,,,,
null,CORRECT,,html-keyboard-response,50,311939,0.0-3.2-5.2-0.2,93473,List2A,white,woman,,,,null,,,,
5499,"<img src=""portrait/BW2.jpg""style=""width:400px;height:400px;""></img>",2,html-button-response,51,317440,0.0-3.2-7.2,93473,List2A,white,woman,,TRUE,2,,,,,
null,CORRECT,,html-keyboard-response,52,318968,0.0-3.2-8.2-0.2,93473,List2A,white,woman,,,,null,,,,
2342,"<img src=""portrait/BW1.jpg""style=""width:400px;height:400px;""></img>",0,html-button-response,53,321312,0.0-3.2-10.2,93473,List2A,white,woman,,TRUE,0,,,,,
null,CORRECT,,html-keyboard-response,54,322818,0.0-3.2-11.2-0.2,93473,List2A,white,woman,,,,null,,,,
2326,"<img src=""portrait/WM1.jpg""style=""width:400px;height:400px;""></img>",6,html-button-response,55,325145,0.0-3.2-13.2,93473,List2A,white,woman,,TRUE,6,,,,,
null,CORRECT,,html-keyboard-response,56,326662,0.0-3.2-14.2-0.2,93473,List2A,white,woman,,,,null,,,,
2336,"<img src=""portrait/BM1.jpg""style=""width:400px;height:400px;""></img>",4,html-button-response,57,328999,0.0-3.2-16.2,93473,List2A,white,woman,,TRUE,4,,,,,
null,CORRECT,,html-keyboard-response,58,330527,0.0-3.2-17.2-0.2,93473,List2A,white,woman,,,,null,,,,
4887,"<img src=""portrait/BM2.jpg""style=""width:400px;height:400px;""></img>",5,html-button-response,59,335416,0.0-3.2-19.2,93473,List2A,white,woman,,TRUE,5,,,,,
null,CORRECT,,html-keyboard-response,60,336925,0.0-3.2-20.2-0.2,93473,List2A,white,woman,,,,null,,,,
12200,"<img src=""portrait/WW2.jpg""style=""width:400px;height:400px;""></img>",1,html-button-response,61,349127,0.0-3.2-22.2,93473,List2A,white,woman,,TRUE,3,,,,,
1684,"<img src=""portrait/WW2.jpg""style=""width:400px;height:400px;""></img>",3,html-button-response,62,351823,0.0-3.2-24.2-0.2,93473,List2A,white,woman,,FALSE,3,,,,,
null,CORRECT,,html-keyboard-response,63,353349,0.0-3.2-24.2-1.2-0.2,93473,List2A,white,woman,,,,null,,,,
1576,<p>You got 7 out of 8 right first time. Press Continue.</p>,0,html-button-response,64,354927,0.0-3.2-25.2,93473,List2A,white,woman,,,,,,,,
1771,"As you did not score 100%, the memory game will repeat. Press Continue.",0,html-button-response,65,357711,0.0-3.2-26.2-0.2,93473,List2A,white,woman,,,,,,,,
10159,"<img src='img/portrait_matrix_list2.JPG' style='width:900px;height:500px;''></img><p>If you have memorised all the portraits and names and are ready to start, press Continue.</p><p><strong>Please note: Your memory of these faces will be tested 4 times during this experiment.</strong></p>",0,html-button-response,66,368884,0.0-3.3-0.3,93473,List2A,white,woman,,,,,,,,
2946,"<img src=""portrait/WW1.jpg""style=""width:400px;height:400px;""></img>",1,html-button-response,67,372843,0.0-3.3-1.3,93473,List2A,white,woman,,TRUE,1,,,,,
null,CORRECT,,html-keyboard-response,68,374362,0.0-3.3-2.3-0.3,93473,List2A,white,woman,,,,null,,,,
3721,"<img src=""portrait/WM2.jpg""style=""width:400px;height:400px;""></img>",7,html-button-response,69,378083,0.0-3.3-4.3,93473,List2A,white,woman,,TRUE,7,,,,,
null,CORRECT,,html-keyboard-response,70,379596,0.0-3.3-5.3-0.3,93473,List2A,white,woman,,,,null,,,,
5414,"<img src=""portrait/BW2.jpg""style=""width:400px;height:400px;""></img>",2,html-button-response,71,385011,0.0-3.3-7.3,93473,List2A,white,woman,,TRUE,2,,,,,
null,CORRECT,,html-keyboard-response,72,386524,0.0-3.3-8.3-0.3,93473,List2A,white,woman,,,,null,,,,
2574,"<img src=""portrait/BW1.jpg""style=""width:400px;height:400px;""></img>",0,html-button-response,73,389099,0.0-3.3-10.3,93473,List2A,white,woman,,TRUE,0,,,,,
null,CORRECT,,html-keyboard-response,74,390620,0.0-3.3-11.3-0.3,93473,List2A,white,woman,,,,null,,,,
1790,"<img src=""portrait/WM1.jpg""style=""width:400px;height:400px;""></img>",6,html-button-response,75,392411,0.0-3.3-13.3,93473,List2A,white,woman,,TRUE,6,,,,,
null,CORRECT,,html-keyboard-response,76,393937,0.0-3.3-14.3-0.3,93473,List2A,white,woman,,,,null,,,,
5961,"<img src=""portrait/BM1.jpg""style=""width:400px;height:400px;""></img>",4,html-button-response,77,399898,0.0-3.3-16.3,93473,List2A,white,woman,,TRUE,4,,,,,
null,CORRECT,,html-keyboard-response,78,401402,0.0-3.3-17.3-0.3,93473,List2A,white,woman,,,,null,,,,
1215,"<img src=""portrait/BM2.jpg""style=""width:400px;height:400px;""></img>",5,html-button-response,79,402619,0.0-3.3-19.3,93473,List2A,white,woman,,TRUE,5,,,,,
null,CORRECT,,html-keyboard-response,80,404129,0.0-3.3-20.3-0.3,93473,List2A,white,woman,,,,null,,,,
10209,"<img src=""portrait/WW2.jpg""style=""width:400px;height:400px;""></img>",2,html-button-response,81,414339,0.0-3.3-22.3,93473,List2A,white,woman,,TRUE,3,,,,,
1538,"<img src=""portrait/WW2.jpg""style=""width:400px;height:400px;""></img>",3,html-button-response,82,416882,0.0-3.3-24.3-0.3,93473,List2A,white,woman,,FALSE,3,,,,,
null,CORRECT,,html-keyboard-response,83,418407,0.0-3.3-24.3-1.3-0.3,93473,List2A,white,woman,,,,null,,,,
1106,<p>You got 7 out of 8 right first time. Press Continue.</p>,0,html-button-response,84,419514,0.0-3.3-25.3,93473,List2A,white,woman,,,,,,,,
925,"As you did not score 100%, the memory game will repeat. Press Continue.",0,html-button-response,85,421450,0.0-3.3-26.3-0.3,93473,List2A,white,woman,,,,,,,,
16053,"<img src='img/portrait_matrix_list2.JPG' style='width:900px;height:500px;''></img><p>If you have memorised all the portraits and names and are ready to start, press Continue.</p><p><strong>Please note: Your memory of these faces will be tested 4 times during this experiment.</strong></p>",0,html-button-response,86,438513,0.0-3.4-0.4,93473,List2A,white,woman,,,,,,,,
7344,"<img src=""portrait/WW1.jpg""style=""width:400px;height:400px;""></img>",1,html-button-response,87,446869,0.0-3.4-1.4,93473,List2A,white,woman,,TRUE,1,,,,,
null,CORRECT,,html-keyboard-response,88,448385,0.0-3.4-2.4-0.4,93473,List2A,white,woman,,,,null,,,,
2208,"<img src=""portrait/WM2.jpg""style=""width:400px;height:400px;""></img>",7,html-button-response,89,450594,0.0-3.4-4.4,93473,List2A,white,woman,,TRUE,7,,,,,
null,CORRECT,,html-keyboard-response,90,452102,0.0-3.4-5.4-0.4,93473,List2A,white,woman,,,,null,,,,
2771,"<img src=""portrait/BW2.jpg""style=""width:400px;height:400px;""></img>",2,html-button-response,91,454874,0.0-3.4-7.4,93473,List2A,white,woman,,TRUE,2,,,,,
null,CORRECT,,html-keyboard-response,92,456383,0.0-3.4-8.4-0.4,93473,List2A,white,woman,,,,null,,,,
1649,"<img src=""portrait/BW1.jpg""style=""width:400px;height:400px;""></img>",0,html-button-response,93,458033,0.0-3.4-10.4,93473,List2A,white,woman,,TRUE,0,,,,,
null,CORRECT,,html-keyboard-response,94,459551,0.0-3.4-11.4-0.4,93473,List2A,white,woman,,,,null,,,,
2249,"<img src=""portrait/WM1.jpg""style=""width:400px;height:400px;""></img>",6,html-button-response,95,461801,0.0-3.4-13.4,93473,List2A,white,woman,,TRUE,6,,,,,
null,CORRECT,,html-keyboard-response,96,463318,0.0-3.4-14.4-0.4,93473,List2A,white,woman,,,,null,,,,
2353,"<img src=""portrait/BM1.jpg""style=""width:400px;height:400px;""></img>",4,html-button-response,97,465673,0.0-3.4-16.4,93473,List2A,white,woman,,TRUE,4,,,,,
null,CORRECT,,html-keyboard-response,98,467193,0.0-3.4-17.4-0.4,93473,List2A,white,woman,,,,null,,,,
1639,"<img src=""portrait/BM2.jpg""style=""width:400px;height:400px;""></img>",5,html-button-response,99,468833,0.0-3.4-19.4,93473,List2A,white,woman,,TRUE,5,,,,,
null,CORRECT,,html-keyboard-response,100,470358,0.0-3.4-20.4-0.4,93473,List2A,white,woman,,,,null,,,,
6274,"<img src=""portrait/WW2.jpg""style=""width:400px;height:400px;""></img>",3,html-button-response,101,476633,0.0-3.4-22.4,93473,List2A,white,woman,,TRUE,3,,,,,
null,CORRECT,,html-keyboard-response,102,478156,0.0-3.4-23.4-0.4,93473,List2A,white,woman,,,,null,,,,
1124,<p>You got 8 out of 8 right first time. Press Continue.</p>,0,html-button-response,103,479281,0.0-3.4-25.4,93473,List2A,white,woman,,,,,,,,
22410,"<p>In this experiment, you will view photographs of the people from the memory game interacting.</p><p>By using the <strong>exact</strong> phrase given <i>after</i> the photograph appears and recalling the correct names of the people in the photographs, form a sentence describing the interaction. You do not need to capitalise names.</p><p>Type your answer in the space provided. Please complete every sentence before moving onto the next trial.</p><p>You will only have a few seconds to memorise each given photograph and phrase before you can respond, so try your best to focus.</p><p>An example is given below. Press 'Continue' when you are ready.</p><img src='img/speaking_example_v2.jpg' style='width:800px;height:460px;''></img>",0,html-button-response,104,502695,0.0-4.0,93473,List2A,white,woman,,,,,,,,
2741,"<p>Before the experiment starts, you will watch two example trials. Press 'Continue'.</p>",0,html-button-response,105,506438,0.0-5.0,93473,List2A,white,woman,,,,,,,,
null,<img src='img/speaking_WW.gif'></img>,,html-keyboard-response,106,509458,0.0-6.0,93473,List2A,white,woman,,,,null,,,,
null,<p>is speaking to</p>,,html-keyboard-response,107,511466,0.0-7.0,93473,List2A,white,woman,,,,null,,,,
2708,<p><b>Answer:</b> jane is speaking to ruth</p>,0,html-button-response,108,514175,0.0-8.0,93473,List2A,white,woman,,,,,,,,
null,<img src='img/pointing_BM.gif'></img>,,html-keyboard-response,109,517186,0.0-9.0,93473,List2A,white,woman,,,,null,,,,
null,<p>are pointing at each other</p>,,html-keyboard-response,110,519186,0.0-10.0,93473,List2A,white,woman,,,,null,,,,
5410,<p><b>Answer:</b> fred and mike are pointing at each other</p>,0,html-button-response,111,524598,0.0-11.0,93473,List2A,white,woman,,,,,,,,
9523,"<p>Ready to start the experiment?</p><br><p><strong>Remember to describe the picture using a full sentence,</strong></p><p><strong>that combines the names of the people with the given phrase.</strong></p><p><strong>If you do not do this correctly you will not be paid.</strong></p><p><strong> You do not need to capitalise names or use punctuation.</strong></p><br><p>Press 'Continue' to begin.</p>",0,html-button-response,112,535134,0.0-12.0,93473,List2A,white,woman,,,,,,,,
null,"<div style=""font-size:60px;"">+</div>",,html-keyboard-response,113,536654,0.0-13.0-0.0,93473,List2A,white,woman,,,,null,,,,
null,"<img src=""stim_listA/marry3.gif""</stim_listA>",,html-keyboard-response,114,538656,0.0-13.0-1.0,93473,List2A,white,woman,,,,null,,,,
null,is marrying,,html-keyboard-response,115,540658,0.0-13.0-2.0,93473,List2A,white,woman,,,,null,,,,
11771,,,survey-text,116,552430,0.0-13.0-3.0,93473,List2A,white,woman,,,,,"{""Q0"":""beth and mike are holding hands""}","<img src=""stim_listA/marry3.gif""</stim_listA>",is marrying,
null,"<div style=""font-size:60px;"">+</div>",,html-keyboard-response,117,552944,0.0-13.0-0.1,93473,List2A,white,woman,,,,null,,,,
null,"<img src=""stim_listA/kiss7.gif""</stim_listA>",,html-keyboard-response,118,554948,0.0-13.0-1.1,93473,List2A,white,woman,,,,null,,,,
null,is kissing,,html-keyboard-response,119,556953,0.0-13.0-2.1,93473,List2A,white,woman,,,,null,,,,
9471,,,survey-text,120,566424,0.0-13.0-3.1,93473,List2A,white,woman,,,,,"{""Q0"":""jane and beth are kissing""}","<img src=""stim_listA/kiss7.gif""</stim_listA>",is kissing,
null,"<div style=""font-size:60px;"">+</div>",,html-keyboard-response,121,566932,0.0-13.0-0.2,93473,List2A,white,woman,,,,null,,,,
null,"<img src=""stim_listA/fight3.gif""</stim_listA>",,html-keyboard-response,122,568938,0.0-13.0-1.2,93473,List2A,white,woman,,,,null,,,,
null,is fighting,,html-keyboard-response,123,570939,0.0-13.0-2.2,93473,List2A,white,woman,,,,null,,,,
14963,,,survey-text,124,585903,0.0-13.0-3.2,93473,List2A,white,woman,,,,,"{""Q0"":""mike and kate are fighting""}","<img src=""stim_listA/fight3.gif""</stim_listA>",is fighting,
null,"<div style=""font-size:60px;"">+</div>",,html-keyboard-response,125,586405,0.0-13.0-0.3,93473,List2A,white,woman,,,,null,,,,
null,"<img src=""stim_listA/dance5.gif""</stim_listA>",,html-keyboard-response,126,588407,0.0-13.0-1.3,93473,List2A,white,woman,,,,null,,,,
null,is dancing with,,html-keyboard-response,127,590409,0.0-13.0-2.3,93473,List2A,white,woman,,,,null,,,,
8485,,,survey-text,128,598895,0.0-13.0-3.3,93473,List2A,white,woman,,,,,"{""Q0"":""fred is dancing with luke""}","<img src=""stim_listA/dance5.gif""</stim_listA>",is dancing with,
null,"<div style=""font-size:60px;"">+</div>",,html-keyboard-response,129,599399,0.0-13.0-0.4,93473,List2A,white,woman,,,,null,,,,
null,"<img src=""stim_listA/dance8.gif""</stim_listA>",,html-keyboard-response,130,601401,0.0-13.0-1.4,93473,List2A,white,woman,,,,null,,,,
null,are dancing with each other,,html-keyboard-response,131,603403,0.0-13.0-2.4,93473,List2A,white,woman,,,,null,,,,
18675,,,survey-text,132,622079,0.0-13.0-3.4,93473,List2A,white,woman,,,,,"{""Q0"":""beth and jane are dancing together""}","<img src=""stim_listA/dance8.gif""</stim_listA>",are dancing with each other,
null,"<div style=""font-size:60px;"">+</div>",,html-keyboard-response,133,622589,0.0-13.0-0.5,93473,List2A,white,woman,,,,null,,,,
null,"<img src=""stim_listA/hug1.gif""</stim_listA>",,html-keyboard-response,134,624796,0.0-13.0-1.5,93473,List2A,white,woman,,,,null,,,,
null,is hugging,,html-keyboard-response,135,626799,0.0-13.0-2.5,93473,List2A,white,woman,,,,null,,,,
5977,,,survey-text,136,632776,0.0-13.0-3.5,93473,List2A,white,woman,,,,,"{""Q0"":""luke is hugging ruth""}","<img src=""stim_listA/hug1.gif""</stim_listA>",is hugging,
null,"<div style=""font-size:60px;"">+</div>",,html-keyboard-response,137,633284,0.0-13.0-0.6,93473,List2A,white,woman,,,,null,,,,
null,"<img src=""stim_listA/kiss5.gif""</stim_listA>",,html-keyboard-response,138,635301,0.0-13.0-1.6,93473,List2A,white,woman,,,,null,,,,
null,is kissing,,html-keyboard-response,139,637305,0.0-13.0-2.6,93473,List2A,white,woman,,,,null,,,,
7773,,,survey-text,140,645081,0.0-13.0-3.6,93473,List2A,white,woman,,,,,"{""Q0"":""fred is kissing luke""}","<img src=""stim_listA/kiss5.gif""</stim_listA>",is kissing,
null,"<div style=""font-size:60px;"">+</div>",,html-keyboard-response,141,645596,0.0-13.0-0.7,93473,List2A,white,woman,,,,null,,,,
null,"<img src=""stim_listA/dance2.gif""</stim_listA>",,html-keyboard-response,142,647599,0.0-13.0-1.7,93473,List2A,white,woman,,,,null,,,,
null,are dancing with each other,,html-keyboard-response,143,649603,0.0-13.0-2.7,93473,List2A,white,woman,,,,null,,,,
18349,,,survey-text,144,667952,0.0-13.0-3.7,93473,List2A,white,woman,,,,,"{""Q0"":""ruthand dave are dancing together""}","<img src=""stim_listA/dance2.gif""</stim_listA>",are dancing with each other,
null,"<div style=""font-size:60px;"">+</div>",,html-keyboard-response,145,668467,0.0-13.0-0.8,93473,List2A,white,woman,,,,null,,,,
null,"<img src=""stim_listA/fight1.gif""</stim_listA>",,html-keyboard-response,146,670478,0.0-13.0-1.8,93473,List2A,white,woman,,,,null,,,,
null,is fighting,,html-keyboard-response,147,672491,0.0-13.0-2.8,93473,List2A,white,woman,,,,null,,,,
6299,,,survey-text,148,678791,0.0-13.0-3.8,93473,List2A,white,woman,,,,,"{""Q0"":""dave is fighting jane""}","<img src=""stim_listA/fight1.gif""</stim_listA>",is fighting,
null,"<div style=""font-size:60px;"">+</div>",,html-keyboard-response,149,679299,0.0-13.0-0.9,93473,List2A,white,woman,,,,null,,,,
null,"<img src=""stim_listA/kiss3.gif""</stim_listA>",,html-keyboard-response,150,681313,0.0-13.0-1.9,93473,List2A,white,woman,,,,null,,,,
null,is kissing,,html-keyboard-response,151,683315,0.0-13.0-2.9,93473,List2A,white,woman,,,,null,,,,
6204,,,survey-text,152,689520,0.0-13.0-3.9,93473,List2A,white,woman,,,,,"{""Q0"":""beth is kissing fred""}","<img src=""stim_listA/kiss3.gif""</stim_listA>",is kissing,
null,"<div style=""font-size:60px;"">+</div>",,html-keyboard-response,153,690024,0.0-13.0-0.10,93473,List2A,white,woman,,,,null,,,,
null,"<img src=""stim_listA/argue4.gif""</stim_listA>",,html-keyboard-response,154,692027,0.0-13.0-1.10,93473,List2A,white,woman,,,,null,,,,
null,are arguing with each other,,html-keyboard-response,155,694033,0.0-13.0-2.10,93473,List2A,white,woman,,,,null,,,,
8342,,,survey-text,156,702375,0.0-13.0-3.10,93473,List2A,white,woman,,,,,"{""Q0"":""mike and kate are arguing with each other""}","<img src=""stim_listA/argue4.gif""</stim_listA>",are arguing with each other,
null,"<div style=""font-size:60px;"">+</div>",,html-keyboard-response,157,702883,0.0-13.0-0.11,93473,List2A,white,woman,,,,null,,,,
null,"<img src=""stim_listA/talk7.gif""</stim_listA>",,html-keyboard-response,158,704892,0.0-13.0-1.11,93473,List2A,white,woman,,,,null,,,,
null,is talking to,,html-keyboard-response,159,706895,0.0-13.0-2.11,93473,List2A,white,woman,,,,null,,,,
5112,,,survey-text,160,712008,0.0-13.0-3.11,93473,List2A,white,woman,,,,,"{""Q0"":""ruth is talking to kate""}","<img src=""stim_listA/talk7.gif""</stim_listA>",is talking to,
null,"<div style=""font-size:60px;"">+</div>",,html-keyboard-response,161,712515,0.0-13.0-0.12,93473,List2A,white,woman,,,,null,,,,
null,"<img src=""stim_listA/hug6.gif""</stim_listA>",,html-keyboard-response,162,714531,0.0-13.0-1.12,93473,List2A,white,woman,,,,null,,,,
null,are hugging each other,,html-keyboard-response,163,716547,0.0-13.0-2.12,93473,List2A,white,woman,,,,null,,,,
11075,,,survey-text,164,727623,0.0-13.0-3.12,93473,List2A,white,woman,,,,,"{""Q0"":""dave and mike are hugging each other""}","<img src=""stim_listA/hug6.gif""</stim_listA>",are hugging each other,
null,"<div style=""font-size:60px;"">+</div>",,html-keyboard-response,165,728124,0.0-13.0-0.13,93473,List2A,white,woman,,,,null,,,,
null,"<img src=""stim_listA/fight8.gif""</stim_listA>",,html-keyboard-response,166,730140,0.0-13.0-1.13,93473,List2A,white,woman,,,,null,,,,
null,are fighting each other,,html-keyboard-response,167,732144,0.0-13.0-2.13,93473,List2A,white,woman,,,,null,,,,
13361,,,survey-text,168,745507,0.0-13.0-3.13,93473,List2A,white,woman,,,,,"{""Q0"":""beth and jane are fighting each other""}","<img src=""stim_listA/fight8.gif""</stim_listA>",are fighting each other,
null,"<div style=""font-size:60px;"">+</div>",,html-keyboard-response,169,746017,0.0-13.0-0.14,93473,List2A,white,woman,,,,null,,,,
null,"<img src=""stim_listA/meet5.gif""</stim_listA>",,html-keyboard-response,170,748020,0.0-13.0-1.14,93473,List2A,white,woman,,,,null,,,,
null,is meeting,,html-keyboard-response,171,750036,0.0-13.0-2.14,93473,List2A,white,woman,,,,null,,,,
7182,,,survey-text,172,757219,0.0-13.0-3.14,93473,List2A,white,woman,,,,,"{""Q0"":""mike is meeting dave""}","<img src=""stim_listA/meet5.gif""</stim_listA>",is meeting,
null,"<div style=""font-size:60px;"">+</div>",,html-keyboard-response,173,757723,0.0-13.0-0.15,93473,List2A,white,woman,,,,null,,,,
null,"<img src=""stim_listA/meet1.gif""</stim_listA>",,html-keyboard-response,174,759725,0.0-13.0-1.15,93473,List2A,white,woman,,,,null,,,,
null,is meeting,,html-keyboard-response,175,761727,0.0-13.0-2.15,93473,List2A,white,woman,,,,null,,,,
7003,,,survey-text,176,768731,0.0-13.0-3.15,93473,List2A,white,woman,,,,,"{""Q0"":""dave is meeting ruth""}","<img src=""stim_listA/meet1.gif""</stim_listA>",is meeting,
null,"<div style=""font-size:60px;"">+</div>",,html-keyboard-response,177,769234,0.0-13.0-0.16,93473,List2A,white,woman,,,,null,,,,
null,"<img src=""stim_listA/meet7.gif""</stim_listA>",,html-keyboard-response,178,771244,0.0-13.0-1.16,93473,List2A,white,woman,,,,null,,,,
null,is meeting,,html-keyboard-response,179,773244,0.0-13.0-2.16,93473,List2A,white,woman,,,,null,,,,
5125,,,survey-text,180,778370,0.0-13.0-3.16,93473,List2A,white,woman,,,,,"{""Q0"":""kate is meeting ruth""}","<img src=""stim_listA/meet7.gif""</stim_listA>",is meeting,
null,"<div style=""font-size:60px;"">+</div>",,html-keyboard-response,181,778882,0.0-13.0-0.17,93473,List2A,white,woman,,,,null,,,,
null,"<img src=""stim_listA/meet4.gif""</stim_listA>",,html-keyboard-response,182,780886,0.0-13.0-1.17,93473,List2A,white,woman,,,,null,,,,
null,are meeting each other,,html-keyboard-response,183,782900,0.0-13.0-2.17,93473,List2A,white,woman,,,,null,,,,
7158,,,survey-text,184,790058,0.0-13.0-3.17,93473,List2A,white,woman,,,,,"{""Q0"":""beth and fred are meeting each other""}","<img src=""stim_listA/meet4.gif""</stim_listA>",are meeting each other,
null,"<div style=""font-size:60px;"">+</div>",,html-keyboard-response,185,790564,0.0-13.0-0.18,93473,List2A,white,woman,,,,null,,,,
null,"<img src=""stim_listA/fight7.gif""</stim_listA>",,html-keyboard-response,186,792568,0.0-13.0-1.18,93473,List2A,white,woman,,,,null,,,,
null,is fighting,,html-keyboard-response,187,794576,0.0-13.0-2.18,93473,List2A,white,woman,,,,null,,,,
5745,,,survey-text,188,800322,0.0-13.0-3.18,93473,List2A,white,woman,,,,,"{""Q0"":""kate is fighting ruth""}","<img src=""stim_listA/fight7.gif""</stim_listA>",is fighting,
null,"<div style=""font-size:60px;"">+</div>",,html-keyboard-response,189,800837,0.0-13.0-0.19,93473,List2A,white,woman,,,,null,,,,
null,"<img src=""stim_listA/shout2.gif""</stim_listA>",,html-keyboard-response,190,802842,0.0-13.0-1.19,93473,List2A,white,woman,,,,null,,,,
null,are shouting at each other,,html-keyboard-response,191,804843,0.0-13.0-2.19,93473,List2A,white,woman,,,,null,,,,
16735,,,survey-text,192,821580,0.0-13.0-3.19,93473,List2A,white,woman,,,,,"{""Q0"":""ruth and dave are shouting at each other""}","<img src=""stim_listA/shout2.gif""</stim_listA>",are shouting at each other,
15487,"<img src='img/portrait_matrix_list2.JPG' style='width:900px;height:500px;''></img><p>If you have memorised all the portraits and names and are ready to start, press Continue.</p><p><strong>Please note: Your memory of these faces will be tested 4 times during this experiment.</strong></p>",0,html-button-response,193,837067,0.0-14.0-0.0,93473,List2A,white,woman,,,,,,,,
1334,"<img src=""portrait/WW2.jpg""style=""width:400px;height:400px;""></img>",3,html-button-response,194,839403,0.0-14.0-1.0,93473,List2A,white,woman,,TRUE,3,,,,,
null,CORRECT,,html-keyboard-response,195,840932,0.0-14.0-2.0-0.0,93473,List2A,white,woman,,,,null,,,,
2415,"<img src=""portrait/BM2.jpg""style=""width:400px;height:400px;""></img>",5,html-button-response,196,843347,0.0-14.0-4.0,93473,List2A,white,woman,,TRUE,5,,,,,
null,CORRECT,,html-keyboard-response,197,844879,0.0-14.0-5.0-0.0,93473,List2A,white,woman,,,,null,,,,
3451,"<img src=""portrait/BW2.jpg""style=""width:400px;height:400px;""></img>",2,html-button-response,198,848331,0.0-14.0-7.0,93473,List2A,white,woman,,TRUE,2,,,,,
null,CORRECT,,html-keyboard-response,199,849851,0.0-14.0-8.0-0.0,93473,List2A,white,woman,,,,null,,,,
1374,"<img src=""portrait/BW1.jpg""style=""width:400px;height:400px;""></img>",0,html-button-response,200,851227,0.0-14.0-10.0,93473,List2A,white,woman,,TRUE,0,,,,,
null,CORRECT,,html-keyboard-response,201,852741,0.0-14.0-11.0-0.0,93473,List2A,white,woman,,,,null,,,,
4429,"<img src=""portrait/WM1.jpg""style=""width:400px;height:400px;""></img>",6,html-button-response,202,857171,0.0-14.0-13.0,93473,List2A,white,woman,,TRUE,6,,,,,
null,CORRECT,,html-keyboard-response,203,858691,0.0-14.0-14.0-0.0,93473,List2A,white,woman,,,,null,,,,
2575,"<img src=""portrait/BM1.jpg""style=""width:400px;height:400px;""></img>",4,html-button-response,204,861267,0.0-14.0-16.0,93473,List2A,white,woman,,TRUE,4,,,,,
null,CORRECT,,html-keyboard-response,205,862788,0.0-14.0-17.0-0.0,93473,List2A,white,woman,,,,null,,,,
4933,"<img src=""portrait/WW1.jpg""style=""width:400px;height:400px;""></img>",3,html-button-response,206,867721,0.0-14.0-19.0,93473,List2A,white,woman,,TRUE,1,,,,,
2430,"<img src=""portrait/WW1.jpg""style=""width:400px;height:400px;""></img>",1,html-button-response,207,871160,0.0-14.0-21.0-0.0,93473,List2A,white,woman,,FALSE,1,,,,,
null,CORRECT,,html-keyboard-response,208,872680,0.0-14.0-21.0-1.0-0.0,93473,List2A,white,woman,,,,null,,,,
1704,"<img src=""portrait/WM2.jpg""style=""width:400px;height:400px;""></img>",7,html-button-response,209,874385,0.0-14.0-22.0,93473,List2A,white,woman,,TRUE,7,,,,,
null,CORRECT,,html-keyboard-response,210,875909,0.0-14.0-23.0-0.0,93473,List2A,white,woman,,,,null,,,,
1314,<p>You got 7 out of 8 right first time. Press Continue.</p>,0,html-button-response,211,877224,0.0-14.0-25.0,93473,List2A,white,woman,,,,,,,,
1847,"As you did not score 100%, the memory game will repeat. Press Continue.",0,html-button-response,212,880081,0.0-14.0-26.0-0.0,93473,List2A,white,woman,,,,,,,,
7221,"<img src='img/portrait_matrix_list2.JPG' style='width:900px;height:500px;''></img><p>If you have memorised all the portraits and names and are ready to start, press Continue.</p><p><strong>Please note: Your memory of these faces will be tested 4 times during this experiment.</strong></p>",0,html-button-response,213,888312,0.0-14.1-0.1,93473,List2A,white,woman,,,,,,,,
2582,"<img src=""portrait/WW2.jpg""style=""width:400px;height:400px;""></img>",3,html-button-response,214,891904,0.0-14.1-1.1,93473,List2A,white,woman,,TRUE,3,,,,,
null,CORRECT,,html-keyboard-response,215,893433,0.0-14.1-2.1-0.1,93473,List2A,white,woman,,,,null,,,,
1998,"<img src=""portrait/BM2.jpg""style=""width:400px;height:400px;""></img>",5,html-button-response,216,895432,0.0-14.1-4.1,93473,List2A,white,woman,,TRUE,5,,,,,
null,CORRECT,,html-keyboard-response,217,896937,0.0-14.1-5.1-0.1,93473,List2A,white,woman,,,,null,,,,
1342,"<img src=""portrait/BW2.jpg""style=""width:400px;height:400px;""></img>",2,html-button-response,218,898280,0.0-14.1-7.1,93473,List2A,white,woman,,TRUE,2,,,,,
null,CORRECT,,html-keyboard-response,219,899796,0.0-14.1-8.1-0.1,93473,List2A,white,woman,,,,null,,,,
1282,"<img src=""portrait/BW1.jpg""style=""width:400px;height:400px;""></img>",0,html-button-response,220,901079,0.0-14.1-10.1,93473,List2A,white,woman,,TRUE,0,,,,,
null,CORRECT,,html-keyboard-response,221,902596,0.0-14.1-11.1-0.1,93473,List2A,white,woman,,,,null,,,,
2179,"<img src=""portrait/WM1.jpg""style=""width:400px;height:400px;""></img>",6,html-button-response,222,904776,0.0-14.1-13.1,93473,List2A,white,woman,,TRUE,6,,,,,
null,CORRECT,,html-keyboard-response,223,906282,0.0-14.1-14.1-0.1,93473,List2A,white,woman,,,,null,,,,
1860,"<img src=""portrait/BM1.jpg""style=""width:400px;height:400px;""></img>",4,html-button-response,224,908144,0.0-14.1-16.1,93473,List2A,white,woman,,TRUE,4,,,,,
null,CORRECT,,html-keyboard-response,225,909647,0.0-14.1-17.1-0.1,93473,List2A,white,woman,,,,null,,,,
4375,"<img src=""portrait/WW1.jpg""style=""width:400px;height:400px;""></img>",3,html-button-response,226,914024,0.0-14.1-19.1,93473,List2A,white,woman,,TRUE,1,,,,,
1732,"<img src=""portrait/WW1.jpg""style=""width:400px;height:400px;""></img>",1,html-button-response,227,916760,0.0-14.1-21.1-0.1,93473,List2A,white,woman,,FALSE,1,,,,,
null,CORRECT,,html-keyboard-response,228,918289,0.0-14.1-21.1-1.1-0.1,93473,List2A,white,woman,,,,null,,,,
1749,"<img src=""portrait/WM2.jpg""style=""width:400px;height:400px;""></img>",7,html-button-response,229,920040,0.0-14.1-22.1,93473,List2A,white,woman,,TRUE,7,,,,,
null,CORRECT,,html-keyboard-response,230,921553,0.0-14.1-23.1-0.1,93473,List2A,white,woman,,,,null,,,,
1205,<p>You got 7 out of 8 right first time. Press Continue.</p>,0,html-button-response,231,922760,0.0-14.1-25.1,93473,List2A,white,woman,,,,,,,,
1509,"As you did not score 100%, the memory game will repeat. Press Continue.",0,html-button-response,232,925272,0.0-14.1-26.1-0.1,93473,List2A,white,woman,,,,,,,,
6452,"<img src='img/portrait_matrix_list2.JPG' style='width:900px;height:500px;''></img><p>If you have memorised all the portraits and names and are ready to start, press Continue.</p><p><strong>Please note: Your memory of these faces will be tested 4 times during this experiment.</strong></p>",0,html-button-response,233,932726,0.0-14.2-0.2,93473,List2A,white,woman,,,,,,,,
982,"<img src=""portrait/WW2.jpg""style=""width:400px;height:400px;""></img>",3,html-button-response,234,934718,0.0-14.2-1.2,93473,List2A,white,woman,,TRUE,3,,,,,
null,CORRECT,,html-keyboard-response,235,936241,0.0-14.2-2.2-0.2,93473,List2A,white,woman,,,,null,,,,
2187,"<img src=""portrait/BM2.jpg""style=""width:400px;height:400px;""></img>",5,html-button-response,236,938430,0.0-14.2-4.2,93473,List2A,white,woman,,TRUE,5,,,,,
null,CORRECT,,html-keyboard-response,237,939941,0.0-14.2-5.2-0.2,93473,List2A,white,woman,,,,null,,,,
1567,"<img src=""portrait/BW2.jpg""style=""width:400px;height:400px;""></img>",2,html-button-response,238,941510,0.0-14.2-7.2,93473,List2A,white,woman,,TRUE,2,,,,,
null,CORRECT,,html-keyboard-response,239,943036,0.0-14.2-8.2-0.2,93473,List2A,white,woman,,,,null,,,,
1176,"<img src=""portrait/BW1.jpg""style=""width:400px;height:400px;""></img>",0,html-button-response,240,944214,0.0-14.2-10.2,93473,List2A,white,woman,,TRUE,0,,,,,
null,CORRECT,,html-keyboard-response,241,945721,0.0-14.2-11.2-0.2,93473,List2A,white,woman,,,,null,,,,
1732,"<img src=""portrait/WM1.jpg""style=""width:400px;height:400px;""></img>",6,html-button-response,242,947454,0.0-14.2-13.2,93473,List2A,white,woman,,TRUE,6,,,,,
null,CORRECT,,html-keyboard-response,243,948985,0.0-14.2-14.2-0.2,93473,List2A,white,woman,,,,null,,,,
1539,"<img src=""portrait/BM1.jpg""style=""width:400px;height:400px;""></img>",4,html-button-response,244,950525,0.0-14.2-16.2,93473,List2A,white,woman,,TRUE,4,,,,,
null,CORRECT,,html-keyboard-response,245,952049,0.0-14.2-17.2-0.2,93473,List2A,white,woman,,,,null,,,,
1195,"<img src=""portrait/WW1.jpg""style=""width:400px;height:400px;""></img>",1,html-button-response,246,953246,0.0-14.2-19.2,93473,List2A,white,woman,,TRUE,1,,,,,
null,CORRECT,,html-keyboard-response,247,954766,0.0-14.2-20.2-0.2,93473,List2A,white,woman,,,,null,,,,
1702,"<img src=""portrait/WM2.jpg""style=""width:400px;height:400px;""></img>",7,html-button-response,248,956470,0.0-14.2-22.2,93473,List2A,white,woman,,TRUE,7,,,,,
null,CORRECT,,html-keyboard-response,249,957987,0.0-14.2-23.2-0.2,93473,List2A,white,woman,,,,null,,,,
1562,<p>You got 8 out of 8 right first time. Press Continue.</p>,0,html-button-response,250,959549,0.0-14.2-25.2,93473,List2A,white,woman,,,,,,,,
null,"<div style=""font-size:60px;"">+</div>",,html-keyboard-response,251,961052,0.0-15.0-0.0,93473,List2A,white,woman,,,,null,,,,
null,"<img src=""stim_listA/argue6.gif""</stim_listA>",,html-keyboard-response,252,963066,0.0-15.0-1.0,93473,List2A,white,woman,,,,null,,,,
null,are arguing with each other,,html-keyboard-response,253,965067,0.0-15.0-2.0,93473,List2A,white,woman,,,,null,,,,
11449,,,survey-text,254,976516,0.0-15.0-3.0,93473,List2A,white,woman,,,,,"{""Q0"":""luke and mike are arguing with each other""}","<img src=""stim_listA/argue6.gif""</stim_listA>",are arguing with each other,
null,"<div style=""font-size:60px;"">+</div>",,html-keyboard-response,255,977022,0.0-15.0-0.1,93473,List2A,white,woman,,,,null,,,,
null,"<img src=""stim_listA/hug5.gif""</stim_listA>",,html-keyboard-response,256,979028,0.0-15.0-1.1,93473,List2A,white,woman,,,,null,,,,
null,is hugging,,html-keyboard-response,257,981041,0.0-15.0-2.1,93473,List2A,white,woman,,,,null,,,,
7675,,,survey-text,258,988716,0.0-15.0-3.1,93473,List2A,white,woman,,,,,"{""Q0"":""luke is hugging fred""}","<img src=""stim_listA/hug5.gif""</stim_listA>",is hugging,
null,"<div style=""font-size:60px;"">+</div>",,html-keyboard-response,259,989231,0.0-15.0-0.2,93473,List2A,white,woman,,,,null,,,,
null,"<img src=""stim_listA/kiss8.gif""</stim_listA>",,html-keyboard-response,260,991236,0.0-15.0-1.2,93473,List2A,white,woman,,,,null,,,,
null,are kissing each other,,html-keyboard-response,261,993349,0.0-15.0-2.2,93473,List2A,white,woman,,,,null,,,,
7660,,,survey-text,262,1001009,0.0-15.0-3.2,93473,List2A,white,woman,,,,,"{""Q0"":""ruth and kate are kissing each other""}","<img src=""stim_listA/kiss8.gif""</stim_listA>",are kissing each other,
null,"<div style=""font-size:60px;"">+</div>",,html-keyboard-response,263,1001520,0.0-15.0-0.3,93473,List2A,white,woman,,,,null,,,,
null,"<img src=""stim_listA/touch2.gif""</stim_listA>",,html-keyboard-response,264,1003523,0.0-15.0-1.3,93473,List2A,white,woman,,,,null,,,,
null,are touching each other,,html-keyboard-response,265,1005536,0.0-15.0-2.3,93473,List2A,white,woman,,,,null,,,,
8721,,,survey-text,266,1014257,0.0-15.0-3.3,93473,List2A,white,woman,,,,,"{""Q0"":""jane and luke are touching each other""}","<img src=""stim_listA/touch2.gif""</stim_listA>",are touching each other,
null,"<div style=""font-size:60px;"">+</div>",,html-keyboard-response,267,1014765,0.0-15.0-0.4,93473,List2A,white,woman,,,,null,,,,
null,"<img src=""stim_listA/touch5.gif""</stim_listA>",,html-keyboard-response,268,1016780,0.0-15.0-1.4,93473,List2A,white,woman,,,,null,,,,
null,is touching,,html-keyboard-response,269,1018781,0.0-15.0-2.4,93473,List2A,white,woman,,,,null,,,,
5075,,,survey-text,270,1023856,0.0-15.0-3.4,93473,List2A,white,woman,,,,,"{""Q0"":""dave is touching mike""}","<img src=""stim_listA/touch5.gif""</stim_listA>",is touching,
null,"<div style=""font-size:60px;"">+</div>",,html-keyboard-response,271,1024361,0.0-15.0-0.5,93473,List2A,white,woman,,,,null,,,,
null,"<img src=""stim_listA/shout7.gif""</stim_listA>",,html-keyboard-response,272,1026378,0.0-15.0-1.5,93473,List2A,white,woman,,,,null,,,,
null,is shouting at,,html-keyboard-response,273,1028393,0.0-15.0-2.5,93473,List2A,white,woman,,,,null,,,,
9958,,,survey-text,274,1038352,0.0-15.0-3.5,93473,List2A,white,woman,,,,,"{""Q0"":""beth is shouting at jane""}","<img src=""stim_listA/shout7.gif""</stim_listA>",is shouting at,
null,"<div style=""font-size:60px;"">+</div>",,html-keyboard-response,275,1038869,0.0-15.0-0.6,93473,List2A,white,woman,,,,null,,,,
null,"<img src=""stim_listA/hug2.gif""</stim_listA>",,html-keyboard-response,276,1040881,0.0-15.0-1.6,93473,List2A,white,woman,,,,null,,,,
null,are hugging each other,,html-keyboard-response,277,1042883,0.0-15.0-2.6,93473,List2A,white,woman,,,,null,,,,
7140,,,survey-text,278,1050024,0.0-15.0-3.6,93473,List2A,white,woman,,,,,"{""Q0"":""ruth and dave are hugging each other""}","<img src=""stim_listA/hug2.gif""</stim_listA>",are hugging each other,
null,"<div style=""font-size:60px;"">+</div>",,html-keyboard-response,279,1050533,0.0-15.0-0.7,93473,List2A,white,woman,,,,null,,,,
null,"<img src=""stim_listA/talk1.gif""</stim_listA>",,html-keyboard-response,280,1052538,0.0-15.0-1.7,93473,List2A,white,woman,,,,null,,,,
null,is talking to,,html-keyboard-response,281,1054580,0.0-15.0-2.7,93473,List2A,white,woman,,,,null,,,,
7516,,,survey-text,282,1062097,0.0-15.0-3.7,93473,List2A,white,woman,,,,,"{""Q0"":""luke is talking to ruth""}","<img src=""stim_listA/talk1.gif""</stim_listA>",is talking to,
null,"<div style=""font-size:60px;"">+</div>",,html-keyboard-response,283,1062598,0.0-15.0-0.8,93473,List2A,white,woman,,,,null,,,,
null,"<img src=""stim_listA/fight5.gif""</stim_listA>",,html-keyboard-response,284,1064611,0.0-15.0-1.8,93473,List2A,white,woman,,,,null,,,,
null,is fighting,,html-keyboard-response,285,1066612,0.0-15.0-2.8,93473,List2A,white,woman,,,,null,,,,
4587,,,survey-text,286,1071200,0.0-15.0-3.8,93473,List2A,white,woman,,,,,"{""Q0"":""dave is fighting mike""}","<img src=""stim_listA/fight5.gif""</stim_listA>",is fighting,
null,"<div style=""font-size:60px;"">+</div>",,html-keyboard-response,287,1071712,0.0-15.0-0.9,93473,List2A,white,woman,,,,null,,,,
null,"<img src=""stim_listA/touch1.gif""</stim_listA>",,html-keyboard-response,288,1073713,0.0-15.0-1.9,93473,List2A,white,woman,,,,null,,,,
null,is touching,,html-keyboard-response,289,1075720,0.0-15.0-2.9,93473,List2A,white,woman,,,,null,,,,
6072,,,survey-text,290,1081792,0.0-15.0-3.9,93473,List2A,white,woman,,,,,"{""Q0"":""ruth is touching dave""}","<img src=""stim_listA/touch1.gif""</stim_listA>",is touching,
null,"<div style=""font-size:60px;"">+</div>",,html-keyboard-response,291,1082307,0.0-15.0-0.10,93473,List2A,white,woman,,,,null,,,,
null,"<img src=""stim_listA/shout5.gif""</stim_listA>",,html-keyboard-response,292,1084310,0.0-15.0-1.10,93473,List2A,white,woman,,,,null,,,,
null,is shouting at,,html-keyboard-response,293,1086312,0.0-15.0-2.10,93473,List2A,white,woman,,,,null,,,,
5678,,,survey-text,294,1091992,0.0-15.0-3.10,93473,List2A,white,woman,,,,,"{""Q0"":""luke is shouting at fred""}","<img src=""stim_listA/shout5.gif""</stim_listA>",is shouting at,
null,"<div style=""font-size:60px;"">+</div>",,html-keyboard-response,295,1092501,0.0-15.0-0.11,93473,List2A,white,woman,,,,null,,,,
null,"<img src=""stim_listA/marry7.gif""</stim_listA>",,html-keyboard-response,296,1094503,0.0-15.0-1.11,93473,List2A,white,woman,,,,null,,,,
null,is marrying,,html-keyboard-response,297,1096505,0.0-15.0-2.11,93473,List2A,white,woman,,,,null,,,,
4910,,,survey-text,298,1101415,0.0-15.0-3.11,93473,List2A,white,woman,,,,,"{""Q0"":""ruth is marrying beth""}","<img src=""stim_listA/marry7.gif""</stim_listA>",is marrying,
null,"<div style=""font-size:60px;"">+</div>",,html-keyboard-response,299,1101930,0.0-15.0-0.12,93473,List2A,white,woman,,,,null,,,,
null,"<img src=""stim_listA/argue3.gif""</stim_listA>",,html-keyboard-response,300,1103939,0.0-15.0-1.12,93473,List2A,white,woman,,,,null,,,,
null,is arguing with,,html-keyboard-response,301,1105939,0.0-15.0-2.12,93473,List2A,white,woman,,,,null,,,,
5380,,,survey-text,302,1111320,0.0-15.0-3.12,93473,List2A,white,woman,,,,,"{""Q0"":""beth is arguing with mike""}","<img src=""stim_listA/argue3.gif""</stim_listA>",is arguing with,
null,"<div style=""font-size:60px;"">+</div>",,html-keyboard-response,303,1111826,0.0-15.0-0.13,93473,List2A,white,woman,,,,null,,,,
null,"<img src=""stim_listA/argue2.gif""</stim_listA>",,html-keyboard-response,304,1113828,0.0-15.0-1.13,93473,List2A,white,woman,,,,null,,,,
null,are arguing with each other,,html-keyboard-response,305,1115929,0.0-15.0-2.13,93473,List2A,white,woman,,,,null,,,,
7431,,,survey-text,306,1123362,0.0-15.0-3.13,93473,List2A,white,woman,,,,,"{""Q0"":""ruth and luke are arguing with each other""}","<img src=""stim_listA/argue2.gif""</stim_listA>",are arguing with each other,
null,"<div style=""font-size:60px;"">+</div>",,html-keyboard-response,307,1123870,0.0-15.0-0.14,93473,List2A,white,woman,,,,null,,,,
null,"<img src=""stim_listA/fight6.gif""</stim_listA>",,html-keyboard-response,308,1125873,0.0-15.0-1.14,93473,List2A,white,woman,,,,null,,,,
null,are fighting each other,,html-keyboard-response,309,1127874,0.0-15.0-2.14,93473,List2A,white,woman,,,,null,,,,
6591,,,survey-text,310,1134466,0.0-15.0-3.14,93473,List2A,white,woman,,,,,"{""Q0"":""fred and luke are fighting each other""}","<img src=""stim_listA/fight6.gif""</stim_listA>",are fighting each other,
null,"<div style=""font-size:60px;"">+</div>",,html-keyboard-response,311,1134981,0.0-15.0-0.15,93473,List2A,white,woman,,,,null,,,,
null,"<img src=""stim_listA/argue7.gif""</stim_listA>",,html-keyboard-response,312,1136984,0.0-15.0-1.15,93473,List2A,white,woman,,,,null,,,,
null,is arguing with,,html-keyboard-response,313,1138985,0.0-15.0-2.15,93473,List2A,white,woman,,,,null,,,,
6239,,,survey-text,314,1145226,0.0-15.0-3.15,93473,List2A,white,woman,,,,,"{""Q0"":""beth is arguing with ruth""}","<img src=""stim_listA/argue7.gif""</stim_listA>",is arguing with,
null,"<div style=""font-size:60px;"">+</div>",,html-keyboard-response,315,1145729,0.0-15.0-0.16,93473,List2A,white,woman,,,,null,,,,
null,"<img src=""stim_listA/touch7.gif""</stim_listA>",,html-keyboard-response,316,1147733,0.0-15.0-1.16,93473,List2A,white,woman,,,,null,,,,
null,is touching,,html-keyboard-response,317,1149738,0.0-15.0-2.16,93473,List2A,white,woman,,,,null,,,,
4479,,,survey-text,318,1154217,0.0-15.0-3.16,93473,List2A,white,woman,,,,,"{""Q0"":""kate is touching ruth""}","<img src=""stim_listA/touch7.gif""</stim_listA>",is touching,
null,"<div style=""font-size:60px;"">+</div>",,html-keyboard-response,319,1154727,0.0-15.0-0.17,93473,List2A,white,woman,,,,null,,,,
null,"<img src=""stim_listA/shout4.gif""</stim_listA>",,html-keyboard-response,320,1156739,0.0-15.0-1.17,93473,List2A,white,woman,,,,null,,,,
null,are shouting at each other,,html-keyboard-response,321,1158743,0.0-15.0-2.17,93473,List2A,white,woman,,,,null,,,,
7090,,,survey-text,322,1165833,0.0-15.0-3.17,93473,List2A,white,woman,,,,,"{""Q0"":""kate and mike are shouting at each other""}","<img src=""stim_listA/shout4.gif""</stim_listA>",are shouting at each other,
null,"<div style=""font-size:60px;"">+</div>",,html-keyboard-response,323,1166335,0.0-15.0-0.18,93473,List2A,white,woman,,,,null,,,,
null,"<img src=""stim_listA/argue5.gif""</stim_listA>",,html-keyboard-response,324,1168338,0.0-15.0-1.18,93473,List2A,white,woman,,,,null,,,,
null,is arguing with,,html-keyboard-response,325,1170340,0.0-15.0-2.18,93473,List2A,white,woman,,,,null,,,,
5163,,,survey-text,326,1175504,0.0-15.0-3.18,93473,List2A,white,woman,,,,,"{""Q0"":""fred is arguing with dave""}","<img src=""stim_listA/argue5.gif""</stim_listA>",is arguing with,
null,"<div style=""font-size:60px;"">+</div>",,html-keyboard-response,327,1176170,0.0-15.0-0.19,93473,List2A,white,woman,,,,null,,,,
null,"<img src=""stim_listA/talk5.gif""</stim_listA>",,html-keyboard-response,328,1178179,0.0-15.0-1.19,93473,List2A,white,woman,,,,null,,,,
null,is talking to,,html-keyboard-response,329,1180180,0.0-15.0-2.19,93473,List2A,white,woman,,,,null,,,,
4573,,,survey-text,330,1184754,0.0-15.0-3.19,93473,List2A,white,woman,,,,,"{""Q0"":""luke is talking to mike""}","<img src=""stim_listA/talk5.gif""</stim_listA>",is talking to,
11511,"<img src='img/portrait_matrix_list2.JPG' style='width:900px;height:500px;''></img><p>If you have memorised all the portraits and names and are ready to start, press Continue.</p><p><strong>Please note: Your memory of these faces will be tested 4 times during this experiment.</strong></p>",0,html-button-response,331,1196266,0.0-16.0-0.0,93473,List2A,white,woman,,,,,,,,
1893,"<img src=""portrait/WM1.jpg""style=""width:400px;height:400px;""></img>",6,html-button-response,332,1199170,0.0-16.0-1.0,93473,List2A,white,woman,,TRUE,6,,,,,
null,CORRECT,,html-keyboard-response,333,1200692,0.0-16.0-2.0-0.0,93473,List2A,white,woman,,,,null,,,,
1476,"<img src=""portrait/BM1.jpg""style=""width:400px;height:400px;""></img>",4,html-button-response,334,1202170,0.0-16.0-4.0,93473,List2A,white,woman,,TRUE,4,,,,,
null,CORRECT,,html-keyboard-response,335,1203691,0.0-16.0-5.0-0.0,93473,List2A,white,woman,,,,null,,,,
2053,"<img src=""portrait/BM2.jpg""style=""width:400px;height:400px;""></img>",5,html-button-response,336,1205746,0.0-16.0-7.0,93473,List2A,white,woman,,TRUE,5,,,,,
null,CORRECT,,html-keyboard-response,337,1207260,0.0-16.0-8.0-0.0,93473,List2A,white,woman,,,,null,,,,
1597,"<img src=""portrait/BW2.jpg""style=""width:400px;height:400px;""></img>",2,html-button-response,338,1208858,0.0-16.0-10.0,93473,List2A,white,woman,,TRUE,2,,,,,
null,CORRECT,,html-keyboard-response,339,1210361,0.0-16.0-11.0-0.0,93473,List2A,white,woman,,,,null,,,,
1127,"<img src=""portrait/WW2.jpg""style=""width:400px;height:400px;""></img>",3,html-button-response,340,1211489,0.0-16.0-13.0,93473,List2A,white,woman,,TRUE,3,,,,,
null,CORRECT,,html-keyboard-response,341,1213002,0.0-16.0-14.0-0.0,93473,List2A,white,woman,,,,null,,,,
1454,"<img src=""portrait/WM2.jpg""style=""width:400px;height:400px;""></img>",7,html-button-response,342,1214457,0.0-16.0-16.0,93473,List2A,white,woman,,TRUE,7,,,,,
null,CORRECT,,html-keyboard-response,343,1215973,0.0-16.0-17.0-0.0,93473,List2A,white,woman,,,,null,,,,
3186,"<img src=""portrait/BW1.jpg""style=""width:400px;height:400px;""></img>",0,html-button-response,344,1219160,0.0-16.0-19.0,93473,List2A,white,woman,,TRUE,0,,,,,
null,CORRECT,,html-keyboard-response,345,1220670,0.0-16.0-20.0-0.0,93473,List2A,white,woman,,,,null,,,,
6018,"<img src=""portrait/WW1.jpg""style=""width:400px;height:400px;""></img>",1,html-button-response,346,1226689,0.0-16.0-22.0,93473,List2A,white,woman,,TRUE,1,,,,,
null,CORRECT,,html-keyboard-response,347,1228199,0.0-16.0-23.0-0.0,93473,List2A,white,woman,,,,null,,,,
1297,<p>You got 8 out of 8 right first time. Press Continue.</p>,0,html-button-response,348,1229497,0.0-16.0-25.0,93473,List2A,white,woman,,,,,,,,
null,"<div style=""font-size:60px;"">+</div>",,html-keyboard-response,349,1231013,0.0-17.0-0.0,93473,List2A,white,woman,,,,null,,,,
null,"<img src=""stim_listA/dance7.gif""</stim_listA>",,html-keyboard-response,350,1233016,0.0-17.0-1.0,93473,List2A,white,woman,,,,null,,,,
null,is dancing with,,html-keyboard-response,351,1235027,0.0-17.0-2.0,93473,List2A,white,woman,,,,null,,,,
8464,,,survey-text,352,1243491,0.0-17.0-3.0,93473,List2A,white,woman,,,,,"{""Q0"":""kate is dancing with ruth""}","<img src=""stim_listA/dance7.gif""</stim_listA>",is dancing with,
null,"<div style=""font-size:60px;"">+</div>",,html-keyboard-response,353,1244001,0.0-17.0-0.1,93473,List2A,white,woman,,,,null,,,,
null,"<img src=""stim_listA/talk6.gif""</stim_listA>",,html-keyboard-response,354,1246005,0.0-17.0-1.1,93473,List2A,white,woman,,,,null,,,,
null,are talking to each other,,html-keyboard-response,355,1248012,0.0-17.0-2.1,93473,List2A,white,woman,,,,null,,,,
6597,,,survey-text,356,1254611,0.0-17.0-3.1,93473,List2A,white,woman,,,,,"{""Q0"":""fred and dave are talking to each other""}","<img src=""stim_listA/talk6.gif""</stim_listA>",are talking to each other,
null,"<div style=""font-size:60px;"">+</div>",,html-keyboard-response,357,1255115,0.0-17.0-0.2,93473,List2A,white,woman,,,,null,,,,
null,"<img src=""stim_listA/touch3.gif""</stim_listA>",,html-keyboard-response,358,1257117,0.0-17.0-1.2,93473,List2A,white,woman,,,,null,,,,
null,is touching,,html-keyboard-response,359,1259133,0.0-17.0-2.2,93473,List2A,white,woman,,,,null,,,,
5980,,,survey-text,360,1265114,0.0-17.0-3.2,93473,List2A,white,woman,,,,,"{""Q0"":""kate is touching mike""}","<img src=""stim_listA/touch3.gif""</stim_listA>",is touching,
null,"<div style=""font-size:60px;"">+</div>",,html-keyboard-response,361,1265626,0.0-17.0-0.3,93473,List2A,white,woman,,,,null,,,,
null,"<img src=""stim_listA/dance6.gif""</stim_listA>",,html-keyboard-response,362,1267628,0.0-17.0-1.3,93473,List2A,white,woman,,,,null,,,,
null,are dancing with each other,,html-keyboard-response,363,1269641,0.0-17.0-2.3,93473,List2A,white,woman,,,,null,,,,
6768,,,survey-text,364,1276410,0.0-17.0-3.3,93473,List2A,white,woman,,,,,"{""Q0"":""fred and dave are dancing with each other""}","<img src=""stim_listA/dance6.gif""</stim_listA>",are dancing with each other,
null,"<div style=""font-size:60px;"">+</div>",,html-keyboard-response,365,1276919,0.0-17.0-0.4,93473,List2A,white,woman,,,,null,,,,
null,"<img src=""stim_listA/shout1.gif""</stim_listA>",,html-keyboard-response,366,1278933,0.0-17.0-1.4,93473,List2A,white,woman,,,,null,,,,
null,is shouting at,,html-keyboard-response,367,1280948,0.0-17.0-2.4,93473,List2A,white,woman,,,,null,,,,
7406,,,survey-text,368,1288354,0.0-17.0-3.4,93473,List2A,white,woman,,,,,"{""Q0"":""luke is shouting at ruth""}","<img src=""stim_listA/shout1.gif""</stim_listA>",is shouting at,
null,"<div style=""font-size:60px;"">+</div>",,html-keyboard-response,369,1288856,0.0-17.0-0.5,93473,List2A,white,woman,,,,null,,,,
null,"<img src=""stim_listA/dance4.gif""</stim_listA>",,html-keyboard-response,370,1290869,0.0-17.0-1.5,93473,List2A,white,woman,,,,null,,,,
null,are dancing with each other,,html-keyboard-response,371,1292870,0.0-17.0-2.5,93473,List2A,white,woman,,,,null,,,,
8114,,,survey-text,372,1300984,0.0-17.0-3.5,93473,List2A,white,woman,,,,,"{""Q0"":""beth and mike are dancing with each other""}","<img src=""stim_listA/dance4.gif""</stim_listA>",are dancing with each other,
null,"<div style=""font-size:60px;"">+</div>",,html-keyboard-response,373,1301499,0.0-17.0-0.6,93473,List2A,white,woman,,,,null,,,,
null,"<img src=""stim_listA/hug8.gif""</stim_listA>",,html-keyboard-response,374,1303503,0.0-17.0-1.6,93473,List2A,white,woman,,,,null,,,,
null,are hugging each other,,html-keyboard-response,375,1305511,0.0-17.0-2.6,93473,List2A,white,woman,,,,null,,,,
12759,,,survey-text,376,1318272,0.0-17.0-3.6,93473,List2A,white,woman,,,,,"{""Q0"":""beth and jane are hugging each other""}","<img src=""stim_listA/hug8.gif""</stim_listA>",are hugging each other,
null,"<div style=""font-size:60px;"">+</div>",,html-keyboard-response,377,1318777,0.0-17.0-0.7,93473,List2A,white,woman,,,,null,,,,
null,"<img src=""stim_listA/shout3.gif""</stim_listA>",,html-keyboard-response,378,1320780,0.0-17.0-1.7,93473,List2A,white,woman,,,,null,,,,
null,is shouting at,,html-keyboard-response,379,1322781,0.0-17.0-2.7,93473,List2A,white,woman,,,,null,,,,
5281,,,survey-text,380,1328064,0.0-17.0-3.7,93473,List2A,white,woman,,,,,"{""Q0"":""beth is shouting at fred""}","<img src=""stim_listA/shout3.gif""</stim_listA>",is shouting at,
null,"<div style=""font-size:60px;"">+</div>",,html-keyboard-response,381,1328573,0.0-17.0-0.8,93473,List2A,white,woman,,,,null,,,,
null,"<img src=""stim_listA/marry6.gif""</stim_listA>",,html-keyboard-response,382,1330589,0.0-17.0-1.8,93473,List2A,white,woman,,,,null,,,,
null,are marrying each other,,html-keyboard-response,383,1332601,0.0-17.0-2.8,93473,List2A,white,woman,,,,null,,,,
9125,,,survey-text,384,1341727,0.0-17.0-3.8,93473,List2A,white,woman,,,,,"{""Q0"":""luke and mike are marrying each other""}","<img src=""stim_listA/marry6.gif""</stim_listA>",are marrying each other,
null,"<div style=""font-size:60px;"">+</div>",,html-keyboard-response,385,1342230,0.0-17.0-0.9,93473,List2A,white,woman,,,,null,,,,
null,"<img src=""stim_listA/talk8.gif""</stim_listA>",,html-keyboard-response,386,1344238,0.0-17.0-1.9,93473,List2A,white,woman,,,,null,,,,
null,are talking to each other,,html-keyboard-response,387,1346239,0.0-17.0-2.9,93473,List2A,white,woman,,,,null,,,,
14901,,,survey-text,388,1361142,0.0-17.0-3.9,93473,List2A,white,woman,,,,,"{""Q0"":""beth and jane are arguing with each other""}","<img src=""stim_listA/talk8.gif""</stim_listA>",are talking to each other,
null,"<div style=""font-size:60px;"">+</div>",,html-keyboard-response,389,1361643,0.0-17.0-0.10,93473,List2A,white,woman,,,,null,,,,
null,"<img src=""stim_listA/fight4.gif""</stim_listA>",,html-keyboard-response,390,1363649,0.0-17.0-1.10,93473,List2A,white,woman,,,,null,,,,
null,are fighting each other,,html-keyboard-response,391,1365649,0.0-17.0-2.10,93473,List2A,white,woman,,,,null,,,,
8411,,,survey-text,392,1374062,0.0-17.0-3.10,93473,List2A,white,woman,,,,,"{""Q0"":""beth and fred are fighting each other""}","<img src=""stim_listA/fight4.gif""</stim_listA>",are fighting each other,
null,"<div style=""font-size:60px;"">+</div>",,html-keyboard-response,393,1374568,0.0-17.0-0.11,93473,List2A,white,woman,,,,null,,,,
null,"<img src=""stim_listA/talk3.gif""</stim_listA>",,html-keyboard-response,394,1376600,0.0-17.0-1.11,93473,List2A,white,woman,,,,null,,,,
null,is talking to,,html-keyboard-response,395,1378602,0.0-17.0-2.11,93473,List2A,white,woman,,,,null,,,,
4771,,,survey-text,396,1383373,0.0-17.0-3.11,93473,List2A,white,woman,,,,,"{""Q0"":""kate is talking to fred""}","<img src=""stim_listA/talk3.gif""</stim_listA>",is talking to,
null,"<div style=""font-size:60px;"">+</div>",,html-keyboard-response,397,1383879,0.0-17.0-0.12,93473,List2A,white,woman,,,,null,,,,
null,"<img src=""stim_listA/kiss6.gif""</stim_listA>",,html-keyboard-response,398,1385885,0.0-17.0-1.12,93473,List2A,white,woman,,,,null,,,,
null,are kissing each other,,html-keyboard-response,399,1387900,0.0-17.0-2.12,93473,List2A,white,woman,,,,null,,,,
8112,,,survey-text,400,1396012,0.0-17.0-3.12,93473,List2A,white,woman,,,,,"{""Q0"":""dave and mike are kissing each other""}","<img src=""stim_listA/kiss6.gif""</stim_listA>",are kissing each other,
null,"<div style=""font-size:60px;"">+</div>",,html-keyboard-response,401,1396530,0.0-17.0-0.13,93473,List2A,white,woman,,,,null,,,,
null,"<img src=""stim_listA/hug4.gif""</stim_listA>",,html-keyboard-response,402,1398541,0.0-17.0-1.13,93473,List2A,white,woman,,,,null,,,,
null,are hugging each other,,html-keyboard-response,403,1400550,0.0-17.0-2.13,93473,List2A,white,woman,,,,null,,,,
6925,,,survey-text,404,1407477,0.0-17.0-3.13,93473,List2A,white,woman,,,,,"{""Q0"":""kate and mike are hugging each other""}","<img src=""stim_listA/hug4.gif""</stim_listA>",are hugging each other,
null,"<div style=""font-size:60px;"">+</div>",,html-keyboard-response,405,1407983,0.0-17.0-0.14,93473,List2A,white,woman,,,,null,,,,
null,"<img src=""stim_listA/shout8.gif""</stim_listA>",,html-keyboard-response,406,1409993,0.0-17.0-1.14,93473,List2A,white,woman,,,,null,,,,
null,are shouting at each other,,html-keyboard-response,407,1412007,0.0-17.0-2.14,93473,List2A,white,woman,,,,null,,,,
13369,,,survey-text,408,1425376,0.0-17.0-3.14,93473,List2A,white,woman,,,,,"{""Q0"":""kate and jane are shouting at each other""}","<img src=""stim_listA/shout8.gif""</stim_listA>",are shouting at each other,
null,"<div style=""font-size:60px;"">+</div>",,html-keyboard-response,409,1425888,0.0-17.0-0.15,93473,List2A,white,woman,,,,null,,,,
null,"<img src=""stim_listA/touch4.gif""</stim_listA>",,html-keyboard-response,410,1427892,0.0-17.0-1.15,93473,List2A,white,woman,,,,null,,,,
null,are touching each other,,html-keyboard-response,411,1429903,0.0-17.0-2.15,93473,List2A,white,woman,,,,null,,,,
7632,,,survey-text,412,1437536,0.0-17.0-3.15,93473,List2A,white,woman,,,,,"{""Q0"":""beth and fred are touching each other""}","<img src=""stim_listA/touch4.gif""</stim_listA>",are touching each other,
null,"<div style=""font-size:60px;"">+</div>",,html-keyboard-response,413,1438050,0.0-17.0-0.16,93473,List2A,white,woman,,,,null,,,,
null,"<img src=""stim_listA/marry4.gif""</stim_listA>",,html-keyboard-response,414,1440053,0.0-17.0-1.16,93473,List2A,white,woman,,,,null,,,,
null,are marrying each other,,html-keyboard-response,415,1442054,0.0-17.0-2.16,93473,List2A,white,woman,,,,null,,,,
10936,,,survey-text,416,1452991,0.0-17.0-3.16,93473,List2A,white,woman,,,,,"{""Q0"":""kate and fred are marrying each other""}","<img src=""stim_listA/marry4.gif""</stim_listA>",are marrying each other,
null,"<div style=""font-size:60px;"">+</div>",,html-keyboard-response,417,1453519,0.0-17.0-0.17,93473,List2A,white,woman,,,,null,,,,
null,"<img src=""stim_listA/touch8.gif""</stim_listA>",,html-keyboard-response,418,1455531,0.0-17.0-1.17,93473,List2A,white,woman,,,,null,,,,
null,are touching each other,,html-keyboard-response,419,1457534,0.0-17.0-2.17,93473,List2A,white,woman,,,,null,,,,
8495,,,survey-text,420,1466030,0.0-17.0-3.17,93473,List2A,white,woman,,,,,"{""Q0"":""beth and ruth are touching each other""}","<img src=""stim_listA/touch8.gif""</stim_listA>",are touching each other,
null,"<div style=""font-size:60px;"">+</div>",,html-keyboard-response,421,1466536,0.0-17.0-0.18,93473,List2A,white,woman,,,,null,,,,
null,"<img src=""stim_listA/meet6.gif""</stim_listA>",,html-keyboard-response,422,1468540,0.0-17.0-1.18,93473,List2A,white,woman,,,,null,,,,
null,are meeting each other,,html-keyboard-response,423,1470549,0.0-17.0-2.18,93473,List2A,white,woman,,,,null,,,,
6561,,,survey-text,424,1477111,0.0-17.0-3.18,93473,List2A,white,woman,,,,,"{""Q0"":""luke and fred are meeting each other""}","<img src=""stim_listA/meet6.gif""</stim_listA>",are meeting each other,
null,"<div style=""font-size:60px;"">+</div>",,html-keyboard-response,425,1477713,0.0-17.0-0.19,93473,List2A,white,woman,,,,null,,,,
null,"<img src=""stim_listA/kiss4.gif""</stim_listA>",,html-keyboard-response,426,1479716,0.0-17.0-1.19,93473,List2A,white,woman,,,,null,,,,
null,are kissing each other,,html-keyboard-response,427,1481719,0.0-17.0-2.19,93473,List2A,white,woman,,,,null,,,,
6423,,,survey-text,428,1488143,0.0-17.0-3.19,93473,List2A,white,woman,,,,,"{""Q0"":""kate and mike are kissing each other""}","<img src=""stim_listA/kiss4.gif""</stim_listA>",are kissing each other,
8694,"<img src='img/portrait_matrix_list2.JPG' style='width:900px;height:500px;''></img><p>If you have memorised all the portraits and names and are ready to start, press Continue.</p><p><strong>Please note: Your memory of these faces will be tested 4 times during this experiment.</strong></p>",0,html-button-response,429,1496838,0.0-18.0-0.0,93473,List2A,white,woman,,,,,,,,
2084,"<img src=""portrait/BM2.jpg""style=""width:400px;height:400px;""></img>",5,html-button-response,430,1499935,0.0-18.0-1.0,93473,List2A,white,woman,,TRUE,5,,,,,
null,CORRECT,,html-keyboard-response,431,1501454,0.0-18.0-2.0-0.0,93473,List2A,white,woman,,,,null,,,,
1383,"<img src=""portrait/WM2.jpg""style=""width:400px;height:400px;""></img>",7,html-button-response,432,1502839,0.0-18.0-4.0,93473,List2A,white,woman,,TRUE,7,,,,,
null,CORRECT,,html-keyboard-response,433,1504361,0.0-18.0-5.0-0.0,93473,List2A,white,woman,,,,null,,,,
2085,"<img src=""portrait/WM1.jpg""style=""width:400px;height:400px;""></img>",6,html-button-response,434,1506446,0.0-18.0-7.0,93473,List2A,white,woman,,TRUE,6,,,,,
null,CORRECT,,html-keyboard-response,435,1507973,0.0-18.0-8.0-0.0,93473,List2A,white,woman,,,,null,,,,
3368,"<img src=""portrait/BW1.jpg""style=""width:400px;height:400px;""></img>",0,html-button-response,436,1511343,0.0-18.0-10.0,93473,List2A,white,woman,,TRUE,0,,,,,
null,CORRECT,,html-keyboard-response,437,1512859,0.0-18.0-11.0-0.0,93473,List2A,white,woman,,,,null,,,,
2546,"<img src=""portrait/WW1.jpg""style=""width:400px;height:400px;""></img>",1,html-button-response,438,1515407,0.0-18.0-13.0,93473,List2A,white,woman,,TRUE,1,,,,,
null,CORRECT,,html-keyboard-response,439,1516924,0.0-18.0-14.0-0.0,93473,List2A,white,woman,,,,null,,,,
1945,"<img src=""portrait/BM1.jpg""style=""width:400px;height:400px;""></img>",4,html-button-response,440,1518870,0.0-18.0-16.0,93473,List2A,white,woman,,TRUE,4,,,,,
null,CORRECT,,html-keyboard-response,441,1520386,0.0-18.0-17.0-0.0,93473,List2A,white,woman,,,,null,,,,
1563,"<img src=""portrait/BW2.jpg""style=""width:400px;height:400px;""></img>",2,html-button-response,442,1521950,0.0-18.0-19.0,93473,List2A,white,woman,,TRUE,2,,,,,
null,CORRECT,,html-keyboard-response,443,1523457,0.0-18.0-20.0-0.0,93473,List2A,white,woman,,,,null,,,,
876,"<img src=""portrait/WW2.jpg""style=""width:400px;height:400px;""></img>",3,html-button-response,444,1524334,0.0-18.0-22.0,93473,List2A,white,woman,,TRUE,3,,,,,
null,CORRECT,,html-keyboard-response,445,1525841,0.0-18.0-23.0-0.0,93473,List2A,white,woman,,,,null,,,,
3931,<p>You got 8 out of 8 right first time. Press Continue.</p>,0,html-button-response,446,1529774,0.0-18.0-25.0,93473,List2A,white,woman,,,,,,,,
null,"<div style=""font-size:60px;"">+</div>",,html-keyboard-response,447,1531284,0.0-19.0-0.0,93473,List2A,white,woman,,,,null,,,,
null,"<img src=""stim_listA/talk2.gif""</stim_listA>",,html-keyboard-response,448,1533315,0.0-19.0-1.0,93473,List2A,white,woman,,,,null,,,,
null,are talking to each other,,html-keyboard-response,449,1535316,0.0-19.0-2.0,93473,List2A,white,woman,,,,null,,,,
7333,,,survey-text,450,1542650,0.0-19.0-3.0,93473,List2A,white,woman,,,,,"{""Q0"":""dave and ruth are talking to each other""}","<img src=""stim_listA/talk2.gif""</stim_listA>",are talking to each other,
null,"<div style=""font-size:60px;"">+</div>",,html-keyboard-response,451,1543155,0.0-19.0-0.1,93473,List2A,white,woman,,,,null,,,,
null,"<img src=""stim_listA/dance3.gif""</stim_listA>",,html-keyboard-response,452,1545159,0.0-19.0-1.1,93473,List2A,white,woman,,,,null,,,,
null,is dancing with,,html-keyboard-response,453,1547171,0.0-19.0-2.1,93473,List2A,white,woman,,,,null,,,,
5966,,,survey-text,454,1553137,0.0-19.0-3.1,93473,List2A,white,woman,,,,,"{""Q0"":""fred is dancing with kate""}","<img src=""stim_listA/dance3.gif""</stim_listA>",is dancing with,
null,"<div style=""font-size:60px;"">+</div>",,html-keyboard-response,455,1553639,0.0-19.0-0.2,93473,List2A,white,woman,,,,null,,,,
null,"<img src=""stim_listA/kiss2.gif""</stim_listA>",,html-keyboard-response,456,1555653,0.0-19.0-1.2,93473,List2A,white,woman,,,,null,,,,
null,are kissing each other,,html-keyboard-response,457,1557668,0.0-19.0-2.2,93473,List2A,white,woman,,,,null,,,,
8157,,,survey-text,458,1565825,0.0-19.0-3.2,93473,List2A,white,woman,,,,,"{""Q0"":""jane and dave are kissing each other""}","<img src=""stim_listA/kiss2.gif""</stim_listA>",are kissing each other,
null,"<div style=""font-size:60px;"">+</div>",,html-keyboard-response,459,1566331,0.0-19.0-0.3,93473,List2A,white,woman,,,,null,,,,
null,"<img src=""stim_listA/fight2.gif""</stim_listA>",,html-keyboard-response,460,1568337,0.0-19.0-1.3,93473,List2A,white,woman,,,,null,,,,
null,are fighting each other,,html-keyboard-response,461,1570338,0.0-19.0-2.3,93473,List2A,white,woman,,,,null,,,,
9078,,,survey-text,462,1579417,0.0-19.0-3.3,93473,List2A,white,woman,,,,,"{""Q0"":""ruth and luke are fighting each other""}","<img src=""stim_listA/fight2.gif""</stim_listA>",are fighting each other,
null,"<div style=""font-size:60px;"">+</div>",,html-keyboard-response,463,1579925,0.0-19.0-0.4,93473,List2A,white,woman,,,,null,,,,
null,"<img src=""stim_listA/kiss1.gif""</stim_listA>",,html-keyboard-response,464,1581930,0.0-19.0-1.4,93473,List2A,white,woman,,,,null,,,,
null,is kissing,,html-keyboard-response,465,1583939,0.0-19.0-2.4,93473,List2A,white,woman,,,,null,,,,
6652,,,survey-text,466,1590593,0.0-19.0-3.4,93473,List2A,white,woman,,,,,"{""Q0"":""luke is kissing ruth""}","<img src=""stim_listA/kiss1.gif""</stim_listA>",is kissing,
null,"<div style=""font-size:60px;"">+</div>",,html-keyboard-response,467,1591102,0.0-19.0-0.5,93473,List2A,white,woman,,,,null,,,,
null,"<img src=""stim_listA/meet3.gif""</stim_listA>",,html-keyboard-response,468,1593116,0.0-19.0-1.5,93473,List2A,white,woman,,,,null,,,,
null,is meeting,,html-keyboard-response,469,1595132,0.0-19.0-2.5,93473,List2A,white,woman,,,,null,,,,
5051,,,survey-text,470,1600185,0.0-19.0-3.5,93473,List2A,white,woman,,,,,"{""Q0"":""mike is meeting kate""}","<img src=""stim_listA/meet3.gif""</stim_listA>",is meeting,
null,"<div style=""font-size:60px;"">+</div>",,html-keyboard-response,471,1600689,0.0-19.0-0.6,93473,List2A,white,woman,,,,null,,,,
null,"<img src=""stim_listA/talk4.gif""</stim_listA>",,html-keyboard-response,472,1602701,0.0-19.0-1.6,93473,List2A,white,woman,,,,null,,,,
null,are talking to each other,,html-keyboard-response,473,1604702,0.0-19.0-2.6,93473,List2A,white,woman,,,,null,,,,
6482,,,survey-text,474,1611185,0.0-19.0-3.6,93473,List2A,white,woman,,,,,"{""Q0"":""beth and mike are talking to each other""}","<img src=""stim_listA/talk4.gif""</stim_listA>",are talking to each other,
null,"<div style=""font-size:60px;"">+</div>",,html-keyboard-response,475,1611686,0.0-19.0-0.7,93473,List2A,white,woman,,,,null,,,,
null,"<img src=""stim_listA/hug7.gif""</stim_listA>",,html-keyboard-response,476,1613702,0.0-19.0-1.7,93473,List2A,white,woman,,,,null,,,,
null,is hugging,,html-keyboard-response,477,1615704,0.0-19.0-2.7,93473,List2A,white,woman,,,,null,,,,
9016,,,survey-text,478,1624720,0.0-19.0-3.7,93473,List2A,white,woman,,,,,"{""Q0"":""beth is hugging ruth""}","<img src=""stim_listA/hug7.gif""</stim_listA>",is hugging,
null,"<div style=""font-size:60px;"">+</div>",,html-keyboard-response,479,1625226,0.0-19.0-0.8,93473,List2A,white,woman,,,,null,,,,
null,"<img src=""stim_listA/argue1.gif""</stim_listA>",,html-keyboard-response,480,1627239,0.0-19.0-1.8,93473,List2A,white,woman,,,,null,,,,
null,is arguing with,,html-keyboard-response,481,1629249,0.0-19.0-2.8,93473,List2A,white,woman,,,,null,,,,
5981,,,survey-text,482,1635232,0.0-19.0-3.8,93473,List2A,white,woman,,,,,"{""Q0"":""ruth is arguing with dave""}","<img src=""stim_listA/argue1.gif""</stim_listA>",is arguing with,
null,"<div style=""font-size:60px;"">+</div>",,html-keyboard-response,483,1635735,0.0-19.0-0.9,93473,List2A,white,woman,,,,null,,,,
null,"<img src=""stim_listA/marry2.gif""</stim_listA>",,html-keyboard-response,484,1637742,0.0-19.0-1.9,93473,List2A,white,woman,,,,null,,,,
null,are marrying each other,,html-keyboard-response,485,1639752,0.0-19.0-2.9,93473,List2A,white,woman,,,,null,,,,
5935,,,survey-text,486,1645688,0.0-19.0-3.9,93473,List2A,white,woman,,,,,"{""Q0"":""jane and luke are marrying each other""}","<img src=""stim_listA/marry2.gif""</stim_listA>",are marrying each other,
null,"<div style=""font-size:60px;"">+</div>",,html-keyboard-response,487,1646199,0.0-19.0-0.10,93473,List2A,white,woman,,,,null,,,,
null,"<img src=""stim_listA/touch6.gif""</stim_listA>",,html-keyboard-response,488,1648201,0.0-19.0-1.10,93473,List2A,white,woman,,,,null,,,,
null,are touching each other,,html-keyboard-response,489,1650203,0.0-19.0-2.10,93473,List2A,white,woman,,,,null,,,,
7523,,,survey-text,490,1657728,0.0-19.0-3.10,93473,List2A,white,woman,,,,,"{""Q0"":""luke and fred are touching each other""}","<img src=""stim_listA/touch6.gif""</stim_listA>",are touching each other,
null,"<div style=""font-size:60px;"">+</div>",,html-keyboard-response,491,1658341,0.0-19.0-0.11,93473,List2A,white,woman,,,,null,,,,
null,"<img src=""stim_listA/shout6.gif""</stim_listA>",,html-keyboard-response,492,1660344,0.0-19.0-1.11,93473,List2A,white,woman,,,,null,,,,
null,are shouting at each other,,html-keyboard-response,493,1662346,0.0-19.0-2.11,93473,List2A,white,woman,,,,null,,,,
6408,,,survey-text,494,1668756,0.0-19.0-3.11,93473,List2A,white,woman,,,,,"{""Q0"":""dave and mike are shouting at each other""}","<img src=""stim_listA/shout6.gif""</stim_listA>",are shouting at each other,
null,"<div style=""font-size:60px;"">+</div>",,html-keyboard-response,495,1669270,0.0-19.0-0.12,93473,List2A,white,woman,,,,null,,,,
null,"<img src=""stim_listA/hug3.gif""</stim_listA>",,html-keyboard-response,496,1671286,0.0-19.0-1.12,93473,List2A,white,woman,,,,null,,,,
null,is hugging,,html-keyboard-response,497,1673286,0.0-19.0-2.12,93473,List2A,white,woman,,,,null,,,,
5026,,,survey-text,498,1678315,0.0-19.0-3.12,93473,List2A,white,woman,,,,,"{""Q0"":""beth is hugging fred""}","<img src=""stim_listA/hug3.gif""</stim_listA>",is hugging,
null,"<div style=""font-size:60px;"">+</div>",,html-keyboard-response,499,1678831,0.0-19.0-0.13,93473,List2A,white,woman,,,,null,,,,
null,"<img src=""stim_listA/meet2.gif""</stim_listA>",,html-keyboard-response,500,1680836,0.0-19.0-1.13,93473,List2A,white,woman,,,,null,,,,
null,are meeting each other,,html-keyboard-response,501,1682842,0.0-19.0-2.13,93473,List2A,white,woman,,,,null,,,,
6873,,,survey-text,502,1689715,0.0-19.0-3.13,93473,List2A,white,woman,,,,,"{""Q0"":""ruth and luke are meeting each other""}","<img src=""stim_listA/meet2.gif""</stim_listA>",are meeting each other,
null,"<div style=""font-size:60px;"">+</div>",,html-keyboard-response,503,1690224,0.0-19.0-0.14,93473,List2A,white,woman,,,,null,,,,
null,"<img src=""stim_listA/argue8.gif""</stim_listA>",,html-keyboard-response,504,1692232,0.0-19.0-1.14,93473,List2A,white,woman,,,,null,,,,
null,are arguing with each other,,html-keyboard-response,505,1694232,0.0-19.0-2.14,93473,List2A,white,woman,,,,null,,,,
10049,,,survey-text,506,1704283,0.0-19.0-3.14,93473,List2A,white,woman,,,,,"{""Q0"":""kate and ruth are arguing with each other""}","<img src=""stim_listA/argue8.gif""</stim_listA>",are arguing with each other,
null,"<div style=""font-size:60px;"">+</div>",,html-keyboard-response,507,1704786,0.0-19.0-0.15,93473,List2A,white,woman,,,,null,,,,
null,"<img src=""stim_listA/dance1.gif""</stim_listA>",,html-keyboard-response,508,1706818,0.0-19.0-1.15,93473,List2A,white,woman,,,,null,,,,
null,is dancing with,,html-keyboard-response,509,1708820,0.0-19.0-2.15,93473,List2A,white,woman,,,,null,,,,
5493,,,survey-text,510,1714314,0.0-19.0-3.15,93473,List2A,white,woman,,,,,"{""Q0"":""jane is dancing with luke""}","<img src=""stim_listA/dance1.gif""</stim_listA>",is dancing with,
null,"<div style=""font-size:60px;"">+</div>",,html-keyboard-response,511,1714818,0.0-19.0-0.16,93473,List2A,white,woman,,,,null,,,,
null,"<img src=""stim_listA/marry8.gif""</stim_listA>",,html-keyboard-response,512,1716824,0.0-19.0-1.16,93473,List2A,white,woman,,,,null,,,,
null,are marrying each other,,html-keyboard-response,513,1718886,0.0-19.0-2.16,93473,List2A,white,woman,,,,null,,,,
6464,,,survey-text,514,1725351,0.0-19.0-3.16,93473,List2A,white,woman,,,,,"{""Q0"":""ruth and kate are marrying each other""}","<img src=""stim_listA/marry8.gif""</stim_listA>",are marrying each other,
null,"<div style=""font-size:60px;"">+</div>",,html-keyboard-response,515,1725866,0.0-19.0-0.17,93473,List2A,white,woman,,,,null,,,,
null,"<img src=""stim_listA/meet8.gif""</stim_listA>",,html-keyboard-response,516,1727873,0.0-19.0-1.17,93473,List2A,white,woman,,,,null,,,,
null,are meeting each other,,html-keyboard-response,517,1729880,0.0-19.0-2.17,93473,List2A,white,woman,,,,null,,,,
5430,,,survey-text,518,1735311,0.0-19.0-3.17,93473,List2A,white,woman,,,,,"{""Q0"":""beth and ruth are meeting each other""}","<img src=""stim_listA/meet8.gif""</stim_listA>",are meeting each other,
null,"<div style=""font-size:60px;"">+</div>",,html-keyboard-response,519,1735814,0.0-19.0-0.18,93473,List2A,white,woman,,,,null,,,,
null,"<img src=""stim_listA/marry1.gif""</stim_listA>",,html-keyboard-response,520,1737816,0.0-19.0-1.18,93473,List2A,white,woman,,,,null,,,,
null,is marrying,,html-keyboard-response,521,1739822,0.0-19.0-2.18,93473,List2A,white,woman,,,,null,,,,
5255,,,survey-text,522,1745078,0.0-19.0-3.18,93473,List2A,white,woman,,,,,"{""Q0"":""dave is marrying ruth""}","<img src=""stim_listA/marry1.gif""</stim_listA>",is marrying,
null,"<div style=""font-size:60px;"">+</div>",,html-keyboard-response,523,1745589,0.0-19.0-0.19,93473,List2A,white,woman,,,,null,,,,
null,"<img src=""stim_listA/marry5.gif""</stim_listA>",,html-keyboard-response,524,1747599,0.0-19.0-1.19,93473,List2A,white,woman,,,,null,,,,
null,is marrying,,html-keyboard-response,525,1749602,0.0-19.0-2.19,93473,List2A,white,woman,,,,null,,,,
4492,,,survey-text,526,1754094,0.0-19.0-3.19,93473,List2A,white,woman,,,,,"{""Q0"":""fred is marrying dave""}","<img src=""stim_listA/marry5.gif""</stim_listA>",is marrying,
2767,<p>Thank you for completing that task.</p><p>The final part of this session is a short questionnaire.</p><p>Press Continue.</p>,0,html-button-response,527,1756863,0.0-20.0,93473,List2A,white,woman,,,,,,,,
25873,,,survey-text,528,1783738,0.0-21.0,93473,List2A,white,woman,,,,,"{""Q0"":""54"",""Q1"":""english"",""Q2"":""english"",""Q3"":""canada"",""Q4"":""caucasian"",""Q5"":""female""}",,,demographics
57402,,,survey-likert,529,1841145,0.0-22.0,93473,List2A,white,woman,,,,,"{""Q0"":5,""Q1"":5,""Q2"":5,""Q3"":4,""Q4"":3,""Q5"":5,""Q6"":4,""Q7"":5,""Q8"":3,""Q9"":1,""Q10"":1,""Q11"":1,""Q12"":3,""Q13"":1}",,,likert_race
40226,,,survey-likert,530,1881376,0.0-23.0,93473,List2A,white,woman,,,,,"{""Q0"":5,""Q1"":5,""Q2"":5,""Q3"":3,""Q4"":5,""Q5"":4,""Q6"":3,""Q7"":4,""Q8"":5,""Q9"":5,""Q10"":4,""Q11"":4,""Q12"":4,""Q13"":3}",,,likert_gender
4708,,,survey-text,531,1886085,0.0-24.0,93473,List2A,white,woman,,,,,"{""Q0"":""ccc""}",,,worker_id
23642,,,external-html,532,1909953,0.0-25.0,93473,List2A,white,woman,debrief.html,,,,,,,
