rt,stimulus,button_pressed,trial_type,trial_index,time_elapsed,internal_node_id,subject,list,ppt_race,ppt_gender,url,first_guess,correct,key_press,responses,image_type,phrase_type,test_part
59384,Welcome to the experiment. Press Continue to begin.,0,html-button-response,0,59388,0.0-0.0,93618,List2B,black,woman,,,,,,,,
30740,,,external-html,1,91459,0.0-1.0,93618,List2B,black,woman,consent.html,,,,,,,
24317,"<p>On the next page, you will see portraits of 8 people and their names.</p><p>Your first task is to take a few minutes to memorise the names of these people.</p><p>You will have to recall their names during the rest of the experiment, so it is</p><p>essential that you try to memorise these people and their names as best as you can.</p><br><p><strong>You will then be tested on your memory of these names and portraits.</strong></p><br><p>The experiment will start after you have completed this memory test.</p><br><p>Ready?</p>",0,html-button-response,2,115778,0.0-2.0,93618,List2B,black,woman,,,,,,,,
61481,"<img src='img/portrait_matrix_list2.JPG' style='width:900px;height:500px;''></img><p>If you have memorised all the portraits and names and are ready to start, press Continue.</p><p><strong>Please note: Your memory of these faces will be tested 4 times during this experiment.</strong></p>",0,html-button-response,3,178260,0.0-3.0-0.0,93618,List2B,black,woman,,,,,,,,
7518,"<img src=""portrait/WW1.jpg""style=""width:400px;height:400px;""></img>",1,html-button-response,4,186780,0.0-3.0-1.0,93618,List2B,black,woman,,TRUE,1,,,,,
null,CORRECT,,html-keyboard-response,5,188284,0.0-3.0-2.0-0.0,93618,List2B,black,woman,,,,null,,,,
6982,"<img src=""portrait/BW1.jpg""style=""width:400px;height:400px;""></img>",0,html-button-response,6,195267,0.0-3.0-4.0,93618,List2B,black,woman,,TRUE,0,,,,,
null,CORRECT,,html-keyboard-response,7,196770,0.0-3.0-5.0-0.0,93618,List2B,black,woman,,,,null,,,,
3049,"<img src=""portrait/WM1.jpg""style=""width:400px;height:400px;""></img>",6,html-button-response,8,199820,0.0-3.0-7.0,93618,List2B,black,woman,,TRUE,6,,,,,
null,CORRECT,,html-keyboard-response,9,201323,0.0-3.0-8.0-0.0,93618,List2B,black,woman,,,,null,,,,
3435,"<img src=""portrait/WM2.jpg""style=""width:400px;height:400px;""></img>",7,html-button-response,10,204759,0.0-3.0-10.0,93618,List2B,black,woman,,TRUE,7,,,,,
null,CORRECT,,html-keyboard-response,11,206262,0.0-3.0-11.0-0.0,93618,List2B,black,woman,,,,null,,,,
6594,"<img src=""portrait/WW2.jpg""style=""width:400px;height:400px;""></img>",3,html-button-response,12,212857,0.0-3.0-13.0,93618,List2B,black,woman,,TRUE,3,,,,,
null,CORRECT,,html-keyboard-response,13,214359,0.0-3.0-14.0-0.0,93618,List2B,black,woman,,,,null,,,,
3665,"<img src=""portrait/BW2.jpg""style=""width:400px;height:400px;""></img>",2,html-button-response,14,218026,0.0-3.0-16.0,93618,List2B,black,woman,,TRUE,2,,,,,
null,CORRECT,,html-keyboard-response,15,219529,0.0-3.0-17.0-0.0,93618,List2B,black,woman,,,,null,,,,
7085,"<img src=""portrait/BM1.jpg""style=""width:400px;height:400px;""></img>",4,html-button-response,16,226614,0.0-3.0-19.0,93618,List2B,black,woman,,TRUE,4,,,,,
null,CORRECT,,html-keyboard-response,17,228117,0.0-3.0-20.0-0.0,93618,List2B,black,woman,,,,null,,,,
2045,"<img src=""portrait/BM2.jpg""style=""width:400px;height:400px;""></img>",5,html-button-response,18,230163,0.0-3.0-22.0,93618,List2B,black,woman,,TRUE,5,,,,,
null,CORRECT,,html-keyboard-response,19,231665,0.0-3.0-23.0-0.0,93618,List2B,black,woman,,,,null,,,,
2801,<p>You got 8 out of 8 right first time. Press Continue.</p>,0,html-button-response,20,234467,0.0-3.0-25.0,93618,List2B,black,woman,,,,,,,,
48394,"<p>In this experiment, you will view photographs of the people from the memory game interacting.</p><p>By using the <strong>exact</strong> phrase given <i>after</i> the photograph appears and recalling the correct names of the people in the photographs, form a sentence describing the interaction. You do not need to capitalise names.</p><p>Type your answer in the space provided. Please complete every sentence before moving onto the next trial.</p><p>You will only have a few seconds to memorise each given photograph and phrase before you can respond, so try your best to focus.</p><p>An example is given below. Press 'Continue' when you are ready.</p><img src='img/speaking_example_v2.jpg' style='width:800px;height:460px;''></img>",0,html-button-response,21,283862,0.0-4.0,93618,List2B,black,woman,,,,,,,,
3446,"<p>Before the experiment starts, you will watch two example trials. Press 'Continue'.</p>",0,html-button-response,22,288309,0.0-5.0,93618,List2B,black,woman,,,,,,,,
null,<img src='img/speaking_WW.gif'></img>,,html-keyboard-response,23,291312,0.0-6.0,93618,List2B,black,woman,,,,null,,,,
null,<p>is speaking to</p>,,html-keyboard-response,24,293313,0.0-7.0,93618,List2B,black,woman,,,,null,,,,
8536,<p><b>Answer:</b> jane is speaking to ruth</p>,0,html-button-response,25,301850,0.0-8.0,93618,List2B,black,woman,,,,,,,,
null,<img src='img/pointing_BM.gif'></img>,,html-keyboard-response,26,304854,0.0-9.0,93618,List2B,black,woman,,,,null,,,,
null,<p>are pointing at each other</p>,,html-keyboard-response,27,306855,0.0-10.0,93618,List2B,black,woman,,,,null,,,,
3476,<p><b>Answer:</b> fred and mike are pointing at each other</p>,0,html-button-response,28,310332,0.0-11.0,93618,List2B,black,woman,,,,,,,,
78090,"<p>Ready to start the experiment?</p><br><p><strong>Remember to describe the picture using a full sentence,</strong></p><p><strong>that combines the names of the people with the given phrase.</strong></p><p><strong>If you do not do this correctly you will not be paid.</strong></p><p><strong> You do not need to capitalise names or use punctuation.</strong></p><br><p>Press 'Continue' to begin.</p>",0,html-button-response,29,389424,0.0-12.0,93618,List2B,black,woman,,,,,,,,
null,"<div style=""font-size:60px;"">+</div>",,html-keyboard-response,30,390926,0.0-13.0-0.0,93618,List2B,black,woman,,,,null,,,,
null,"<img src=""stim_listB/touch4.gif""</stim_listB>",,html-keyboard-response,31,392928,0.0-13.0-1.0,93618,List2B,black,woman,,,,null,,,,
null,are touching each other,,html-keyboard-response,32,394929,0.0-13.0-2.0,93618,List2B,black,woman,,,,null,,,,
16343,,,survey-text,33,411273,0.0-13.0-3.0,93618,List2B,black,woman,,,,,"{""Q0"":""fred and beth are touching each other.""}","<img src=""stim_listB/touch4.gif""</stim_listB>",are touching each other,
null,"<div style=""font-size:60px;"">+</div>",,html-keyboard-response,34,411776,0.0-13.0-0.1,93618,List2B,black,woman,,,,null,,,,
null,"<img src=""stim_listB/talk3.gif""</stim_listB>",,html-keyboard-response,35,413779,0.0-13.0-1.1,93618,List2B,black,woman,,,,null,,,,
null,is talking to,,html-keyboard-response,36,415780,0.0-13.0-2.1,93618,List2B,black,woman,,,,null,,,,
16800,,,survey-text,37,432581,0.0-13.0-3.1,93618,List2B,black,woman,,,,,"{""Q0"":""fred is talking to kate""}","<img src=""stim_listB/talk3.gif""</stim_listB>",is talking to,
null,"<div style=""font-size:60px;"">+</div>",,html-keyboard-response,38,433082,0.0-13.0-0.2,93618,List2B,black,woman,,,,null,,,,
null,"<img src=""stim_listB/talk7.gif""</stim_listB>",,html-keyboard-response,39,435084,0.0-13.0-1.2,93618,List2B,black,woman,,,,null,,,,
null,is talking to,,html-keyboard-response,40,437086,0.0-13.0-2.2,93618,List2B,black,woman,,,,null,,,,
5703,,,survey-text,41,442790,0.0-13.0-3.2,93618,List2B,black,woman,,,,,"{""Q0"":""kate is talking to ruth""}","<img src=""stim_listB/talk7.gif""</stim_listB>",is talking to,
null,"<div style=""font-size:60px;"">+</div>",,html-keyboard-response,42,443291,0.0-13.0-0.3,93618,List2B,black,woman,,,,null,,,,
null,"<img src=""stim_listB/argue6.gif""</stim_listB>",,html-keyboard-response,43,445293,0.0-13.0-1.3,93618,List2B,black,woman,,,,null,,,,
null,are arguing with each other,,html-keyboard-response,44,447295,0.0-13.0-2.3,93618,List2B,black,woman,,,,null,,,,
13457,,,survey-text,45,460753,0.0-13.0-3.3,93618,List2B,black,woman,,,,,"{""Q0"":""luke and mike are arguing with each other""}","<img src=""stim_listB/argue6.gif""</stim_listB>",are arguing with each other,
null,"<div style=""font-size:60px;"">+</div>",,html-keyboard-response,46,461254,0.0-13.0-0.4,93618,List2B,black,woman,,,,null,,,,
null,"<img src=""stim_listB/marry2.gif""</stim_listB>",,html-keyboard-response,47,463256,0.0-13.0-1.4,93618,List2B,black,woman,,,,null,,,,
null,are marrying each other,,html-keyboard-response,48,465258,0.0-13.0-2.4,93618,List2B,black,woman,,,,null,,,,
9539,,,survey-text,49,474797,0.0-13.0-3.4,93618,List2B,black,woman,,,,,"{""Q0"":""luke and jane are marrying each other""}","<img src=""stim_listB/marry2.gif""</stim_listB>",are marrying each other,
null,"<div style=""font-size:60px;"">+</div>",,html-keyboard-response,50,475298,0.0-13.0-0.5,93618,List2B,black,woman,,,,null,,,,
null,"<img src=""stim_listB/meet2.gif""</stim_listB>",,html-keyboard-response,51,477300,0.0-13.0-1.5,93618,List2B,black,woman,,,,null,,,,
null,are meeting each other,,html-keyboard-response,52,479301,0.0-13.0-2.5,93618,List2B,black,woman,,,,null,,,,
6782,,,survey-text,53,486083,0.0-13.0-3.5,93618,List2B,black,woman,,,,,"{""Q0"":""luke and ruth are meeting each other""}","<img src=""stim_listB/meet2.gif""</stim_listB>",are meeting each other,
null,"<div style=""font-size:60px;"">+</div>",,html-keyboard-response,54,486584,0.0-13.0-0.6,93618,List2B,black,woman,,,,null,,,,
null,"<img src=""stim_listB/dance3.gif""</stim_listB>",,html-keyboard-response,55,488586,0.0-13.0-1.6,93618,List2B,black,woman,,,,null,,,,
null,is dancing with,,html-keyboard-response,56,490588,0.0-13.0-2.6,93618,List2B,black,woman,,,,null,,,,
18317,,,survey-text,57,508906,0.0-13.0-3.6,93618,List2B,black,woman,,,,,"{""Q0"":""fred is dancing with kate""}","<img src=""stim_listB/dance3.gif""</stim_listB>",is dancing with,
null,"<div style=""font-size:60px;"">+</div>",,html-keyboard-response,58,509407,0.0-13.0-0.7,93618,List2B,black,woman,,,,null,,,,
null,"<img src=""stim_listB/hug8.gif""</stim_listB>",,html-keyboard-response,59,511410,0.0-13.0-1.7,93618,List2B,black,woman,,,,null,,,,
null,are hugging each other,,html-keyboard-response,60,513411,0.0-13.0-2.7,93618,List2B,black,woman,,,,null,,,,
12060,,,survey-text,61,525472,0.0-13.0-3.7,93618,List2B,black,woman,,,,,"{""Q0"":""kate and jane are hugging each other ""}","<img src=""stim_listB/hug8.gif""</stim_listB>",are hugging each other,
null,"<div style=""font-size:60px;"">+</div>",,html-keyboard-response,62,525974,0.0-13.0-0.8,93618,List2B,black,woman,,,,null,,,,
null,"<img src=""stim_listB/hug2.gif""</stim_listB>",,html-keyboard-response,63,527977,0.0-13.0-1.8,93618,List2B,black,woman,,,,null,,,,
null,are hugging each other,,html-keyboard-response,64,529978,0.0-13.0-2.8,93618,List2B,black,woman,,,,null,,,,
13341,,,survey-text,65,543320,0.0-13.0-3.8,93618,List2B,black,woman,,,,,"{""Q0"":""dave and jane are hugging each other""}","<img src=""stim_listB/hug2.gif""</stim_listB>",are hugging each other,
null,"<div style=""font-size:60px;"">+</div>",,html-keyboard-response,66,543822,0.0-13.0-0.9,93618,List2B,black,woman,,,,null,,,,
null,"<img src=""stim_listB/shout3.gif""</stim_listB>",,html-keyboard-response,67,545824,0.0-13.0-1.9,93618,List2B,black,woman,,,,null,,,,
null,is shouting at,,html-keyboard-response,68,547826,0.0-13.0-2.9,93618,List2B,black,woman,,,,null,,,,
8389,,,survey-text,69,556216,0.0-13.0-3.9,93618,List2B,black,woman,,,,,"{""Q0"":""fred is shouting at beth""}","<img src=""stim_listB/shout3.gif""</stim_listB>",is shouting at,
null,"<div style=""font-size:60px;"">+</div>",,html-keyboard-response,70,556718,0.0-13.0-0.10,93618,List2B,black,woman,,,,null,,,,
null,"<img src=""stim_listB/hug6.gif""</stim_listB>",,html-keyboard-response,71,558720,0.0-13.0-1.10,93618,List2B,black,woman,,,,null,,,,
null,are hugging each other,,html-keyboard-response,72,560722,0.0-13.0-2.10,93618,List2B,black,woman,,,,null,,,,
7426,,,survey-text,73,568149,0.0-13.0-3.10,93618,List2B,black,woman,,,,,"{""Q0"":""dave and mike are hugging each other ""}","<img src=""stim_listB/hug6.gif""</stim_listB>",are hugging each other,
null,"<div style=""font-size:60px;"">+</div>",,html-keyboard-response,74,568650,0.0-13.0-0.11,93618,List2B,black,woman,,,,null,,,,
null,"<img src=""stim_listB/meet1.gif""</stim_listB>",,html-keyboard-response,75,570652,0.0-13.0-1.11,93618,List2B,black,woman,,,,null,,,,
null,is meeting,,html-keyboard-response,76,572654,0.0-13.0-2.11,93618,List2B,black,woman,,,,null,,,,
6192,,,survey-text,77,578846,0.0-13.0-3.11,93618,List2B,black,woman,,,,,"{""Q0"":""dave is meeting jane""}","<img src=""stim_listB/meet1.gif""</stim_listB>",is meeting,
null,"<div style=""font-size:60px;"">+</div>",,html-keyboard-response,78,579348,0.0-13.0-0.12,93618,List2B,black,woman,,,,null,,,,
null,"<img src=""stim_listB/talk6.gif""</stim_listB>",,html-keyboard-response,79,581350,0.0-13.0-1.12,93618,List2B,black,woman,,,,null,,,,
null,are talking to each other,,html-keyboard-response,80,583352,0.0-13.0-2.12,93618,List2B,black,woman,,,,null,,,,
7899,,,survey-text,81,591251,0.0-13.0-3.12,93618,List2B,black,woman,,,,,"{""Q0"":""fred and dave are talking to each other ""}","<img src=""stim_listB/talk6.gif""</stim_listB>",are talking to each other,
null,"<div style=""font-size:60px;"">+</div>",,html-keyboard-response,82,591752,0.0-13.0-0.13,93618,List2B,black,woman,,,,null,,,,
null,"<img src=""stim_listB/argue1.gif""</stim_listB>",,html-keyboard-response,83,593754,0.0-13.0-1.13,93618,List2B,black,woman,,,,null,,,,
null,is arguing with,,html-keyboard-response,84,595755,0.0-13.0-2.13,93618,List2B,black,woman,,,,null,,,,
13559,,,survey-text,85,609316,0.0-13.0-3.13,93618,List2B,black,woman,,,,,"{""Q0"":""ruth is arguing with dave""}","<img src=""stim_listB/argue1.gif""</stim_listB>",is arguing with,
null,"<div style=""font-size:60px;"">+</div>",,html-keyboard-response,86,609816,0.0-13.0-0.14,93618,List2B,black,woman,,,,null,,,,
null,"<img src=""stim_listB/fight3.gif""</stim_listB>",,html-keyboard-response,87,611819,0.0-13.0-1.14,93618,List2B,black,woman,,,,null,,,,
null,is fighting,,html-keyboard-response,88,613821,0.0-13.0-2.14,93618,List2B,black,woman,,,,null,,,,
9640,,,survey-text,89,623461,0.0-13.0-3.14,93618,List2B,black,woman,,,,,"{""Q0"":""mike is fighting kate""}","<img src=""stim_listB/fight3.gif""</stim_listB>",is fighting,
null,"<div style=""font-size:60px;"">+</div>",,html-keyboard-response,90,623963,0.0-13.0-0.15,93618,List2B,black,woman,,,,null,,,,
null,"<img src=""stim_listB/marry8.gif""</stim_listB>",,html-keyboard-response,91,625966,0.0-13.0-1.15,93618,List2B,black,woman,,,,null,,,,
null,are marrying each other,,html-keyboard-response,92,627968,0.0-13.0-2.15,93618,List2B,black,woman,,,,null,,,,
8888,,,survey-text,93,636857,0.0-13.0-3.15,93618,List2B,black,woman,,,,,"{""Q0"":""kate and ruth are marrying each other""}","<img src=""stim_listB/marry8.gif""</stim_listB>",are marrying each other,
null,"<div style=""font-size:60px;"">+</div>",,html-keyboard-response,94,637359,0.0-13.0-0.16,93618,List2B,black,woman,,,,null,,,,
null,"<img src=""stim_listB/fight2.gif""</stim_listB>",,html-keyboard-response,95,639361,0.0-13.0-1.16,93618,List2B,black,woman,,,,null,,,,
null,are fighting each other,,html-keyboard-response,96,641363,0.0-13.0-2.16,93618,List2B,black,woman,,,,null,,,,
7453,,,survey-text,97,648817,0.0-13.0-3.16,93618,List2B,black,woman,,,,,"{""Q0"":""luke and ruth are fighting each other ""}","<img src=""stim_listB/fight2.gif""</stim_listB>",are fighting each other,
null,"<div style=""font-size:60px;"">+</div>",,html-keyboard-response,98,649319,0.0-13.0-0.17,93618,List2B,black,woman,,,,null,,,,
null,"<img src=""stim_listB/argue5.gif""</stim_listB>",,html-keyboard-response,99,651322,0.0-13.0-1.17,93618,List2B,black,woman,,,,null,,,,
null,is arguing with,,html-keyboard-response,100,653324,0.0-13.0-2.17,93618,List2B,black,woman,,,,null,,,,
20904,,,survey-text,101,674229,0.0-13.0-3.17,93618,List2B,black,woman,,,,,"{""Q0"":""dave is arguing with fred""}","<img src=""stim_listB/argue5.gif""</stim_listB>",is arguing with,
null,"<div style=""font-size:60px;"">+</div>",,html-keyboard-response,102,674730,0.0-13.0-0.18,93618,List2B,black,woman,,,,null,,,,
null,"<img src=""stim_listB/argue8.gif""</stim_listB>",,html-keyboard-response,103,676732,0.0-13.0-1.18,93618,List2B,black,woman,,,,null,,,,
null,are arguing with each other,,html-keyboard-response,104,678734,0.0-13.0-2.18,93618,List2B,black,woman,,,,null,,,,
7060,,,survey-text,105,685794,0.0-13.0-3.18,93618,List2B,black,woman,,,,,"{""Q0"":""kate and ruth are arguing with each other""}","<img src=""stim_listB/argue8.gif""</stim_listB>",are arguing with each other,
null,"<div style=""font-size:60px;"">+</div>",,html-keyboard-response,106,686295,0.0-13.0-0.19,93618,List2B,black,woman,,,,null,,,,
null,"<img src=""stim_listB/kiss7.gif""</stim_listB>",,html-keyboard-response,107,688297,0.0-13.0-1.19,93618,List2B,black,woman,,,,null,,,,
null,is kissing,,html-keyboard-response,108,690299,0.0-13.0-2.19,93618,List2B,black,woman,,,,null,,,,
8137,,,survey-text,109,698437,0.0-13.0-3.19,93618,List2B,black,woman,,,,,"{""Q0"":""beth is kissing ruth""}","<img src=""stim_listB/kiss7.gif""</stim_listB>",is kissing,
64063,"<img src='img/portrait_matrix_list2.JPG' style='width:900px;height:500px;''></img><p>If you have memorised all the portraits and names and are ready to start, press Continue.</p><p><strong>Please note: Your memory of these faces will be tested 4 times during this experiment.</strong></p>",0,html-button-response,110,762501,0.0-14.0-0.0,93618,List2B,black,woman,,,,,,,,
2780,"<img src=""portrait/BM2.jpg""style=""width:400px;height:400px;""></img>",5,html-button-response,111,766284,0.0-14.0-1.0,93618,List2B,black,woman,,TRUE,5,,,,,
null,CORRECT,,html-keyboard-response,112,767787,0.0-14.0-2.0-0.0,93618,List2B,black,woman,,,,null,,,,
1965,"<img src=""portrait/BW2.jpg""style=""width:400px;height:400px;""></img>",2,html-button-response,113,769753,0.0-14.0-4.0,93618,List2B,black,woman,,TRUE,2,,,,,
null,CORRECT,,html-keyboard-response,114,771256,0.0-14.0-5.0-0.0,93618,List2B,black,woman,,,,null,,,,
6243,"<img src=""portrait/BW1.jpg""style=""width:400px;height:400px;""></img>",0,html-button-response,115,777500,0.0-14.0-7.0,93618,List2B,black,woman,,TRUE,0,,,,,
null,CORRECT,,html-keyboard-response,116,779003,0.0-14.0-8.0-0.0,93618,List2B,black,woman,,,,null,,,,
1610,"<img src=""portrait/BM1.jpg""style=""width:400px;height:400px;""></img>",4,html-button-response,117,780614,0.0-14.0-10.0,93618,List2B,black,woman,,TRUE,4,,,,,
null,CORRECT,,html-keyboard-response,118,782117,0.0-14.0-11.0-0.0,93618,List2B,black,woman,,,,null,,,,
1919,"<img src=""portrait/WM1.jpg""style=""width:400px;height:400px;""></img>",6,html-button-response,119,784037,0.0-14.0-13.0,93618,List2B,black,woman,,TRUE,6,,,,,
null,CORRECT,,html-keyboard-response,120,785539,0.0-14.0-14.0-0.0,93618,List2B,black,woman,,,,null,,,,
3136,"<img src=""portrait/WW2.jpg""style=""width:400px;height:400px;""></img>",3,html-button-response,121,788678,0.0-14.0-16.0,93618,List2B,black,woman,,TRUE,3,,,,,
null,CORRECT,,html-keyboard-response,122,790181,0.0-14.0-17.0-0.0,93618,List2B,black,woman,,,,null,,,,
1962,"<img src=""portrait/WM2.jpg""style=""width:400px;height:400px;""></img>",7,html-button-response,123,792153,0.0-14.0-19.0,93618,List2B,black,woman,,TRUE,7,,,,,
null,CORRECT,,html-keyboard-response,124,793655,0.0-14.0-20.0-0.0,93618,List2B,black,woman,,,,null,,,,
2046,"<img src=""portrait/WW1.jpg""style=""width:400px;height:400px;""></img>",1,html-button-response,125,795702,0.0-14.0-22.0,93618,List2B,black,woman,,TRUE,1,,,,,
null,CORRECT,,html-keyboard-response,126,797206,0.0-14.0-23.0-0.0,93618,List2B,black,woman,,,,null,,,,
1842,<p>You got 8 out of 8 right first time. Press Continue.</p>,0,html-button-response,127,799048,0.0-14.0-25.0,93618,List2B,black,woman,,,,,,,,
null,"<div style=""font-size:60px;"">+</div>",,html-keyboard-response,128,800551,0.0-15.0-0.0,93618,List2B,black,woman,,,,null,,,,
null,"<img src=""stim_listB/touch7.gif""</stim_listB>",,html-keyboard-response,129,802553,0.0-15.0-1.0,93618,List2B,black,woman,,,,null,,,,
null,is touching,,html-keyboard-response,130,804555,0.0-15.0-2.0,93618,List2B,black,woman,,,,null,,,,
9217,,,survey-text,131,813774,0.0-15.0-3.0,93618,List2B,black,woman,,,,,"{""Q0"":""kate is touching jane""}","<img src=""stim_listB/touch7.gif""</stim_listB>",is touching,
null,"<div style=""font-size:60px;"">+</div>",,html-keyboard-response,132,814276,0.0-15.0-0.1,93618,List2B,black,woman,,,,null,,,,
null,"<img src=""stim_listB/touch6.gif""</stim_listB>",,html-keyboard-response,133,816278,0.0-15.0-1.1,93618,List2B,black,woman,,,,null,,,,
null,are touching each other,,html-keyboard-response,134,818279,0.0-15.0-2.1,93618,List2B,black,woman,,,,null,,,,
8995,,,survey-text,135,827275,0.0-15.0-3.1,93618,List2B,black,woman,,,,,"{""Q0"":""luke and fred are toughing each other ""}","<img src=""stim_listB/touch6.gif""</stim_listB>",are touching each other,
null,"<div style=""font-size:60px;"">+</div>",,html-keyboard-response,136,827777,0.0-15.0-0.2,93618,List2B,black,woman,,,,null,,,,
null,"<img src=""stim_listB/marry6.gif""</stim_listB>",,html-keyboard-response,137,829778,0.0-15.0-1.2,93618,List2B,black,woman,,,,null,,,,
null,are marrying each other,,html-keyboard-response,138,831780,0.0-15.0-2.2,93618,List2B,black,woman,,,,null,,,,
9306,,,survey-text,139,841087,0.0-15.0-3.2,93618,List2B,black,woman,,,,,"{""Q0"":""luke and mike are marrying each other ""}","<img src=""stim_listB/marry6.gif""</stim_listB>",are marrying each other,
null,"<div style=""font-size:60px;"">+</div>",,html-keyboard-response,140,841589,0.0-15.0-0.3,93618,List2B,black,woman,,,,null,,,,
null,"<img src=""stim_listB/marry7.gif""</stim_listB>",,html-keyboard-response,141,843591,0.0-15.0-1.3,93618,List2B,black,woman,,,,null,,,,
null,is marrying,,html-keyboard-response,142,845593,0.0-15.0-2.3,93618,List2B,black,woman,,,,null,,,,
6651,,,survey-text,143,852246,0.0-15.0-3.3,93618,List2B,black,woman,,,,,"{""Q0"":""beth is marrying jane""}","<img src=""stim_listB/marry7.gif""</stim_listB>",is marrying,
null,"<div style=""font-size:60px;"">+</div>",,html-keyboard-response,144,852747,0.0-15.0-0.4,93618,List2B,black,woman,,,,null,,,,
null,"<img src=""stim_listB/hug5.gif""</stim_listB>",,html-keyboard-response,145,854748,0.0-15.0-1.4,93618,List2B,black,woman,,,,null,,,,
null,is hugging,,html-keyboard-response,146,856750,0.0-15.0-2.4,93618,List2B,black,woman,,,,null,,,,
5981,,,survey-text,147,862731,0.0-15.0-3.4,93618,List2B,black,woman,,,,,"{""Q0"":""luke is hugging fred""}","<img src=""stim_listB/hug5.gif""</stim_listB>",is hugging,
null,"<div style=""font-size:60px;"">+</div>",,html-keyboard-response,148,863233,0.0-15.0-0.5,93618,List2B,black,woman,,,,null,,,,
null,"<img src=""stim_listB/dance1.gif""</stim_listB>",,html-keyboard-response,149,865235,0.0-15.0-1.5,93618,List2B,black,woman,,,,null,,,,
null,is dancing with,,html-keyboard-response,150,867236,0.0-15.0-2.5,93618,List2B,black,woman,,,,null,,,,
8680,,,survey-text,151,875917,0.0-15.0-3.5,93618,List2B,black,woman,,,,,"{""Q0"":""luke is dancing with jane ""}","<img src=""stim_listB/dance1.gif""</stim_listB>",is dancing with,
null,"<div style=""font-size:60px;"">+</div>",,html-keyboard-response,152,876419,0.0-15.0-0.6,93618,List2B,black,woman,,,,null,,,,
null,"<img src=""stim_listB/talk5.gif""</stim_listB>",,html-keyboard-response,153,878421,0.0-15.0-1.6,93618,List2B,black,woman,,,,null,,,,
null,is talking to,,html-keyboard-response,154,880423,0.0-15.0-2.6,93618,List2B,black,woman,,,,null,,,,
5299,,,survey-text,155,885722,0.0-15.0-3.6,93618,List2B,black,woman,,,,,"{""Q0"":""mike is talking to luke""}","<img src=""stim_listB/talk5.gif""</stim_listB>",is talking to,
null,"<div style=""font-size:60px;"">+</div>",,html-keyboard-response,156,886223,0.0-15.0-0.7,93618,List2B,black,woman,,,,null,,,,
null,"<img src=""stim_listB/touch2.gif""</stim_listB>",,html-keyboard-response,157,888225,0.0-15.0-1.7,93618,List2B,black,woman,,,,null,,,,
null,are touching each other,,html-keyboard-response,158,890226,0.0-15.0-2.7,93618,List2B,black,woman,,,,null,,,,
9833,,,survey-text,159,900061,0.0-15.0-3.7,93618,List2B,black,woman,,,,,"{""Q0"":""luke and ruth are touching each other ""}","<img src=""stim_listB/touch2.gif""</stim_listB>",are touching each other,
null,"<div style=""font-size:60px;"">+</div>",,html-keyboard-response,160,900562,0.0-15.0-0.8,93618,List2B,black,woman,,,,null,,,,
null,"<img src=""stim_listB/argue3.gif""</stim_listB>",,html-keyboard-response,161,902564,0.0-15.0-1.8,93618,List2B,black,woman,,,,null,,,,
null,is arguing with,,html-keyboard-response,162,904566,0.0-15.0-2.8,93618,List2B,black,woman,,,,null,,,,
7420,,,survey-text,163,911986,0.0-15.0-3.8,93618,List2B,black,woman,,,,,"{""Q0"":""beth is arguing with mike""}","<img src=""stim_listB/argue3.gif""</stim_listB>",is arguing with,
null,"<div style=""font-size:60px;"">+</div>",,html-keyboard-response,164,912488,0.0-15.0-0.9,93618,List2B,black,woman,,,,null,,,,
null,"<img src=""stim_listB/kiss6.gif""</stim_listB>",,html-keyboard-response,165,914489,0.0-15.0-1.9,93618,List2B,black,woman,,,,null,,,,
null,are kissing each other,,html-keyboard-response,166,916491,0.0-15.0-2.9,93618,List2B,black,woman,,,,null,,,,
9331,,,survey-text,167,925823,0.0-15.0-3.9,93618,List2B,black,woman,,,,,"{""Q0"":""dave and mike are kissing each other ""}","<img src=""stim_listB/kiss6.gif""</stim_listB>",are kissing each other,
null,"<div style=""font-size:60px;"">+</div>",,html-keyboard-response,168,926324,0.0-15.0-0.10,93618,List2B,black,woman,,,,null,,,,
null,"<img src=""stim_listB/hug1.gif""</stim_listB>",,html-keyboard-response,169,928325,0.0-15.0-1.10,93618,List2B,black,woman,,,,null,,,,
null,is hugging,,html-keyboard-response,170,930328,0.0-15.0-2.10,93618,List2B,black,woman,,,,null,,,,
7973,,,survey-text,171,938302,0.0-15.0-3.10,93618,List2B,black,woman,,,,,"{""Q0"":""luke is hugging ruth""}","<img src=""stim_listB/hug1.gif""</stim_listB>",is hugging,
null,"<div style=""font-size:60px;"">+</div>",,html-keyboard-response,172,938803,0.0-15.0-0.11,93618,List2B,black,woman,,,,null,,,,
null,"<img src=""stim_listB/shout1.gif""</stim_listB>",,html-keyboard-response,173,940805,0.0-15.0-1.11,93618,List2B,black,woman,,,,null,,,,
null,is shouting at,,html-keyboard-response,174,942805,0.0-15.0-2.11,93618,List2B,black,woman,,,,null,,,,
6165,,,survey-text,175,948971,0.0-15.0-3.11,93618,List2B,black,woman,,,,,"{""Q0"":""ruth is shouting at luke""}","<img src=""stim_listB/shout1.gif""</stim_listB>",is shouting at,
null,"<div style=""font-size:60px;"">+</div>",,html-keyboard-response,176,949474,0.0-15.0-0.12,93618,List2B,black,woman,,,,null,,,,
null,"<img src=""stim_listB/shout5.gif""</stim_listB>",,html-keyboard-response,177,951475,0.0-15.0-1.12,93618,List2B,black,woman,,,,null,,,,
null,is shouting at,,html-keyboard-response,178,953477,0.0-15.0-2.12,93618,List2B,black,woman,,,,null,,,,
9523,,,survey-text,179,963001,0.0-15.0-3.12,93618,List2B,black,woman,,,,,"{""Q0"":""fred is shouting at luke""}","<img src=""stim_listB/shout5.gif""</stim_listB>",is shouting at,
null,"<div style=""font-size:60px;"">+</div>",,html-keyboard-response,180,963503,0.0-15.0-0.13,93618,List2B,black,woman,,,,null,,,,
null,"<img src=""stim_listB/meet7.gif""</stim_listB>",,html-keyboard-response,181,965505,0.0-15.0-1.13,93618,List2B,black,woman,,,,null,,,,
null,is meeting,,html-keyboard-response,182,967507,0.0-15.0-2.13,93618,List2B,black,woman,,,,null,,,,
27657,,,survey-text,183,995165,0.0-15.0-3.13,93618,List2B,black,woman,,,,,"{""Q0"":""kate is meeting jane""}","<img src=""stim_listB/meet7.gif""</stim_listB>",is meeting,
null,"<div style=""font-size:60px;"">+</div>",,html-keyboard-response,184,995666,0.0-15.0-0.14,93618,List2B,black,woman,,,,null,,,,
null,"<img src=""stim_listB/dance7.gif""</stim_listB>",,html-keyboard-response,185,997668,0.0-15.0-1.14,93618,List2B,black,woman,,,,null,,,,
null,is dancing with,,html-keyboard-response,186,999670,0.0-15.0-2.14,93618,List2B,black,woman,,,,null,,,,
10836,,,survey-text,187,1010507,0.0-15.0-3.14,93618,List2B,black,woman,,,,,"{""Q0"":""kate is dancing with ruth""}","<img src=""stim_listB/dance7.gif""</stim_listB>",is dancing with,
null,"<div style=""font-size:60px;"">+</div>",,html-keyboard-response,188,1011008,0.0-15.0-0.15,93618,List2B,black,woman,,,,null,,,,
null,"<img src=""stim_listB/shout8.gif""</stim_listB>",,html-keyboard-response,189,1013009,0.0-15.0-1.15,93618,List2B,black,woman,,,,null,,,,
null,are shouting at each other,,html-keyboard-response,190,1015011,0.0-15.0-2.15,93618,List2B,black,woman,,,,null,,,,
9040,,,survey-text,191,1024051,0.0-15.0-3.15,93618,List2B,black,woman,,,,,"{""Q0"":""kate and jane are shouting at each other ""}","<img src=""stim_listB/shout8.gif""</stim_listB>",are shouting at each other,
null,"<div style=""font-size:60px;"">+</div>",,html-keyboard-response,192,1024553,0.0-15.0-0.16,93618,List2B,black,woman,,,,null,,,,
null,"<img src=""stim_listB/meet4.gif""</stim_listB>",,html-keyboard-response,193,1026554,0.0-15.0-1.16,93618,List2B,black,woman,,,,null,,,,
null,are meeting each other,,html-keyboard-response,194,1028555,0.0-15.0-2.16,93618,List2B,black,woman,,,,null,,,,
7196,,,survey-text,195,1035751,0.0-15.0-3.16,93618,List2B,black,woman,,,,,"{""Q0"":""beth and fred are meeting each other ""}","<img src=""stim_listB/meet4.gif""</stim_listB>",are meeting each other,
null,"<div style=""font-size:60px;"">+</div>",,html-keyboard-response,196,1036252,0.0-15.0-0.17,93618,List2B,black,woman,,,,null,,,,
null,"<img src=""stim_listB/meet8.gif""</stim_listB>",,html-keyboard-response,197,1038255,0.0-15.0-1.17,93618,List2B,black,woman,,,,null,,,,
null,are meeting each other,,html-keyboard-response,198,1040257,0.0-15.0-2.17,93618,List2B,black,woman,,,,null,,,,
12419,,,survey-text,199,1052677,0.0-15.0-3.17,93618,List2B,black,woman,,,,,"{""Q0"":""beth and ruth are meeting each other ""}","<img src=""stim_listB/meet8.gif""</stim_listB>",are meeting each other,
null,"<div style=""font-size:60px;"">+</div>",,html-keyboard-response,200,1053180,0.0-15.0-0.18,93618,List2B,black,woman,,,,null,,,,
null,"<img src=""stim_listB/touch3.gif""</stim_listB>",,html-keyboard-response,201,1055182,0.0-15.0-1.18,93618,List2B,black,woman,,,,null,,,,
null,is touching,,html-keyboard-response,202,1057183,0.0-15.0-2.18,93618,List2B,black,woman,,,,null,,,,
9140,,,survey-text,203,1066324,0.0-15.0-3.18,93618,List2B,black,woman,,,,,"{""Q0"":""kate is touching mike""}","<img src=""stim_listB/touch3.gif""</stim_listB>",is touching,
null,"<div style=""font-size:60px;"">+</div>",,html-keyboard-response,204,1066825,0.0-15.0-0.19,93618,List2B,black,woman,,,,null,,,,
null,"<img src=""stim_listB/kiss8.gif""</stim_listB>",,html-keyboard-response,205,1068827,0.0-15.0-1.19,93618,List2B,black,woman,,,,null,,,,
null,are kissing each other,,html-keyboard-response,206,1070829,0.0-15.0-2.19,93618,List2B,black,woman,,,,null,,,,
18164,,,survey-text,207,1088994,0.0-15.0-3.19,93618,List2B,black,woman,,,,,"{""Q0"":""kate and jane are kissing each other ""}","<img src=""stim_listB/kiss8.gif""</stim_listB>",are kissing each other,
113584,"<img src='img/portrait_matrix_list2.JPG' style='width:900px;height:500px;''></img><p>If you have memorised all the portraits and names and are ready to start, press Continue.</p><p><strong>Please note: Your memory of these faces will be tested 4 times during this experiment.</strong></p>",0,html-button-response,208,1202578,0.0-16.0-0.0,93618,List2B,black,woman,,,,,,,,
3730,"<img src=""portrait/BW2.jpg""style=""width:400px;height:400px;""></img>",2,html-button-response,209,1207309,0.0-16.0-1.0,93618,List2B,black,woman,,TRUE,2,,,,,
null,CORRECT,,html-keyboard-response,210,1208810,0.0-16.0-2.0-0.0,93618,List2B,black,woman,,,,null,,,,
3405,"<img src=""portrait/WW2.jpg""style=""width:400px;height:400px;""></img>",3,html-button-response,211,1212217,0.0-16.0-4.0,93618,List2B,black,woman,,TRUE,3,,,,,
null,CORRECT,,html-keyboard-response,212,1213719,0.0-16.0-5.0-0.0,93618,List2B,black,woman,,,,null,,,,
2425,"<img src=""portrait/WM1.jpg""style=""width:400px;height:400px;""></img>",6,html-button-response,213,1216145,0.0-16.0-7.0,93618,List2B,black,woman,,TRUE,6,,,,,
null,CORRECT,,html-keyboard-response,214,1217648,0.0-16.0-8.0-0.0,93618,List2B,black,woman,,,,null,,,,
1137,"<img src=""portrait/BM1.jpg""style=""width:400px;height:400px;""></img>",4,html-button-response,215,1218785,0.0-16.0-10.0,93618,List2B,black,woman,,TRUE,4,,,,,
null,CORRECT,,html-keyboard-response,216,1220288,0.0-16.0-11.0-0.0,93618,List2B,black,woman,,,,null,,,,
1380,"<img src=""portrait/WM2.jpg""style=""width:400px;height:400px;""></img>",7,html-button-response,217,1221669,0.0-16.0-13.0,93618,List2B,black,woman,,TRUE,7,,,,,
null,CORRECT,,html-keyboard-response,218,1223172,0.0-16.0-14.0-0.0,93618,List2B,black,woman,,,,null,,,,
4294,"<img src=""portrait/WW1.jpg""style=""width:400px;height:400px;""></img>",1,html-button-response,219,1227468,0.0-16.0-16.0,93618,List2B,black,woman,,TRUE,1,,,,,
null,CORRECT,,html-keyboard-response,220,1228972,0.0-16.0-17.0-0.0,93618,List2B,black,woman,,,,null,,,,
1397,"<img src=""portrait/BM2.jpg""style=""width:400px;height:400px;""></img>",5,html-button-response,221,1230370,0.0-16.0-19.0,93618,List2B,black,woman,,TRUE,5,,,,,
null,CORRECT,,html-keyboard-response,222,1231873,0.0-16.0-20.0-0.0,93618,List2B,black,woman,,,,null,,,,
3042,"<img src=""portrait/BW1.jpg""style=""width:400px;height:400px;""></img>",0,html-button-response,223,1234917,0.0-16.0-22.0,93618,List2B,black,woman,,TRUE,0,,,,,
null,CORRECT,,html-keyboard-response,224,1236419,0.0-16.0-23.0-0.0,93618,List2B,black,woman,,,,null,,,,
1103,<p>You got 8 out of 8 right first time. Press Continue.</p>,0,html-button-response,225,1237523,0.0-16.0-25.0,93618,List2B,black,woman,,,,,,,,
null,"<div style=""font-size:60px;"">+</div>",,html-keyboard-response,226,1239025,0.0-17.0-0.0,93618,List2B,black,woman,,,,null,,,,
null,"<img src=""stim_listB/dance4.gif""</stim_listB>",,html-keyboard-response,227,1241028,0.0-17.0-1.0,93618,List2B,black,woman,,,,null,,,,
null,are dancing with each other,,html-keyboard-response,228,1243031,0.0-17.0-2.0,93618,List2B,black,woman,,,,null,,,,
10813,,,survey-text,229,1253845,0.0-17.0-3.0,93618,List2B,black,woman,,,,,"{""Q0"":""mike and beth are dancing with each other ""}","<img src=""stim_listB/dance4.gif""</stim_listB>",are dancing with each other,
null,"<div style=""font-size:60px;"">+</div>",,html-keyboard-response,230,1254347,0.0-17.0-0.1,93618,List2B,black,woman,,,,null,,,,
null,"<img src=""stim_listB/fight5.gif""</stim_listB>",,html-keyboard-response,231,1256349,0.0-17.0-1.1,93618,List2B,black,woman,,,,null,,,,
null,is fighting,,html-keyboard-response,232,1258351,0.0-17.0-2.1,93618,List2B,black,woman,,,,null,,,,
4611,,,survey-text,233,1262963,0.0-17.0-3.1,93618,List2B,black,woman,,,,,"{""Q0"":""mike is fighting dave""}","<img src=""stim_listB/fight5.gif""</stim_listB>",is fighting,
null,"<div style=""font-size:60px;"">+</div>",,html-keyboard-response,234,1263464,0.0-17.0-0.2,93618,List2B,black,woman,,,,null,,,,
null,"<img src=""stim_listB/kiss1.gif""</stim_listB>",,html-keyboard-response,235,1265466,0.0-17.0-1.2,93618,List2B,black,woman,,,,null,,,,
null,is kissing,,html-keyboard-response,236,1267468,0.0-17.0-2.2,93618,List2B,black,woman,,,,null,,,,
4338,,,survey-text,237,1271806,0.0-17.0-3.2,93618,List2B,black,woman,,,,,"{""Q0"":""luke is kissing ruth""}","<img src=""stim_listB/kiss1.gif""</stim_listB>",is kissing,
null,"<div style=""font-size:60px;"">+</div>",,html-keyboard-response,238,1272308,0.0-17.0-0.3,93618,List2B,black,woman,,,,null,,,,
null,"<img src=""stim_listB/kiss5.gif""</stim_listB>",,html-keyboard-response,239,1274311,0.0-17.0-1.3,93618,List2B,black,woman,,,,null,,,,
null,is kissing,,html-keyboard-response,240,1276312,0.0-17.0-2.3,93618,List2B,black,woman,,,,null,,,,
4432,,,survey-text,241,1280745,0.0-17.0-3.3,93618,List2B,black,woman,,,,,"{""Q0"":""luke is kissing fred""}","<img src=""stim_listB/kiss5.gif""</stim_listB>",is kissing,
null,"<div style=""font-size:60px;"">+</div>",,html-keyboard-response,242,1281247,0.0-17.0-0.4,93618,List2B,black,woman,,,,null,,,,
null,"<img src=""stim_listB/touch5.gif""</stim_listB>",,html-keyboard-response,243,1283249,0.0-17.0-1.4,93618,List2B,black,woman,,,,null,,,,
null,is touching,,html-keyboard-response,244,1285251,0.0-17.0-2.4,93618,List2B,black,woman,,,,null,,,,
3951,,,survey-text,245,1289202,0.0-17.0-3.4,93618,List2B,black,woman,,,,,"{""Q0"":""mike is toughing dave""}","<img src=""stim_listB/touch5.gif""</stim_listB>",is touching,
null,"<div style=""font-size:60px;"">+</div>",,html-keyboard-response,246,1289703,0.0-17.0-0.5,93618,List2B,black,woman,,,,null,,,,
null,"<img src=""stim_listB/talk2.gif""</stim_listB>",,html-keyboard-response,247,1291705,0.0-17.0-1.5,93618,List2B,black,woman,,,,null,,,,
null,are talking to each other,,html-keyboard-response,248,1293706,0.0-17.0-2.5,93618,List2B,black,woman,,,,null,,,,
14502,,,survey-text,249,1308210,0.0-17.0-3.5,93618,List2B,black,woman,,,,,"{""Q0"":""dave and ruth are talking to each other ""}","<img src=""stim_listB/talk2.gif""</stim_listB>",are talking to each other,
null,"<div style=""font-size:60px;"">+</div>",,html-keyboard-response,250,1308711,0.0-17.0-0.6,93618,List2B,black,woman,,,,null,,,,
null,"<img src=""stim_listB/meet6.gif""</stim_listB>",,html-keyboard-response,251,1310713,0.0-17.0-1.6,93618,List2B,black,woman,,,,null,,,,
null,are meeting each other,,html-keyboard-response,252,1312716,0.0-17.0-2.6,93618,List2B,black,woman,,,,null,,,,
7607,,,survey-text,253,1320323,0.0-17.0-3.6,93618,List2B,black,woman,,,,,"{""Q0"":""luke and fred are meeting each other""}","<img src=""stim_listB/meet6.gif""</stim_listB>",are meeting each other,
null,"<div style=""font-size:60px;"">+</div>",,html-keyboard-response,254,1320825,0.0-17.0-0.7,93618,List2B,black,woman,,,,null,,,,
null,"<img src=""stim_listB/kiss3.gif""</stim_listB>",,html-keyboard-response,255,1322827,0.0-17.0-1.7,93618,List2B,black,woman,,,,null,,,,
null,is kissing,,html-keyboard-response,256,1324828,0.0-17.0-2.7,93618,List2B,black,woman,,,,null,,,,
4625,,,survey-text,257,1329454,0.0-17.0-3.7,93618,List2B,black,woman,,,,,"{""Q0"":""beth is kissing fred""}","<img src=""stim_listB/kiss3.gif""</stim_listB>",is kissing,
null,"<div style=""font-size:60px;"">+</div>",,html-keyboard-response,258,1329955,0.0-17.0-0.8,93618,List2B,black,woman,,,,null,,,,
null,"<img src=""stim_listB/talk1.gif""</stim_listB>",,html-keyboard-response,259,1331957,0.0-17.0-1.8,93618,List2B,black,woman,,,,null,,,,
null,is talking to,,html-keyboard-response,260,1333959,0.0-17.0-2.8,93618,List2B,black,woman,,,,null,,,,
4586,,,survey-text,261,1338546,0.0-17.0-3.8,93618,List2B,black,woman,,,,,"{""Q0"":""jane is talking to luke""}","<img src=""stim_listB/talk1.gif""</stim_listB>",is talking to,
null,"<div style=""font-size:60px;"">+</div>",,html-keyboard-response,262,1339048,0.0-17.0-0.9,93618,List2B,black,woman,,,,null,,,,
null,"<img src=""stim_listB/shout6.gif""</stim_listB>",,html-keyboard-response,263,1341050,0.0-17.0-1.9,93618,List2B,black,woman,,,,null,,,,
null,are shouting at each other,,html-keyboard-response,264,1343052,0.0-17.0-2.9,93618,List2B,black,woman,,,,null,,,,
8325,,,survey-text,265,1351378,0.0-17.0-3.9,93618,List2B,black,woman,,,,,"{""Q0"":""dave and mike are shouting at each other ""}","<img src=""stim_listB/shout6.gif""</stim_listB>",are shouting at each other,
null,"<div style=""font-size:60px;"">+</div>",,html-keyboard-response,266,1351880,0.0-17.0-0.10,93618,List2B,black,woman,,,,null,,,,
null,"<img src=""stim_listB/marry3.gif""</stim_listB>",,html-keyboard-response,267,1353881,0.0-17.0-1.10,93618,List2B,black,woman,,,,null,,,,
null,is marrying,,html-keyboard-response,268,1355882,0.0-17.0-2.10,93618,List2B,black,woman,,,,null,,,,
4482,,,survey-text,269,1360366,0.0-17.0-3.10,93618,List2B,black,woman,,,,,"{""Q0"":""beth is marrying mike""}","<img src=""stim_listB/marry3.gif""</stim_listB>",is marrying,
null,"<div style=""font-size:60px;"">+</div>",,html-keyboard-response,270,1360866,0.0-17.0-0.11,93618,List2B,black,woman,,,,null,,,,
null,"<img src=""stim_listB/dance2.gif""</stim_listB>",,html-keyboard-response,271,1362868,0.0-17.0-1.11,93618,List2B,black,woman,,,,null,,,,
null,are dancing with each other,,html-keyboard-response,272,1364870,0.0-17.0-2.11,93618,List2B,black,woman,,,,null,,,,
17156,,,survey-text,273,1382026,0.0-17.0-3.11,93618,List2B,black,woman,,,,,"{""Q0"":""dav and ruth are dancing with each other ""}","<img src=""stim_listB/dance2.gif""</stim_listB>",are dancing with each other,
null,"<div style=""font-size:60px;"">+</div>",,html-keyboard-response,274,1382527,0.0-17.0-0.12,93618,List2B,black,woman,,,,null,,,,
null,"<img src=""stim_listB/fight8.gif""</stim_listB>",,html-keyboard-response,275,1384529,0.0-17.0-1.12,93618,List2B,black,woman,,,,null,,,,
null,are fighting each other,,html-keyboard-response,276,1386530,0.0-17.0-2.12,93618,List2B,black,woman,,,,null,,,,
16594,,,survey-text,277,1403125,0.0-17.0-3.12,93618,List2B,black,woman,,,,,"{""Q0"":""ruth are beth are fighting each other ""}","<img src=""stim_listB/fight8.gif""</stim_listB>",are fighting each other,
null,"<div style=""font-size:60px;"">+</div>",,html-keyboard-response,278,1403626,0.0-17.0-0.13,93618,List2B,black,woman,,,,null,,,,
null,"<img src=""stim_listB/marry4.gif""</stim_listB>",,html-keyboard-response,279,1405627,0.0-17.0-1.13,93618,List2B,black,woman,,,,null,,,,
null,are marrying each other,,html-keyboard-response,280,1407628,0.0-17.0-2.13,93618,List2B,black,woman,,,,null,,,,
12409,,,survey-text,281,1420038,0.0-17.0-3.13,93618,List2B,black,woman,,,,,"{""Q0"":""fred and kate are marrying each other ""}","<img src=""stim_listB/marry4.gif""</stim_listB>",are marrying each other,
null,"<div style=""font-size:60px;"">+</div>",,html-keyboard-response,282,1420539,0.0-17.0-0.14,93618,List2B,black,woman,,,,null,,,,
null,"<img src=""stim_listB/marry5.gif""</stim_listB>",,html-keyboard-response,283,1422542,0.0-17.0-1.14,93618,List2B,black,woman,,,,null,,,,
null,is marrying,,html-keyboard-response,284,1424544,0.0-17.0-2.14,93618,List2B,black,woman,,,,null,,,,
6094,,,survey-text,285,1430639,0.0-17.0-3.14,93618,List2B,black,woman,,,,,"{""Q0"":""fred is marrying duke""}","<img src=""stim_listB/marry5.gif""</stim_listB>",is marrying,
null,"<div style=""font-size:60px;"">+</div>",,html-keyboard-response,286,1431139,0.0-17.0-0.15,93618,List2B,black,woman,,,,null,,,,
null,"<img src=""stim_listB/argue7.gif""</stim_listB>",,html-keyboard-response,287,1433141,0.0-17.0-1.15,93618,List2B,black,woman,,,,null,,,,
null,is arguing with,,html-keyboard-response,288,1435142,0.0-17.0-2.15,93618,List2B,black,woman,,,,null,,,,
5028,,,survey-text,289,1440171,0.0-17.0-3.15,93618,List2B,black,woman,,,,,"{""Q0"":""beth is arguing with jane""}","<img src=""stim_listB/argue7.gif""</stim_listB>",is arguing with,
null,"<div style=""font-size:60px;"">+</div>",,html-keyboard-response,290,1440673,0.0-17.0-0.16,93618,List2B,black,woman,,,,null,,,,
null,"<img src=""stim_listB/shout4.gif""</stim_listB>",,html-keyboard-response,291,1442674,0.0-17.0-1.16,93618,List2B,black,woman,,,,null,,,,
null,are shouting at each other,,html-keyboard-response,292,1444676,0.0-17.0-2.16,93618,List2B,black,woman,,,,null,,,,
9841,,,survey-text,293,1454518,0.0-17.0-3.16,93618,List2B,black,woman,,,,,"{""Q0"":""kate and mike are shouting at each other ""}","<img src=""stim_listB/shout4.gif""</stim_listB>",are shouting at each other,
null,"<div style=""font-size:60px;"">+</div>",,html-keyboard-response,294,1455019,0.0-17.0-0.17,93618,List2B,black,woman,,,,null,,,,
null,"<img src=""stim_listB/kiss4.gif""</stim_listB>",,html-keyboard-response,295,1457020,0.0-17.0-1.17,93618,List2B,black,woman,,,,null,,,,
null,are kissing each other,,html-keyboard-response,296,1459022,0.0-17.0-2.17,93618,List2B,black,woman,,,,null,,,,
7899,,,survey-text,297,1466922,0.0-17.0-3.17,93618,List2B,black,woman,,,,,"{""Q0"":""kate and mike are kissing each other ""}","<img src=""stim_listB/kiss4.gif""</stim_listB>",are kissing each other,
null,"<div style=""font-size:60px;"">+</div>",,html-keyboard-response,298,1467423,0.0-17.0-0.18,93618,List2B,black,woman,,,,null,,,,
null,"<img src=""stim_listB/talk4.gif""</stim_listB>",,html-keyboard-response,299,1469425,0.0-17.0-1.18,93618,List2B,black,woman,,,,null,,,,
null,are talking to each other,,html-keyboard-response,300,1471427,0.0-17.0-2.18,93618,List2B,black,woman,,,,null,,,,
7683,,,survey-text,301,1479110,0.0-17.0-3.18,93618,List2B,black,woman,,,,,"{""Q0"":""beth and mike are talking to each other ""}","<img src=""stim_listB/talk4.gif""</stim_listB>",are talking to each other,
null,"<div style=""font-size:60px;"">+</div>",,html-keyboard-response,302,1479612,0.0-17.0-0.19,93618,List2B,black,woman,,,,null,,,,
null,"<img src=""stim_listB/argue2.gif""</stim_listB>",,html-keyboard-response,303,1481613,0.0-17.0-1.19,93618,List2B,black,woman,,,,null,,,,
null,are arguing with each other,,html-keyboard-response,304,1483615,0.0-17.0-2.19,93618,List2B,black,woman,,,,null,,,,
13637,,,survey-text,305,1497252,0.0-17.0-3.19,93618,List2B,black,woman,,,,,"{""Q0"":""luke and jane are arguing with each other ""}","<img src=""stim_listB/argue2.gif""</stim_listB>",are arguing with each other,
9420,"<img src='img/portrait_matrix_list2.JPG' style='width:900px;height:500px;''></img><p>If you have memorised all the portraits and names and are ready to start, press Continue.</p><p><strong>Please note: Your memory of these faces will be tested 4 times during this experiment.</strong></p>",0,html-button-response,306,1506673,0.0-18.0-0.0,93618,List2B,black,woman,,,,,,,,
1931,"<img src=""portrait/BM2.jpg""style=""width:400px;height:400px;""></img>",5,html-button-response,307,1509606,0.0-18.0-1.0,93618,List2B,black,woman,,TRUE,5,,,,,
null,CORRECT,,html-keyboard-response,308,1511109,0.0-18.0-2.0-0.0,93618,List2B,black,woman,,,,null,,,,
1200,"<img src=""portrait/WW2.jpg""style=""width:400px;height:400px;""></img>",3,html-button-response,309,1512311,0.0-18.0-4.0,93618,List2B,black,woman,,TRUE,3,,,,,
null,CORRECT,,html-keyboard-response,310,1513813,0.0-18.0-5.0-0.0,93618,List2B,black,woman,,,,null,,,,
1662,"<img src=""portrait/BW1.jpg""style=""width:400px;height:400px;""></img>",0,html-button-response,311,1515476,0.0-18.0-7.0,93618,List2B,black,woman,,TRUE,0,,,,,
null,CORRECT,,html-keyboard-response,312,1516979,0.0-18.0-8.0-0.0,93618,List2B,black,woman,,,,null,,,,
2073,"<img src=""portrait/WM2.jpg""style=""width:400px;height:400px;""></img>",7,html-button-response,313,1519053,0.0-18.0-10.0,93618,List2B,black,woman,,TRUE,7,,,,,
null,CORRECT,,html-keyboard-response,314,1520556,0.0-18.0-11.0-0.0,93618,List2B,black,woman,,,,null,,,,
1564,"<img src=""portrait/WM1.jpg""style=""width:400px;height:400px;""></img>",6,html-button-response,315,1522121,0.0-18.0-13.0,93618,List2B,black,woman,,TRUE,6,,,,,
null,CORRECT,,html-keyboard-response,316,1523624,0.0-18.0-14.0-0.0,93618,List2B,black,woman,,,,null,,,,
1341,"<img src=""portrait/BM1.jpg""style=""width:400px;height:400px;""></img>",4,html-button-response,317,1524966,0.0-18.0-16.0,93618,List2B,black,woman,,TRUE,4,,,,,
null,CORRECT,,html-keyboard-response,318,1526468,0.0-18.0-17.0-0.0,93618,List2B,black,woman,,,,null,,,,
3044,"<img src=""portrait/WW1.jpg""style=""width:400px;height:400px;""></img>",1,html-button-response,319,1529513,0.0-18.0-19.0,93618,List2B,black,woman,,TRUE,1,,,,,
null,CORRECT,,html-keyboard-response,320,1531015,0.0-18.0-20.0-0.0,93618,List2B,black,woman,,,,null,,,,
1916,"<img src=""portrait/BW2.jpg""style=""width:400px;height:400px;""></img>",2,html-button-response,321,1532933,0.0-18.0-22.0,93618,List2B,black,woman,,TRUE,2,,,,,
null,CORRECT,,html-keyboard-response,322,1534435,0.0-18.0-23.0-0.0,93618,List2B,black,woman,,,,null,,,,
5794,<p>You got 8 out of 8 right first time. Press Continue.</p>,0,html-button-response,323,1540230,0.0-18.0-25.0,93618,List2B,black,woman,,,,,,,,
null,"<div style=""font-size:60px;"">+</div>",,html-keyboard-response,324,1541734,0.0-19.0-0.0,93618,List2B,black,woman,,,,null,,,,
null,"<img src=""stim_listB/touch1.gif""</stim_listB>",,html-keyboard-response,325,1543736,0.0-19.0-1.0,93618,List2B,black,woman,,,,null,,,,
null,is touching,,html-keyboard-response,326,1545738,0.0-19.0-2.0,93618,List2B,black,woman,,,,null,,,,
6262,,,survey-text,327,1552000,0.0-19.0-3.0,93618,List2B,black,woman,,,,,"{""Q0"":""jane is touching dave""}","<img src=""stim_listB/touch1.gif""</stim_listB>",is touching,
null,"<div style=""font-size:60px;"">+</div>",,html-keyboard-response,328,1552501,0.0-19.0-0.1,93618,List2B,black,woman,,,,null,,,,
null,"<img src=""stim_listB/dance6.gif""</stim_listB>",,html-keyboard-response,329,1554504,0.0-19.0-1.1,93618,List2B,black,woman,,,,null,,,,
null,are dancing with each other,,html-keyboard-response,330,1556506,0.0-19.0-2.1,93618,List2B,black,woman,,,,null,,,,
7096,,,survey-text,331,1563602,0.0-19.0-3.1,93618,List2B,black,woman,,,,,"{""Q0"":""dave and fred are dancing with each other""}","<img src=""stim_listB/dance6.gif""</stim_listB>",are dancing with each other,
null,"<div style=""font-size:60px;"">+</div>",,html-keyboard-response,332,1564104,0.0-19.0-0.2,93618,List2B,black,woman,,,,null,,,,
null,"<img src=""stim_listB/fight4.gif""</stim_listB>",,html-keyboard-response,333,1566106,0.0-19.0-1.2,93618,List2B,black,woman,,,,null,,,,
null,are fighting each other,,html-keyboard-response,334,1568106,0.0-19.0-2.2,93618,List2B,black,woman,,,,null,,,,
14048,,,survey-text,335,1582156,0.0-19.0-3.2,93618,List2B,black,woman,,,,,"{""Q0"":""fred and beth are fighting each other ""}","<img src=""stim_listB/fight4.gif""</stim_listB>",are fighting each other,
null,"<div style=""font-size:60px;"">+</div>",,html-keyboard-response,336,1582657,0.0-19.0-0.3,93618,List2B,black,woman,,,,null,,,,
null,"<img src=""stim_listB/marry1.gif""</stim_listB>",,html-keyboard-response,337,1584660,0.0-19.0-1.3,93618,List2B,black,woman,,,,null,,,,
null,is marrying,,html-keyboard-response,338,1586661,0.0-19.0-2.3,93618,List2B,black,woman,,,,null,,,,
4064,,,survey-text,339,1590726,0.0-19.0-3.3,93618,List2B,black,woman,,,,,"{""Q0"":""ruth is marrying dave""}","<img src=""stim_listB/marry1.gif""</stim_listB>",is marrying,
null,"<div style=""font-size:60px;"">+</div>",,html-keyboard-response,340,1591228,0.0-19.0-0.4,93618,List2B,black,woman,,,,null,,,,
null,"<img src=""stim_listB/fight7.gif""</stim_listB>",,html-keyboard-response,341,1593229,0.0-19.0-1.4,93618,List2B,black,woman,,,,null,,,,
null,is fighting,,html-keyboard-response,342,1595230,0.0-19.0-2.4,93618,List2B,black,woman,,,,null,,,,
4099,,,survey-text,343,1599331,0.0-19.0-3.4,93618,List2B,black,woman,,,,,"{""Q0"":""kate is fighting jane""}","<img src=""stim_listB/fight7.gif""</stim_listB>",is fighting,
null,"<div style=""font-size:60px;"">+</div>",,html-keyboard-response,344,1599833,0.0-19.0-0.5,93618,List2B,black,woman,,,,null,,,,
null,"<img src=""stim_listB/shout7.gif""</stim_listB>",,html-keyboard-response,345,1601835,0.0-19.0-1.5,93618,List2B,black,woman,,,,null,,,,
null,is shouting at,,html-keyboard-response,346,1603836,0.0-19.0-2.5,93618,List2B,black,woman,,,,null,,,,
14450,,,survey-text,347,1618287,0.0-19.0-3.5,93618,List2B,black,woman,,,,,"{""Q0"":""beth is shouting at ruth""}","<img src=""stim_listB/shout7.gif""</stim_listB>",is shouting at,
null,"<div style=""font-size:60px;"">+</div>",,html-keyboard-response,348,1618788,0.0-19.0-0.6,93618,List2B,black,woman,,,,null,,,,
null,"<img src=""stim_listB/dance5.gif""</stim_listB>",,html-keyboard-response,349,1620792,0.0-19.0-1.6,93618,List2B,black,woman,,,,null,,,,
null,is dancing with,,html-keyboard-response,350,1622793,0.0-19.0-2.6,93618,List2B,black,woman,,,,null,,,,
4303,,,survey-text,351,1627098,0.0-19.0-3.6,93618,List2B,black,woman,,,,,"{""Q0"":""mike is dancing with luke""}","<img src=""stim_listB/dance5.gif""</stim_listB>",is dancing with,
null,"<div style=""font-size:60px;"">+</div>",,html-keyboard-response,352,1627599,0.0-19.0-0.7,93618,List2B,black,woman,,,,null,,,,
null,"<img src=""stim_listB/talk8.gif""</stim_listB>",,html-keyboard-response,353,1629601,0.0-19.0-1.7,93618,List2B,black,woman,,,,null,,,,
null,are talking to each other,,html-keyboard-response,354,1631602,0.0-19.0-2.7,93618,List2B,black,woman,,,,null,,,,
6777,,,survey-text,355,1638381,0.0-19.0-3.7,93618,List2B,black,woman,,,,,"{""Q0"":""beth and jane are talking to each other ""}","<img src=""stim_listB/talk8.gif""</stim_listB>",are talking to each other,
null,"<div style=""font-size:60px;"">+</div>",,html-keyboard-response,356,1638881,0.0-19.0-0.8,93618,List2B,black,woman,,,,null,,,,
null,"<img src=""stim_listB/fight1.gif""</stim_listB>",,html-keyboard-response,357,1640883,0.0-19.0-1.8,93618,List2B,black,woman,,,,null,,,,
null,is fighting,,html-keyboard-response,358,1642884,0.0-19.0-2.8,93618,List2B,black,woman,,,,null,,,,
5137,,,survey-text,359,1648022,0.0-19.0-3.8,93618,List2B,black,woman,,,,,"{""Q0"":""jane is fighting dave""}","<img src=""stim_listB/fight1.gif""</stim_listB>",is fighting,
null,"<div style=""font-size:60px;"">+</div>",,html-keyboard-response,360,1648524,0.0-19.0-0.9,93618,List2B,black,woman,,,,null,,,,
null,"<img src=""stim_listB/meet5.gif""</stim_listB>",,html-keyboard-response,361,1650527,0.0-19.0-1.9,93618,List2B,black,woman,,,,null,,,,
null,is meeting,,html-keyboard-response,362,1652529,0.0-19.0-2.9,93618,List2B,black,woman,,,,null,,,,
4144,,,survey-text,363,1656673,0.0-19.0-3.9,93618,List2B,black,woman,,,,,"{""Q0"":""mike is meeting dave""}","<img src=""stim_listB/meet5.gif""</stim_listB>",is meeting,
null,"<div style=""font-size:60px;"">+</div>",,html-keyboard-response,364,1657174,0.0-19.0-0.10,93618,List2B,black,woman,,,,null,,,,
null,"<img src=""stim_listB/argue4.gif""</stim_listB>",,html-keyboard-response,365,1659176,0.0-19.0-1.10,93618,List2B,black,woman,,,,null,,,,
null,are arguing with each other,,html-keyboard-response,366,1661177,0.0-19.0-2.10,93618,List2B,black,woman,,,,null,,,,
7423,,,survey-text,367,1668601,0.0-19.0-3.10,93618,List2B,black,woman,,,,,"{""Q0"":""kate and fred are arguing with each other ""}","<img src=""stim_listB/argue4.gif""</stim_listB>",are arguing with each other,
null,"<div style=""font-size:60px;"">+</div>",,html-keyboard-response,368,1669103,0.0-19.0-0.11,93618,List2B,black,woman,,,,null,,,,
null,"<img src=""stim_listB/hug4.gif""</stim_listB>",,html-keyboard-response,369,1671104,0.0-19.0-1.11,93618,List2B,black,woman,,,,null,,,,
null,are hugging each other,,html-keyboard-response,370,1673105,0.0-19.0-2.11,93618,List2B,black,woman,,,,null,,,,
7248,,,survey-text,371,1680354,0.0-19.0-3.11,93618,List2B,black,woman,,,,,"{""Q0"":""kate and mike are hugging each other ""}","<img src=""stim_listB/hug4.gif""</stim_listB>",are hugging each other,
null,"<div style=""font-size:60px;"">+</div>",,html-keyboard-response,372,1680856,0.0-19.0-0.12,93618,List2B,black,woman,,,,null,,,,
null,"<img src=""stim_listB/hug3.gif""</stim_listB>",,html-keyboard-response,373,1682858,0.0-19.0-1.12,93618,List2B,black,woman,,,,null,,,,
null,is hugging,,html-keyboard-response,374,1684860,0.0-19.0-2.12,93618,List2B,black,woman,,,,null,,,,
12218,,,survey-text,375,1697079,0.0-19.0-3.12,93618,List2B,black,woman,,,,,"{""Q0"":""beth is hugging fred""}","<img src=""stim_listB/hug3.gif""</stim_listB>",is hugging,
null,"<div style=""font-size:60px;"">+</div>",,html-keyboard-response,376,1697581,0.0-19.0-0.13,93618,List2B,black,woman,,,,null,,,,
null,"<img src=""stim_listB/hug7.gif""</stim_listB>",,html-keyboard-response,377,1699582,0.0-19.0-1.13,93618,List2B,black,woman,,,,null,,,,
null,is hugging,,html-keyboard-response,378,1701583,0.0-19.0-2.13,93618,List2B,black,woman,,,,null,,,,
5211,,,survey-text,379,1706795,0.0-19.0-3.13,93618,List2B,black,woman,,,,,"{""Q0"":""beth is hugging ruth""}","<img src=""stim_listB/hug7.gif""</stim_listB>",is hugging,
null,"<div style=""font-size:60px;"">+</div>",,html-keyboard-response,380,1707297,0.0-19.0-0.14,93618,List2B,black,woman,,,,null,,,,
null,"<img src=""stim_listB/shout2.gif""</stim_listB>",,html-keyboard-response,381,1709298,0.0-19.0-1.14,93618,List2B,black,woman,,,,null,,,,
null,are shouting at each other,,html-keyboard-response,382,1711301,0.0-19.0-2.14,93618,List2B,black,woman,,,,null,,,,
13796,,,survey-text,383,1725097,0.0-19.0-3.14,93618,List2B,black,woman,,,,,"{""Q0"":""dave and jane are shouting at each other ""}","<img src=""stim_listB/shout2.gif""</stim_listB>",are shouting at each other,
null,"<div style=""font-size:60px;"">+</div>",,html-keyboard-response,384,1725599,0.0-19.0-0.15,93618,List2B,black,woman,,,,null,,,,
null,"<img src=""stim_listB/kiss2.gif""</stim_listB>",,html-keyboard-response,385,1727600,0.0-19.0-1.15,93618,List2B,black,woman,,,,null,,,,
null,are kissing each other,,html-keyboard-response,386,1729602,0.0-19.0-2.15,93618,List2B,black,woman,,,,null,,,,
5845,,,survey-text,387,1735447,0.0-19.0-3.15,93618,List2B,black,woman,,,,,"{""Q0"":""dave and jane are kissing each other ""}","<img src=""stim_listB/kiss2.gif""</stim_listB>",are kissing each other,
null,"<div style=""font-size:60px;"">+</div>",,html-keyboard-response,388,1735949,0.0-19.0-0.16,93618,List2B,black,woman,,,,null,,,,
null,"<img src=""stim_listB/meet3.gif""</stim_listB>",,html-keyboard-response,389,1737952,0.0-19.0-1.16,93618,List2B,black,woman,,,,null,,,,
null,is meeting,,html-keyboard-response,390,1739953,0.0-19.0-2.16,93618,List2B,black,woman,,,,null,,,,
5654,,,survey-text,391,1745608,0.0-19.0-3.16,93618,List2B,black,woman,,,,,"{""Q0"":""kate is meeting mike""}","<img src=""stim_listB/meet3.gif""</stim_listB>",is meeting,
null,"<div style=""font-size:60px;"">+</div>",,html-keyboard-response,392,1746110,0.0-19.0-0.17,93618,List2B,black,woman,,,,null,,,,
null,"<img src=""stim_listB/dance8.gif""</stim_listB>",,html-keyboard-response,393,1748112,0.0-19.0-1.17,93618,List2B,black,woman,,,,null,,,,
null,are dancing with each other,,html-keyboard-response,394,1750114,0.0-19.0-2.17,93618,List2B,black,woman,,,,null,,,,
7108,,,survey-text,395,1757224,0.0-19.0-3.17,93618,List2B,black,woman,,,,,"{""Q0"":""jane and beth are dancing with each other ""}","<img src=""stim_listB/dance8.gif""</stim_listB>",are dancing with each other,
null,"<div style=""font-size:60px;"">+</div>",,html-keyboard-response,396,1757726,0.0-19.0-0.18,93618,List2B,black,woman,,,,null,,,,
null,"<img src=""stim_listB/fight6.gif""</stim_listB>",,html-keyboard-response,397,1759728,0.0-19.0-1.18,93618,List2B,black,woman,,,,null,,,,
null,are fighting each other,,html-keyboard-response,398,1761730,0.0-19.0-2.18,93618,List2B,black,woman,,,,null,,,,
7229,,,survey-text,399,1768960,0.0-19.0-3.18,93618,List2B,black,woman,,,,,"{""Q0"":""luke and fred are fighting each other ""}","<img src=""stim_listB/fight6.gif""</stim_listB>",are fighting each other,
null,"<div style=""font-size:60px;"">+</div>",,html-keyboard-response,400,1769460,0.0-19.0-0.19,93618,List2B,black,woman,,,,null,,,,
null,"<img src=""stim_listB/touch8.gif""</stim_listB>",,html-keyboard-response,401,1771463,0.0-19.0-1.19,93618,List2B,black,woman,,,,null,,,,
null,are touching each other,,html-keyboard-response,402,1773465,0.0-19.0-2.19,93618,List2B,black,woman,,,,null,,,,
20651,,,survey-text,403,1794116,0.0-19.0-3.19,93618,List2B,black,woman,,,,,"{""Q0"":""beth and ruth are touching each other ""}","<img src=""stim_listB/touch8.gif""</stim_listB>",are touching each other,
3740,<p>Thank you for completing that task.</p><p>The final part of this session is a short questionnaire.</p><p>Press Continue.</p>,0,html-button-response,404,1797858,0.0-20.0,93618,List2B,black,woman,,,,,,,,
30165,,,survey-text,405,1829026,0.0-21.0,93618,List2B,black,woman,,,,,"{""Q0"":""34"",""Q1"":""English"",""Q2"":""English"",""Q3"":""USA"",""Q4"":""Black"",""Q5"":""Female""}",,,demographics
69418,,,survey-likert,406,1898614,0.0-22.0,93618,List2B,black,woman,,,,,"{""Q0"":4,""Q1"":4,""Q2"":3,""Q3"":5,""Q4"":5,""Q5"":4,""Q6"":5,""Q7"":3,""Q8"":3,""Q9"":3,""Q10"":4,""Q11"":3,""Q12"":3,""Q13"":3}",,,likert_race
69401,,,survey-likert,407,1968028,0.0-23.0,93618,List2B,black,woman,,,,,"{""Q0"":6,""Q1"":6,""Q2"":6,""Q3"":6,""Q4"":6,""Q5"":6,""Q6"":6,""Q7"":6,""Q8"":6,""Q9"":6,""Q10"":3,""Q11"":3,""Q12"":4,""Q13"":4}",,,likert_gender
3458,,,survey-text,408,1971487,0.0-24.0,93618,List2B,black,woman,,,,,"{""Q0"":""ccc""}",,,worker_id
1786,,,external-html,409,1973585,0.0-25.0,93618,List2B,black,woman,debrief.html,,,,,,,
