rt,stimulus,button_pressed,trial_type,trial_index,time_elapsed,internal_node_id,subject,list,ppt_race,ppt_gender,url,first_guess,correct,key_press,responses,image_type,phrase_type,test_part
2237,Welcome to the experiment. Press Continue to begin.,0,html-button-response,0,2242,0.0-0.0,93884,List2A,white,man,,,,,,,,
48303,,,external-html,1,51670,0.0-1.0,93884,List2A,white,man,consent.html,,,,,,,
13087,"<p>On the next page, you will see portraits of 8 people and their names.</p><p>Your first task is to take a few minutes to memorise the names of these people.</p><p>You will have to recall their names during the rest of the experiment, so it is</p><p>essential that you try to memorise these people and their names as best as you can.</p><br><p><strong>You will then be tested on your memory of these names and portraits.</strong></p><br><p>The experiment will start after you have completed this memory test.</p><br><p>Ready?</p>",0,html-button-response,2,64759,0.0-2.0,93884,List2A,white,man,,,,,,,,
105159,"<img src='img/portrait_matrix_list2.JPG' style='width:900px;height:500px;''></img><p>If you have memorised all the portraits and names and are ready to start, press Continue.</p><p><strong>Please note: Your memory of these faces will be tested 4 times during this experiment.</strong></p>",0,html-button-response,3,170920,0.0-3.0-0.0,93884,List2A,white,man,,,,,,,,
3280,"<img src=""portrait/BM1.jpg""style=""width:400px;height:400px;""></img>",4,html-button-response,4,175204,0.0-3.0-1.0,93884,List2A,white,man,,TRUE,4,,,,,
null,CORRECT,,html-keyboard-response,5,176716,0.0-3.0-2.0-0.0,93884,List2A,white,man,,,,null,,,,
2396,"<img src=""portrait/WM1.jpg""style=""width:400px;height:400px;""></img>",6,html-button-response,6,179114,0.0-3.0-4.0,93884,List2A,white,man,,TRUE,6,,,,,
null,CORRECT,,html-keyboard-response,7,180621,0.0-3.0-5.0-0.0,93884,List2A,white,man,,,,null,,,,
1707,"<img src=""portrait/WW2.jpg""style=""width:400px;height:400px;""></img>",3,html-button-response,8,182330,0.0-3.0-7.0,93884,List2A,white,man,,TRUE,3,,,,,
null,CORRECT,,html-keyboard-response,9,183836,0.0-3.0-8.0-0.0,93884,List2A,white,man,,,,null,,,,
2069,"<img src=""portrait/BW1.jpg""style=""width:400px;height:400px;""></img>",0,html-button-response,10,185907,0.0-3.0-10.0,93884,List2A,white,man,,TRUE,0,,,,,
null,CORRECT,,html-keyboard-response,11,187414,0.0-3.0-11.0-0.0,93884,List2A,white,man,,,,null,,,,
3302,"<img src=""portrait/WM2.jpg""style=""width:400px;height:400px;""></img>",7,html-button-response,12,190717,0.0-3.0-13.0,93884,List2A,white,man,,TRUE,7,,,,,
null,CORRECT,,html-keyboard-response,13,192225,0.0-3.0-14.0-0.0,93884,List2A,white,man,,,,null,,,,
2971,"<img src=""portrait/BW2.jpg""style=""width:400px;height:400px;""></img>",2,html-button-response,14,195198,0.0-3.0-16.0,93884,List2A,white,man,,TRUE,2,,,,,
null,CORRECT,,html-keyboard-response,15,196705,0.0-3.0-17.0-0.0,93884,List2A,white,man,,,,null,,,,
3401,"<img src=""portrait/WW1.jpg""style=""width:400px;height:400px;""></img>",1,html-button-response,16,200107,0.0-3.0-19.0,93884,List2A,white,man,,TRUE,1,,,,,
null,CORRECT,,html-keyboard-response,17,201613,0.0-3.0-20.0-0.0,93884,List2A,white,man,,,,null,,,,
2076,"<img src=""portrait/BM2.jpg""style=""width:400px;height:400px;""></img>",5,html-button-response,18,203691,0.0-3.0-22.0,93884,List2A,white,man,,TRUE,5,,,,,
null,CORRECT,,html-keyboard-response,19,205195,0.0-3.0-23.0-0.0,93884,List2A,white,man,,,,null,,,,
1982,<p>You got 8 out of 8 right first time. Press Continue.</p>,0,html-button-response,20,207178,0.0-3.0-25.0,93884,List2A,white,man,,,,,,,,
29451,"<p>In this experiment, you will view photographs of the people from the memory game interacting.</p><p>By using the <strong>exact</strong> phrase given <i>after</i> the photograph appears and recalling the correct names of the people in the photographs, form a sentence describing the interaction. You do not need to capitalise names.</p><p>Type your answer in the space provided. Please complete every sentence before moving onto the next trial.</p><p>You will only have a few seconds to memorise each given photograph and phrase before you can respond, so try your best to focus.</p><p>An example is given below. Press 'Continue' when you are ready.</p><img src='img/speaking_example_v2.jpg' style='width:800px;height:460px;''></img>",0,html-button-response,21,237635,0.0-4.0,93884,List2A,white,man,,,,,,,,
3246,"<p>Before the experiment starts, you will watch two example trials. Press 'Continue'.</p>",0,html-button-response,22,241882,0.0-5.0,93884,List2A,white,man,,,,,,,,
null,<img src='img/speaking_WW.gif'></img>,,html-keyboard-response,23,244890,0.0-6.0,93884,List2A,white,man,,,,null,,,,
null,<p>is speaking to</p>,,html-keyboard-response,24,246895,0.0-7.0,93884,List2A,white,man,,,,null,,,,
2764,<p><b>Answer:</b> jane is speaking to ruth</p>,0,html-button-response,25,249659,0.0-8.0,93884,List2A,white,man,,,,,,,,
null,<img src='img/pointing_BM.gif'></img>,,html-keyboard-response,26,252667,0.0-9.0,93884,List2A,white,man,,,,null,,,,
null,<p>are pointing at each other</p>,,html-keyboard-response,27,254670,0.0-10.0,93884,List2A,white,man,,,,null,,,,
5512,<p><b>Answer:</b> fred and mike are pointing at each other</p>,0,html-button-response,28,260183,0.0-11.0,93884,List2A,white,man,,,,,,,,
12837,"<p>Ready to start the experiment?</p><br><p><strong>Remember to describe the picture using a full sentence,</strong></p><p><strong>that combines the names of the people with the given phrase.</strong></p><p><strong>If you do not do this correctly you will not be paid.</strong></p><p><strong> You do not need to capitalise names or use punctuation.</strong></p><br><p>Press 'Continue' to begin.</p>",0,html-button-response,29,274026,0.0-12.0,93884,List2A,white,man,,,,,,,,
null,"<div style=""font-size:60px;"">+</div>",,html-keyboard-response,30,275533,0.0-13.0-0.0,93884,List2A,white,man,,,,null,,,,
null,"<img src=""stim_listA/marry3.gif""</stim_listA>",,html-keyboard-response,31,277535,0.0-13.0-1.0,93884,List2A,white,man,,,,null,,,,
null,is marrying,,html-keyboard-response,32,279536,0.0-13.0-2.0,93884,List2A,white,man,,,,null,,,,
9193,,,survey-text,33,288731,0.0-13.0-3.0,93884,List2A,white,man,,,,,"{""Q0"":""Mike is marrying Beth""}","<img src=""stim_listA/marry3.gif""</stim_listA>",is marrying,
null,"<div style=""font-size:60px;"">+</div>",,html-keyboard-response,34,289233,0.0-13.0-0.1,93884,List2A,white,man,,,,null,,,,
null,"<img src=""stim_listA/hug8.gif""</stim_listA>",,html-keyboard-response,35,291234,0.0-13.0-1.1,93884,List2A,white,man,,,,null,,,,
null,are hugging each other,,html-keyboard-response,36,293235,0.0-13.0-2.1,93884,List2A,white,man,,,,null,,,,
14495,,,survey-text,37,307732,0.0-13.0-3.1,93884,List2A,white,man,,,,,"{""Q0"":""Kate and Jane are hugging each other ""}","<img src=""stim_listA/hug8.gif""</stim_listA>",are hugging each other,
null,"<div style=""font-size:60px;"">+</div>",,html-keyboard-response,38,308234,0.0-13.0-0.2,93884,List2A,white,man,,,,null,,,,
null,"<img src=""stim_listA/touch3.gif""</stim_listA>",,html-keyboard-response,39,310235,0.0-13.0-1.2,93884,List2A,white,man,,,,null,,,,
null,is touching,,html-keyboard-response,40,312236,0.0-13.0-2.2,93884,List2A,white,man,,,,null,,,,
10536,,,survey-text,41,322774,0.0-13.0-3.2,93884,List2A,white,man,,,,,"{""Q0"":""Mike is touching Kate""}","<img src=""stim_listA/touch3.gif""</stim_listA>",is touching,
null,"<div style=""font-size:60px;"">+</div>",,html-keyboard-response,42,323275,0.0-13.0-0.3,93884,List2A,white,man,,,,null,,,,
null,"<img src=""stim_listA/meet8.gif""</stim_listA>",,html-keyboard-response,43,325281,0.0-13.0-1.3,93884,List2A,white,man,,,,null,,,,
null,are meeting each other,,html-keyboard-response,44,327282,0.0-13.0-2.3,93884,List2A,white,man,,,,null,,,,
17418,,,survey-text,45,344700,0.0-13.0-3.3,93884,List2A,white,man,,,,,"{""Q0"":""Beth and Ruth are meeting each other""}","<img src=""stim_listA/meet8.gif""</stim_listA>",are meeting each other,
null,"<div style=""font-size:60px;"">+</div>",,html-keyboard-response,46,345201,0.0-13.0-0.4,93884,List2A,white,man,,,,null,,,,
null,"<img src=""stim_listA/kiss5.gif""</stim_listA>",,html-keyboard-response,47,347206,0.0-13.0-1.4,93884,List2A,white,man,,,,null,,,,
null,is kissing,,html-keyboard-response,48,349211,0.0-13.0-2.4,93884,List2A,white,man,,,,null,,,,
7932,,,survey-text,49,357144,0.0-13.0-3.4,93884,List2A,white,man,,,,,"{""Q0"":""Luke is kissing Fred""}","<img src=""stim_listA/kiss5.gif""</stim_listA>",is kissing,
null,"<div style=""font-size:60px;"">+</div>",,html-keyboard-response,50,357646,0.0-13.0-0.5,93884,List2A,white,man,,,,null,,,,
null,"<img src=""stim_listA/meet7.gif""</stim_listA>",,html-keyboard-response,51,359652,0.0-13.0-1.5,93884,List2A,white,man,,,,null,,,,
null,is meeting,,html-keyboard-response,52,361657,0.0-13.0-2.5,93884,List2A,white,man,,,,null,,,,
8824,,,survey-text,53,370482,0.0-13.0-3.5,93884,List2A,white,man,,,,,"{""Q0"":""Jane is meeting Kate""}","<img src=""stim_listA/meet7.gif""</stim_listA>",is meeting,
null,"<div style=""font-size:60px;"">+</div>",,html-keyboard-response,54,370983,0.0-13.0-0.6,93884,List2A,white,man,,,,null,,,,
null,"<img src=""stim_listA/shout4.gif""</stim_listA>",,html-keyboard-response,55,372987,0.0-13.0-1.6,93884,List2A,white,man,,,,null,,,,
null,are shouting at each other,,html-keyboard-response,56,374988,0.0-13.0-2.6,93884,List2A,white,man,,,,null,,,,
10172,,,survey-text,57,385160,0.0-13.0-3.6,93884,List2A,white,man,,,,,"{""Q0"":""Mike and Kate are shouting at each other""}","<img src=""stim_listA/shout4.gif""</stim_listA>",are shouting at each other,
null,"<div style=""font-size:60px;"">+</div>",,html-keyboard-response,58,385661,0.0-13.0-0.7,93884,List2A,white,man,,,,null,,,,
null,"<img src=""stim_listA/kiss4.gif""</stim_listA>",,html-keyboard-response,59,387668,0.0-13.0-1.7,93884,List2A,white,man,,,,null,,,,
null,are kissing each other,,html-keyboard-response,60,389669,0.0-13.0-2.7,93884,List2A,white,man,,,,null,,,,
9067,,,survey-text,61,398736,0.0-13.0-3.7,93884,List2A,white,man,,,,,"{""Q0"":""Kate and Mike are kissing each other""}","<img src=""stim_listA/kiss4.gif""</stim_listA>",are kissing each other,
null,"<div style=""font-size:60px;"">+</div>",,html-keyboard-response,62,399239,0.0-13.0-0.8,93884,List2A,white,man,,,,null,,,,
null,"<img src=""stim_listA/marry4.gif""</stim_listA>",,html-keyboard-response,63,401244,0.0-13.0-1.8,93884,List2A,white,man,,,,null,,,,
null,are marrying each other,,html-keyboard-response,64,403246,0.0-13.0-2.8,93884,List2A,white,man,,,,null,,,,
10248,,,survey-text,65,413495,0.0-13.0-3.8,93884,List2A,white,man,,,,,"{""Q0"":""Kate and Fred are marrying each other""}","<img src=""stim_listA/marry4.gif""</stim_listA>",are marrying each other,
null,"<div style=""font-size:60px;"">+</div>",,html-keyboard-response,66,413998,0.0-13.0-0.9,93884,List2A,white,man,,,,null,,,,
null,"<img src=""stim_listA/hug5.gif""</stim_listA>",,html-keyboard-response,67,416004,0.0-13.0-1.9,93884,List2A,white,man,,,,null,,,,
null,is hugging,,html-keyboard-response,68,418008,0.0-13.0-2.9,93884,List2A,white,man,,,,null,,,,
8220,,,survey-text,69,426229,0.0-13.0-3.9,93884,List2A,white,man,,,,,"{""Q0"":""Luke is hugging Fred""}","<img src=""stim_listA/hug5.gif""</stim_listA>",is hugging,
null,"<div style=""font-size:60px;"">+</div>",,html-keyboard-response,70,426732,0.0-13.0-0.10,93884,List2A,white,man,,,,null,,,,
null,"<img src=""stim_listA/kiss8.gif""</stim_listA>",,html-keyboard-response,71,428734,0.0-13.0-1.10,93884,List2A,white,man,,,,null,,,,
null,are kissing each other,,html-keyboard-response,72,430735,0.0-13.0-2.10,93884,List2A,white,man,,,,null,,,,
10037,,,survey-text,73,440773,0.0-13.0-3.10,93884,List2A,white,man,,,,,"{""Q0"":""Kate and Jane are kissing each other""}","<img src=""stim_listA/kiss8.gif""</stim_listA>",are kissing each other,
null,"<div style=""font-size:60px;"">+</div>",,html-keyboard-response,74,441277,0.0-13.0-0.11,93884,List2A,white,man,,,,null,,,,
null,"<img src=""stim_listA/hug4.gif""</stim_listA>",,html-keyboard-response,75,443282,0.0-13.0-1.11,93884,List2A,white,man,,,,null,,,,
null,are hugging each other,,html-keyboard-response,76,445282,0.0-13.0-2.11,93884,List2A,white,man,,,,null,,,,
14099,,,survey-text,77,459383,0.0-13.0-3.11,93884,List2A,white,man,,,,,"{""Q0"":""Kate and Mike are hugging each other""}","<img src=""stim_listA/hug4.gif""</stim_listA>",are hugging each other,
null,"<div style=""font-size:60px;"">+</div>",,html-keyboard-response,78,459884,0.0-13.0-0.12,93884,List2A,white,man,,,,null,,,,
null,"<img src=""stim_listA/dance6.gif""</stim_listA>",,html-keyboard-response,79,461889,0.0-13.0-1.12,93884,List2A,white,man,,,,null,,,,
null,are dancing with each other,,html-keyboard-response,80,463890,0.0-13.0-2.12,93884,List2A,white,man,,,,null,,,,
10279,,,survey-text,81,474171,0.0-13.0-3.12,93884,List2A,white,man,,,,,"{""Q0"":""Fred and Dave are dancing with each other""}","<img src=""stim_listA/dance6.gif""</stim_listA>",are dancing with each other,
null,"<div style=""font-size:60px;"">+</div>",,html-keyboard-response,82,474673,0.0-13.0-0.13,93884,List2A,white,man,,,,null,,,,
null,"<img src=""stim_listA/marry5.gif""</stim_listA>",,html-keyboard-response,83,476679,0.0-13.0-1.13,93884,List2A,white,man,,,,null,,,,
null,is marrying,,html-keyboard-response,84,478683,0.0-13.0-2.13,93884,List2A,white,man,,,,null,,,,
11514,,,survey-text,85,490198,0.0-13.0-3.13,93884,List2A,white,man,,,,,"{""Q0"":""Fred is marrying Dave""}","<img src=""stim_listA/marry5.gif""</stim_listA>",is marrying,
null,"<div style=""font-size:60px;"">+</div>",,html-keyboard-response,86,490702,0.0-13.0-0.14,93884,List2A,white,man,,,,null,,,,
null,"<img src=""stim_listA/fight1.gif""</stim_listA>",,html-keyboard-response,87,492708,0.0-13.0-1.14,93884,List2A,white,man,,,,null,,,,
null,is fighting,,html-keyboard-response,88,494709,0.0-13.0-2.14,93884,List2A,white,man,,,,null,,,,
10423,,,survey-text,89,505133,0.0-13.0-3.14,93884,List2A,white,man,,,,,"{""Q0"":""Dave is fighting Jane""}","<img src=""stim_listA/fight1.gif""</stim_listA>",is fighting,
null,"<div style=""font-size:60px;"">+</div>",,html-keyboard-response,90,505636,0.0-13.0-0.15,93884,List2A,white,man,,,,null,,,,
null,"<img src=""stim_listA/talk6.gif""</stim_listA>",,html-keyboard-response,91,507640,0.0-13.0-1.15,93884,List2A,white,man,,,,null,,,,
null,are talking to each other,,html-keyboard-response,92,509641,0.0-13.0-2.15,93884,List2A,white,man,,,,null,,,,
15556,,,survey-text,93,525199,0.0-13.0-3.15,93884,List2A,white,man,,,,,"{""Q0"":""Fred and Dave are talking to each other""}","<img src=""stim_listA/talk6.gif""</stim_listA>",are talking to each other,
null,"<div style=""font-size:60px;"">+</div>",,html-keyboard-response,94,525701,0.0-13.0-0.16,93884,List2A,white,man,,,,null,,,,
null,"<img src=""stim_listA/touch7.gif""</stim_listA>",,html-keyboard-response,95,527703,0.0-13.0-1.16,93884,List2A,white,man,,,,null,,,,
null,is touching,,html-keyboard-response,96,529703,0.0-13.0-2.16,93884,List2A,white,man,,,,null,,,,
6327,,,survey-text,97,536031,0.0-13.0-3.16,93884,List2A,white,man,,,,,"{""Q0"":""Kate is touching Jane""}","<img src=""stim_listA/touch7.gif""</stim_listA>",is touching,
null,"<div style=""font-size:60px;"">+</div>",,html-keyboard-response,98,536535,0.0-13.0-0.17,93884,List2A,white,man,,,,null,,,,
null,"<img src=""stim_listA/fight8.gif""</stim_listA>",,html-keyboard-response,99,538537,0.0-13.0-1.17,93884,List2A,white,man,,,,null,,,,
null,are fighting each other,,html-keyboard-response,100,540540,0.0-13.0-2.17,93884,List2A,white,man,,,,null,,,,
13604,,,survey-text,101,554146,0.0-13.0-3.17,93884,List2A,white,man,,,,,"{""Q0"":""Beth and Ruth are fighting each other""}","<img src=""stim_listA/fight8.gif""</stim_listA>",are fighting each other,
null,"<div style=""font-size:60px;"">+</div>",,html-keyboard-response,102,554648,0.0-13.0-0.18,93884,List2A,white,man,,,,null,,,,
null,"<img src=""stim_listA/marry6.gif""</stim_listA>",,html-keyboard-response,103,556654,0.0-13.0-1.18,93884,List2A,white,man,,,,null,,,,
null,are marrying each other,,html-keyboard-response,104,558654,0.0-13.0-2.18,93884,List2A,white,man,,,,null,,,,
12420,,,survey-text,105,571075,0.0-13.0-3.18,93884,List2A,white,man,,,,,"{""Q0"":""Luke and Mike are marrying each other""}","<img src=""stim_listA/marry6.gif""</stim_listA>",are marrying each other,
null,"<div style=""font-size:60px;"">+</div>",,html-keyboard-response,106,571578,0.0-13.0-0.19,93884,List2A,white,man,,,,null,,,,
null,"<img src=""stim_listA/touch4.gif""</stim_listA>",,html-keyboard-response,107,573581,0.0-13.0-1.19,93884,List2A,white,man,,,,null,,,,
null,are touching each other,,html-keyboard-response,108,575582,0.0-13.0-2.19,93884,List2A,white,man,,,,null,,,,
11328,,,survey-text,109,586910,0.0-13.0-3.19,93884,List2A,white,man,,,,,"{""Q0"":""Beth and Fred are touching each other""}","<img src=""stim_listA/touch4.gif""</stim_listA>",are touching each other,
8023,"<img src='img/portrait_matrix_list2.JPG' style='width:900px;height:500px;''></img><p>If you have memorised all the portraits and names and are ready to start, press Continue.</p><p><strong>Please note: Your memory of these faces will be tested 4 times during this experiment.</strong></p>",0,html-button-response,110,594935,0.0-14.0-0.0,93884,List2A,white,man,,,,,,,,
3745,"<img src=""portrait/BW1.jpg""style=""width:400px;height:400px;""></img>",0,html-button-response,111,599684,0.0-14.0-1.0,93884,List2A,white,man,,TRUE,0,,,,,
null,CORRECT,,html-keyboard-response,112,601191,0.0-14.0-2.0-0.0,93884,List2A,white,man,,,,null,,,,
1942,"<img src=""portrait/WM1.jpg""style=""width:400px;height:400px;""></img>",6,html-button-response,113,603134,0.0-14.0-4.0,93884,List2A,white,man,,TRUE,6,,,,,
null,CORRECT,,html-keyboard-response,114,604642,0.0-14.0-5.0-0.0,93884,List2A,white,man,,,,null,,,,
1915,"<img src=""portrait/BM1.jpg""style=""width:400px;height:400px;""></img>",4,html-button-response,115,606559,0.0-14.0-7.0,93884,List2A,white,man,,TRUE,4,,,,,
null,CORRECT,,html-keyboard-response,116,608066,0.0-14.0-8.0-0.0,93884,List2A,white,man,,,,null,,,,
1836,"<img src=""portrait/BM2.jpg""style=""width:400px;height:400px;""></img>",5,html-button-response,117,609903,0.0-14.0-10.0,93884,List2A,white,man,,TRUE,5,,,,,
null,CORRECT,,html-keyboard-response,118,611408,0.0-14.0-11.0-0.0,93884,List2A,white,man,,,,null,,,,
1416,"<img src=""portrait/WM2.jpg""style=""width:400px;height:400px;""></img>",7,html-button-response,119,612827,0.0-14.0-13.0,93884,List2A,white,man,,TRUE,7,,,,,
null,CORRECT,,html-keyboard-response,120,614331,0.0-14.0-14.0-0.0,93884,List2A,white,man,,,,null,,,,
2028,"<img src=""portrait/BW2.jpg""style=""width:400px;height:400px;""></img>",2,html-button-response,121,616361,0.0-14.0-16.0,93884,List2A,white,man,,TRUE,2,,,,,
null,CORRECT,,html-keyboard-response,122,617868,0.0-14.0-17.0-0.0,93884,List2A,white,man,,,,null,,,,
1593,"<img src=""portrait/WW1.jpg""style=""width:400px;height:400px;""></img>",1,html-button-response,123,619463,0.0-14.0-19.0,93884,List2A,white,man,,TRUE,1,,,,,
null,CORRECT,,html-keyboard-response,124,620966,0.0-14.0-20.0-0.0,93884,List2A,white,man,,,,null,,,,
1723,"<img src=""portrait/WW2.jpg""style=""width:400px;height:400px;""></img>",3,html-button-response,125,622690,0.0-14.0-22.0,93884,List2A,white,man,,TRUE,3,,,,,
null,CORRECT,,html-keyboard-response,126,624193,0.0-14.0-23.0-0.0,93884,List2A,white,man,,,,null,,,,
1525,<p>You got 8 out of 8 right first time. Press Continue.</p>,0,html-button-response,127,625718,0.0-14.0-25.0,93884,List2A,white,man,,,,,,,,
null,"<div style=""font-size:60px;"">+</div>",,html-keyboard-response,128,627223,0.0-15.0-0.0,93884,List2A,white,man,,,,null,,,,
null,"<img src=""stim_listA/fight6.gif""</stim_listA>",,html-keyboard-response,129,629225,0.0-15.0-1.0,93884,List2A,white,man,,,,null,,,,
null,are fighting each other,,html-keyboard-response,130,631226,0.0-15.0-2.0,93884,List2A,white,man,,,,null,,,,
14347,,,survey-text,131,645574,0.0-15.0-3.0,93884,List2A,white,man,,,,,"{""Q0"":""Fred and Luke are fighting each other""}","<img src=""stim_listA/fight6.gif""</stim_listA>",are fighting each other,
null,"<div style=""font-size:60px;"">+</div>",,html-keyboard-response,132,646076,0.0-15.0-0.1,93884,List2A,white,man,,,,null,,,,
null,"<img src=""stim_listA/talk8.gif""</stim_listA>",,html-keyboard-response,133,648080,0.0-15.0-1.1,93884,List2A,white,man,,,,null,,,,
null,are talking to each other,,html-keyboard-response,134,650085,0.0-15.0-2.1,93884,List2A,white,man,,,,null,,,,
31930,,,survey-text,135,682016,0.0-15.0-3.1,93884,List2A,white,man,,,,,"{""Q0"":""Jane and Beth are talking to each other""}","<img src=""stim_listA/talk8.gif""</stim_listA>",are talking to each other,
null,"<div style=""font-size:60px;"">+</div>",,html-keyboard-response,136,682518,0.0-15.0-0.2,93884,List2A,white,man,,,,null,,,,
null,"<img src=""stim_listA/touch2.gif""</stim_listA>",,html-keyboard-response,137,684519,0.0-15.0-1.2,93884,List2A,white,man,,,,null,,,,
null,are touching each other,,html-keyboard-response,138,686520,0.0-15.0-2.2,93884,List2A,white,man,,,,null,,,,
11879,,,survey-text,139,698401,0.0-15.0-3.2,93884,List2A,white,man,,,,,"{""Q0"":""Ruth and Luke are touching each other""}","<img src=""stim_listA/touch2.gif""</stim_listA>",are touching each other,
null,"<div style=""font-size:60px;"">+</div>",,html-keyboard-response,140,698904,0.0-15.0-0.3,93884,List2A,white,man,,,,null,,,,
null,"<img src=""stim_listA/hug1.gif""</stim_listA>",,html-keyboard-response,141,700905,0.0-15.0-1.3,93884,List2A,white,man,,,,null,,,,
null,is hugging,,html-keyboard-response,142,702906,0.0-15.0-2.3,93884,List2A,white,man,,,,null,,,,
7670,,,survey-text,143,710576,0.0-15.0-3.3,93884,List2A,white,man,,,,,"{""Q0"":""Luke is hugging Ruth""}","<img src=""stim_listA/hug1.gif""</stim_listA>",is hugging,
null,"<div style=""font-size:60px;"">+</div>",,html-keyboard-response,144,711079,0.0-15.0-0.4,93884,List2A,white,man,,,,null,,,,
null,"<img src=""stim_listA/shout1.gif""</stim_listA>",,html-keyboard-response,145,713085,0.0-15.0-1.4,93884,List2A,white,man,,,,null,,,,
null,is shouting at,,html-keyboard-response,146,715086,0.0-15.0-2.4,93884,List2A,white,man,,,,null,,,,
6512,,,survey-text,147,721599,0.0-15.0-3.4,93884,List2A,white,man,,,,,"{""Q0"":""Luke is shouting at Ruth""}","<img src=""stim_listA/shout1.gif""</stim_listA>",is shouting at,
null,"<div style=""font-size:60px;"">+</div>",,html-keyboard-response,148,722102,0.0-15.0-0.5,93884,List2A,white,man,,,,null,,,,
null,"<img src=""stim_listA/touch8.gif""</stim_listA>",,html-keyboard-response,149,724108,0.0-15.0-1.5,93884,List2A,white,man,,,,null,,,,
null,are touching each other,,html-keyboard-response,150,726109,0.0-15.0-2.5,93884,List2A,white,man,,,,null,,,,
11350,,,survey-text,151,737460,0.0-15.0-3.5,93884,List2A,white,man,,,,,"{""Q0"":""Beth and Ruth are touching each other""}","<img src=""stim_listA/touch8.gif""</stim_listA>",are touching each other,
null,"<div style=""font-size:60px;"">+</div>",,html-keyboard-response,152,737962,0.0-15.0-0.6,93884,List2A,white,man,,,,null,,,,
null,"<img src=""stim_listA/shout8.gif""</stim_listA>",,html-keyboard-response,153,739964,0.0-15.0-1.6,93884,List2A,white,man,,,,null,,,,
null,are shouting at each other,,html-keyboard-response,154,741967,0.0-15.0-2.6,93884,List2A,white,man,,,,null,,,,
10898,,,survey-text,155,752866,0.0-15.0-3.6,93884,List2A,white,man,,,,,"{""Q0"":""Kate and Jane are shouting at each other""}","<img src=""stim_listA/shout8.gif""</stim_listA>",are shouting at each other,
null,"<div style=""font-size:60px;"">+</div>",,html-keyboard-response,156,753369,0.0-15.0-0.7,93884,List2A,white,man,,,,null,,,,
null,"<img src=""stim_listA/touch5.gif""</stim_listA>",,html-keyboard-response,157,755372,0.0-15.0-1.7,93884,List2A,white,man,,,,null,,,,
null,is touching,,html-keyboard-response,158,757373,0.0-15.0-2.7,93884,List2A,white,man,,,,null,,,,
5401,,,survey-text,159,762775,0.0-15.0-3.7,93884,List2A,white,man,,,,,"{""Q0"":""Dave is touching Mike""}","<img src=""stim_listA/touch5.gif""</stim_listA>",is touching,
null,"<div style=""font-size:60px;"">+</div>",,html-keyboard-response,160,763278,0.0-15.0-0.8,93884,List2A,white,man,,,,null,,,,
null,"<img src=""stim_listA/kiss1.gif""</stim_listA>",,html-keyboard-response,161,765281,0.0-15.0-1.8,93884,List2A,white,man,,,,null,,,,
null,is kissing,,html-keyboard-response,162,767284,0.0-15.0-2.8,93884,List2A,white,man,,,,null,,,,
11642,,,survey-text,163,778928,0.0-15.0-3.8,93884,List2A,white,man,,,,,"{""Q0"":""Luke is kissing Ruth""}","<img src=""stim_listA/kiss1.gif""</stim_listA>",is kissing,
null,"<div style=""font-size:60px;"">+</div>",,html-keyboard-response,164,779430,0.0-15.0-0.9,93884,List2A,white,man,,,,null,,,,
null,"<img src=""stim_listA/argue7.gif""</stim_listA>",,html-keyboard-response,165,781432,0.0-15.0-1.9,93884,List2A,white,man,,,,null,,,,
null,is arguing with,,html-keyboard-response,166,783433,0.0-15.0-2.9,93884,List2A,white,man,,,,null,,,,
9655,,,survey-text,167,793089,0.0-15.0-3.9,93884,List2A,white,man,,,,,"{""Q0"":""Jane is arguing with Beth""}","<img src=""stim_listA/argue7.gif""</stim_listA>",is arguing with,
null,"<div style=""font-size:60px;"">+</div>",,html-keyboard-response,168,793592,0.0-15.0-0.10,93884,List2A,white,man,,,,null,,,,
null,"<img src=""stim_listA/argue1.gif""</stim_listA>",,html-keyboard-response,169,795594,0.0-15.0-1.10,93884,List2A,white,man,,,,null,,,,
null,is arguing with,,html-keyboard-response,170,797595,0.0-15.0-2.10,93884,List2A,white,man,,,,null,,,,
6537,,,survey-text,171,804134,0.0-15.0-3.10,93884,List2A,white,man,,,,,"{""Q0"":""Dave is arguing with Ruth""}","<img src=""stim_listA/argue1.gif""</stim_listA>",is arguing with,
null,"<div style=""font-size:60px;"">+</div>",,html-keyboard-response,172,804637,0.0-15.0-0.11,93884,List2A,white,man,,,,null,,,,
null,"<img src=""stim_listA/marry2.gif""</stim_listA>",,html-keyboard-response,173,806642,0.0-15.0-1.11,93884,List2A,white,man,,,,null,,,,
null,are marrying each other,,html-keyboard-response,174,808647,0.0-15.0-2.11,93884,List2A,white,man,,,,null,,,,
9583,,,survey-text,175,818231,0.0-15.0-3.11,93884,List2A,white,man,,,,,"{""Q0"":""Luke and Jane are marrying each other""}","<img src=""stim_listA/marry2.gif""</stim_listA>",are marrying each other,
null,"<div style=""font-size:60px;"">+</div>",,html-keyboard-response,176,818733,0.0-15.0-0.12,93884,List2A,white,man,,,,null,,,,
null,"<img src=""stim_listA/meet6.gif""</stim_listA>",,html-keyboard-response,177,820735,0.0-15.0-1.12,93884,List2A,white,man,,,,null,,,,
null,are meeting each other,,html-keyboard-response,178,822740,0.0-15.0-2.12,93884,List2A,white,man,,,,null,,,,
13405,,,survey-text,179,836146,0.0-15.0-3.12,93884,List2A,white,man,,,,,"{""Q0"":""Fred and Luke are meeting each other""}","<img src=""stim_listA/meet6.gif""</stim_listA>",are meeting each other,
null,"<div style=""font-size:60px;"">+</div>",,html-keyboard-response,180,836649,0.0-15.0-0.13,93884,List2A,white,man,,,,null,,,,
null,"<img src=""stim_listA/marry7.gif""</stim_listA>",,html-keyboard-response,181,838654,0.0-15.0-1.13,93884,List2A,white,man,,,,null,,,,
null,is marrying,,html-keyboard-response,182,840655,0.0-15.0-2.13,93884,List2A,white,man,,,,null,,,,
7178,,,survey-text,183,847834,0.0-15.0-3.13,93884,List2A,white,man,,,,,"{""Q0"":""Beth is marrying Jane""}","<img src=""stim_listA/marry7.gif""</stim_listA>",is marrying,
null,"<div style=""font-size:60px;"">+</div>",,html-keyboard-response,184,848337,0.0-15.0-0.14,93884,List2A,white,man,,,,null,,,,
null,"<img src=""stim_listA/dance5.gif""</stim_listA>",,html-keyboard-response,185,850339,0.0-15.0-1.14,93884,List2A,white,man,,,,null,,,,
null,is dancing with,,html-keyboard-response,186,852340,0.0-15.0-2.14,93884,List2A,white,man,,,,null,,,,
8238,,,survey-text,187,860579,0.0-15.0-3.14,93884,List2A,white,man,,,,,"{""Q0"":""Mike is dancing with Luke""}","<img src=""stim_listA/dance5.gif""</stim_listA>",is dancing with,
null,"<div style=""font-size:60px;"">+</div>",,html-keyboard-response,188,861081,0.0-15.0-0.15,93884,List2A,white,man,,,,null,,,,
null,"<img src=""stim_listA/argue3.gif""</stim_listA>",,html-keyboard-response,189,863085,0.0-15.0-1.15,93884,List2A,white,man,,,,null,,,,
null,is arguing with,,html-keyboard-response,190,865086,0.0-15.0-2.15,93884,List2A,white,man,,,,null,,,,
11304,,,survey-text,191,876392,0.0-15.0-3.15,93884,List2A,white,man,,,,,"{""Q0"":""Beth is arguing with Mike""}","<img src=""stim_listA/argue3.gif""</stim_listA>",is arguing with,
null,"<div style=""font-size:60px;"">+</div>",,html-keyboard-response,192,876895,0.0-15.0-0.16,93884,List2A,white,man,,,,null,,,,
null,"<img src=""stim_listA/talk4.gif""</stim_listA>",,html-keyboard-response,193,878898,0.0-15.0-1.16,93884,List2A,white,man,,,,null,,,,
null,are talking to each other,,html-keyboard-response,194,880900,0.0-15.0-2.16,93884,List2A,white,man,,,,null,,,,
10345,,,survey-text,195,891246,0.0-15.0-3.16,93884,List2A,white,man,,,,,"{""Q0"":""Mike and Beth are talking to each other""}","<img src=""stim_listA/talk4.gif""</stim_listA>",are talking to each other,
null,"<div style=""font-size:60px;"">+</div>",,html-keyboard-response,196,891749,0.0-15.0-0.17,93884,List2A,white,man,,,,null,,,,
null,"<img src=""stim_listA/fight2.gif""</stim_listA>",,html-keyboard-response,197,893751,0.0-15.0-1.17,93884,List2A,white,man,,,,null,,,,
null,are fighting each other,,html-keyboard-response,198,895756,0.0-15.0-2.17,93884,List2A,white,man,,,,null,,,,
11452,,,survey-text,199,907208,0.0-15.0-3.17,93884,List2A,white,man,,,,,"{""Q0"":""Luke and Ruth are fighting each other""}","<img src=""stim_listA/fight2.gif""</stim_listA>",are fighting each other,
null,"<div style=""font-size:60px;"">+</div>",,html-keyboard-response,200,907710,0.0-15.0-0.18,93884,List2A,white,man,,,,null,,,,
null,"<img src=""stim_listA/fight7.gif""</stim_listA>",,html-keyboard-response,201,909711,0.0-15.0-1.18,93884,List2A,white,man,,,,null,,,,
null,is fighting,,html-keyboard-response,202,911712,0.0-15.0-2.18,93884,List2A,white,man,,,,null,,,,
17463,,,survey-text,203,929177,0.0-15.0-3.18,93884,List2A,white,man,,,,,"{""Q0"":""Jane is fighting Kate""}","<img src=""stim_listA/fight7.gif""</stim_listA>",is fighting,
null,"<div style=""font-size:60px;"">+</div>",,html-keyboard-response,204,929680,0.0-15.0-0.19,93884,List2A,white,man,,,,null,,,,
null,"<img src=""stim_listA/talk7.gif""</stim_listA>",,html-keyboard-response,205,931686,0.0-15.0-1.19,93884,List2A,white,man,,,,null,,,,
null,is talking to,,html-keyboard-response,206,933687,0.0-15.0-2.19,93884,List2A,white,man,,,,null,,,,
6157,,,survey-text,207,939845,0.0-15.0-3.19,93884,List2A,white,man,,,,,"{""Q0"":""Kate is talking to Ruth""}","<img src=""stim_listA/talk7.gif""</stim_listA>",is talking to,
2827,"<img src='img/portrait_matrix_list2.JPG' style='width:900px;height:500px;''></img><p>If you have memorised all the portraits and names and are ready to start, press Continue.</p><p><strong>Please note: Your memory of these faces will be tested 4 times during this experiment.</strong></p>",0,html-button-response,208,942673,0.0-16.0-0.0,93884,List2A,white,man,,,,,,,,
1521,"<img src=""portrait/WM1.jpg""style=""width:400px;height:400px;""></img>",6,html-button-response,209,945197,0.0-16.0-1.0,93884,List2A,white,man,,TRUE,6,,,,,
null,CORRECT,,html-keyboard-response,210,946704,0.0-16.0-2.0-0.0,93884,List2A,white,man,,,,null,,,,
1802,"<img src=""portrait/WW1.jpg""style=""width:400px;height:400px;""></img>",1,html-button-response,211,948508,0.0-16.0-4.0,93884,List2A,white,man,,TRUE,1,,,,,
null,CORRECT,,html-keyboard-response,212,950009,0.0-16.0-5.0-0.0,93884,List2A,white,man,,,,null,,,,
1089,"<img src=""portrait/BW2.jpg""style=""width:400px;height:400px;""></img>",2,html-button-response,213,951101,0.0-16.0-7.0,93884,List2A,white,man,,TRUE,2,,,,,
null,CORRECT,,html-keyboard-response,214,952610,0.0-16.0-8.0-0.0,93884,List2A,white,man,,,,null,,,,
1346,"<img src=""portrait/WM2.jpg""style=""width:400px;height:400px;""></img>",7,html-button-response,215,953958,0.0-16.0-10.0,93884,List2A,white,man,,TRUE,7,,,,,
null,CORRECT,,html-keyboard-response,216,955461,0.0-16.0-11.0-0.0,93884,List2A,white,man,,,,null,,,,
1329,"<img src=""portrait/BM1.jpg""style=""width:400px;height:400px;""></img>",4,html-button-response,217,956792,0.0-16.0-13.0,93884,List2A,white,man,,TRUE,4,,,,,
null,CORRECT,,html-keyboard-response,218,958303,0.0-16.0-14.0-0.0,93884,List2A,white,man,,,,null,,,,
2525,"<img src=""portrait/BW1.jpg""style=""width:400px;height:400px;""></img>",0,html-button-response,219,960830,0.0-16.0-16.0,93884,List2A,white,man,,TRUE,0,,,,,
null,CORRECT,,html-keyboard-response,220,962339,0.0-16.0-17.0-0.0,93884,List2A,white,man,,,,null,,,,
1490,"<img src=""portrait/WW2.jpg""style=""width:400px;height:400px;""></img>",3,html-button-response,221,963831,0.0-16.0-19.0,93884,List2A,white,man,,TRUE,3,,,,,
null,CORRECT,,html-keyboard-response,222,965337,0.0-16.0-20.0-0.0,93884,List2A,white,man,,,,null,,,,
1466,"<img src=""portrait/BM2.jpg""style=""width:400px;height:400px;""></img>",5,html-button-response,223,966805,0.0-16.0-22.0,93884,List2A,white,man,,TRUE,5,,,,,
null,CORRECT,,html-keyboard-response,224,968308,0.0-16.0-23.0-0.0,93884,List2A,white,man,,,,null,,,,
1181,<p>You got 8 out of 8 right first time. Press Continue.</p>,0,html-button-response,225,969491,0.0-16.0-25.0,93884,List2A,white,man,,,,,,,,
null,"<div style=""font-size:60px;"">+</div>",,html-keyboard-response,226,971001,0.0-17.0-0.0,93884,List2A,white,man,,,,null,,,,
null,"<img src=""stim_listA/talk5.gif""</stim_listA>",,html-keyboard-response,227,973007,0.0-17.0-1.0,93884,List2A,white,man,,,,null,,,,
null,is talking to,,html-keyboard-response,228,975008,0.0-17.0-2.0,93884,List2A,white,man,,,,null,,,,
10376,,,survey-text,229,985386,0.0-17.0-3.0,93884,List2A,white,man,,,,,"{""Q0"":""Mike is talking to Luke""}","<img src=""stim_listA/talk5.gif""</stim_listA>",is talking to,
null,"<div style=""font-size:60px;"">+</div>",,html-keyboard-response,230,985888,0.0-17.0-0.1,93884,List2A,white,man,,,,null,,,,
null,"<img src=""stim_listA/argue8.gif""</stim_listA>",,html-keyboard-response,231,987890,0.0-17.0-1.1,93884,List2A,white,man,,,,null,,,,
null,are arguing with each other,,html-keyboard-response,232,989891,0.0-17.0-2.1,93884,List2A,white,man,,,,null,,,,
10007,,,survey-text,233,999900,0.0-17.0-3.1,93884,List2A,white,man,,,,,"{""Q0"":""Ruth and Kate are arguing with each other""}","<img src=""stim_listA/argue8.gif""</stim_listA>",are arguing with each other,
null,"<div style=""font-size:60px;"">+</div>",,html-keyboard-response,234,1000403,0.0-17.0-0.2,93884,List2A,white,man,,,,null,,,,
null,"<img src=""stim_listA/shout6.gif""</stim_listA>",,html-keyboard-response,235,1002404,0.0-17.0-1.2,93884,List2A,white,man,,,,null,,,,
null,are shouting at each other,,html-keyboard-response,236,1004405,0.0-17.0-2.2,93884,List2A,white,man,,,,null,,,,
11007,,,survey-text,237,1015414,0.0-17.0-3.2,93884,List2A,white,man,,,,,"{""Q0"":""Mike and Dave are shouting at each other""}","<img src=""stim_listA/shout6.gif""</stim_listA>",are shouting at each other,
null,"<div style=""font-size:60px;"">+</div>",,html-keyboard-response,238,1015917,0.0-17.0-0.3,93884,List2A,white,man,,,,null,,,,
null,"<img src=""stim_listA/kiss7.gif""</stim_listA>",,html-keyboard-response,239,1017921,0.0-17.0-1.3,93884,List2A,white,man,,,,null,,,,
null,is kissing,,html-keyboard-response,240,1019922,0.0-17.0-2.3,93884,List2A,white,man,,,,null,,,,
6545,,,survey-text,241,1026468,0.0-17.0-3.3,93884,List2A,white,man,,,,,"{""Q0"":""Ruth is kissing Beth""}","<img src=""stim_listA/kiss7.gif""</stim_listA>",is kissing,
null,"<div style=""font-size:60px;"">+</div>",,html-keyboard-response,242,1026969,0.0-17.0-0.4,93884,List2A,white,man,,,,null,,,,
null,"<img src=""stim_listA/fight4.gif""</stim_listA>",,html-keyboard-response,243,1028975,0.0-17.0-1.4,93884,List2A,white,man,,,,null,,,,
null,are fighting each other,,html-keyboard-response,244,1030978,0.0-17.0-2.4,93884,List2A,white,man,,,,null,,,,
15408,,,survey-text,245,1046388,0.0-17.0-3.4,93884,List2A,white,man,,,,,"{""Q0"":""Fred and Beth are fighting each other ""}","<img src=""stim_listA/fight4.gif""</stim_listA>",are fighting each other,
null,"<div style=""font-size:60px;"">+</div>",,html-keyboard-response,246,1046891,0.0-17.0-0.5,93884,List2A,white,man,,,,null,,,,
null,"<img src=""stim_listA/dance1.gif""</stim_listA>",,html-keyboard-response,247,1048897,0.0-17.0-1.5,93884,List2A,white,man,,,,null,,,,
null,is dancing with,,html-keyboard-response,248,1050898,0.0-17.0-2.5,93884,List2A,white,man,,,,null,,,,
6410,,,survey-text,249,1057309,0.0-17.0-3.5,93884,List2A,white,man,,,,,"{""Q0"":""Luke is dancing with Jane""}","<img src=""stim_listA/dance1.gif""</stim_listA>",is dancing with,
null,"<div style=""font-size:60px;"">+</div>",,html-keyboard-response,250,1057811,0.0-17.0-0.6,93884,List2A,white,man,,,,null,,,,
null,"<img src=""stim_listA/argue5.gif""</stim_listA>",,html-keyboard-response,251,1059815,0.0-17.0-1.6,93884,List2A,white,man,,,,null,,,,
null,is arguing with,,html-keyboard-response,252,1061816,0.0-17.0-2.6,93884,List2A,white,man,,,,null,,,,
8432,,,survey-text,253,1070250,0.0-17.0-3.6,93884,List2A,white,man,,,,,"{""Q0"":""Dave is arguing with Fred""}","<img src=""stim_listA/argue5.gif""</stim_listA>",is arguing with,
null,"<div style=""font-size:60px;"">+</div>",,html-keyboard-response,254,1070752,0.0-17.0-0.7,93884,List2A,white,man,,,,null,,,,
null,"<img src=""stim_listA/kiss2.gif""</stim_listA>",,html-keyboard-response,255,1072758,0.0-17.0-1.7,93884,List2A,white,man,,,,null,,,,
null,are kissing each other,,html-keyboard-response,256,1074759,0.0-17.0-2.7,93884,List2A,white,man,,,,null,,,,
12714,,,survey-text,257,1087475,0.0-17.0-3.7,93884,List2A,white,man,,,,,"{""Q0"":""Dave and Jane are kissing each other""}","<img src=""stim_listA/kiss2.gif""</stim_listA>",are kissing each other,
null,"<div style=""font-size:60px;"">+</div>",,html-keyboard-response,258,1087976,0.0-17.0-0.8,93884,List2A,white,man,,,,null,,,,
null,"<img src=""stim_listA/kiss3.gif""</stim_listA>",,html-keyboard-response,259,1089978,0.0-17.0-1.8,93884,List2A,white,man,,,,null,,,,
null,is kissing,,html-keyboard-response,260,1091980,0.0-17.0-2.8,93884,List2A,white,man,,,,null,,,,
9140,,,survey-text,261,1101121,0.0-17.0-3.8,93884,List2A,white,man,,,,,"{""Q0"":""Fred is kissing Beth""}","<img src=""stim_listA/kiss3.gif""</stim_listA>",is kissing,
null,"<div style=""font-size:60px;"">+</div>",,html-keyboard-response,262,1101623,0.0-17.0-0.9,93884,List2A,white,man,,,,null,,,,
null,"<img src=""stim_listA/meet1.gif""</stim_listA>",,html-keyboard-response,263,1103628,0.0-17.0-1.9,93884,List2A,white,man,,,,null,,,,
null,is meeting,,html-keyboard-response,264,1105629,0.0-17.0-2.9,93884,List2A,white,man,,,,null,,,,
5987,,,survey-text,265,1111618,0.0-17.0-3.9,93884,List2A,white,man,,,,,"{""Q0"":""Dave is meeting Jane""}","<img src=""stim_listA/meet1.gif""</stim_listA>",is meeting,
null,"<div style=""font-size:60px;"">+</div>",,html-keyboard-response,266,1112120,0.0-17.0-0.10,93884,List2A,white,man,,,,null,,,,
null,"<img src=""stim_listA/marry8.gif""</stim_listA>",,html-keyboard-response,267,1114126,0.0-17.0-1.10,93884,List2A,white,man,,,,null,,,,
null,are marrying each other,,html-keyboard-response,268,1116127,0.0-17.0-2.10,93884,List2A,white,man,,,,null,,,,
17240,,,survey-text,269,1133369,0.0-17.0-3.10,93884,List2A,white,man,,,,,"{""Q0"":""Kate and Ruth are marrying each other""}","<img src=""stim_listA/marry8.gif""</stim_listA>",are marrying each other,
null,"<div style=""font-size:60px;"">+</div>",,html-keyboard-response,270,1133872,0.0-17.0-0.11,93884,List2A,white,man,,,,null,,,,
null,"<img src=""stim_listA/dance2.gif""</stim_listA>",,html-keyboard-response,271,1135877,0.0-17.0-1.11,93884,List2A,white,man,,,,null,,,,
null,are dancing with each other,,html-keyboard-response,272,1137878,0.0-17.0-2.11,93884,List2A,white,man,,,,null,,,,
12128,,,survey-text,273,1150006,0.0-17.0-3.11,93884,List2A,white,man,,,,,"{""Q0"":""Dave and Ruth are dancing with each other""}","<img src=""stim_listA/dance2.gif""</stim_listA>",are dancing with each other,
null,"<div style=""font-size:60px;"">+</div>",,html-keyboard-response,274,1150509,0.0-17.0-0.12,93884,List2A,white,man,,,,null,,,,
null,"<img src=""stim_listA/talk2.gif""</stim_listA>",,html-keyboard-response,275,1152512,0.0-17.0-1.12,93884,List2A,white,man,,,,null,,,,
null,are talking to each other,,html-keyboard-response,276,1154514,0.0-17.0-2.12,93884,List2A,white,man,,,,null,,,,
11483,,,survey-text,277,1165998,0.0-17.0-3.12,93884,List2A,white,man,,,,,"{""Q0"":""Dave and Ruth are talking to each other""}","<img src=""stim_listA/talk2.gif""</stim_listA>",are talking to each other,
null,"<div style=""font-size:60px;"">+</div>",,html-keyboard-response,278,1166500,0.0-17.0-0.13,93884,List2A,white,man,,,,null,,,,
null,"<img src=""stim_listA/fight5.gif""</stim_listA>",,html-keyboard-response,279,1168501,0.0-17.0-1.13,93884,List2A,white,man,,,,null,,,,
null,is fighting,,html-keyboard-response,280,1170502,0.0-17.0-2.13,93884,List2A,white,man,,,,null,,,,
5748,,,survey-text,281,1176251,0.0-17.0-3.13,93884,List2A,white,man,,,,,"{""Q0"":""Dave is fighting Mike""}","<img src=""stim_listA/fight5.gif""</stim_listA>",is fighting,
null,"<div style=""font-size:60px;"">+</div>",,html-keyboard-response,282,1176753,0.0-17.0-0.14,93884,List2A,white,man,,,,null,,,,
null,"<img src=""stim_listA/argue4.gif""</stim_listA>",,html-keyboard-response,283,1178759,0.0-17.0-1.14,93884,List2A,white,man,,,,null,,,,
null,are arguing with each other,,html-keyboard-response,284,1180760,0.0-17.0-2.14,93884,List2A,white,man,,,,null,,,,
8592,,,survey-text,285,1189353,0.0-17.0-3.14,93884,List2A,white,man,,,,,"{""Q0"":""Kate and Fred are arguing with each other""}","<img src=""stim_listA/argue4.gif""</stim_listA>",are arguing with each other,
null,"<div style=""font-size:60px;"">+</div>",,html-keyboard-response,286,1189855,0.0-17.0-0.15,93884,List2A,white,man,,,,null,,,,
null,"<img src=""stim_listA/hug7.gif""</stim_listA>",,html-keyboard-response,287,1191857,0.0-17.0-1.15,93884,List2A,white,man,,,,null,,,,
null,is hugging,,html-keyboard-response,288,1193858,0.0-17.0-2.15,93884,List2A,white,man,,,,null,,,,
7511,,,survey-text,289,1201370,0.0-17.0-3.15,93884,List2A,white,man,,,,,"{""Q0"":""Ruth is hugging Beth""}","<img src=""stim_listA/hug7.gif""</stim_listA>",is hugging,
null,"<div style=""font-size:60px;"">+</div>",,html-keyboard-response,290,1201874,0.0-17.0-0.16,93884,List2A,white,man,,,,null,,,,
null,"<img src=""stim_listA/dance7.gif""</stim_listA>",,html-keyboard-response,291,1203878,0.0-17.0-1.16,93884,List2A,white,man,,,,null,,,,
null,is dancing with,,html-keyboard-response,292,1205880,0.0-17.0-2.16,93884,List2A,white,man,,,,null,,,,
6946,,,survey-text,293,1212827,0.0-17.0-3.16,93884,List2A,white,man,,,,,"{""Q0"":""Ruth is dancing with Kate""}","<img src=""stim_listA/dance7.gif""</stim_listA>",is dancing with,
null,"<div style=""font-size:60px;"">+</div>",,html-keyboard-response,294,1213330,0.0-17.0-0.17,93884,List2A,white,man,,,,null,,,,
null,"<img src=""stim_listA/fight3.gif""</stim_listA>",,html-keyboard-response,295,1215333,0.0-17.0-1.17,93884,List2A,white,man,,,,null,,,,
null,is fighting,,html-keyboard-response,296,1217333,0.0-17.0-2.17,93884,List2A,white,man,,,,null,,,,
5088,,,survey-text,297,1222423,0.0-17.0-3.17,93884,List2A,white,man,,,,,"{""Q0"":""Mike is fighting Kate""}","<img src=""stim_listA/fight3.gif""</stim_listA>",is fighting,
null,"<div style=""font-size:60px;"">+</div>",,html-keyboard-response,298,1222924,0.0-17.0-0.18,93884,List2A,white,man,,,,null,,,,
null,"<img src=""stim_listA/shout5.gif""</stim_listA>",,html-keyboard-response,299,1224928,0.0-17.0-1.18,93884,List2A,white,man,,,,null,,,,
null,is shouting at,,html-keyboard-response,300,1226931,0.0-17.0-2.18,93884,List2A,white,man,,,,null,,,,
5909,,,survey-text,301,1232841,0.0-17.0-3.18,93884,List2A,white,man,,,,,"{""Q0"":""Luke is shouting at Fred""}","<img src=""stim_listA/shout5.gif""</stim_listA>",is shouting at,
null,"<div style=""font-size:60px;"">+</div>",,html-keyboard-response,302,1233343,0.0-17.0-0.19,93884,List2A,white,man,,,,null,,,,
null,"<img src=""stim_listA/meet4.gif""</stim_listA>",,html-keyboard-response,303,1235346,0.0-17.0-1.19,93884,List2A,white,man,,,,null,,,,
null,are meeting each other,,html-keyboard-response,304,1237347,0.0-17.0-2.19,93884,List2A,white,man,,,,null,,,,
12414,,,survey-text,305,1249762,0.0-17.0-3.19,93884,List2A,white,man,,,,,"{""Q0"":""Fred and Beth are meeting each other""}","<img src=""stim_listA/meet4.gif""</stim_listA>",are meeting each other,
2544,"<img src='img/portrait_matrix_list2.JPG' style='width:900px;height:500px;''></img><p>If you have memorised all the portraits and names and are ready to start, press Continue.</p><p><strong>Please note: Your memory of these faces will be tested 4 times during this experiment.</strong></p>",0,html-button-response,306,1252307,0.0-18.0-0.0,93884,List2A,white,man,,,,,,,,
1704,"<img src=""portrait/WM1.jpg""style=""width:400px;height:400px;""></img>",6,html-button-response,307,1255018,0.0-18.0-1.0,93884,List2A,white,man,,TRUE,6,,,,,
null,CORRECT,,html-keyboard-response,308,1256525,0.0-18.0-2.0-0.0,93884,List2A,white,man,,,,null,,,,
1781,"<img src=""portrait/BW2.jpg""style=""width:400px;height:400px;""></img>",2,html-button-response,309,1258307,0.0-18.0-4.0,93884,List2A,white,man,,TRUE,2,,,,,
null,CORRECT,,html-keyboard-response,310,1259812,0.0-18.0-5.0-0.0,93884,List2A,white,man,,,,null,,,,
1671,"<img src=""portrait/BW1.jpg""style=""width:400px;height:400px;""></img>",0,html-button-response,311,1261485,0.0-18.0-7.0,93884,List2A,white,man,,TRUE,0,,,,,
null,CORRECT,,html-keyboard-response,312,1262994,0.0-18.0-8.0-0.0,93884,List2A,white,man,,,,null,,,,
1696,"<img src=""portrait/BM1.jpg""style=""width:400px;height:400px;""></img>",4,html-button-response,313,1264691,0.0-18.0-10.0,93884,List2A,white,man,,TRUE,4,,,,,
null,CORRECT,,html-keyboard-response,314,1266196,0.0-18.0-11.0-0.0,93884,List2A,white,man,,,,null,,,,
1674,"<img src=""portrait/BM2.jpg""style=""width:400px;height:400px;""></img>",5,html-button-response,315,1267871,0.0-18.0-13.0,93884,List2A,white,man,,TRUE,5,,,,,
null,CORRECT,,html-keyboard-response,316,1269374,0.0-18.0-14.0-0.0,93884,List2A,white,man,,,,null,,,,
1389,"<img src=""portrait/WM2.jpg""style=""width:400px;height:400px;""></img>",7,html-button-response,317,1270765,0.0-18.0-16.0,93884,List2A,white,man,,TRUE,7,,,,,
null,CORRECT,,html-keyboard-response,318,1272270,0.0-18.0-17.0-0.0,93884,List2A,white,man,,,,null,,,,
1827,"<img src=""portrait/WW2.jpg""style=""width:400px;height:400px;""></img>",3,html-button-response,319,1274099,0.0-18.0-19.0,93884,List2A,white,man,,TRUE,3,,,,,
null,CORRECT,,html-keyboard-response,320,1275603,0.0-18.0-20.0-0.0,93884,List2A,white,man,,,,null,,,,
1528,"<img src=""portrait/WW1.jpg""style=""width:400px;height:400px;""></img>",1,html-button-response,321,1277132,0.0-18.0-22.0,93884,List2A,white,man,,TRUE,1,,,,,
null,CORRECT,,html-keyboard-response,322,1278638,0.0-18.0-23.0-0.0,93884,List2A,white,man,,,,null,,,,
1923,<p>You got 8 out of 8 right first time. Press Continue.</p>,0,html-button-response,323,1280562,0.0-18.0-25.0,93884,List2A,white,man,,,,,,,,
null,"<div style=""font-size:60px;"">+</div>",,html-keyboard-response,324,1282067,0.0-19.0-0.0,93884,List2A,white,man,,,,null,,,,
null,"<img src=""stim_listA/marry1.gif""</stim_listA>",,html-keyboard-response,325,1284068,0.0-19.0-1.0,93884,List2A,white,man,,,,null,,,,
null,is marrying,,html-keyboard-response,326,1286072,0.0-19.0-2.0,93884,List2A,white,man,,,,null,,,,
11289,,,survey-text,327,1297363,0.0-19.0-3.0,93884,List2A,white,man,,,,,"{""Q0"":""Dave is marrying Ruth""}","<img src=""stim_listA/marry1.gif""</stim_listA>",is marrying,
null,"<div style=""font-size:60px;"">+</div>",,html-keyboard-response,328,1297864,0.0-19.0-0.1,93884,List2A,white,man,,,,null,,,,
null,"<img src=""stim_listA/shout2.gif""</stim_listA>",,html-keyboard-response,329,1299869,0.0-19.0-1.1,93884,List2A,white,man,,,,null,,,,
null,are shouting at each other,,html-keyboard-response,330,1301870,0.0-19.0-2.1,93884,List2A,white,man,,,,null,,,,
11177,,,survey-text,331,1313048,0.0-19.0-3.1,93884,List2A,white,man,,,,,"{""Q0"":""Jane and Dave are shouting at each other""}","<img src=""stim_listA/shout2.gif""</stim_listA>",are shouting at each other,
null,"<div style=""font-size:60px;"">+</div>",,html-keyboard-response,332,1313552,0.0-19.0-0.2,93884,List2A,white,man,,,,null,,,,
null,"<img src=""stim_listA/argue2.gif""</stim_listA>",,html-keyboard-response,333,1315554,0.0-19.0-1.2,93884,List2A,white,man,,,,null,,,,
null,are arguing with each other,,html-keyboard-response,334,1317557,0.0-19.0-2.2,93884,List2A,white,man,,,,null,,,,
18197,,,survey-text,335,1335755,0.0-19.0-3.2,93884,List2A,white,man,,,,,"{""Q0"":""Luke and Jane are arguing with each other""}","<img src=""stim_listA/argue2.gif""</stim_listA>",are arguing with each other,
null,"<div style=""font-size:60px;"">+</div>",,html-keyboard-response,336,1336256,0.0-19.0-0.3,93884,List2A,white,man,,,,null,,,,
null,"<img src=""stim_listA/dance8.gif""</stim_listA>",,html-keyboard-response,337,1338262,0.0-19.0-1.3,93884,List2A,white,man,,,,null,,,,
null,are dancing with each other,,html-keyboard-response,338,1340263,0.0-19.0-2.3,93884,List2A,white,man,,,,null,,,,
14706,,,survey-text,339,1354971,0.0-19.0-3.3,93884,List2A,white,man,,,,,"{""Q0"":""Jane and Beth are dancing with each other""}","<img src=""stim_listA/dance8.gif""</stim_listA>",are dancing with each other,
null,"<div style=""font-size:60px;"">+</div>",,html-keyboard-response,340,1355473,0.0-19.0-0.4,93884,List2A,white,man,,,,null,,,,
null,"<img src=""stim_listA/meet3.gif""</stim_listA>",,html-keyboard-response,341,1357477,0.0-19.0-1.4,93884,List2A,white,man,,,,null,,,,
null,is meeting,,html-keyboard-response,342,1359482,0.0-19.0-2.4,93884,List2A,white,man,,,,null,,,,
5548,,,survey-text,343,1365031,0.0-19.0-3.4,93884,List2A,white,man,,,,,"{""Q0"":""Mike is meeting Kate""}","<img src=""stim_listA/meet3.gif""</stim_listA>",is meeting,
null,"<div style=""font-size:60px;"">+</div>",,html-keyboard-response,344,1365534,0.0-19.0-0.5,93884,List2A,white,man,,,,null,,,,
null,"<img src=""stim_listA/hug6.gif""</stim_listA>",,html-keyboard-response,345,1367536,0.0-19.0-1.5,93884,List2A,white,man,,,,null,,,,
null,are hugging each other,,html-keyboard-response,346,1369538,0.0-19.0-2.5,93884,List2A,white,man,,,,null,,,,
9059,,,survey-text,347,1378599,0.0-19.0-3.5,93884,List2A,white,man,,,,,"{""Q0"":""Mike and Dave are hugging each other""}","<img src=""stim_listA/hug6.gif""</stim_listA>",are hugging each other,
null,"<div style=""font-size:60px;"">+</div>",,html-keyboard-response,348,1379101,0.0-19.0-0.6,93884,List2A,white,man,,,,null,,,,
null,"<img src=""stim_listA/kiss6.gif""</stim_listA>",,html-keyboard-response,349,1381103,0.0-19.0-1.6,93884,List2A,white,man,,,,null,,,,
null,are kissing each other,,html-keyboard-response,350,1383106,0.0-19.0-2.6,93884,List2A,white,man,,,,null,,,,
12798,,,survey-text,351,1395905,0.0-19.0-3.6,93884,List2A,white,man,,,,,"{""Q0"":""Mike and Dave are kissing each other""}","<img src=""stim_listA/kiss6.gif""</stim_listA>",are kissing each other,
null,"<div style=""font-size:60px;"">+</div>",,html-keyboard-response,352,1396406,0.0-19.0-0.7,93884,List2A,white,man,,,,null,,,,
null,"<img src=""stim_listA/meet5.gif""</stim_listA>",,html-keyboard-response,353,1398409,0.0-19.0-1.7,93884,List2A,white,man,,,,null,,,,
null,is meeting,,html-keyboard-response,354,1400410,0.0-19.0-2.7,93884,List2A,white,man,,,,null,,,,
7029,,,survey-text,355,1407440,0.0-19.0-3.7,93884,List2A,white,man,,,,,"{""Q0"":""Mike is meeting Dave""}","<img src=""stim_listA/meet5.gif""</stim_listA>",is meeting,
null,"<div style=""font-size:60px;"">+</div>",,html-keyboard-response,356,1407943,0.0-19.0-0.8,93884,List2A,white,man,,,,null,,,,
null,"<img src=""stim_listA/dance4.gif""</stim_listA>",,html-keyboard-response,357,1409945,0.0-19.0-1.8,93884,List2A,white,man,,,,null,,,,
null,are dancing with each other,,html-keyboard-response,358,1411950,0.0-19.0-2.8,93884,List2A,white,man,,,,null,,,,
15084,,,survey-text,359,1427035,0.0-19.0-3.8,93884,List2A,white,man,,,,,"{""Q0"":""Mike and Beth are dancing with each other""}","<img src=""stim_listA/dance4.gif""</stim_listA>",are dancing with each other,
null,"<div style=""font-size:60px;"">+</div>",,html-keyboard-response,360,1427537,0.0-19.0-0.9,93884,List2A,white,man,,,,null,,,,
null,"<img src=""stim_listA/dance3.gif""</stim_listA>",,html-keyboard-response,361,1429539,0.0-19.0-1.9,93884,List2A,white,man,,,,null,,,,
null,is dancing with,,html-keyboard-response,362,1431540,0.0-19.0-2.9,93884,List2A,white,man,,,,null,,,,
7637,,,survey-text,363,1439178,0.0-19.0-3.9,93884,List2A,white,man,,,,,"{""Q0"":""Kate is dancing with Fred""}","<img src=""stim_listA/dance3.gif""</stim_listA>",is dancing with,
null,"<div style=""font-size:60px;"">+</div>",,html-keyboard-response,364,1439680,0.0-19.0-0.10,93884,List2A,white,man,,,,null,,,,
null,"<img src=""stim_listA/argue6.gif""</stim_listA>",,html-keyboard-response,365,1441683,0.0-19.0-1.10,93884,List2A,white,man,,,,null,,,,
null,are arguing with each other,,html-keyboard-response,366,1443684,0.0-19.0-2.10,93884,List2A,white,man,,,,null,,,,
11620,,,survey-text,367,1455306,0.0-19.0-3.10,93884,List2A,white,man,,,,,"{""Q0"":""Mike and Luke are arguing with each other""}","<img src=""stim_listA/argue6.gif""</stim_listA>",are arguing with each other,
null,"<div style=""font-size:60px;"">+</div>",,html-keyboard-response,368,1455809,0.0-19.0-0.11,93884,List2A,white,man,,,,null,,,,
null,"<img src=""stim_listA/talk1.gif""</stim_listA>",,html-keyboard-response,369,1457815,0.0-19.0-1.11,93884,List2A,white,man,,,,null,,,,
null,is talking to,,html-keyboard-response,370,1459816,0.0-19.0-2.11,93884,List2A,white,man,,,,null,,,,
7543,,,survey-text,371,1467361,0.0-19.0-3.11,93884,List2A,white,man,,,,,"{""Q0"":""Luke is talking to Jane""}","<img src=""stim_listA/talk1.gif""</stim_listA>",is talking to,
null,"<div style=""font-size:60px;"">+</div>",,html-keyboard-response,372,1467863,0.0-19.0-0.12,93884,List2A,white,man,,,,null,,,,
null,"<img src=""stim_listA/touch1.gif""</stim_listA>",,html-keyboard-response,373,1469868,0.0-19.0-1.12,93884,List2A,white,man,,,,null,,,,
null,is touching,,html-keyboard-response,374,1471869,0.0-19.0-2.12,93884,List2A,white,man,,,,null,,,,
5775,,,survey-text,375,1477645,0.0-19.0-3.12,93884,List2A,white,man,,,,,"{""Q0"":""Dave is touching Jane""}","<img src=""stim_listA/touch1.gif""</stim_listA>",is touching,
null,"<div style=""font-size:60px;"">+</div>",,html-keyboard-response,376,1478148,0.0-19.0-0.13,93884,List2A,white,man,,,,null,,,,
null,"<img src=""stim_listA/shout7.gif""</stim_listA>",,html-keyboard-response,377,1480150,0.0-19.0-1.13,93884,List2A,white,man,,,,null,,,,
null,is shouting at,,html-keyboard-response,378,1482151,0.0-19.0-2.13,93884,List2A,white,man,,,,null,,,,
7582,,,survey-text,379,1489734,0.0-19.0-3.13,93884,List2A,white,man,,,,,"{""Q0"":""Ruth is shouting at Beth""}","<img src=""stim_listA/shout7.gif""</stim_listA>",is shouting at,
null,"<div style=""font-size:60px;"">+</div>",,html-keyboard-response,380,1490236,0.0-19.0-0.14,93884,List2A,white,man,,,,null,,,,
null,"<img src=""stim_listA/meet2.gif""</stim_listA>",,html-keyboard-response,381,1492241,0.0-19.0-1.14,93884,List2A,white,man,,,,null,,,,
null,are meeting each other,,html-keyboard-response,382,1494245,0.0-19.0-2.14,93884,List2A,white,man,,,,null,,,,
9237,,,survey-text,383,1503484,0.0-19.0-3.14,93884,List2A,white,man,,,,,"{""Q0"":""Ruth and Luke are meeting each other""}","<img src=""stim_listA/meet2.gif""</stim_listA>",are meeting each other,
null,"<div style=""font-size:60px;"">+</div>",,html-keyboard-response,384,1503986,0.0-19.0-0.15,93884,List2A,white,man,,,,null,,,,
null,"<img src=""stim_listA/talk3.gif""</stim_listA>",,html-keyboard-response,385,1505987,0.0-19.0-1.15,93884,List2A,white,man,,,,null,,,,
null,is talking to,,html-keyboard-response,386,1507988,0.0-19.0-2.15,93884,List2A,white,man,,,,null,,,,
5806,,,survey-text,387,1513795,0.0-19.0-3.15,93884,List2A,white,man,,,,,"{""Q0"":""Kate is talking to Fred""}","<img src=""stim_listA/talk3.gif""</stim_listA>",is talking to,
null,"<div style=""font-size:60px;"">+</div>",,html-keyboard-response,388,1514298,0.0-19.0-0.16,93884,List2A,white,man,,,,null,,,,
null,"<img src=""stim_listA/hug3.gif""</stim_listA>",,html-keyboard-response,389,1516300,0.0-19.0-1.16,93884,List2A,white,man,,,,null,,,,
null,is hugging,,html-keyboard-response,390,1518302,0.0-19.0-2.16,93884,List2A,white,man,,,,null,,,,
5844,,,survey-text,391,1524147,0.0-19.0-3.16,93884,List2A,white,man,,,,,"{""Q0"":""Beth is hugging Fred""}","<img src=""stim_listA/hug3.gif""</stim_listA>",is hugging,
null,"<div style=""font-size:60px;"">+</div>",,html-keyboard-response,392,1524648,0.0-19.0-0.17,93884,List2A,white,man,,,,null,,,,
null,"<img src=""stim_listA/hug2.gif""</stim_listA>",,html-keyboard-response,393,1526651,0.0-19.0-1.17,93884,List2A,white,man,,,,null,,,,
null,are hugging each other,,html-keyboard-response,394,1528655,0.0-19.0-2.17,93884,List2A,white,man,,,,null,,,,
9786,,,survey-text,395,1538442,0.0-19.0-3.17,93884,List2A,white,man,,,,,"{""Q0"":""Jane and Dave are hugging each other""}","<img src=""stim_listA/hug2.gif""</stim_listA>",are hugging each other,
null,"<div style=""font-size:60px;"">+</div>",,html-keyboard-response,396,1538945,0.0-19.0-0.18,93884,List2A,white,man,,,,null,,,,
null,"<img src=""stim_listA/shout3.gif""</stim_listA>",,html-keyboard-response,397,1540951,0.0-19.0-1.18,93884,List2A,white,man,,,,null,,,,
null,is shouting at,,html-keyboard-response,398,1542952,0.0-19.0-2.18,93884,List2A,white,man,,,,null,,,,
12083,,,survey-text,399,1555035,0.0-19.0-3.18,93884,List2A,white,man,,,,,"{""Q0"":""Beth is shouting at Fred""}","<img src=""stim_listA/shout3.gif""</stim_listA>",is shouting at,
null,"<div style=""font-size:60px;"">+</div>",,html-keyboard-response,400,1555537,0.0-19.0-0.19,93884,List2A,white,man,,,,null,,,,
null,"<img src=""stim_listA/touch6.gif""</stim_listA>",,html-keyboard-response,401,1557543,0.0-19.0-1.19,93884,List2A,white,man,,,,null,,,,
null,are touching each other,,html-keyboard-response,402,1559544,0.0-19.0-2.19,93884,List2A,white,man,,,,null,,,,
9512,,,survey-text,403,1569056,0.0-19.0-3.19,93884,List2A,white,man,,,,,"{""Q0"":""Luke and Fred are touching each other""}","<img src=""stim_listA/touch6.gif""</stim_listA>",are touching each other,
2564,<p>Thank you for completing that task.</p><p>The final part of this session is a short questionnaire.</p><p>Press Continue.</p>,0,html-button-response,404,1571621,0.0-20.0,93884,List2A,white,man,,,,,,,,
91267,,,survey-text,405,1663896,0.0-21.0,93884,List2A,white,man,,,,,"{""Q0"":""48"",""Q1"":""Spanish"",""Q2"":""English"",""Q3"":""United States"",""Q4"":""Latino"",""Q5"":""Male""}",,,demographics
58472,,,survey-likert,406,1722376,0.0-22.0,93884,List2A,white,man,,,,,"{""Q0"":3,""Q1"":3,""Q2"":3,""Q3"":3,""Q4"":3,""Q5"":3,""Q6"":3,""Q7"":3,""Q8"":3,""Q9"":3,""Q10"":3,""Q11"":3,""Q12"":1,""Q13"":1}",,,likert_race
48558,,,survey-likert,407,1770940,0.0-23.0,93884,List2A,white,man,,,,,"{""Q0"":3,""Q1"":1,""Q2"":1,""Q3"":3,""Q4"":3,""Q5"":3,""Q6"":3,""Q7"":3,""Q8"":1,""Q9"":1,""Q10"":2,""Q11"":2,""Q12"":1,""Q13"":1}",,,likert_gender
4465,,,survey-text,408,1775408,0.0-24.0,93884,List2A,white,man,,,,,"{""Q0"":""ccc""}",,,worker_id
30128,,,external-html,409,1805762,0.0-25.0,93884,List2A,white,man,debrief.html,,,,,,,
