rt,stimulus,button_pressed,trial_type,trial_index,time_elapsed,internal_node_id,subject,list,ppt_race,ppt_gender,url,first_guess,correct,key_press,responses,image_type,phrase_type,test_part
3237,Welcome to the experiment. Press Continue to begin.,0,html-button-response,0,3289,0.0-0.0,9415,List2B,black,woman,,,,,,,,
95935,,,external-html,1,100260,0.0-1.0,9415,List2B,black,woman,consent.html,,,,,,,
22730,"<p>On the next page, you will see portraits of 8 people and their names.</p><p>Your first task is to take a few minutes to memorise the names of these people.</p><p>You will have to recall their names during the rest of the experiment, so it is</p><p>essential that you try to memorise these people and their names as best as you can.</p><br><p><strong>You will then be tested on your memory of these names and portraits.</strong></p><br><p>The experiment will start after you have completed this memory test.</p><br><p>Ready?</p>",0,html-button-response,2,122992,0.0-2.0,9415,List2B,black,woman,,,,,,,,
80003,"<img src='img/portrait_matrix_list2.JPG' style='width:900px;height:500px;''></img><p>If you have memorised all the portraits and names and are ready to start, press Continue.</p><p><strong>Please note: Your memory of these faces will be tested 4 times during this experiment.</strong></p>",0,html-button-response,3,203996,0.0-3.0-0.0,9415,List2B,black,woman,,,,,,,,
5647,"<img src=""portrait/BW2.jpg""style=""width:400px;height:400px;""></img>",2,html-button-response,4,210644,0.0-3.0-1.0,9415,List2B,black,woman,,TRUE,2,,,,,
null,CORRECT,,html-keyboard-response,5,212145,0.0-3.0-2.0-0.0,9415,List2B,black,woman,,,,null,,,,
39687,"<img src=""portrait/WW1.jpg""style=""width:400px;height:400px;""></img>",1,html-button-response,6,251833,0.0-3.0-4.0,9415,List2B,black,woman,,TRUE,1,,,,,
null,CORRECT,,html-keyboard-response,7,253334,0.0-3.0-5.0-0.0,9415,List2B,black,woman,,,,null,,,,
41253,"<img src=""portrait/WM1.jpg""style=""width:400px;height:400px;""></img>",7,html-button-response,8,294589,0.0-3.0-7.0,9415,List2B,black,woman,,TRUE,6,,,,,
8103,"<img src=""portrait/WM1.jpg""style=""width:400px;height:400px;""></img>",6,html-button-response,9,303693,0.0-3.0-9.0-0.0,9415,List2B,black,woman,,FALSE,6,,,,,
null,CORRECT,,html-keyboard-response,10,305193,0.0-3.0-9.0-1.0-0.0,9415,List2B,black,woman,,,,null,,,,
7290,"<img src=""portrait/WM2.jpg""style=""width:400px;height:400px;""></img>",7,html-button-response,11,312485,0.0-3.0-10.0,9415,List2B,black,woman,,TRUE,7,,,,,
null,CORRECT,,html-keyboard-response,12,313985,0.0-3.0-11.0-0.0,9415,List2B,black,woman,,,,null,,,,
12803,"<img src=""portrait/WW2.jpg""style=""width:400px;height:400px;""></img>",3,html-button-response,13,326789,0.0-3.0-13.0,9415,List2B,black,woman,,TRUE,3,,,,,
null,CORRECT,,html-keyboard-response,14,328289,0.0-3.0-14.0-0.0,9415,List2B,black,woman,,,,null,,,,
19435,"<img src=""portrait/BM1.jpg""style=""width:400px;height:400px;""></img>",4,html-button-response,15,347725,0.0-3.0-16.0,9415,List2B,black,woman,,TRUE,4,,,,,
null,CORRECT,,html-keyboard-response,16,349225,0.0-3.0-17.0-0.0,9415,List2B,black,woman,,,,null,,,,
17407,"<img src=""portrait/BW1.jpg""style=""width:400px;height:400px;""></img>",0,html-button-response,17,366634,0.0-3.0-19.0,9415,List2B,black,woman,,TRUE,0,,,,,
null,CORRECT,,html-keyboard-response,18,368134,0.0-3.0-20.0-0.0,9415,List2B,black,woman,,,,null,,,,
19379,"<img src=""portrait/BM2.jpg""style=""width:400px;height:400px;""></img>",5,html-button-response,19,387513,0.0-3.0-22.0,9415,List2B,black,woman,,TRUE,5,,,,,
null,CORRECT,,html-keyboard-response,20,389014,0.0-3.0-23.0-0.0,9415,List2B,black,woman,,,,null,,,,
3066,<p>You got 7 out of 8 right first time. Press Continue.</p>,0,html-button-response,21,392082,0.0-3.0-25.0,9415,List2B,black,woman,,,,,,,,
11479,"As you did not score 100%, the memory game will repeat. Press Continue.",0,html-button-response,22,404562,0.0-3.0-26.0-0.0,9415,List2B,black,woman,,,,,,,,
44538,"<img src='img/portrait_matrix_list2.JPG' style='width:900px;height:500px;''></img><p>If you have memorised all the portraits and names and are ready to start, press Continue.</p><p><strong>Please note: Your memory of these faces will be tested 4 times during this experiment.</strong></p>",0,html-button-response,23,450102,0.0-3.1-0.1,9415,List2B,black,woman,,,,,,,,
4911,"<img src=""portrait/BW2.jpg""style=""width:400px;height:400px;""></img>",2,html-button-response,24,456014,0.0-3.1-1.1,9415,List2B,black,woman,,TRUE,2,,,,,
null,CORRECT,,html-keyboard-response,25,457514,0.0-3.1-2.1-0.1,9415,List2B,black,woman,,,,null,,,,
4355,"<img src=""portrait/WW1.jpg""style=""width:400px;height:400px;""></img>",3,html-button-response,26,461870,0.0-3.1-4.1,9415,List2B,black,woman,,TRUE,1,,,,,
6750,"<img src=""portrait/WW1.jpg""style=""width:400px;height:400px;""></img>",1,html-button-response,27,469622,0.0-3.1-6.1-0.1,9415,List2B,black,woman,,FALSE,1,,,,,
null,CORRECT,,html-keyboard-response,28,471122,0.0-3.1-6.1-1.1-0.1,9415,List2B,black,woman,,,,null,,,,
7079,"<img src=""portrait/WM1.jpg""style=""width:400px;height:400px;""></img>",6,html-button-response,29,478203,0.0-3.1-7.1,9415,List2B,black,woman,,TRUE,6,,,,,
null,CORRECT,,html-keyboard-response,30,479703,0.0-3.1-8.1-0.1,9415,List2B,black,woman,,,,null,,,,
7075,"<img src=""portrait/WM2.jpg""style=""width:400px;height:400px;""></img>",7,html-button-response,31,486779,0.0-3.1-10.1,9415,List2B,black,woman,,TRUE,7,,,,,
null,CORRECT,,html-keyboard-response,32,488280,0.0-3.1-11.1-0.1,9415,List2B,black,woman,,,,null,,,,
5896,"<img src=""portrait/WW2.jpg""style=""width:400px;height:400px;""></img>",3,html-button-response,33,494178,0.0-3.1-13.1,9415,List2B,black,woman,,TRUE,3,,,,,
null,CORRECT,,html-keyboard-response,34,495678,0.0-3.1-14.1-0.1,9415,List2B,black,woman,,,,null,,,,
5932,"<img src=""portrait/BM1.jpg""style=""width:400px;height:400px;""></img>",4,html-button-response,35,501611,0.0-3.1-16.1,9415,List2B,black,woman,,TRUE,4,,,,,
null,CORRECT,,html-keyboard-response,36,503111,0.0-3.1-17.1-0.1,9415,List2B,black,woman,,,,null,,,,
5490,"<img src=""portrait/BW1.jpg""style=""width:400px;height:400px;""></img>",0,html-button-response,37,508603,0.0-3.1-19.1,9415,List2B,black,woman,,TRUE,0,,,,,
null,CORRECT,,html-keyboard-response,38,510103,0.0-3.1-20.1-0.1,9415,List2B,black,woman,,,,null,,,,
5674,"<img src=""portrait/BM2.jpg""style=""width:400px;height:400px;""></img>",5,html-button-response,39,515779,0.0-3.1-22.1,9415,List2B,black,woman,,TRUE,5,,,,,
null,CORRECT,,html-keyboard-response,40,517279,0.0-3.1-23.1-0.1,9415,List2B,black,woman,,,,null,,,,
2435,<p>You got 7 out of 8 right first time. Press Continue.</p>,0,html-button-response,41,519715,0.0-3.1-25.1,9415,List2B,black,woman,,,,,,,,
3119,"As you did not score 100%, the memory game will repeat. Press Continue.",0,html-button-response,42,523834,0.0-3.1-26.1-0.1,9415,List2B,black,woman,,,,,,,,
5255,"<img src='img/portrait_matrix_list2.JPG' style='width:900px;height:500px;''></img><p>If you have memorised all the portraits and names and are ready to start, press Continue.</p><p><strong>Please note: Your memory of these faces will be tested 4 times during this experiment.</strong></p>",0,html-button-response,43,530091,0.0-3.2-0.2,9415,List2B,black,woman,,,,,,,,
6803,"<img src=""portrait/BW2.jpg""style=""width:400px;height:400px;""></img>",2,html-button-response,44,537895,0.0-3.2-1.2,9415,List2B,black,woman,,TRUE,2,,,,,
null,CORRECT,,html-keyboard-response,45,539395,0.0-3.2-2.2-0.2,9415,List2B,black,woman,,,,null,,,,
4491,"<img src=""portrait/WW1.jpg""style=""width:400px;height:400px;""></img>",3,html-button-response,46,543887,0.0-3.2-4.2,9415,List2B,black,woman,,TRUE,1,,,,,
8663,"<img src=""portrait/WW1.jpg""style=""width:400px;height:400px;""></img>",1,html-button-response,47,553551,0.0-3.2-6.2-0.2,9415,List2B,black,woman,,FALSE,1,,,,,
null,CORRECT,,html-keyboard-response,48,555051,0.0-3.2-6.2-1.2-0.2,9415,List2B,black,woman,,,,null,,,,
4682,"<img src=""portrait/WM1.jpg""style=""width:400px;height:400px;""></img>",6,html-button-response,49,559735,0.0-3.2-7.2,9415,List2B,black,woman,,TRUE,6,,,,,
null,CORRECT,,html-keyboard-response,50,561235,0.0-3.2-8.2-0.2,9415,List2B,black,woman,,,,null,,,,
7875,"<img src=""portrait/WM2.jpg""style=""width:400px;height:400px;""></img>",7,html-button-response,51,569111,0.0-3.2-10.2,9415,List2B,black,woman,,TRUE,7,,,,,
null,CORRECT,,html-keyboard-response,52,570611,0.0-3.2-11.2-0.2,9415,List2B,black,woman,,,,null,,,,
3579,"<img src=""portrait/WW2.jpg""style=""width:400px;height:400px;""></img>",3,html-button-response,53,574191,0.0-3.2-13.2,9415,List2B,black,woman,,TRUE,3,,,,,
null,CORRECT,,html-keyboard-response,54,575691,0.0-3.2-14.2-0.2,9415,List2B,black,woman,,,,null,,,,
4498,"<img src=""portrait/BM1.jpg""style=""width:400px;height:400px;""></img>",4,html-button-response,55,580190,0.0-3.2-16.2,9415,List2B,black,woman,,TRUE,4,,,,,
null,CORRECT,,html-keyboard-response,56,581692,0.0-3.2-17.2-0.2,9415,List2B,black,woman,,,,null,,,,
9961,"<img src=""portrait/BW1.jpg""style=""width:400px;height:400px;""></img>",0,html-button-response,57,591655,0.0-3.2-19.2,9415,List2B,black,woman,,TRUE,0,,,,,
null,CORRECT,,html-keyboard-response,58,593156,0.0-3.2-20.2-0.2,9415,List2B,black,woman,,,,null,,,,
6775,"<img src=""portrait/BM2.jpg""style=""width:400px;height:400px;""></img>",5,html-button-response,59,599932,0.0-3.2-22.2,9415,List2B,black,woman,,TRUE,5,,,,,
null,CORRECT,,html-keyboard-response,60,601432,0.0-3.2-23.2-0.2,9415,List2B,black,woman,,,,null,,,,
2539,<p>You got 7 out of 8 right first time. Press Continue.</p>,0,html-button-response,61,603972,0.0-3.2-25.2,9415,List2B,black,woman,,,,,,,,
2647,"As you did not score 100%, the memory game will repeat. Press Continue.",0,html-button-response,62,607620,0.0-3.2-26.2-0.2,9415,List2B,black,woman,,,,,,,,
5415,"<img src='img/portrait_matrix_list2.JPG' style='width:900px;height:500px;''></img><p>If you have memorised all the portraits and names and are ready to start, press Continue.</p><p><strong>Please note: Your memory of these faces will be tested 4 times during this experiment.</strong></p>",0,html-button-response,63,614036,0.0-3.3-0.3,9415,List2B,black,woman,,,,,,,,
5663,"<img src=""portrait/BW2.jpg""style=""width:400px;height:400px;""></img>",2,html-button-response,64,620700,0.0-3.3-1.3,9415,List2B,black,woman,,TRUE,2,,,,,
null,CORRECT,,html-keyboard-response,65,622200,0.0-3.3-2.3-0.3,9415,List2B,black,woman,,,,null,,,,
10699,"<img src=""portrait/WW1.jpg""style=""width:400px;height:400px;""></img>",1,html-button-response,66,632899,0.0-3.3-4.3,9415,List2B,black,woman,,TRUE,1,,,,,
null,CORRECT,,html-keyboard-response,67,634401,0.0-3.3-5.3-0.3,9415,List2B,black,woman,,,,null,,,,
6530,"<img src=""portrait/WM1.jpg""style=""width:400px;height:400px;""></img>",6,html-button-response,68,640932,0.0-3.3-7.3,9415,List2B,black,woman,,TRUE,6,,,,,
null,CORRECT,,html-keyboard-response,69,642432,0.0-3.3-8.3-0.3,9415,List2B,black,woman,,,,null,,,,
6547,"<img src=""portrait/WM2.jpg""style=""width:400px;height:400px;""></img>",7,html-button-response,70,648980,0.0-3.3-10.3,9415,List2B,black,woman,,TRUE,7,,,,,
null,CORRECT,,html-keyboard-response,71,650480,0.0-3.3-11.3-0.3,9415,List2B,black,woman,,,,null,,,,
5686,"<img src=""portrait/WW2.jpg""style=""width:400px;height:400px;""></img>",3,html-button-response,72,656168,0.0-3.3-13.3,9415,List2B,black,woman,,TRUE,3,,,,,
null,CORRECT,,html-keyboard-response,73,657668,0.0-3.3-14.3-0.3,9415,List2B,black,woman,,,,null,,,,
6866,"<img src=""portrait/BM1.jpg""style=""width:400px;height:400px;""></img>",4,html-button-response,74,664536,0.0-3.3-16.3,9415,List2B,black,woman,,TRUE,4,,,,,
null,CORRECT,,html-keyboard-response,75,666036,0.0-3.3-17.3-0.3,9415,List2B,black,woman,,,,null,,,,
7466,"<img src=""portrait/BW1.jpg""style=""width:400px;height:400px;""></img>",0,html-button-response,76,673504,0.0-3.3-19.3,9415,List2B,black,woman,,TRUE,0,,,,,
null,CORRECT,,html-keyboard-response,77,675004,0.0-3.3-20.3-0.3,9415,List2B,black,woman,,,,null,,,,
7883,"<img src=""portrait/BM2.jpg""style=""width:400px;height:400px;""></img>",5,html-button-response,78,682888,0.0-3.3-22.3,9415,List2B,black,woman,,TRUE,5,,,,,
null,CORRECT,,html-keyboard-response,79,684388,0.0-3.3-23.3-0.3,9415,List2B,black,woman,,,,null,,,,
2148,<p>You got 8 out of 8 right first time. Press Continue.</p>,0,html-button-response,80,686536,0.0-3.3-25.3,9415,List2B,black,woman,,,,,,,,
110504,"<p>In this experiment, you will view photographs of the people from the memory game interacting.</p><p>By using the <strong>exact</strong> phrase given <i>after</i> the photograph appears and recalling the correct names of the people in the photographs, form a sentence describing the interaction. You do not need to capitalise names.</p><p>Type your answer in the space provided. Please complete every sentence before moving onto the next trial.</p><p>You will only have a few seconds to memorise each given photograph and phrase before you can respond, so try your best to focus.</p><p>An example is given below. Press 'Continue' when you are ready.</p><img src='img/speaking_example_v2.jpg' style='width:800px;height:460px;''></img>",0,html-button-response,81,798041,0.0-4.0,9415,List2B,black,woman,,,,,,,,
4639,"<p>Before the experiment starts, you will watch two example trials. Press 'Continue'.</p>",0,html-button-response,82,803680,0.0-5.0,9415,List2B,black,woman,,,,,,,,
null,<img src='img/speaking_WW.gif'></img>,,html-keyboard-response,83,806681,0.0-6.0,9415,List2B,black,woman,,,,null,,,,
null,<p>is speaking to</p>,,html-keyboard-response,84,808681,0.0-7.0,9415,List2B,black,woman,,,,null,,,,
6359,<p><b>Answer:</b> jane is speaking to ruth</p>,0,html-button-response,85,815041,0.0-8.0,9415,List2B,black,woman,,,,,,,,
null,<img src='img/pointing_BM.gif'></img>,,html-keyboard-response,86,818041,0.0-9.0,9415,List2B,black,woman,,,,null,,,,
null,<p>are pointing at each other</p>,,html-keyboard-response,87,820042,0.0-10.0,9415,List2B,black,woman,,,,null,,,,
15614,<p><b>Answer:</b> fred and mike are pointing at each other</p>,0,html-button-response,88,835657,0.0-11.0,9415,List2B,black,woman,,,,,,,,
15700,"<p>Ready to start the experiment?</p><br><p><strong>Remember to describe the picture using a full sentence,</strong></p><p><strong>that combines the names of the people with the given phrase.</strong></p><p><strong>If you do not do this correctly you will not be paid.</strong></p><p><strong> You do not need to capitalise names or use punctuation.</strong></p><br><p>Press 'Continue' to begin.</p>",0,html-button-response,89,852358,0.0-12.0,9415,List2B,black,woman,,,,,,,,
null,"<div style=""font-size:60px;"">+</div>",,html-keyboard-response,90,853858,0.0-13.0-0.0,9415,List2B,black,woman,,,,null,,,,
null,"<img src=""stim_listB/touch4.gif""</stim_listB>",,html-keyboard-response,91,855858,0.0-13.0-1.0,9415,List2B,black,woman,,,,null,,,,
null,are touching each other,,html-keyboard-response,92,857858,0.0-13.0-2.0,9415,List2B,black,woman,,,,null,,,,
28666,,,survey-text,93,886526,0.0-13.0-3.0,9415,List2B,black,woman,,,,,"{""Q0"":""Beth and mike are touching each other""}","<img src=""stim_listB/touch4.gif""</stim_listB>",are touching each other,
null,"<div style=""font-size:60px;"">+</div>",,html-keyboard-response,94,887026,0.0-13.0-0.1,9415,List2B,black,woman,,,,null,,,,
null,"<img src=""stim_listB/shout4.gif""</stim_listB>",,html-keyboard-response,95,889026,0.0-13.0-1.1,9415,List2B,black,woman,,,,null,,,,
null,are shouting at each other,,html-keyboard-response,96,891026,0.0-13.0-2.1,9415,List2B,black,woman,,,,null,,,,
37519,,,survey-text,97,928545,0.0-13.0-3.1,9415,List2B,black,woman,,,,,"{""Q0"":"" kate and mike are shouting at each other""}","<img src=""stim_listB/shout4.gif""</stim_listB>",are shouting at each other,
null,"<div style=""font-size:60px;"">+</div>",,html-keyboard-response,98,929046,0.0-13.0-0.2,9415,List2B,black,woman,,,,null,,,,
null,"<img src=""stim_listB/meet1.gif""</stim_listB>",,html-keyboard-response,99,931046,0.0-13.0-1.2,9415,List2B,black,woman,,,,null,,,,
null,is meeting,,html-keyboard-response,100,933046,0.0-13.0-2.2,9415,List2B,black,woman,,,,null,,,,
74952,,,survey-text,101,1007999,0.0-13.0-3.2,9415,List2B,black,woman,,,,,"{""Q0"":"" Beth and Fred is meeting""}","<img src=""stim_listB/meet1.gif""</stim_listB>",is meeting,
null,"<div style=""font-size:60px;"">+</div>",,html-keyboard-response,102,1008499,0.0-13.0-0.3,9415,List2B,black,woman,,,,null,,,,
null,"<img src=""stim_listB/dance6.gif""</stim_listB>",,html-keyboard-response,103,1010499,0.0-13.0-1.3,9415,List2B,black,woman,,,,null,,,,
null,are dancing with each other,,html-keyboard-response,104,1012499,0.0-13.0-2.3,9415,List2B,black,woman,,,,null,,,,
47807,,,survey-text,105,1060307,0.0-13.0-3.3,9415,List2B,black,woman,,,,,"{""Q0"":""   Dave and Fred  are dancing with each other""}","<img src=""stim_listB/dance6.gif""</stim_listB>",are dancing with each other,
null,"<div style=""font-size:60px;"">+</div>",,html-keyboard-response,106,1060807,0.0-13.0-0.4,9415,List2B,black,woman,,,,null,,,,
null,"<img src=""stim_listB/fight2.gif""</stim_listB>",,html-keyboard-response,107,1062807,0.0-13.0-1.4,9415,List2B,black,woman,,,,null,,,,
null,are fighting each other,,html-keyboard-response,108,1064807,0.0-13.0-2.4,9415,List2B,black,woman,,,,null,,,,
56104,,,survey-text,109,1120911,0.0-13.0-3.4,9415,List2B,black,woman,,,,,"{""Q0"":"" Luke and Beth are fighting each other""}","<img src=""stim_listB/fight2.gif""</stim_listB>",are fighting each other,
null,"<div style=""font-size:60px;"">+</div>",,html-keyboard-response,110,1121412,0.0-13.0-0.5,9415,List2B,black,woman,,,,null,,,,
null,"<img src=""stim_listB/touch1.gif""</stim_listB>",,html-keyboard-response,111,1123412,0.0-13.0-1.5,9415,List2B,black,woman,,,,null,,,,
null,is touching,,html-keyboard-response,112,1125412,0.0-13.0-2.5,9415,List2B,black,woman,,,,null,,,,
51872,,,survey-text,113,1177284,0.0-13.0-3.5,9415,List2B,black,woman,,,,,"{""Q0"":"" Beth and Dave is touching""}","<img src=""stim_listB/touch1.gif""</stim_listB>",is touching,
null,"<div style=""font-size:60px;"">+</div>",,html-keyboard-response,114,1177785,0.0-13.0-0.6,9415,List2B,black,woman,,,,null,,,,
null,"<img src=""stim_listB/marry1.gif""</stim_listB>",,html-keyboard-response,115,1179785,0.0-13.0-1.6,9415,List2B,black,woman,,,,null,,,,
null,is marrying,,html-keyboard-response,116,1181785,0.0-13.0-2.6,9415,List2B,black,woman,,,,null,,,,
31672,,,survey-text,117,1213457,0.0-13.0-3.6,9415,List2B,black,woman,,,,,"{""Q0"":""Dave and Ruth are dancing""}","<img src=""stim_listB/marry1.gif""</stim_listB>",is marrying,
null,"<div style=""font-size:60px;"">+</div>",,html-keyboard-response,118,1213958,0.0-13.0-0.7,9415,List2B,black,woman,,,,null,,,,
null,"<img src=""stim_listB/talk4.gif""</stim_listB>",,html-keyboard-response,119,1215958,0.0-13.0-1.7,9415,List2B,black,woman,,,,null,,,,
null,are talking to each other,,html-keyboard-response,120,1217958,0.0-13.0-2.7,9415,List2B,black,woman,,,,null,,,,
47319,,,survey-text,121,1265277,0.0-13.0-3.7,9415,List2B,black,woman,,,,,"{""Q0"":"" Beth and Fred are talking to each other""}","<img src=""stim_listB/talk4.gif""</stim_listB>",are talking to each other,
null,"<div style=""font-size:60px;"">+</div>",,html-keyboard-response,122,1265778,0.0-13.0-0.8,9415,List2B,black,woman,,,,null,,,,
null,"<img src=""stim_listB/dance2.gif""</stim_listB>",,html-keyboard-response,123,1267778,0.0-13.0-1.8,9415,List2B,black,woman,,,,null,,,,
null,are dancing with each other,,html-keyboard-response,124,1269778,0.0-13.0-2.8,9415,List2B,black,woman,,,,null,,,,
80647,,,survey-text,125,1350425,0.0-13.0-3.8,9415,List2B,black,woman,,,,,"{""Q0"":""Dave and Ruth are dancing with each other""}","<img src=""stim_listB/dance2.gif""</stim_listB>",are dancing with each other,
null,"<div style=""font-size:60px;"">+</div>",,html-keyboard-response,126,1350926,0.0-13.0-0.9,9415,List2B,black,woman,,,,null,,,,
null,"<img src=""stim_listB/hug4.gif""</stim_listB>",,html-keyboard-response,127,1352926,0.0-13.0-1.9,9415,List2B,black,woman,,,,null,,,,
null,are hugging each other,,html-keyboard-response,128,1354926,0.0-13.0-2.9,9415,List2B,black,woman,,,,null,,,,
40623,,,survey-text,129,1395550,0.0-13.0-3.9,9415,List2B,black,woman,,,,,"{""Q0"":""Kate and Mike are dancing ""}","<img src=""stim_listB/hug4.gif""</stim_listB>",are hugging each other,
null,"<div style=""font-size:60px;"">+</div>",,html-keyboard-response,130,1396050,0.0-13.0-0.10,9415,List2B,black,woman,,,,null,,,,
null,"<img src=""stim_listB/argue6.gif""</stim_listB>",,html-keyboard-response,131,1398050,0.0-13.0-1.10,9415,List2B,black,woman,,,,null,,,,
null,are arguing with each other,,html-keyboard-response,132,1400051,0.0-13.0-2.10,9415,List2B,black,woman,,,,null,,,,
64871,,,survey-text,133,1464923,0.0-13.0-3.10,9415,List2B,black,woman,,,,,"{""Q0"":""Luke and Dave are arguing with each other""}","<img src=""stim_listB/argue6.gif""</stim_listB>",are arguing with each other,
null,"<div style=""font-size:60px;"">+</div>",,html-keyboard-response,134,1465423,0.0-13.0-0.11,9415,List2B,black,woman,,,,null,,,,
null,"<img src=""stim_listB/hug1.gif""</stim_listB>",,html-keyboard-response,135,1467423,0.0-13.0-1.11,9415,List2B,black,woman,,,,null,,,,
null,is hugging,,html-keyboard-response,136,1469423,0.0-13.0-2.11,9415,List2B,black,woman,,,,null,,,,
47727,,,survey-text,137,1517151,0.0-13.0-3.11,9415,List2B,black,woman,,,,,"{""Q0"":"" Luke and Jane Is hugging""}","<img src=""stim_listB/hug1.gif""</stim_listB>",is hugging,
null,"<div style=""font-size:60px;"">+</div>",,html-keyboard-response,138,1517651,0.0-13.0-0.12,9415,List2B,black,woman,,,,null,,,,
null,"<img src=""stim_listB/kiss1.gif""</stim_listB>",,html-keyboard-response,139,1519651,0.0-13.0-1.12,9415,List2B,black,woman,,,,null,,,,
null,is kissing,,html-keyboard-response,140,1521651,0.0-13.0-2.12,9415,List2B,black,woman,,,,null,,,,
32899,,,survey-text,141,1554550,0.0-13.0-3.12,9415,List2B,black,woman,,,,,"{""Q0"":""Luke and Ruth is kissing""}","<img src=""stim_listB/kiss1.gif""</stim_listB>",is kissing,
null,"<div style=""font-size:60px;"">+</div>",,html-keyboard-response,142,1555051,0.0-13.0-0.13,9415,List2B,black,woman,,,,null,,,,
null,"<img src=""stim_listB/kiss6.gif""</stim_listB>",,html-keyboard-response,143,1557051,0.0-13.0-1.13,9415,List2B,black,woman,,,,null,,,,
null,are kissing each other,,html-keyboard-response,144,1559052,0.0-13.0-2.13,9415,List2B,black,woman,,,,null,,,,
61079,,,survey-text,145,1620132,0.0-13.0-3.13,9415,List2B,black,woman,,,,,"{""Q0"":""Mike and Fred is kissing each other""}","<img src=""stim_listB/kiss6.gif""</stim_listB>",are kissing each other,
null,"<div style=""font-size:60px;"">+</div>",,html-keyboard-response,146,1620632,0.0-13.0-0.14,9415,List2B,black,woman,,,,null,,,,
null,"<img src=""stim_listB/kiss5.gif""</stim_listB>",,html-keyboard-response,147,1622632,0.0-13.0-1.14,9415,List2B,black,woman,,,,null,,,,
null,is kissing,,html-keyboard-response,148,1624632,0.0-13.0-2.14,9415,List2B,black,woman,,,,null,,,,
49055,,,survey-text,149,1673688,0.0-13.0-3.14,9415,List2B,black,woman,,,,,"{""Q0"":""Luke and Fred is kissing""}","<img src=""stim_listB/kiss5.gif""</stim_listB>",is kissing,
null,"<div style=""font-size:60px;"">+</div>",,html-keyboard-response,150,1674188,0.0-13.0-0.15,9415,List2B,black,woman,,,,null,,,,
null,"<img src=""stim_listB/fight8.gif""</stim_listB>",,html-keyboard-response,151,1676188,0.0-13.0-1.15,9415,List2B,black,woman,,,,null,,,,
null,are fighting each other,,html-keyboard-response,152,1678188,0.0-13.0-2.15,9415,List2B,black,woman,,,,null,,,,
40520,,,survey-text,153,1718709,0.0-13.0-3.15,9415,List2B,black,woman,,,,,"{""Q0"":""Beth and Ruth are fighting each other""}","<img src=""stim_listB/fight8.gif""</stim_listB>",are fighting each other,
null,"<div style=""font-size:60px;"">+</div>",,html-keyboard-response,154,1719210,0.0-13.0-0.16,9415,List2B,black,woman,,,,null,,,,
null,"<img src=""stim_listB/fight4.gif""</stim_listB>",,html-keyboard-response,155,1721210,0.0-13.0-1.16,9415,List2B,black,woman,,,,null,,,,
null,are fighting each other,,html-keyboard-response,156,1723210,0.0-13.0-2.16,9415,List2B,black,woman,,,,null,,,,
50319,,,survey-text,157,1773529,0.0-13.0-3.16,9415,List2B,black,woman,,,,,"{""Q0"":""  Beth and Kate are fighting each other""}","<img src=""stim_listB/fight4.gif""</stim_listB>",are fighting each other,
null,"<div style=""font-size:60px;"">+</div>",,html-keyboard-response,158,1774029,0.0-13.0-0.17,9415,List2B,black,woman,,,,null,,,,
null,"<img src=""stim_listB/marry7.gif""</stim_listB>",,html-keyboard-response,159,1776029,0.0-13.0-1.17,9415,List2B,black,woman,,,,null,,,,
null,is marrying,,html-keyboard-response,160,1778029,0.0-13.0-2.17,9415,List2B,black,woman,,,,null,,,,
59896,,,survey-text,161,1837925,0.0-13.0-3.17,9415,List2B,black,woman,,,,,"{""Q0"":""Ruth and Beth  is Marrying""}","<img src=""stim_listB/marry7.gif""</stim_listB>",is marrying,
null,"<div style=""font-size:60px;"">+</div>",,html-keyboard-response,162,1838426,0.0-13.0-0.18,9415,List2B,black,woman,,,,null,,,,
null,"<img src=""stim_listB/argue7.gif""</stim_listB>",,html-keyboard-response,163,1840427,0.0-13.0-1.18,9415,List2B,black,woman,,,,null,,,,
null,is arguing with,,html-keyboard-response,164,1842427,0.0-13.0-2.18,9415,List2B,black,woman,,,,null,,,,
23866,,,survey-text,165,1866294,0.0-13.0-3.18,9415,List2B,black,woman,,,,,"{""Q0"":""Jane is arguing with Beth""}","<img src=""stim_listB/argue7.gif""</stim_listB>",is arguing with,
null,"<div style=""font-size:60px;"">+</div>",,html-keyboard-response,166,1866794,0.0-13.0-0.19,9415,List2B,black,woman,,,,null,,,,
null,"<img src=""stim_listB/dance5.gif""</stim_listB>",,html-keyboard-response,167,1868794,0.0-13.0-1.19,9415,List2B,black,woman,,,,null,,,,
null,is dancing with,,html-keyboard-response,168,1870794,0.0-13.0-2.19,9415,List2B,black,woman,,,,null,,,,
38880,,,survey-text,169,1909674,0.0-13.0-3.19,9415,List2B,black,woman,,,,,"{""Q0"":""Mike is dancing with Luke""}","<img src=""stim_listB/dance5.gif""</stim_listB>",is dancing with,
7783,"<img src='img/portrait_matrix_list2.JPG' style='width:900px;height:500px;''></img><p>If you have memorised all the portraits and names and are ready to start, press Continue.</p><p><strong>Please note: Your memory of these faces will be tested 4 times during this experiment.</strong></p>",0,html-button-response,170,1917459,0.0-14.0-0.0,9415,List2B,black,woman,,,,,,,,
11640,"<img src=""portrait/BW2.jpg""style=""width:400px;height:400px;""></img>",2,html-button-response,171,1930099,0.0-14.0-1.0,9415,List2B,black,woman,,TRUE,2,,,,,
null,CORRECT,,html-keyboard-response,172,1931599,0.0-14.0-2.0-0.0,9415,List2B,black,woman,,,,null,,,,
6366,"<img src=""portrait/WW2.jpg""style=""width:400px;height:400px;""></img>",3,html-button-response,173,1937967,0.0-14.0-4.0,9415,List2B,black,woman,,TRUE,3,,,,,
null,CORRECT,,html-keyboard-response,174,1939467,0.0-14.0-5.0-0.0,9415,List2B,black,woman,,,,null,,,,
3186,"<img src=""portrait/WM1.jpg""style=""width:400px;height:400px;""></img>",6,html-button-response,175,1942655,0.0-14.0-7.0,9415,List2B,black,woman,,TRUE,6,,,,,
null,CORRECT,,html-keyboard-response,176,1944155,0.0-14.0-8.0-0.0,9415,List2B,black,woman,,,,null,,,,
6410,"<img src=""portrait/WM2.jpg""style=""width:400px;height:400px;""></img>",7,html-button-response,177,1950567,0.0-14.0-10.0,9415,List2B,black,woman,,TRUE,7,,,,,
null,CORRECT,,html-keyboard-response,178,1952067,0.0-14.0-11.0-0.0,9415,List2B,black,woman,,,,null,,,,
6858,"<img src=""portrait/BW1.jpg""style=""width:400px;height:400px;""></img>",0,html-button-response,179,1958927,0.0-14.0-13.0,9415,List2B,black,woman,,TRUE,0,,,,,
null,CORRECT,,html-keyboard-response,180,1960427,0.0-14.0-14.0-0.0,9415,List2B,black,woman,,,,null,,,,
8819,"<img src=""portrait/BM1.jpg""style=""width:400px;height:400px;""></img>",4,html-button-response,181,1969247,0.0-14.0-16.0,9415,List2B,black,woman,,TRUE,4,,,,,
null,CORRECT,,html-keyboard-response,182,1970748,0.0-14.0-17.0-0.0,9415,List2B,black,woman,,,,null,,,,
5473,"<img src=""portrait/BM2.jpg""style=""width:400px;height:400px;""></img>",5,html-button-response,183,1976223,0.0-14.0-19.0,9415,List2B,black,woman,,TRUE,5,,,,,
null,CORRECT,,html-keyboard-response,184,1977723,0.0-14.0-20.0-0.0,9415,List2B,black,woman,,,,null,,,,
5458,"<img src=""portrait/WW1.jpg""style=""width:400px;height:400px;""></img>",1,html-button-response,185,1983183,0.0-14.0-22.0,9415,List2B,black,woman,,TRUE,1,,,,,
null,CORRECT,,html-keyboard-response,186,1984683,0.0-14.0-23.0-0.0,9415,List2B,black,woman,,,,null,,,,
2258,<p>You got 8 out of 8 right first time. Press Continue.</p>,0,html-button-response,187,1986943,0.0-14.0-25.0,9415,List2B,black,woman,,,,,,,,
null,"<div style=""font-size:60px;"">+</div>",,html-keyboard-response,188,1988444,0.0-15.0-0.0,9415,List2B,black,woman,,,,null,,,,
null,"<img src=""stim_listB/touch2.gif""</stim_listB>",,html-keyboard-response,189,1990444,0.0-15.0-1.0,9415,List2B,black,woman,,,,null,,,,
null,are touching each other,,html-keyboard-response,190,1992444,0.0-15.0-2.0,9415,List2B,black,woman,,,,null,,,,
40167,,,survey-text,191,2032611,0.0-15.0-3.0,9415,List2B,black,woman,,,,,"{""Q0"":"" luke and Beth are touching each other""}","<img src=""stim_listB/touch2.gif""</stim_listB>",are touching each other,
null,"<div style=""font-size:60px;"">+</div>",,html-keyboard-response,192,2033112,0.0-15.0-0.1,9415,List2B,black,woman,,,,null,,,,
null,"<img src=""stim_listB/kiss4.gif""</stim_listB>",,html-keyboard-response,193,2035112,0.0-15.0-1.1,9415,List2B,black,woman,,,,null,,,,
null,are kissing each other,,html-keyboard-response,194,2037112,0.0-15.0-2.1,9415,List2B,black,woman,,,,null,,,,
24367,,,survey-text,195,2061480,0.0-15.0-3.1,9415,List2B,black,woman,,,,,"{""Q0"":""Kate and Mike are kissing each other""}","<img src=""stim_listB/kiss4.gif""</stim_listB>",are kissing each other,
null,"<div style=""font-size:60px;"">+</div>",,html-keyboard-response,196,2061980,0.0-15.0-0.2,9415,List2B,black,woman,,,,null,,,,
null,"<img src=""stim_listB/shout3.gif""</stim_listB>",,html-keyboard-response,197,2063984,0.0-15.0-1.2,9415,List2B,black,woman,,,,null,,,,
null,is shouting at,,html-keyboard-response,198,2065984,0.0-15.0-2.2,9415,List2B,black,woman,,,,null,,,,
26239,,,survey-text,199,2092224,0.0-15.0-3.2,9415,List2B,black,woman,,,,,"{""Q0"":""Fred and Beth are shouting at each other""}","<img src=""stim_listB/shout3.gif""</stim_listB>",is shouting at,
null,"<div style=""font-size:60px;"">+</div>",,html-keyboard-response,200,2092724,0.0-15.0-0.3,9415,List2B,black,woman,,,,null,,,,
null,"<img src=""stim_listB/touch5.gif""</stim_listB>",,html-keyboard-response,201,2094724,0.0-15.0-1.3,9415,List2B,black,woman,,,,null,,,,
null,is touching,,html-keyboard-response,202,2096725,0.0-15.0-2.3,9415,List2B,black,woman,,,,null,,,,
48775,,,survey-text,203,2145501,0.0-15.0-3.3,9415,List2B,black,woman,,,,,"{""Q0"":""Dave  and Mike is touching""}","<img src=""stim_listB/touch5.gif""</stim_listB>",is touching,
null,"<div style=""font-size:60px;"">+</div>",,html-keyboard-response,204,2146001,0.0-15.0-0.4,9415,List2B,black,woman,,,,null,,,,
null,"<img src=""stim_listB/shout8.gif""</stim_listB>",,html-keyboard-response,205,2148001,0.0-15.0-1.4,9415,List2B,black,woman,,,,null,,,,
null,are shouting at each other,,html-keyboard-response,206,2150001,0.0-15.0-2.4,9415,List2B,black,woman,,,,null,,,,
67615,,,survey-text,207,2217617,0.0-15.0-3.4,9415,List2B,black,woman,,,,,"{""Q0"":""kate and jane are shouting at each other""}","<img src=""stim_listB/shout8.gif""</stim_listB>",are shouting at each other,
null,"<div style=""font-size:60px;"">+</div>",,html-keyboard-response,208,2218117,0.0-15.0-0.5,9415,List2B,black,woman,,,,null,,,,
null,"<img src=""stim_listB/meet5.gif""</stim_listB>",,html-keyboard-response,209,2220117,0.0-15.0-1.5,9415,List2B,black,woman,,,,null,,,,
null,is meeting,,html-keyboard-response,210,2222117,0.0-15.0-2.5,9415,List2B,black,woman,,,,null,,,,
28880,,,survey-text,211,2250998,0.0-15.0-3.5,9415,List2B,black,woman,,,,,"{""Q0"":""Dave is meeting mike""}","<img src=""stim_listB/meet5.gif""</stim_listB>",is meeting,
null,"<div style=""font-size:60px;"">+</div>",,html-keyboard-response,212,2251498,0.0-15.0-0.6,9415,List2B,black,woman,,,,null,,,,
null,"<img src=""stim_listB/touch8.gif""</stim_listB>",,html-keyboard-response,213,2253499,0.0-15.0-1.6,9415,List2B,black,woman,,,,null,,,,
null,are touching each other,,html-keyboard-response,214,2255499,0.0-15.0-2.6,9415,List2B,black,woman,,,,null,,,,
31386,,,survey-text,215,2286886,0.0-15.0-3.6,9415,List2B,black,woman,,,,,"{""Q0"":""Beth and Ruth are touching each other""}","<img src=""stim_listB/touch8.gif""</stim_listB>",are touching each other,
null,"<div style=""font-size:60px;"">+</div>",,html-keyboard-response,216,2287386,0.0-15.0-0.7,9415,List2B,black,woman,,,,null,,,,
null,"<img src=""stim_listB/fight1.gif""</stim_listB>",,html-keyboard-response,217,2289387,0.0-15.0-1.7,9415,List2B,black,woman,,,,null,,,,
null,is fighting,,html-keyboard-response,218,2291388,0.0-15.0-2.7,9415,List2B,black,woman,,,,null,,,,
28573,,,survey-text,219,2319963,0.0-15.0-3.7,9415,List2B,black,woman,,,,,"{""Q0"":""  Dave is fighting jane""}","<img src=""stim_listB/fight1.gif""</stim_listB>",is fighting,
null,"<div style=""font-size:60px;"">+</div>",,html-keyboard-response,220,2320464,0.0-15.0-0.8,9415,List2B,black,woman,,,,null,,,,
null,"<img src=""stim_listB/fight6.gif""</stim_listB>",,html-keyboard-response,221,2322464,0.0-15.0-1.8,9415,List2B,black,woman,,,,null,,,,
null,are fighting each other,,html-keyboard-response,222,2324464,0.0-15.0-2.8,9415,List2B,black,woman,,,,null,,,,
26362,,,survey-text,223,2350827,0.0-15.0-3.8,9415,List2B,black,woman,,,,,"{""Q0"":""Fred and luke are fighting each other""}","<img src=""stim_listB/fight6.gif""</stim_listB>",are fighting each other,
null,"<div style=""font-size:60px;"">+</div>",,html-keyboard-response,224,2351329,0.0-15.0-0.9,9415,List2B,black,woman,,,,null,,,,
null,"<img src=""stim_listB/meet7.gif""</stim_listB>",,html-keyboard-response,225,2353330,0.0-15.0-1.9,9415,List2B,black,woman,,,,null,,,,
null,is meeting,,html-keyboard-response,226,2355330,0.0-15.0-2.9,9415,List2B,black,woman,,,,null,,,,
25340,,,survey-text,227,2380670,0.0-15.0-3.9,9415,List2B,black,woman,,,,,"{""Q0"":""Kate is meeting jane""}","<img src=""stim_listB/meet7.gif""</stim_listB>",is meeting,
null,"<div style=""font-size:60px;"">+</div>",,html-keyboard-response,228,2381171,0.0-15.0-0.10,9415,List2B,black,woman,,,,null,,,,
null,"<img src=""stim_listB/dance3.gif""</stim_listB>",,html-keyboard-response,229,2383171,0.0-15.0-1.10,9415,List2B,black,woman,,,,null,,,,
null,is dancing with,,html-keyboard-response,230,2385171,0.0-15.0-2.10,9415,List2B,black,woman,,,,null,,,,
18580,,,survey-text,231,2403751,0.0-15.0-3.10,9415,List2B,black,woman,,,,,"{""Q0"":""kate is dancing with Fred""}","<img src=""stim_listB/dance3.gif""</stim_listB>",is dancing with,
null,"<div style=""font-size:60px;"">+</div>",,html-keyboard-response,232,2404252,0.0-15.0-0.11,9415,List2B,black,woman,,,,null,,,,
null,"<img src=""stim_listB/talk1.gif""</stim_listB>",,html-keyboard-response,233,2406252,0.0-15.0-1.11,9415,List2B,black,woman,,,,null,,,,
null,is talking to,,html-keyboard-response,234,2408252,0.0-15.0-2.11,9415,List2B,black,woman,,,,null,,,,
24502,,,survey-text,235,2432754,0.0-15.0-3.11,9415,List2B,black,woman,,,,,"{""Q0"":""Luke is talking to Jane""}","<img src=""stim_listB/talk1.gif""</stim_listB>",is talking to,
null,"<div style=""font-size:60px;"">+</div>",,html-keyboard-response,236,2433255,0.0-15.0-0.12,9415,List2B,black,woman,,,,null,,,,
null,"<img src=""stim_listB/argue4.gif""</stim_listB>",,html-keyboard-response,237,2435255,0.0-15.0-1.12,9415,List2B,black,woman,,,,null,,,,
null,are arguing with each other,,html-keyboard-response,238,2437255,0.0-15.0-2.12,9415,List2B,black,woman,,,,null,,,,
51105,,,survey-text,239,2488360,0.0-15.0-3.12,9415,List2B,black,woman,,,,,"{""Q0"":""  kate and Fred are arguing with each other""}","<img src=""stim_listB/argue4.gif""</stim_listB>",are arguing with each other,
null,"<div style=""font-size:60px;"">+</div>",,html-keyboard-response,240,2488860,0.0-15.0-0.13,9415,List2B,black,woman,,,,null,,,,
null,"<img src=""stim_listB/kiss2.gif""</stim_listB>",,html-keyboard-response,241,2490860,0.0-15.0-1.13,9415,List2B,black,woman,,,,null,,,,
null,are kissing each other,,html-keyboard-response,242,2492860,0.0-15.0-2.13,9415,List2B,black,woman,,,,null,,,,
29396,,,survey-text,243,2522256,0.0-15.0-3.13,9415,List2B,black,woman,,,,,"{""Q0"":""Dave and jane are kissing each other""}","<img src=""stim_listB/kiss2.gif""</stim_listB>",are kissing each other,
null,"<div style=""font-size:60px;"">+</div>",,html-keyboard-response,244,2522757,0.0-15.0-0.14,9415,List2B,black,woman,,,,null,,,,
null,"<img src=""stim_listB/hug2.gif""</stim_listB>",,html-keyboard-response,245,2524757,0.0-15.0-1.14,9415,List2B,black,woman,,,,null,,,,
null,are hugging each other,,html-keyboard-response,246,2526757,0.0-15.0-2.14,9415,List2B,black,woman,,,,null,,,,
18318,,,survey-text,247,2545076,0.0-15.0-3.14,9415,List2B,black,woman,,,,,"{""Q0"":""Kate and Dave are hugging""}","<img src=""stim_listB/hug2.gif""</stim_listB>",are hugging each other,
null,"<div style=""font-size:60px;"">+</div>",,html-keyboard-response,248,2545576,0.0-15.0-0.15,9415,List2B,black,woman,,,,null,,,,
null,"<img src=""stim_listB/dance1.gif""</stim_listB>",,html-keyboard-response,249,2547576,0.0-15.0-1.15,9415,List2B,black,woman,,,,null,,,,
null,is dancing with,,html-keyboard-response,250,2549576,0.0-15.0-2.15,9415,List2B,black,woman,,,,null,,,,
23067,,,survey-text,251,2572643,0.0-15.0-3.15,9415,List2B,black,woman,,,,,"{""Q0"":""Kate is dancing with Luke""}","<img src=""stim_listB/dance1.gif""</stim_listB>",is dancing with,
null,"<div style=""font-size:60px;"">+</div>",,html-keyboard-response,252,2573144,0.0-15.0-0.16,9415,List2B,black,woman,,,,null,,,,
null,"<img src=""stim_listB/shout2.gif""</stim_listB>",,html-keyboard-response,253,2575144,0.0-15.0-1.16,9415,List2B,black,woman,,,,null,,,,
null,are shouting at each other,,html-keyboard-response,254,2577144,0.0-15.0-2.16,9415,List2B,black,woman,,,,null,,,,
25267,,,survey-text,255,2602412,0.0-15.0-3.16,9415,List2B,black,woman,,,,,"{""Q0"":""kate and Dave are shouting at each other""}","<img src=""stim_listB/shout2.gif""</stim_listB>",are shouting at each other,
null,"<div style=""font-size:60px;"">+</div>",,html-keyboard-response,256,2602912,0.0-15.0-0.17,9415,List2B,black,woman,,,,null,,,,
null,"<img src=""stim_listB/talk6.gif""</stim_listB>",,html-keyboard-response,257,2604912,0.0-15.0-1.17,9415,List2B,black,woman,,,,null,,,,
null,are talking to each other,,html-keyboard-response,258,2606909,0.0-15.0-2.17,9415,List2B,black,woman,,,,null,,,,
27499,,,survey-text,259,2634409,0.0-15.0-3.17,9415,List2B,black,woman,,,,,"{""Q0"":""Fred and luke are talking to each other""}","<img src=""stim_listB/talk6.gif""</stim_listB>",are talking to each other,
null,"<div style=""font-size:60px;"">+</div>",,html-keyboard-response,260,2634909,0.0-15.0-0.18,9415,List2B,black,woman,,,,null,,,,
null,"<img src=""stim_listB/touch7.gif""</stim_listB>",,html-keyboard-response,261,2636909,0.0-15.0-1.18,9415,List2B,black,woman,,,,null,,,,
null,is touching,,html-keyboard-response,262,2638909,0.0-15.0-2.18,9415,List2B,black,woman,,,,null,,,,
19459,,,survey-text,263,2658369,0.0-15.0-3.18,9415,List2B,black,woman,,,,,"{""Q0"":""Kate is touching Jane""}","<img src=""stim_listB/touch7.gif""</stim_listB>",is touching,
null,"<div style=""font-size:60px;"">+</div>",,html-keyboard-response,264,2658869,0.0-15.0-0.19,9415,List2B,black,woman,,,,null,,,,
null,"<img src=""stim_listB/shout7.gif""</stim_listB>",,html-keyboard-response,265,2660869,0.0-15.0-1.19,9415,List2B,black,woman,,,,null,,,,
null,is shouting at,,html-keyboard-response,266,2662870,0.0-15.0-2.19,9415,List2B,black,woman,,,,null,,,,
24606,,,survey-text,267,2687477,0.0-15.0-3.19,9415,List2B,black,woman,,,,,"{""Q0"":""Beth is shouting at Ruth""}","<img src=""stim_listB/shout7.gif""</stim_listB>",is shouting at,
54644,"<img src='img/portrait_matrix_list2.JPG' style='width:900px;height:500px;''></img><p>If you have memorised all the portraits and names and are ready to start, press Continue.</p><p><strong>Please note: Your memory of these faces will be tested 4 times during this experiment.</strong></p>",0,html-button-response,268,2742122,0.0-16.0-0.0,9415,List2B,black,woman,,,,,,,,
2655,"<img src=""portrait/BW2.jpg""style=""width:400px;height:400px;""></img>",2,html-button-response,269,2745778,0.0-16.0-1.0,9415,List2B,black,woman,,TRUE,2,,,,,
null,CORRECT,,html-keyboard-response,270,2747278,0.0-16.0-2.0-0.0,9415,List2B,black,woman,,,,null,,,,
9082,"<img src=""portrait/WW1.jpg""style=""width:400px;height:400px;""></img>",1,html-button-response,271,2756362,0.0-16.0-4.0,9415,List2B,black,woman,,TRUE,1,,,,,
null,CORRECT,,html-keyboard-response,272,2757862,0.0-16.0-5.0-0.0,9415,List2B,black,woman,,,,null,,,,
4306,"<img src=""portrait/WW2.jpg""style=""width:400px;height:400px;""></img>",3,html-button-response,273,2762170,0.0-16.0-7.0,9415,List2B,black,woman,,TRUE,3,,,,,
null,CORRECT,,html-keyboard-response,274,2763670,0.0-16.0-8.0-0.0,9415,List2B,black,woman,,,,null,,,,
6315,"<img src=""portrait/BM2.jpg""style=""width:400px;height:400px;""></img>",5,html-button-response,275,2769986,0.0-16.0-10.0,9415,List2B,black,woman,,TRUE,5,,,,,
null,CORRECT,,html-keyboard-response,276,2771487,0.0-16.0-11.0-0.0,9415,List2B,black,woman,,,,null,,,,
7649,"<img src=""portrait/WM1.jpg""style=""width:400px;height:400px;""></img>",6,html-button-response,277,2779138,0.0-16.0-13.0,9415,List2B,black,woman,,TRUE,6,,,,,
null,CORRECT,,html-keyboard-response,278,2780638,0.0-16.0-14.0-0.0,9415,List2B,black,woman,,,,null,,,,
5427,"<img src=""portrait/BW1.jpg""style=""width:400px;height:400px;""></img>",0,html-button-response,279,2786066,0.0-16.0-16.0,9415,List2B,black,woman,,TRUE,0,,,,,
null,CORRECT,,html-keyboard-response,280,2787567,0.0-16.0-17.0-0.0,9415,List2B,black,woman,,,,null,,,,
6957,"<img src=""portrait/WM2.jpg""style=""width:400px;height:400px;""></img>",7,html-button-response,281,2794526,0.0-16.0-19.0,9415,List2B,black,woman,,TRUE,7,,,,,
null,CORRECT,,html-keyboard-response,282,2796026,0.0-16.0-20.0-0.0,9415,List2B,black,woman,,,,null,,,,
3034,"<img src=""portrait/BM1.jpg""style=""width:400px;height:400px;""></img>",4,html-button-response,283,2799062,0.0-16.0-22.0,9415,List2B,black,woman,,TRUE,4,,,,,
null,CORRECT,,html-keyboard-response,284,2800562,0.0-16.0-23.0-0.0,9415,List2B,black,woman,,,,null,,,,
25507,<p>You got 8 out of 8 right first time. Press Continue.</p>,0,html-button-response,285,2826070,0.0-16.0-25.0,9415,List2B,black,woman,,,,,,,,
null,"<div style=""font-size:60px;"">+</div>",,html-keyboard-response,286,2827571,0.0-17.0-0.0,9415,List2B,black,woman,,,,null,,,,
null,"<img src=""stim_listB/kiss3.gif""</stim_listB>",,html-keyboard-response,287,2829571,0.0-17.0-1.0,9415,List2B,black,woman,,,,null,,,,
null,is kissing,,html-keyboard-response,288,2831571,0.0-17.0-2.0,9415,List2B,black,woman,,,,null,,,,
37167,,,survey-text,289,2868739,0.0-17.0-3.0,9415,List2B,black,woman,,,,,"{""Q0"":""Fred is kissing Beth""}","<img src=""stim_listB/kiss3.gif""</stim_listB>",is kissing,
null,"<div style=""font-size:60px;"">+</div>",,html-keyboard-response,290,2869239,0.0-17.0-0.1,9415,List2B,black,woman,,,,null,,,,
null,"<img src=""stim_listB/meet3.gif""</stim_listB>",,html-keyboard-response,291,2871239,0.0-17.0-1.1,9415,List2B,black,woman,,,,null,,,,
null,is meeting,,html-keyboard-response,292,2873239,0.0-17.0-2.1,9415,List2B,black,woman,,,,null,,,,
21628,,,survey-text,293,2894867,0.0-17.0-3.1,9415,List2B,black,woman,,,,,"{""Q0"":""Kate is meeting Mike""}","<img src=""stim_listB/meet3.gif""</stim_listB>",is meeting,
null,"<div style=""font-size:60px;"">+</div>",,html-keyboard-response,294,2895368,0.0-17.0-0.2,9415,List2B,black,woman,,,,null,,,,
null,"<img src=""stim_listB/meet6.gif""</stim_listB>",,html-keyboard-response,295,2897368,0.0-17.0-1.2,9415,List2B,black,woman,,,,null,,,,
null,are meeting each other,,html-keyboard-response,296,2899368,0.0-17.0-2.2,9415,List2B,black,woman,,,,null,,,,
28815,,,survey-text,297,2928183,0.0-17.0-3.2,9415,List2B,black,woman,,,,,"{""Q0"":""Luke and Fred are meeting each other""}","<img src=""stim_listB/meet6.gif""</stim_listB>",are meeting each other,
null,"<div style=""font-size:60px;"">+</div>",,html-keyboard-response,298,2928684,0.0-17.0-0.3,9415,List2B,black,woman,,,,null,,,,
null,"<img src=""stim_listB/shout6.gif""</stim_listB>",,html-keyboard-response,299,2930684,0.0-17.0-1.3,9415,List2B,black,woman,,,,null,,,,
null,are shouting at each other,,html-keyboard-response,300,2932684,0.0-17.0-2.3,9415,List2B,black,woman,,,,null,,,,
48544,,,survey-text,301,2981228,0.0-17.0-3.3,9415,List2B,black,woman,,,,,"{""Q0"":""Mike and Dave are shouting at each other""}","<img src=""stim_listB/shout6.gif""</stim_listB>",are shouting at each other,
null,"<div style=""font-size:60px;"">+</div>",,html-keyboard-response,302,2981729,0.0-17.0-0.4,9415,List2B,black,woman,,,,null,,,,
null,"<img src=""stim_listB/meet4.gif""</stim_listB>",,html-keyboard-response,303,2983729,0.0-17.0-1.4,9415,List2B,black,woman,,,,null,,,,
null,are meeting each other,,html-keyboard-response,304,2985729,0.0-17.0-2.4,9415,List2B,black,woman,,,,null,,,,
22866,,,survey-text,305,3008595,0.0-17.0-3.4,9415,List2B,black,woman,,,,,"{""Q0"":""Fred and Beth are meeting each other""}","<img src=""stim_listB/meet4.gif""</stim_listB>",are meeting each other,
null,"<div style=""font-size:60px;"">+</div>",,html-keyboard-response,306,3009096,0.0-17.0-0.5,9415,List2B,black,woman,,,,null,,,,
null,"<img src=""stim_listB/marry6.gif""</stim_listB>",,html-keyboard-response,307,3011096,0.0-17.0-1.5,9415,List2B,black,woman,,,,null,,,,
null,are marrying each other,,html-keyboard-response,308,3013096,0.0-17.0-2.5,9415,List2B,black,woman,,,,null,,,,
19088,,,survey-text,309,3032184,0.0-17.0-3.5,9415,List2B,black,woman,,,,,"{""Q0"":""Mike and Luke are marrying each other""}","<img src=""stim_listB/marry6.gif""</stim_listB>",are marrying each other,
null,"<div style=""font-size:60px;"">+</div>",,html-keyboard-response,310,3032685,0.0-17.0-0.6,9415,List2B,black,woman,,,,null,,,,
null,"<img src=""stim_listB/argue1.gif""</stim_listB>",,html-keyboard-response,311,3034685,0.0-17.0-1.6,9415,List2B,black,woman,,,,null,,,,
null,is arguing with,,html-keyboard-response,312,3036685,0.0-17.0-2.6,9415,List2B,black,woman,,,,null,,,,
19978,,,survey-text,313,3056664,0.0-17.0-3.6,9415,List2B,black,woman,,,,,"{""Q0"":""Dave and Ruth are arguing""}","<img src=""stim_listB/argue1.gif""</stim_listB>",is arguing with,
null,"<div style=""font-size:60px;"">+</div>",,html-keyboard-response,314,3057164,0.0-17.0-0.7,9415,List2B,black,woman,,,,null,,,,
null,"<img src=""stim_listB/meet2.gif""</stim_listB>",,html-keyboard-response,315,3059164,0.0-17.0-1.7,9415,List2B,black,woman,,,,null,,,,
null,are meeting each other,,html-keyboard-response,316,3061164,0.0-17.0-2.7,9415,List2B,black,woman,,,,null,,,,
33592,,,survey-text,317,3094756,0.0-17.0-3.7,9415,List2B,black,woman,,,,,"{""Q0"":""Luke and  Ruth are meeting each other""}","<img src=""stim_listB/meet2.gif""</stim_listB>",are meeting each other,
null,"<div style=""font-size:60px;"">+</div>",,html-keyboard-response,318,3095257,0.0-17.0-0.8,9415,List2B,black,woman,,,,null,,,,
null,"<img src=""stim_listB/marry2.gif""</stim_listB>",,html-keyboard-response,319,3097257,0.0-17.0-1.8,9415,List2B,black,woman,,,,null,,,,
null,are marrying each other,,html-keyboard-response,320,3099257,0.0-17.0-2.8,9415,List2B,black,woman,,,,null,,,,
25187,,,survey-text,321,3124445,0.0-17.0-3.8,9415,List2B,black,woman,,,,,"{""Q0"":""Jane and Luke are marrying each other""}","<img src=""stim_listB/marry2.gif""</stim_listB>",are marrying each other,
null,"<div style=""font-size:60px;"">+</div>",,html-keyboard-response,322,3124945,0.0-17.0-0.9,9415,List2B,black,woman,,,,null,,,,
null,"<img src=""stim_listB/argue8.gif""</stim_listB>",,html-keyboard-response,323,3126945,0.0-17.0-1.9,9415,List2B,black,woman,,,,null,,,,
null,are arguing with each other,,html-keyboard-response,324,3128945,0.0-17.0-2.9,9415,List2B,black,woman,,,,null,,,,
30320,,,survey-text,325,3159265,0.0-17.0-3.9,9415,List2B,black,woman,,,,,"{""Q0"":""Kate and Ruth are arguing with each other""}","<img src=""stim_listB/argue8.gif""</stim_listB>",are arguing with each other,
null,"<div style=""font-size:60px;"">+</div>",,html-keyboard-response,326,3159766,0.0-17.0-0.10,9415,List2B,black,woman,,,,null,,,,
null,"<img src=""stim_listB/dance8.gif""</stim_listB>",,html-keyboard-response,327,3161767,0.0-17.0-1.10,9415,List2B,black,woman,,,,null,,,,
null,are dancing with each other,,html-keyboard-response,328,3163767,0.0-17.0-2.10,9415,List2B,black,woman,,,,null,,,,
24338,,,survey-text,329,3188105,0.0-17.0-3.10,9415,List2B,black,woman,,,,,"{""Q0"":""Jane and Beth are dancing with each other""}","<img src=""stim_listB/dance8.gif""</stim_listB>",are dancing with each other,
null,"<div style=""font-size:60px;"">+</div>",,html-keyboard-response,330,3188606,0.0-17.0-0.11,9415,List2B,black,woman,,,,null,,,,
null,"<img src=""stim_listB/kiss8.gif""</stim_listB>",,html-keyboard-response,331,3190606,0.0-17.0-1.11,9415,List2B,black,woman,,,,null,,,,
null,are kissing each other,,html-keyboard-response,332,3192606,0.0-17.0-2.11,9415,List2B,black,woman,,,,null,,,,
20290,,,survey-text,333,3212897,0.0-17.0-3.11,9415,List2B,black,woman,,,,,"{""Q0"":""Kate and Jane are kissing  each other""}","<img src=""stim_listB/kiss8.gif""</stim_listB>",are kissing each other,
null,"<div style=""font-size:60px;"">+</div>",,html-keyboard-response,334,3213397,0.0-17.0-0.12,9415,List2B,black,woman,,,,null,,,,
null,"<img src=""stim_listB/hug5.gif""</stim_listB>",,html-keyboard-response,335,3215394,0.0-17.0-1.12,9415,List2B,black,woman,,,,null,,,,
null,is hugging,,html-keyboard-response,336,3217394,0.0-17.0-2.12,9415,List2B,black,woman,,,,null,,,,
21203,,,survey-text,337,3238597,0.0-17.0-3.12,9415,List2B,black,woman,,,,,"{""Q0"":""Fred is hugging luke""}","<img src=""stim_listB/hug5.gif""</stim_listB>",is hugging,
null,"<div style=""font-size:60px;"">+</div>",,html-keyboard-response,338,3239099,0.0-17.0-0.13,9415,List2B,black,woman,,,,null,,,,
null,"<img src=""stim_listB/argue3.gif""</stim_listB>",,html-keyboard-response,339,3241099,0.0-17.0-1.13,9415,List2B,black,woman,,,,null,,,,
null,is arguing with,,html-keyboard-response,340,3243099,0.0-17.0-2.13,9415,List2B,black,woman,,,,null,,,,
23050,,,survey-text,341,3266150,0.0-17.0-3.13,9415,List2B,black,woman,,,,,"{""Q0"":""Mike is arguing with Beth""}","<img src=""stim_listB/argue3.gif""</stim_listB>",is arguing with,
null,"<div style=""font-size:60px;"">+</div>",,html-keyboard-response,342,3266650,0.0-17.0-0.14,9415,List2B,black,woman,,,,null,,,,
null,"<img src=""stim_listB/dance4.gif""</stim_listB>",,html-keyboard-response,343,3268650,0.0-17.0-1.14,9415,List2B,black,woman,,,,null,,,,
null,are dancing with each other,,html-keyboard-response,344,3270650,0.0-17.0-2.14,9415,List2B,black,woman,,,,null,,,,
25671,,,survey-text,345,3296322,0.0-17.0-3.14,9415,List2B,black,woman,,,,,"{""Q0"":""Beth and Mike are dancing with each other""}","<img src=""stim_listB/dance4.gif""</stim_listB>",are dancing with each other,
null,"<div style=""font-size:60px;"">+</div>",,html-keyboard-response,346,3296823,0.0-17.0-0.15,9415,List2B,black,woman,,,,null,,,,
null,"<img src=""stim_listB/shout5.gif""</stim_listB>",,html-keyboard-response,347,3298823,0.0-17.0-1.15,9415,List2B,black,woman,,,,null,,,,
null,is shouting at,,html-keyboard-response,348,3300824,0.0-17.0-2.15,9415,List2B,black,woman,,,,null,,,,
21145,,,survey-text,349,3321970,0.0-17.0-3.15,9415,List2B,black,woman,,,,,"{""Q0"":""Luke is shouting at Fred""}","<img src=""stim_listB/shout5.gif""</stim_listB>",is shouting at,
null,"<div style=""font-size:60px;"">+</div>",,html-keyboard-response,350,3322470,0.0-17.0-0.16,9415,List2B,black,woman,,,,null,,,,
null,"<img src=""stim_listB/argue5.gif""</stim_listB>",,html-keyboard-response,351,3324470,0.0-17.0-1.16,9415,List2B,black,woman,,,,null,,,,
null,is arguing with,,html-keyboard-response,352,3326471,0.0-17.0-2.16,9415,List2B,black,woman,,,,null,,,,
20200,,,survey-text,353,3346671,0.0-17.0-3.16,9415,List2B,black,woman,,,,,"{""Q0"":""Fred is arguing with Dave""}","<img src=""stim_listB/argue5.gif""</stim_listB>",is arguing with,
null,"<div style=""font-size:60px;"">+</div>",,html-keyboard-response,354,3347172,0.0-17.0-0.17,9415,List2B,black,woman,,,,null,,,,
null,"<img src=""stim_listB/fight5.gif""</stim_listB>",,html-keyboard-response,355,3349172,0.0-17.0-1.17,9415,List2B,black,woman,,,,null,,,,
null,is fighting,,html-keyboard-response,356,3351172,0.0-17.0-2.17,9415,List2B,black,woman,,,,null,,,,
26618,,,survey-text,357,3377790,0.0-17.0-3.17,9415,List2B,black,woman,,,,,"{""Q0"":""Dave is fighting Mike""}","<img src=""stim_listB/fight5.gif""</stim_listB>",is fighting,
null,"<div style=""font-size:60px;"">+</div>",,html-keyboard-response,358,3378291,0.0-17.0-0.18,9415,List2B,black,woman,,,,null,,,,
null,"<img src=""stim_listB/kiss7.gif""</stim_listB>",,html-keyboard-response,359,3380291,0.0-17.0-1.18,9415,List2B,black,woman,,,,null,,,,
null,is kissing,,html-keyboard-response,360,3382291,0.0-17.0-2.18,9415,List2B,black,woman,,,,null,,,,
15904,,,survey-text,361,3398195,0.0-17.0-3.18,9415,List2B,black,woman,,,,,"{""Q0"":""Beth is Kissing ruth""}","<img src=""stim_listB/kiss7.gif""</stim_listB>",is kissing,
null,"<div style=""font-size:60px;"">+</div>",,html-keyboard-response,362,3398696,0.0-17.0-0.19,9415,List2B,black,woman,,,,null,,,,
null,"<img src=""stim_listB/talk3.gif""</stim_listB>",,html-keyboard-response,363,3400696,0.0-17.0-1.19,9415,List2B,black,woman,,,,null,,,,
null,is talking to,,html-keyboard-response,364,3402696,0.0-17.0-2.19,9415,List2B,black,woman,,,,null,,,,
11683,,,survey-text,365,3414379,0.0-17.0-3.19,9415,List2B,black,woman,,,,,"{""Q0"":""Fred is talking to Kate""}","<img src=""stim_listB/talk3.gif""</stim_listB>",is talking to,
20687,"<img src='img/portrait_matrix_list2.JPG' style='width:900px;height:500px;''></img><p>If you have memorised all the portraits and names and are ready to start, press Continue.</p><p><strong>Please note: Your memory of these faces will be tested 4 times during this experiment.</strong></p>",0,html-button-response,366,3435067,0.0-18.0-0.0,9415,List2B,black,woman,,,,,,,,
9071,"<img src=""portrait/WM2.jpg""style=""width:400px;height:400px;""></img>",7,html-button-response,367,3445139,0.0-18.0-1.0,9415,List2B,black,woman,,TRUE,7,,,,,
null,CORRECT,,html-keyboard-response,368,3446639,0.0-18.0-2.0-0.0,9415,List2B,black,woman,,,,null,,,,
7530,"<img src=""portrait/BM2.jpg""style=""width:400px;height:400px;""></img>",5,html-button-response,369,3454171,0.0-18.0-4.0,9415,List2B,black,woman,,TRUE,5,,,,,
null,CORRECT,,html-keyboard-response,370,3455671,0.0-18.0-5.0-0.0,9415,List2B,black,woman,,,,null,,,,
1594,"<img src=""portrait/BM1.jpg""style=""width:400px;height:400px;""></img>",4,html-button-response,371,3457267,0.0-18.0-7.0,9415,List2B,black,woman,,TRUE,4,,,,,
null,CORRECT,,html-keyboard-response,372,3458764,0.0-18.0-8.0-0.0,9415,List2B,black,woman,,,,null,,,,
10363,"<img src=""portrait/WW1.jpg""style=""width:400px;height:400px;""></img>",1,html-button-response,373,3469128,0.0-18.0-10.0,9415,List2B,black,woman,,TRUE,1,,,,,
null,CORRECT,,html-keyboard-response,374,3470629,0.0-18.0-11.0-0.0,9415,List2B,black,woman,,,,null,,,,
5905,"<img src=""portrait/WM1.jpg""style=""width:400px;height:400px;""></img>",6,html-button-response,375,3476536,0.0-18.0-13.0,9415,List2B,black,woman,,TRUE,6,,,,,
null,CORRECT,,html-keyboard-response,376,3478036,0.0-18.0-14.0-0.0,9415,List2B,black,woman,,,,null,,,,
5322,"<img src=""portrait/WW2.jpg""style=""width:400px;height:400px;""></img>",3,html-button-response,377,3483359,0.0-18.0-16.0,9415,List2B,black,woman,,TRUE,3,,,,,
null,CORRECT,,html-keyboard-response,378,3484860,0.0-18.0-17.0-0.0,9415,List2B,black,woman,,,,null,,,,
2635,"<img src=""portrait/BW2.jpg""style=""width:400px;height:400px;""></img>",2,html-button-response,379,3487496,0.0-18.0-19.0,9415,List2B,black,woman,,TRUE,2,,,,,
null,CORRECT,,html-keyboard-response,380,3488997,0.0-18.0-20.0-0.0,9415,List2B,black,woman,,,,null,,,,
6489,"<img src=""portrait/BW1.jpg""style=""width:400px;height:400px;""></img>",0,html-button-response,381,3495488,0.0-18.0-22.0,9415,List2B,black,woman,,TRUE,0,,,,,
null,CORRECT,,html-keyboard-response,382,3496988,0.0-18.0-23.0-0.0,9415,List2B,black,woman,,,,null,,,,
3338,<p>You got 8 out of 8 right first time. Press Continue.</p>,0,html-button-response,383,3500327,0.0-18.0-25.0,9415,List2B,black,woman,,,,,,,,
null,"<div style=""font-size:60px;"">+</div>",,html-keyboard-response,384,3501828,0.0-19.0-0.0,9415,List2B,black,woman,,,,null,,,,
null,"<img src=""stim_listB/touch6.gif""</stim_listB>",,html-keyboard-response,385,3503828,0.0-19.0-1.0,9415,List2B,black,woman,,,,null,,,,
null,are touching each other,,html-keyboard-response,386,3505828,0.0-19.0-2.0,9415,List2B,black,woman,,,,null,,,,
18759,,,survey-text,387,3524588,0.0-19.0-3.0,9415,List2B,black,woman,,,,,"{""Q0"":""Fred and Luke are touching  each other""}","<img src=""stim_listB/touch6.gif""</stim_listB>",are touching each other,
null,"<div style=""font-size:60px;"">+</div>",,html-keyboard-response,388,3525089,0.0-19.0-0.1,9415,List2B,black,woman,,,,null,,,,
null,"<img src=""stim_listB/shout1.gif""</stim_listB>",,html-keyboard-response,389,3527089,0.0-19.0-1.1,9415,List2B,black,woman,,,,null,,,,
null,is shouting at,,html-keyboard-response,390,3529089,0.0-19.0-2.1,9415,List2B,black,woman,,,,null,,,,
25291,,,survey-text,391,3554380,0.0-19.0-3.1,9415,List2B,black,woman,,,,,"{""Q0"":""Luke and Ruth are shouting at each other""}","<img src=""stim_listB/shout1.gif""</stim_listB>",is shouting at,
null,"<div style=""font-size:60px;"">+</div>",,html-keyboard-response,392,3554881,0.0-19.0-0.2,9415,List2B,black,woman,,,,null,,,,
null,"<img src=""stim_listB/meet8.gif""</stim_listB>",,html-keyboard-response,393,3556883,0.0-19.0-1.2,9415,List2B,black,woman,,,,null,,,,
null,are meeting each other,,html-keyboard-response,394,3558884,0.0-19.0-2.2,9415,List2B,black,woman,,,,null,,,,
35876,,,survey-text,395,3594761,0.0-19.0-3.2,9415,List2B,black,woman,,,,,"{""Q0"":""Beth and Ruth are meeting each other""}","<img src=""stim_listB/meet8.gif""</stim_listB>",are meeting each other,
null,"<div style=""font-size:60px;"">+</div>",,html-keyboard-response,396,3595261,0.0-19.0-0.3,9415,List2B,black,woman,,,,null,,,,
null,"<img src=""stim_listB/hug7.gif""</stim_listB>",,html-keyboard-response,397,3597261,0.0-19.0-1.3,9415,List2B,black,woman,,,,null,,,,
null,is hugging,,html-keyboard-response,398,3599261,0.0-19.0-2.3,9415,List2B,black,woman,,,,null,,,,
25492,,,survey-text,399,3624753,0.0-19.0-3.3,9415,List2B,black,woman,,,,,"{""Q0"":""Ruth is hugging Beth""}","<img src=""stim_listB/hug7.gif""</stim_listB>",is hugging,
null,"<div style=""font-size:60px;"">+</div>",,html-keyboard-response,400,3625254,0.0-19.0-0.4,9415,List2B,black,woman,,,,null,,,,
null,"<img src=""stim_listB/argue2.gif""</stim_listB>",,html-keyboard-response,401,3627254,0.0-19.0-1.4,9415,List2B,black,woman,,,,null,,,,
null,are arguing with each other,,html-keyboard-response,402,3629254,0.0-19.0-2.4,9415,List2B,black,woman,,,,null,,,,
23271,,,survey-text,403,3652525,0.0-19.0-3.4,9415,List2B,black,woman,,,,,"{""Q0"":""jane and Luke are arguing with each other""}","<img src=""stim_listB/argue2.gif""</stim_listB>",are arguing with each other,
null,"<div style=""font-size:60px;"">+</div>",,html-keyboard-response,404,3653026,0.0-19.0-0.5,9415,List2B,black,woman,,,,null,,,,
null,"<img src=""stim_listB/talk5.gif""</stim_listB>",,html-keyboard-response,405,3655026,0.0-19.0-1.5,9415,List2B,black,woman,,,,null,,,,
null,is talking to,,html-keyboard-response,406,3657026,0.0-19.0-2.5,9415,List2B,black,woman,,,,null,,,,
12315,,,survey-text,407,3669342,0.0-19.0-3.5,9415,List2B,black,woman,,,,,"{""Q0"":""luke is talking to mike""}","<img src=""stim_listB/talk5.gif""</stim_listB>",is talking to,
null,"<div style=""font-size:60px;"">+</div>",,html-keyboard-response,408,3669842,0.0-19.0-0.6,9415,List2B,black,woman,,,,null,,,,
null,"<img src=""stim_listB/marry5.gif""</stim_listB>",,html-keyboard-response,409,3671842,0.0-19.0-1.6,9415,List2B,black,woman,,,,null,,,,
null,is marrying,,html-keyboard-response,410,3673842,0.0-19.0-2.6,9415,List2B,black,woman,,,,null,,,,
17323,,,survey-text,411,3691165,0.0-19.0-3.6,9415,List2B,black,woman,,,,,"{""Q0"":""Fred is marrying Dave""}","<img src=""stim_listB/marry5.gif""</stim_listB>",is marrying,
null,"<div style=""font-size:60px;"">+</div>",,html-keyboard-response,412,3691666,0.0-19.0-0.7,9415,List2B,black,woman,,,,null,,,,
null,"<img src=""stim_listB/hug8.gif""</stim_listB>",,html-keyboard-response,413,3693667,0.0-19.0-1.7,9415,List2B,black,woman,,,,null,,,,
null,are hugging each other,,html-keyboard-response,414,3695668,0.0-19.0-2.7,9415,List2B,black,woman,,,,null,,,,
21124,,,survey-text,415,3716794,0.0-19.0-3.7,9415,List2B,black,woman,,,,,"{""Q0"":""Kate and Jane are hugging each other""}","<img src=""stim_listB/hug8.gif""</stim_listB>",are hugging each other,
null,"<div style=""font-size:60px;"">+</div>",,html-keyboard-response,416,3717295,0.0-19.0-0.8,9415,List2B,black,woman,,,,null,,,,
null,"<img src=""stim_listB/hug3.gif""</stim_listB>",,html-keyboard-response,417,3719295,0.0-19.0-1.8,9415,List2B,black,woman,,,,null,,,,
null,is hugging,,html-keyboard-response,418,3721295,0.0-19.0-2.8,9415,List2B,black,woman,,,,null,,,,
14579,,,survey-text,419,3735874,0.0-19.0-3.8,9415,List2B,black,woman,,,,,"{""Q0"":""Fred is hugging beth""}","<img src=""stim_listB/hug3.gif""</stim_listB>",is hugging,
null,"<div style=""font-size:60px;"">+</div>",,html-keyboard-response,420,3736375,0.0-19.0-0.9,9415,List2B,black,woman,,,,null,,,,
null,"<img src=""stim_listB/talk8.gif""</stim_listB>",,html-keyboard-response,421,3738375,0.0-19.0-1.9,9415,List2B,black,woman,,,,null,,,,
null,are talking to each other,,html-keyboard-response,422,3740375,0.0-19.0-2.9,9415,List2B,black,woman,,,,null,,,,
19938,,,survey-text,423,3760314,0.0-19.0-3.9,9415,List2B,black,woman,,,,,"{""Q0"":""Jane and beth are talking to each other""}","<img src=""stim_listB/talk8.gif""</stim_listB>",are talking to each other,
null,"<div style=""font-size:60px;"">+</div>",,html-keyboard-response,424,3760814,0.0-19.0-0.10,9415,List2B,black,woman,,,,null,,,,
null,"<img src=""stim_listB/fight7.gif""</stim_listB>",,html-keyboard-response,425,3762811,0.0-19.0-1.10,9415,List2B,black,woman,,,,null,,,,
null,is fighting,,html-keyboard-response,426,3764811,0.0-19.0-2.10,9415,List2B,black,woman,,,,null,,,,
17628,,,survey-text,427,3782439,0.0-19.0-3.10,9415,List2B,black,woman,,,,,"{""Q0"":""Kate is fighting jane""}","<img src=""stim_listB/fight7.gif""</stim_listB>",is fighting,
null,"<div style=""font-size:60px;"">+</div>",,html-keyboard-response,428,3782940,0.0-19.0-0.11,9415,List2B,black,woman,,,,null,,,,
null,"<img src=""stim_listB/hug6.gif""</stim_listB>",,html-keyboard-response,429,3784940,0.0-19.0-1.11,9415,List2B,black,woman,,,,null,,,,
null,are hugging each other,,html-keyboard-response,430,3786940,0.0-19.0-2.11,9415,List2B,black,woman,,,,null,,,,
23370,,,survey-text,431,3810310,0.0-19.0-3.11,9415,List2B,black,woman,,,,,"{""Q0"":""Mike and Dave is hugging each other""}","<img src=""stim_listB/hug6.gif""</stim_listB>",are hugging each other,
null,"<div style=""font-size:60px;"">+</div>",,html-keyboard-response,432,3810811,0.0-19.0-0.12,9415,List2B,black,woman,,,,null,,,,
null,"<img src=""stim_listB/marry4.gif""</stim_listB>",,html-keyboard-response,433,3812811,0.0-19.0-1.12,9415,List2B,black,woman,,,,null,,,,
null,are marrying each other,,html-keyboard-response,434,3814811,0.0-19.0-2.12,9415,List2B,black,woman,,,,null,,,,
26454,,,survey-text,435,3841267,0.0-19.0-3.12,9415,List2B,black,woman,,,,,"{""Q0"":""Kate and Fred are marrying each other""}","<img src=""stim_listB/marry4.gif""</stim_listB>",are marrying each other,
null,"<div style=""font-size:60px;"">+</div>",,html-keyboard-response,436,3841767,0.0-19.0-0.13,9415,List2B,black,woman,,,,null,,,,
null,"<img src=""stim_listB/talk2.gif""</stim_listB>",,html-keyboard-response,437,3843767,0.0-19.0-1.13,9415,List2B,black,woman,,,,null,,,,
null,are talking to each other,,html-keyboard-response,438,3845767,0.0-19.0-2.13,9415,List2B,black,woman,,,,null,,,,
37760,,,survey-text,439,3883527,0.0-19.0-3.13,9415,List2B,black,woman,,,,,"{""Q0"":""Dave and Ruth are talking to each other""}","<img src=""stim_listB/talk2.gif""</stim_listB>",are talking to each other,
null,"<div style=""font-size:60px;"">+</div>",,html-keyboard-response,440,3884028,0.0-19.0-0.14,9415,List2B,black,woman,,,,null,,,,
null,"<img src=""stim_listB/dance7.gif""</stim_listB>",,html-keyboard-response,441,3886028,0.0-19.0-1.14,9415,List2B,black,woman,,,,null,,,,
null,is dancing with,,html-keyboard-response,442,3888028,0.0-19.0-2.14,9415,List2B,black,woman,,,,null,,,,
20219,,,survey-text,443,3908248,0.0-19.0-3.14,9415,List2B,black,woman,,,,,"{""Q0"":""Kate is dancing with Ruth""}","<img src=""stim_listB/dance7.gif""</stim_listB>",is dancing with,
null,"<div style=""font-size:60px;"">+</div>",,html-keyboard-response,444,3908748,0.0-19.0-0.15,9415,List2B,black,woman,,,,null,,,,
null,"<img src=""stim_listB/fight3.gif""</stim_listB>",,html-keyboard-response,445,3910748,0.0-19.0-1.15,9415,List2B,black,woman,,,,null,,,,
null,is fighting,,html-keyboard-response,446,3912748,0.0-19.0-2.15,9415,List2B,black,woman,,,,null,,,,
9396,,,survey-text,447,3922144,0.0-19.0-3.15,9415,List2B,black,woman,,,,,"{""Q0"":""Kate is fighting Mike""}","<img src=""stim_listB/fight3.gif""</stim_listB>",is fighting,
null,"<div style=""font-size:60px;"">+</div>",,html-keyboard-response,448,3922645,0.0-19.0-0.16,9415,List2B,black,woman,,,,null,,,,
null,"<img src=""stim_listB/touch3.gif""</stim_listB>",,html-keyboard-response,449,3924645,0.0-19.0-1.16,9415,List2B,black,woman,,,,null,,,,
null,is touching,,html-keyboard-response,450,3926645,0.0-19.0-2.16,9415,List2B,black,woman,,,,null,,,,
11891,,,survey-text,451,3938536,0.0-19.0-3.16,9415,List2B,black,woman,,,,,"{""Q0"":""kate is touching Mike""}","<img src=""stim_listB/touch3.gif""</stim_listB>",is touching,
null,"<div style=""font-size:60px;"">+</div>",,html-keyboard-response,452,3939037,0.0-19.0-0.17,9415,List2B,black,woman,,,,null,,,,
null,"<img src=""stim_listB/talk7.gif""</stim_listB>",,html-keyboard-response,453,3941037,0.0-19.0-1.17,9415,List2B,black,woman,,,,null,,,,
null,is talking to,,html-keyboard-response,454,3943037,0.0-19.0-2.17,9415,List2B,black,woman,,,,null,,,,
20447,,,survey-text,455,3963484,0.0-19.0-3.17,9415,List2B,black,woman,,,,,"{""Q0"":""Kate is talking to Ruth""}","<img src=""stim_listB/talk7.gif""</stim_listB>",is talking to,
null,"<div style=""font-size:60px;"">+</div>",,html-keyboard-response,456,3963985,0.0-19.0-0.18,9415,List2B,black,woman,,,,null,,,,
null,"<img src=""stim_listB/marry8.gif""</stim_listB>",,html-keyboard-response,457,3965985,0.0-19.0-1.18,9415,List2B,black,woman,,,,null,,,,
null,are marrying each other,,html-keyboard-response,458,3967985,0.0-19.0-2.18,9415,List2B,black,woman,,,,null,,,,
19114,,,survey-text,459,3987099,0.0-19.0-3.18,9415,List2B,black,woman,,,,,"{""Q0"":""kate and Ruth are marrying each other""}","<img src=""stim_listB/marry8.gif""</stim_listB>",are marrying each other,
null,"<div style=""font-size:60px;"">+</div>",,html-keyboard-response,460,3987600,0.0-19.0-0.19,9415,List2B,black,woman,,,,null,,,,
null,"<img src=""stim_listB/marry3.gif""</stim_listB>",,html-keyboard-response,461,3989600,0.0-19.0-1.19,9415,List2B,black,woman,,,,null,,,,
null,is marrying,,html-keyboard-response,462,3991600,0.0-19.0-2.19,9415,List2B,black,woman,,,,null,,,,
21729,,,survey-text,463,4013329,0.0-19.0-3.19,9415,List2B,black,woman,,,,,"{""Q0"":""Mike is marrying Beth""}","<img src=""stim_listB/marry3.gif""</stim_listB>",is marrying,
3622,<p>Thank you for completing that task.</p><p>The final part of this session is a short questionnaire.</p><p>Press Continue.</p>,0,html-button-response,464,4016953,0.0-20.0,9415,List2B,black,woman,,,,,,,,
31040,,,survey-text,465,4048993,0.0-21.0,9415,List2B,black,woman,,,,,"{""Q0"":""40"",""Q1"":""English"",""Q2"":""English"",""Q3"":""uk"",""Q4"":""white"",""Q5"":""female""}",,,demographics
54633,,,survey-likert,466,4103636,0.0-22.0,9415,List2B,black,woman,,,,,"{""Q0"":6,""Q1"":6,""Q2"":6,""Q3"":6,""Q4"":6,""Q5"":6,""Q6"":6,""Q7"":6,""Q8"":6,""Q9"":6,""Q10"":6,""Q11"":6,""Q12"":6,""Q13"":6}",,,likert_race
31021,,,survey-likert,467,4134673,0.0-23.0,9415,List2B,black,woman,,,,,"{""Q0"":6,""Q1"":6,""Q2"":6,""Q3"":6,""Q4"":6,""Q5"":6,""Q6"":6,""Q7"":6,""Q8"":6,""Q9"":6,""Q10"":6,""Q11"":6,""Q12"":6,""Q13"":6}",,,likert_gender
5240,,,survey-text,468,4139922,0.0-24.0,9415,List2B,black,woman,,,,,"{""Q0"":""ccc""}",,,worker_id
18164,,,external-html,469,4158146,0.0-25.0,9415,List2B,black,woman,debrief.html,,,,,,,
