rt,stimulus,button_pressed,trial_type,trial_index,time_elapsed,internal_node_id,subject,list,ppt_race,ppt_gender,url,first_guess,correct,key_press,responses,image_type,phrase_type,test_part
5840,Welcome to the experiment. Press Continue to begin.,0,html-button-response,0,5865,0.0-0.0,94164,List2B,black,woman,,,,,,,,
42340,,,external-html,1,49502,0.0-1.0,94164,List2B,black,woman,consent.html,,,,,,,
13170,"<p>On the next page, you will see portraits of 8 people and their names.</p><p>Your first task is to take a few minutes to memorise the names of these people.</p><p>You will have to recall their names during the rest of the experiment, so it is</p><p>essential that you try to memorise these people and their names as best as you can.</p><br><p><strong>You will then be tested on your memory of these names and portraits.</strong></p><br><p>The experiment will start after you have completed this memory test.</p><br><p>Ready?</p>",0,html-button-response,2,62679,0.0-2.0,94164,List2B,black,woman,,,,,,,,
86279,"<img src='img/portrait_matrix_list2.JPG' style='width:900px;height:500px;''></img><p>If you have memorised all the portraits and names and are ready to start, press Continue.</p><p><strong>Please note: Your memory of these faces will be tested 4 times during this experiment.</strong></p>",0,html-button-response,3,149972,0.0-3.0-0.0,94164,List2B,black,woman,,,,,,,,
3246,"<img src=""portrait/BM1.jpg""style=""width:400px;height:400px;""></img>",4,html-button-response,4,154230,0.0-3.0-1.0,94164,List2B,black,woman,,TRUE,4,,,,,
null,CORRECT,,html-keyboard-response,5,155741,0.0-3.0-2.0-0.0,94164,List2B,black,woman,,,,null,,,,
3497,"<img src=""portrait/WM1.jpg""style=""width:400px;height:400px;""></img>",6,html-button-response,6,159244,0.0-3.0-4.0,94164,List2B,black,woman,,TRUE,6,,,,,
null,CORRECT,,html-keyboard-response,7,160748,0.0-3.0-5.0-0.0,94164,List2B,black,woman,,,,null,,,,
1935,"<img src=""portrait/WM2.jpg""style=""width:400px;height:400px;""></img>",7,html-button-response,8,162688,0.0-3.0-7.0,94164,List2B,black,woman,,TRUE,7,,,,,
null,CORRECT,,html-keyboard-response,9,164195,0.0-3.0-8.0-0.0,94164,List2B,black,woman,,,,null,,,,
2021,"<img src=""portrait/BM2.jpg""style=""width:400px;height:400px;""></img>",5,html-button-response,10,166224,0.0-3.0-10.0,94164,List2B,black,woman,,TRUE,5,,,,,
null,CORRECT,,html-keyboard-response,11,167728,0.0-3.0-11.0-0.0,94164,List2B,black,woman,,,,null,,,,
2793,"<img src=""portrait/WW1.jpg""style=""width:400px;height:400px;""></img>",1,html-button-response,12,170526,0.0-3.0-13.0,94164,List2B,black,woman,,TRUE,1,,,,,
null,CORRECT,,html-keyboard-response,13,172033,0.0-3.0-14.0-0.0,94164,List2B,black,woman,,,,null,,,,
2067,"<img src=""portrait/WW2.jpg""style=""width:400px;height:400px;""></img>",3,html-button-response,14,174103,0.0-3.0-16.0,94164,List2B,black,woman,,TRUE,3,,,,,
null,CORRECT,,html-keyboard-response,15,175607,0.0-3.0-17.0-0.0,94164,List2B,black,woman,,,,null,,,,
6460,"<img src=""portrait/BW1.jpg""style=""width:400px;height:400px;""></img>",0,html-button-response,16,182071,0.0-3.0-19.0,94164,List2B,black,woman,,TRUE,0,,,,,
null,CORRECT,,html-keyboard-response,17,183575,0.0-3.0-20.0-0.0,94164,List2B,black,woman,,,,null,,,,
2580,"<img src=""portrait/BW2.jpg""style=""width:400px;height:400px;""></img>",2,html-button-response,18,186159,0.0-3.0-22.0,94164,List2B,black,woman,,TRUE,2,,,,,
null,CORRECT,,html-keyboard-response,19,187667,0.0-3.0-23.0-0.0,94164,List2B,black,woman,,,,null,,,,
1863,<p>You got 8 out of 8 right first time. Press Continue.</p>,0,html-button-response,20,189534,0.0-3.0-25.0,94164,List2B,black,woman,,,,,,,,
36269,"<p>In this experiment, you will view photographs of the people from the memory game interacting.</p><p>By using the <strong>exact</strong> phrase given <i>after</i> the photograph appears and recalling the correct names of the people in the photographs, form a sentence describing the interaction. You do not need to capitalise names.</p><p>Type your answer in the space provided. Please complete every sentence before moving onto the next trial.</p><p>You will only have a few seconds to memorise each given photograph and phrase before you can respond, so try your best to focus.</p><p>An example is given below. Press 'Continue' when you are ready.</p><img src='img/speaking_example_v2.jpg' style='width:800px;height:460px;''></img>",0,html-button-response,21,226814,0.0-4.0,94164,List2B,black,woman,,,,,,,,
2391,"<p>Before the experiment starts, you will watch two example trials. Press 'Continue'.</p>",0,html-button-response,22,230210,0.0-5.0,94164,List2B,black,woman,,,,,,,,
null,<img src='img/speaking_WW.gif'></img>,,html-keyboard-response,23,233216,0.0-6.0,94164,List2B,black,woman,,,,null,,,,
null,<p>is speaking to</p>,,html-keyboard-response,24,235218,0.0-7.0,94164,List2B,black,woman,,,,null,,,,
2562,<p><b>Answer:</b> jane is speaking to ruth</p>,0,html-button-response,25,237781,0.0-8.0,94164,List2B,black,woman,,,,,,,,
null,<img src='img/pointing_BM.gif'></img>,,html-keyboard-response,26,240787,0.0-9.0,94164,List2B,black,woman,,,,null,,,,
null,<p>are pointing at each other</p>,,html-keyboard-response,27,242790,0.0-10.0,94164,List2B,black,woman,,,,null,,,,
2419,<p><b>Answer:</b> fred and mike are pointing at each other</p>,0,html-button-response,28,245212,0.0-11.0,94164,List2B,black,woman,,,,,,,,
7054,"<p>Ready to start the experiment?</p><br><p><strong>Remember to describe the picture using a full sentence,</strong></p><p><strong>that combines the names of the people with the given phrase.</strong></p><p><strong>If you do not do this correctly you will not be paid.</strong></p><p><strong> You do not need to capitalise names or use punctuation.</strong></p><br><p>Press 'Continue' to begin.</p>",0,html-button-response,29,253272,0.0-12.0,94164,List2B,black,woman,,,,,,,,
null,"<div style=""font-size:60px;"">+</div>",,html-keyboard-response,30,254776,0.0-13.0-0.0,94164,List2B,black,woman,,,,null,,,,
null,"<img src=""stim_listB/fight7.gif""</stim_listB>",,html-keyboard-response,31,256783,0.0-13.0-1.0,94164,List2B,black,woman,,,,null,,,,
null,is fighting,,html-keyboard-response,32,258786,0.0-13.0-2.0,94164,List2B,black,woman,,,,null,,,,
9038,,,survey-text,33,267830,0.0-13.0-3.0,94164,List2B,black,woman,,,,,"{""Q0"":""Kate is fighting Jane""}","<img src=""stim_listB/fight7.gif""</stim_listB>",is fighting,
null,"<div style=""font-size:60px;"">+</div>",,html-keyboard-response,34,268337,0.0-13.0-0.1,94164,List2B,black,woman,,,,null,,,,
null,"<img src=""stim_listB/hug8.gif""</stim_listB>",,html-keyboard-response,35,270342,0.0-13.0-1.1,94164,List2B,black,woman,,,,null,,,,
null,are hugging each other,,html-keyboard-response,36,272346,0.0-13.0-2.1,94164,List2B,black,woman,,,,null,,,,
8251,,,survey-text,37,280600,0.0-13.0-3.1,94164,List2B,black,woman,,,,,"{""Q0"":""Kate and Jane are hugging each other""}","<img src=""stim_listB/hug8.gif""</stim_listB>",are hugging each other,
null,"<div style=""font-size:60px;"">+</div>",,html-keyboard-response,38,281105,0.0-13.0-0.2,94164,List2B,black,woman,,,,null,,,,
null,"<img src=""stim_listB/talk3.gif""</stim_listB>",,html-keyboard-response,39,283108,0.0-13.0-1.2,94164,List2B,black,woman,,,,null,,,,
null,is talking to,,html-keyboard-response,40,285110,0.0-13.0-2.2,94164,List2B,black,woman,,,,null,,,,
13097,,,survey-text,41,298210,0.0-13.0-3.2,94164,List2B,black,woman,,,,,"{""Q0"":""Kate is talking to Fred""}","<img src=""stim_listB/talk3.gif""</stim_listB>",is talking to,
null,"<div style=""font-size:60px;"">+</div>",,html-keyboard-response,42,298715,0.0-13.0-0.3,94164,List2B,black,woman,,,,null,,,,
null,"<img src=""stim_listB/shout8.gif""</stim_listB>",,html-keyboard-response,43,300718,0.0-13.0-1.3,94164,List2B,black,woman,,,,null,,,,
null,are shouting at each other,,html-keyboard-response,44,302721,0.0-13.0-2.3,94164,List2B,black,woman,,,,null,,,,
8943,,,survey-text,45,311667,0.0-13.0-3.3,94164,List2B,black,woman,,,,,"{""Q0"":""Kate and Jane are shouting at each other""}","<img src=""stim_listB/shout8.gif""</stim_listB>",are shouting at each other,
null,"<div style=""font-size:60px;"">+</div>",,html-keyboard-response,46,312171,0.0-13.0-0.4,94164,List2B,black,woman,,,,null,,,,
null,"<img src=""stim_listB/meet1.gif""</stim_listB>",,html-keyboard-response,47,314175,0.0-13.0-1.4,94164,List2B,black,woman,,,,null,,,,
null,is meeting,,html-keyboard-response,48,316176,0.0-13.0-2.4,94164,List2B,black,woman,,,,null,,,,
7858,,,survey-text,49,324035,0.0-13.0-3.4,94164,List2B,black,woman,,,,,"{""Q0"":""Jane is meeting Dave""}","<img src=""stim_listB/meet1.gif""</stim_listB>",is meeting,
null,"<div style=""font-size:60px;"">+</div>",,html-keyboard-response,50,324539,0.0-13.0-0.5,94164,List2B,black,woman,,,,null,,,,
null,"<img src=""stim_listB/hug1.gif""</stim_listB>",,html-keyboard-response,51,326543,0.0-13.0-1.5,94164,List2B,black,woman,,,,null,,,,
null,is hugging,,html-keyboard-response,52,328547,0.0-13.0-2.5,94164,List2B,black,woman,,,,null,,,,
7429,,,survey-text,53,335981,0.0-13.0-3.5,94164,List2B,black,woman,,,,,"{""Q0"":""Luke is hugging Ruth""}","<img src=""stim_listB/hug1.gif""</stim_listB>",is hugging,
null,"<div style=""font-size:60px;"">+</div>",,html-keyboard-response,54,336486,0.0-13.0-0.6,94164,List2B,black,woman,,,,null,,,,
null,"<img src=""stim_listB/touch8.gif""</stim_listB>",,html-keyboard-response,55,338492,0.0-13.0-1.6,94164,List2B,black,woman,,,,null,,,,
null,are touching each other,,html-keyboard-response,56,340495,0.0-13.0-2.6,94164,List2B,black,woman,,,,null,,,,
13384,,,survey-text,57,353885,0.0-13.0-3.6,94164,List2B,black,woman,,,,,"{""Q0"":""Beth and Ruth are touching each other""}","<img src=""stim_listB/touch8.gif""</stim_listB>",are touching each other,
null,"<div style=""font-size:60px;"">+</div>",,html-keyboard-response,58,354387,0.0-13.0-0.7,94164,List2B,black,woman,,,,null,,,,
null,"<img src=""stim_listB/talk2.gif""</stim_listB>",,html-keyboard-response,59,356394,0.0-13.0-1.7,94164,List2B,black,woman,,,,null,,,,
null,are talking to each other,,html-keyboard-response,60,358398,0.0-13.0-2.7,94164,List2B,black,woman,,,,null,,,,
9801,,,survey-text,61,368205,0.0-13.0-3.7,94164,List2B,black,woman,,,,,"{""Q0"":""Dave and Ruth are talking to each other""}","<img src=""stim_listB/talk2.gif""</stim_listB>",are talking to each other,
null,"<div style=""font-size:60px;"">+</div>",,html-keyboard-response,62,368711,0.0-13.0-0.8,94164,List2B,black,woman,,,,null,,,,
null,"<img src=""stim_listB/meet6.gif""</stim_listB>",,html-keyboard-response,63,370714,0.0-13.0-1.8,94164,List2B,black,woman,,,,null,,,,
null,are meeting each other,,html-keyboard-response,64,372717,0.0-13.0-2.8,94164,List2B,black,woman,,,,null,,,,
9730,,,survey-text,65,382451,0.0-13.0-3.8,94164,List2B,black,woman,,,,,"{""Q0"":""Fred and Luke are meeting each other""}","<img src=""stim_listB/meet6.gif""</stim_listB>",are meeting each other,
null,"<div style=""font-size:60px;"">+</div>",,html-keyboard-response,66,382954,0.0-13.0-0.9,94164,List2B,black,woman,,,,null,,,,
null,"<img src=""stim_listB/argue7.gif""</stim_listB>",,html-keyboard-response,67,384959,0.0-13.0-1.9,94164,List2B,black,woman,,,,null,,,,
null,is arguing with,,html-keyboard-response,68,386962,0.0-13.0-2.9,94164,List2B,black,woman,,,,null,,,,
9266,,,survey-text,69,396231,0.0-13.0-3.9,94164,List2B,black,woman,,,,,"{""Q0"":""Jane is arguing with Beth""}","<img src=""stim_listB/argue7.gif""</stim_listB>",is arguing with,
null,"<div style=""font-size:60px;"">+</div>",,html-keyboard-response,70,396736,0.0-13.0-0.10,94164,List2B,black,woman,,,,null,,,,
null,"<img src=""stim_listB/kiss7.gif""</stim_listB>",,html-keyboard-response,71,398740,0.0-13.0-1.10,94164,List2B,black,woman,,,,null,,,,
null,is kissing,,html-keyboard-response,72,400742,0.0-13.0-2.10,94164,List2B,black,woman,,,,null,,,,
5977,,,survey-text,73,406721,0.0-13.0-3.10,94164,List2B,black,woman,,,,,"{""Q0"":""Beth is kissing Ruth""}","<img src=""stim_listB/kiss7.gif""</stim_listB>",is kissing,
null,"<div style=""font-size:60px;"">+</div>",,html-keyboard-response,74,407225,0.0-13.0-0.11,94164,List2B,black,woman,,,,null,,,,
null,"<img src=""stim_listB/hug5.gif""</stim_listB>",,html-keyboard-response,75,409227,0.0-13.0-1.11,94164,List2B,black,woman,,,,null,,,,
null,is hugging,,html-keyboard-response,76,411229,0.0-13.0-2.11,94164,List2B,black,woman,,,,null,,,,
5945,,,survey-text,77,417177,0.0-13.0-3.11,94164,List2B,black,woman,,,,,"{""Q0"":""Fred is hugging Luke""}","<img src=""stim_listB/hug5.gif""</stim_listB>",is hugging,
null,"<div style=""font-size:60px;"">+</div>",,html-keyboard-response,78,417684,0.0-13.0-0.12,94164,List2B,black,woman,,,,null,,,,
null,"<img src=""stim_listB/hug3.gif""</stim_listB>",,html-keyboard-response,79,419690,0.0-13.0-1.12,94164,List2B,black,woman,,,,null,,,,
null,is hugging,,html-keyboard-response,80,421694,0.0-13.0-2.12,94164,List2B,black,woman,,,,null,,,,
6769,,,survey-text,81,428470,0.0-13.0-3.12,94164,List2B,black,woman,,,,,"{""Q0"":""Fred is hugging Beth""}","<img src=""stim_listB/hug3.gif""</stim_listB>",is hugging,
null,"<div style=""font-size:60px;"">+</div>",,html-keyboard-response,82,428976,0.0-13.0-0.13,94164,List2B,black,woman,,,,null,,,,
null,"<img src=""stim_listB/shout2.gif""</stim_listB>",,html-keyboard-response,83,430983,0.0-13.0-1.13,94164,List2B,black,woman,,,,null,,,,
null,are shouting at each other,,html-keyboard-response,84,432988,0.0-13.0-2.13,94164,List2B,black,woman,,,,null,,,,
10290,,,survey-text,85,443282,0.0-13.0-3.13,94164,List2B,black,woman,,,,,"{""Q0"":""Jane and Dave are shouting at each other""}","<img src=""stim_listB/shout2.gif""</stim_listB>",are shouting at each other,
null,"<div style=""font-size:60px;"">+</div>",,html-keyboard-response,86,443786,0.0-13.0-0.14,94164,List2B,black,woman,,,,null,,,,
null,"<img src=""stim_listB/talk4.gif""</stim_listB>",,html-keyboard-response,87,445787,0.0-13.0-1.14,94164,List2B,black,woman,,,,null,,,,
null,are talking to each other,,html-keyboard-response,88,447789,0.0-13.0-2.14,94164,List2B,black,woman,,,,null,,,,
11757,,,survey-text,89,459549,0.0-13.0-3.14,94164,List2B,black,woman,,,,,"{""Q0"":""Mike and Beth are talking to each other""}","<img src=""stim_listB/talk4.gif""</stim_listB>",are talking to each other,
null,"<div style=""font-size:60px;"">+</div>",,html-keyboard-response,90,460054,0.0-13.0-0.15,94164,List2B,black,woman,,,,null,,,,
null,"<img src=""stim_listB/dance3.gif""</stim_listB>",,html-keyboard-response,91,462057,0.0-13.0-1.15,94164,List2B,black,woman,,,,null,,,,
null,is dancing with,,html-keyboard-response,92,464061,0.0-13.0-2.15,94164,List2B,black,woman,,,,null,,,,
6977,,,survey-text,93,471042,0.0-13.0-3.15,94164,List2B,black,woman,,,,,"{""Q0"":""Kate is dancing with Fred""}","<img src=""stim_listB/dance3.gif""</stim_listB>",is dancing with,
null,"<div style=""font-size:60px;"">+</div>",,html-keyboard-response,94,471546,0.0-13.0-0.16,94164,List2B,black,woman,,,,null,,,,
null,"<img src=""stim_listB/meet7.gif""</stim_listB>",,html-keyboard-response,95,473549,0.0-13.0-1.16,94164,List2B,black,woman,,,,null,,,,
null,is meeting,,html-keyboard-response,96,475550,0.0-13.0-2.16,94164,List2B,black,woman,,,,null,,,,
7627,,,survey-text,97,483180,0.0-13.0-3.16,94164,List2B,black,woman,,,,,"{""Q0"":""Kate is meeting Jane""}","<img src=""stim_listB/meet7.gif""</stim_listB>",is meeting,
null,"<div style=""font-size:60px;"">+</div>",,html-keyboard-response,98,483683,0.0-13.0-0.17,94164,List2B,black,woman,,,,null,,,,
null,"<img src=""stim_listB/dance5.gif""</stim_listB>",,html-keyboard-response,99,485686,0.0-13.0-1.17,94164,List2B,black,woman,,,,null,,,,
null,is dancing with,,html-keyboard-response,100,487692,0.0-13.0-2.17,94164,List2B,black,woman,,,,null,,,,
9745,,,survey-text,101,497441,0.0-13.0-3.17,94164,List2B,black,woman,,,,,"{""Q0"":""Mike is dancing with Luke""}","<img src=""stim_listB/dance5.gif""</stim_listB>",is dancing with,
null,"<div style=""font-size:60px;"">+</div>",,html-keyboard-response,102,497948,0.0-13.0-0.18,94164,List2B,black,woman,,,,null,,,,
null,"<img src=""stim_listB/dance1.gif""</stim_listB>",,html-keyboard-response,103,499951,0.0-13.0-1.18,94164,List2B,black,woman,,,,null,,,,
null,is dancing with,,html-keyboard-response,104,501957,0.0-13.0-2.18,94164,List2B,black,woman,,,,null,,,,
8946,,,survey-text,105,510906,0.0-13.0-3.18,94164,List2B,black,woman,,,,,"{""Q0"":""Luke is dancing with Jane""}","<img src=""stim_listB/dance1.gif""</stim_listB>",is dancing with,
null,"<div style=""font-size:60px;"">+</div>",,html-keyboard-response,106,511410,0.0-13.0-0.19,94164,List2B,black,woman,,,,null,,,,
null,"<img src=""stim_listB/dance2.gif""</stim_listB>",,html-keyboard-response,107,513414,0.0-13.0-1.19,94164,List2B,black,woman,,,,null,,,,
null,are dancing with each other,,html-keyboard-response,108,515416,0.0-13.0-2.19,94164,List2B,black,woman,,,,null,,,,
10042,,,survey-text,109,525461,0.0-13.0-3.19,94164,List2B,black,woman,,,,,"{""Q0"":""Dave and Ruth are dancing with each other""}","<img src=""stim_listB/dance2.gif""</stim_listB>",are dancing with each other,
15468,"<img src='img/portrait_matrix_list2.JPG' style='width:900px;height:500px;''></img><p>If you have memorised all the portraits and names and are ready to start, press Continue.</p><p><strong>Please note: Your memory of these faces will be tested 4 times during this experiment.</strong></p>",0,html-button-response,110,540937,0.0-14.0-0.0,94164,List2B,black,woman,,,,,,,,
3511,"<img src=""portrait/BW2.jpg""style=""width:400px;height:400px;""></img>",2,html-button-response,111,545461,0.0-14.0-1.0,94164,List2B,black,woman,,TRUE,2,,,,,
null,CORRECT,,html-keyboard-response,112,546967,0.0-14.0-2.0-0.0,94164,List2B,black,woman,,,,null,,,,
3140,"<img src=""portrait/WW1.jpg""style=""width:400px;height:400px;""></img>",1,html-button-response,113,550114,0.0-14.0-4.0,94164,List2B,black,woman,,TRUE,1,,,,,
null,CORRECT,,html-keyboard-response,114,551621,0.0-14.0-5.0-0.0,94164,List2B,black,woman,,,,null,,,,
2845,"<img src=""portrait/WM1.jpg""style=""width:400px;height:400px;""></img>",6,html-button-response,115,554471,0.0-14.0-7.0,94164,List2B,black,woman,,TRUE,6,,,,,
null,CORRECT,,html-keyboard-response,116,555975,0.0-14.0-8.0-0.0,94164,List2B,black,woman,,,,null,,,,
2443,"<img src=""portrait/WM2.jpg""style=""width:400px;height:400px;""></img>",7,html-button-response,117,558420,0.0-14.0-10.0,94164,List2B,black,woman,,TRUE,7,,,,,
null,CORRECT,,html-keyboard-response,118,559926,0.0-14.0-11.0-0.0,94164,List2B,black,woman,,,,null,,,,
3685,"<img src=""portrait/BM1.jpg""style=""width:400px;height:400px;""></img>",4,html-button-response,119,563614,0.0-14.0-13.0,94164,List2B,black,woman,,TRUE,4,,,,,
null,CORRECT,,html-keyboard-response,120,565119,0.0-14.0-14.0-0.0,94164,List2B,black,woman,,,,null,,,,
3975,"<img src=""portrait/BW1.jpg""style=""width:400px;height:400px;""></img>",0,html-button-response,121,569098,0.0-14.0-16.0,94164,List2B,black,woman,,TRUE,0,,,,,
null,CORRECT,,html-keyboard-response,122,570604,0.0-14.0-17.0-0.0,94164,List2B,black,woman,,,,null,,,,
1868,"<img src=""portrait/WW2.jpg""style=""width:400px;height:400px;""></img>",3,html-button-response,123,572474,0.0-14.0-19.0,94164,List2B,black,woman,,TRUE,3,,,,,
null,CORRECT,,html-keyboard-response,124,573980,0.0-14.0-20.0-0.0,94164,List2B,black,woman,,,,null,,,,
2033,"<img src=""portrait/BM2.jpg""style=""width:400px;height:400px;""></img>",5,html-button-response,125,576017,0.0-14.0-22.0,94164,List2B,black,woman,,TRUE,5,,,,,
null,CORRECT,,html-keyboard-response,126,577524,0.0-14.0-23.0-0.0,94164,List2B,black,woman,,,,null,,,,
1617,<p>You got 8 out of 8 right first time. Press Continue.</p>,0,html-button-response,127,579150,0.0-14.0-25.0,94164,List2B,black,woman,,,,,,,,
null,"<div style=""font-size:60px;"">+</div>",,html-keyboard-response,128,580659,0.0-15.0-0.0,94164,List2B,black,woman,,,,null,,,,
null,"<img src=""stim_listB/fight3.gif""</stim_listB>",,html-keyboard-response,129,582664,0.0-15.0-1.0,94164,List2B,black,woman,,,,null,,,,
null,is fighting,,html-keyboard-response,130,584666,0.0-15.0-2.0,94164,List2B,black,woman,,,,null,,,,
23403,,,survey-text,131,608072,0.0-15.0-3.0,94164,List2B,black,woman,,,,,"{""Q0"":""Mike is fighting Kate""}","<img src=""stim_listB/fight3.gif""</stim_listB>",is fighting,
null,"<div style=""font-size:60px;"">+</div>",,html-keyboard-response,132,608578,0.0-15.0-0.1,94164,List2B,black,woman,,,,null,,,,
null,"<img src=""stim_listB/meet5.gif""</stim_listB>",,html-keyboard-response,133,610583,0.0-15.0-1.1,94164,List2B,black,woman,,,,null,,,,
null,is meeting,,html-keyboard-response,134,612587,0.0-15.0-2.1,94164,List2B,black,woman,,,,null,,,,
7347,,,survey-text,135,619938,0.0-15.0-3.1,94164,List2B,black,woman,,,,,"{""Q0"":""Mike is meeting Dave""}","<img src=""stim_listB/meet5.gif""</stim_listB>",is meeting,
null,"<div style=""font-size:60px;"">+</div>",,html-keyboard-response,136,620446,0.0-15.0-0.2,94164,List2B,black,woman,,,,null,,,,
null,"<img src=""stim_listB/meet2.gif""</stim_listB>",,html-keyboard-response,137,622451,0.0-15.0-1.2,94164,List2B,black,woman,,,,null,,,,
null,are meeting each other,,html-keyboard-response,138,624454,0.0-15.0-2.2,94164,List2B,black,woman,,,,null,,,,
13334,,,survey-text,139,637790,0.0-15.0-3.2,94164,List2B,black,woman,,,,,"{""Q0"":""Luke and Ruth are meeting each other""}","<img src=""stim_listB/meet2.gif""</stim_listB>",are meeting each other,
null,"<div style=""font-size:60px;"">+</div>",,html-keyboard-response,140,638295,0.0-15.0-0.3,94164,List2B,black,woman,,,,null,,,,
null,"<img src=""stim_listB/marry7.gif""</stim_listB>",,html-keyboard-response,141,640299,0.0-15.0-1.3,94164,List2B,black,woman,,,,null,,,,
null,is marrying,,html-keyboard-response,142,642302,0.0-15.0-2.3,94164,List2B,black,woman,,,,null,,,,
9518,,,survey-text,143,651822,0.0-15.0-3.3,94164,List2B,black,woman,,,,,"{""Q0"":""Beth is marrying Jane""}","<img src=""stim_listB/marry7.gif""</stim_listB>",is marrying,
null,"<div style=""font-size:60px;"">+</div>",,html-keyboard-response,144,652327,0.0-15.0-0.4,94164,List2B,black,woman,,,,null,,,,
null,"<img src=""stim_listB/marry8.gif""</stim_listB>",,html-keyboard-response,145,654332,0.0-15.0-1.4,94164,List2B,black,woman,,,,null,,,,
null,are marrying each other,,html-keyboard-response,146,656334,0.0-15.0-2.4,94164,List2B,black,woman,,,,null,,,,
6827,,,survey-text,147,663164,0.0-15.0-3.4,94164,List2B,black,woman,,,,,"{""Q0"":""Kate and Ruth are marrying each other""}","<img src=""stim_listB/marry8.gif""</stim_listB>",are marrying each other,
null,"<div style=""font-size:60px;"">+</div>",,html-keyboard-response,148,663667,0.0-15.0-0.5,94164,List2B,black,woman,,,,null,,,,
null,"<img src=""stim_listB/fight6.gif""</stim_listB>",,html-keyboard-response,149,665672,0.0-15.0-1.5,94164,List2B,black,woman,,,,null,,,,
null,are fighting each other,,html-keyboard-response,150,667674,0.0-15.0-2.5,94164,List2B,black,woman,,,,null,,,,
8871,,,survey-text,151,676549,0.0-15.0-3.5,94164,List2B,black,woman,,,,,"{""Q0"":""Luke and Fred are fighting each other""}","<img src=""stim_listB/fight6.gif""</stim_listB>",are fighting each other,
null,"<div style=""font-size:60px;"">+</div>",,html-keyboard-response,152,677054,0.0-15.0-0.6,94164,List2B,black,woman,,,,null,,,,
null,"<img src=""stim_listB/argue6.gif""</stim_listB>",,html-keyboard-response,153,679063,0.0-15.0-1.6,94164,List2B,black,woman,,,,null,,,,
null,are arguing with each other,,html-keyboard-response,154,681068,0.0-15.0-2.6,94164,List2B,black,woman,,,,null,,,,
9585,,,survey-text,155,690657,0.0-15.0-3.6,94164,List2B,black,woman,,,,,"{""Q0"":""Luke and Mike are arguing with each other""}","<img src=""stim_listB/argue6.gif""</stim_listB>",are arguing with each other,
null,"<div style=""font-size:60px;"">+</div>",,html-keyboard-response,156,691162,0.0-15.0-0.7,94164,List2B,black,woman,,,,null,,,,
null,"<img src=""stim_listB/talk1.gif""</stim_listB>",,html-keyboard-response,157,693167,0.0-15.0-1.7,94164,List2B,black,woman,,,,null,,,,
null,is talking to,,html-keyboard-response,158,695170,0.0-15.0-2.7,94164,List2B,black,woman,,,,null,,,,
6833,,,survey-text,159,702006,0.0-15.0-3.7,94164,List2B,black,woman,,,,,"{""Q0"":""Jane is talking to Luke""}","<img src=""stim_listB/talk1.gif""</stim_listB>",is talking to,
null,"<div style=""font-size:60px;"">+</div>",,html-keyboard-response,160,702511,0.0-15.0-0.8,94164,List2B,black,woman,,,,null,,,,
null,"<img src=""stim_listB/talk5.gif""</stim_listB>",,html-keyboard-response,161,704514,0.0-15.0-1.8,94164,List2B,black,woman,,,,null,,,,
null,is talking to,,html-keyboard-response,162,706518,0.0-15.0-2.8,94164,List2B,black,woman,,,,null,,,,
8256,,,survey-text,163,714776,0.0-15.0-3.8,94164,List2B,black,woman,,,,,"{""Q0"":""Mike is talking to Luke""}","<img src=""stim_listB/talk5.gif""</stim_listB>",is talking to,
null,"<div style=""font-size:60px;"">+</div>",,html-keyboard-response,164,715282,0.0-15.0-0.9,94164,List2B,black,woman,,,,null,,,,
null,"<img src=""stim_listB/marry6.gif""</stim_listB>",,html-keyboard-response,165,717285,0.0-15.0-1.9,94164,List2B,black,woman,,,,null,,,,
null,are marrying each other,,html-keyboard-response,166,719288,0.0-15.0-2.9,94164,List2B,black,woman,,,,null,,,,
9652,,,survey-text,167,728944,0.0-15.0-3.9,94164,List2B,black,woman,,,,,"{""Q0"":""Mike and Luke are marrying each other""}","<img src=""stim_listB/marry6.gif""</stim_listB>",are marrying each other,
null,"<div style=""font-size:60px;"">+</div>",,html-keyboard-response,168,729449,0.0-15.0-0.10,94164,List2B,black,woman,,,,null,,,,
null,"<img src=""stim_listB/argue4.gif""</stim_listB>",,html-keyboard-response,169,731456,0.0-15.0-1.10,94164,List2B,black,woman,,,,null,,,,
null,are arguing with each other,,html-keyboard-response,170,733460,0.0-15.0-2.10,94164,List2B,black,woman,,,,null,,,,
10212,,,survey-text,171,743675,0.0-15.0-3.10,94164,List2B,black,woman,,,,,"{""Q0"":""Kate and Fred are arguing with each other""}","<img src=""stim_listB/argue4.gif""</stim_listB>",are arguing with each other,
null,"<div style=""font-size:60px;"">+</div>",,html-keyboard-response,172,744180,0.0-15.0-0.11,94164,List2B,black,woman,,,,null,,,,
null,"<img src=""stim_listB/kiss6.gif""</stim_listB>",,html-keyboard-response,173,746183,0.0-15.0-1.11,94164,List2B,black,woman,,,,null,,,,
null,are kissing each other,,html-keyboard-response,174,748186,0.0-15.0-2.11,94164,List2B,black,woman,,,,null,,,,
9326,,,survey-text,175,757514,0.0-15.0-3.11,94164,List2B,black,woman,,,,,"{""Q0"":""Mike and Dave are kissing each other""}","<img src=""stim_listB/kiss6.gif""</stim_listB>",are kissing each other,
null,"<div style=""font-size:60px;"">+</div>",,html-keyboard-response,176,758019,0.0-15.0-0.12,94164,List2B,black,woman,,,,null,,,,
null,"<img src=""stim_listB/marry1.gif""</stim_listB>",,html-keyboard-response,177,760023,0.0-15.0-1.12,94164,List2B,black,woman,,,,null,,,,
null,is marrying,,html-keyboard-response,178,762026,0.0-15.0-2.12,94164,List2B,black,woman,,,,null,,,,
9529,,,survey-text,179,771560,0.0-15.0-3.12,94164,List2B,black,woman,,,,,"{""Q0"":""Ruth is marrying Dave""}","<img src=""stim_listB/marry1.gif""</stim_listB>",is marrying,
null,"<div style=""font-size:60px;"">+</div>",,html-keyboard-response,180,772064,0.0-15.0-0.13,94164,List2B,black,woman,,,,null,,,,
null,"<img src=""stim_listB/shout5.gif""</stim_listB>",,html-keyboard-response,181,774067,0.0-15.0-1.13,94164,List2B,black,woman,,,,null,,,,
null,is shouting at,,html-keyboard-response,182,776069,0.0-15.0-2.13,94164,List2B,black,woman,,,,null,,,,
7468,,,survey-text,183,783540,0.0-15.0-3.13,94164,List2B,black,woman,,,,,"{""Q0"":""Luke is shouting at Fred""}","<img src=""stim_listB/shout5.gif""</stim_listB>",is shouting at,
null,"<div style=""font-size:60px;"">+</div>",,html-keyboard-response,184,784045,0.0-15.0-0.14,94164,List2B,black,woman,,,,null,,,,
null,"<img src=""stim_listB/touch7.gif""</stim_listB>",,html-keyboard-response,185,786048,0.0-15.0-1.14,94164,List2B,black,woman,,,,null,,,,
null,is touching,,html-keyboard-response,186,788050,0.0-15.0-2.14,94164,List2B,black,woman,,,,null,,,,
4952,,,survey-text,187,793006,0.0-15.0-3.14,94164,List2B,black,woman,,,,,"{""Q0"":""Kate is touching Jane""}","<img src=""stim_listB/touch7.gif""</stim_listB>",is touching,
null,"<div style=""font-size:60px;"">+</div>",,html-keyboard-response,188,793513,0.0-15.0-0.15,94164,List2B,black,woman,,,,null,,,,
null,"<img src=""stim_listB/talk7.gif""</stim_listB>",,html-keyboard-response,189,795521,0.0-15.0-1.15,94164,List2B,black,woman,,,,null,,,,
null,is talking to,,html-keyboard-response,190,797526,0.0-15.0-2.15,94164,List2B,black,woman,,,,null,,,,
9719,,,survey-text,191,807250,0.0-15.0-3.15,94164,List2B,black,woman,,,,,"{""Q0"":""Kate is talking to Ruth""}","<img src=""stim_listB/talk7.gif""</stim_listB>",is talking to,
null,"<div style=""font-size:60px;"">+</div>",,html-keyboard-response,192,807754,0.0-15.0-0.16,94164,List2B,black,woman,,,,null,,,,
null,"<img src=""stim_listB/meet8.gif""</stim_listB>",,html-keyboard-response,193,809757,0.0-15.0-1.16,94164,List2B,black,woman,,,,null,,,,
null,are meeting each other,,html-keyboard-response,194,811758,0.0-15.0-2.16,94164,List2B,black,woman,,,,null,,,,
15276,,,survey-text,195,827037,0.0-15.0-3.16,94164,List2B,black,woman,,,,,"{""Q0"":""Ruth and Beth are meeting each other""}","<img src=""stim_listB/meet8.gif""</stim_listB>",are meeting each other,
null,"<div style=""font-size:60px;"">+</div>",,html-keyboard-response,196,827544,0.0-15.0-0.17,94164,List2B,black,woman,,,,null,,,,
null,"<img src=""stim_listB/dance8.gif""</stim_listB>",,html-keyboard-response,197,829549,0.0-15.0-1.17,94164,List2B,black,woman,,,,null,,,,
null,are dancing with each other,,html-keyboard-response,198,831553,0.0-15.0-2.17,94164,List2B,black,woman,,,,null,,,,
9248,,,survey-text,199,840805,0.0-15.0-3.17,94164,List2B,black,woman,,,,,"{""Q0"":""Beth and Jane are dancing with each other""}","<img src=""stim_listB/dance8.gif""</stim_listB>",are dancing with each other,
null,"<div style=""font-size:60px;"">+</div>",,html-keyboard-response,200,841309,0.0-15.0-0.18,94164,List2B,black,woman,,,,null,,,,
null,"<img src=""stim_listB/argue3.gif""</stim_listB>",,html-keyboard-response,201,843313,0.0-15.0-1.18,94164,List2B,black,woman,,,,null,,,,
null,is arguing with,,html-keyboard-response,202,845314,0.0-15.0-2.18,94164,List2B,black,woman,,,,null,,,,
6465,,,survey-text,203,851782,0.0-15.0-3.18,94164,List2B,black,woman,,,,,"{""Q0"":""Beth is arguing with Mike""}","<img src=""stim_listB/argue3.gif""</stim_listB>",is arguing with,
null,"<div style=""font-size:60px;"">+</div>",,html-keyboard-response,204,852289,0.0-15.0-0.19,94164,List2B,black,woman,,,,null,,,,
null,"<img src=""stim_listB/shout6.gif""</stim_listB>",,html-keyboard-response,205,854296,0.0-15.0-1.19,94164,List2B,black,woman,,,,null,,,,
null,are shouting at each other,,html-keyboard-response,206,856300,0.0-15.0-2.19,94164,List2B,black,woman,,,,null,,,,
7749,,,survey-text,207,864055,0.0-15.0-3.19,94164,List2B,black,woman,,,,,"{""Q0"":""Dave and Mike are shouting at each other""}","<img src=""stim_listB/shout6.gif""</stim_listB>",are shouting at each other,
7479,"<img src='img/portrait_matrix_list2.JPG' style='width:900px;height:500px;''></img><p>If you have memorised all the portraits and names and are ready to start, press Continue.</p><p><strong>Please note: Your memory of these faces will be tested 4 times during this experiment.</strong></p>",0,html-button-response,208,871540,0.0-16.0-0.0,94164,List2B,black,woman,,,,,,,,
2388,"<img src=""portrait/BM1.jpg""style=""width:400px;height:400px;""></img>",4,html-button-response,209,874937,0.0-16.0-1.0,94164,List2B,black,woman,,TRUE,4,,,,,
null,CORRECT,,html-keyboard-response,210,876441,0.0-16.0-2.0-0.0,94164,List2B,black,woman,,,,null,,,,
1754,"<img src=""portrait/WM2.jpg""style=""width:400px;height:400px;""></img>",7,html-button-response,211,878200,0.0-16.0-4.0,94164,List2B,black,woman,,TRUE,7,,,,,
null,CORRECT,,html-keyboard-response,212,879707,0.0-16.0-5.0-0.0,94164,List2B,black,woman,,,,null,,,,
1521,"<img src=""portrait/BM2.jpg""style=""width:400px;height:400px;""></img>",5,html-button-response,213,881234,0.0-16.0-7.0,94164,List2B,black,woman,,TRUE,5,,,,,
null,CORRECT,,html-keyboard-response,214,882741,0.0-16.0-8.0-0.0,94164,List2B,black,woman,,,,null,,,,
1488,"<img src=""portrait/WW2.jpg""style=""width:400px;height:400px;""></img>",3,html-button-response,215,884232,0.0-16.0-10.0,94164,List2B,black,woman,,TRUE,3,,,,,
null,CORRECT,,html-keyboard-response,216,885736,0.0-16.0-11.0-0.0,94164,List2B,black,woman,,,,null,,,,
2743,"<img src=""portrait/BW1.jpg""style=""width:400px;height:400px;""></img>",0,html-button-response,217,888482,0.0-16.0-13.0,94164,List2B,black,woman,,TRUE,0,,,,,
null,CORRECT,,html-keyboard-response,218,889986,0.0-16.0-14.0-0.0,94164,List2B,black,woman,,,,null,,,,
2235,"<img src=""portrait/WW1.jpg""style=""width:400px;height:400px;""></img>",1,html-button-response,219,892223,0.0-16.0-16.0,94164,List2B,black,woman,,TRUE,1,,,,,
null,CORRECT,,html-keyboard-response,220,893728,0.0-16.0-17.0-0.0,94164,List2B,black,woman,,,,null,,,,
1338,"<img src=""portrait/BW2.jpg""style=""width:400px;height:400px;""></img>",2,html-button-response,221,895071,0.0-16.0-19.0,94164,List2B,black,woman,,TRUE,2,,,,,
null,CORRECT,,html-keyboard-response,222,896575,0.0-16.0-20.0-0.0,94164,List2B,black,woman,,,,null,,,,
2103,"<img src=""portrait/WM1.jpg""style=""width:400px;height:400px;""></img>",6,html-button-response,223,898684,0.0-16.0-22.0,94164,List2B,black,woman,,TRUE,6,,,,,
null,CORRECT,,html-keyboard-response,224,900189,0.0-16.0-23.0-0.0,94164,List2B,black,woman,,,,null,,,,
1286,<p>You got 8 out of 8 right first time. Press Continue.</p>,0,html-button-response,225,901479,0.0-16.0-25.0,94164,List2B,black,woman,,,,,,,,
null,"<div style=""font-size:60px;"">+</div>",,html-keyboard-response,226,902986,0.0-17.0-0.0,94164,List2B,black,woman,,,,null,,,,
null,"<img src=""stim_listB/talk6.gif""</stim_listB>",,html-keyboard-response,227,904990,0.0-17.0-1.0,94164,List2B,black,woman,,,,null,,,,
null,are talking to each other,,html-keyboard-response,228,906991,0.0-17.0-2.0,94164,List2B,black,woman,,,,null,,,,
14487,,,survey-text,229,921484,0.0-17.0-3.0,94164,List2B,black,woman,,,,,"{""Q0"":""Dave and Fred are talking to each other""}","<img src=""stim_listB/talk6.gif""</stim_listB>",are talking to each other,
null,"<div style=""font-size:60px;"">+</div>",,html-keyboard-response,230,921993,0.0-17.0-0.1,94164,List2B,black,woman,,,,null,,,,
null,"<img src=""stim_listB/argue5.gif""</stim_listB>",,html-keyboard-response,231,923999,0.0-17.0-1.1,94164,List2B,black,woman,,,,null,,,,
null,is arguing with,,html-keyboard-response,232,926004,0.0-17.0-2.1,94164,List2B,black,woman,,,,null,,,,
5963,,,survey-text,233,931970,0.0-17.0-3.1,94164,List2B,black,woman,,,,,"{""Q0"":""Dave is arguing with Fred""}","<img src=""stim_listB/argue5.gif""</stim_listB>",is arguing with,
null,"<div style=""font-size:60px;"">+</div>",,html-keyboard-response,234,932476,0.0-17.0-0.2,94164,List2B,black,woman,,,,null,,,,
null,"<img src=""stim_listB/argue2.gif""</stim_listB>",,html-keyboard-response,235,934478,0.0-17.0-1.2,94164,List2B,black,woman,,,,null,,,,
null,are arguing with each other,,html-keyboard-response,236,936481,0.0-17.0-2.2,94164,List2B,black,woman,,,,null,,,,
8393,,,survey-text,237,944876,0.0-17.0-3.2,94164,List2B,black,woman,,,,,"{""Q0"":""Luke and Jane are arguing with each other""}","<img src=""stim_listB/argue2.gif""</stim_listB>",are arguing with each other,
null,"<div style=""font-size:60px;"">+</div>",,html-keyboard-response,238,945383,0.0-17.0-0.3,94164,List2B,black,woman,,,,null,,,,
null,"<img src=""stim_listB/kiss8.gif""</stim_listB>",,html-keyboard-response,239,947385,0.0-17.0-1.3,94164,List2B,black,woman,,,,null,,,,
null,are kissing each other,,html-keyboard-response,240,949390,0.0-17.0-2.3,94164,List2B,black,woman,,,,null,,,,
7005,,,survey-text,241,956399,0.0-17.0-3.3,94164,List2B,black,woman,,,,,"{""Q0"":""Jane and Kate are kissing each other""}","<img src=""stim_listB/kiss8.gif""</stim_listB>",are kissing each other,
null,"<div style=""font-size:60px;"">+</div>",,html-keyboard-response,242,956904,0.0-17.0-0.4,94164,List2B,black,woman,,,,null,,,,
null,"<img src=""stim_listB/touch5.gif""</stim_listB>",,html-keyboard-response,243,958907,0.0-17.0-1.4,94164,List2B,black,woman,,,,null,,,,
null,is touching,,html-keyboard-response,244,960912,0.0-17.0-2.4,94164,List2B,black,woman,,,,null,,,,
5374,,,survey-text,245,966292,0.0-17.0-3.4,94164,List2B,black,woman,,,,,"{""Q0"":""Mike is touching Dave""}","<img src=""stim_listB/touch5.gif""</stim_listB>",is touching,
null,"<div style=""font-size:60px;"">+</div>",,html-keyboard-response,246,966799,0.0-17.0-0.5,94164,List2B,black,woman,,,,null,,,,
null,"<img src=""stim_listB/touch6.gif""</stim_listB>",,html-keyboard-response,247,968805,0.0-17.0-1.5,94164,List2B,black,woman,,,,null,,,,
null,are touching each other,,html-keyboard-response,248,970809,0.0-17.0-2.5,94164,List2B,black,woman,,,,null,,,,
9010,,,survey-text,249,979822,0.0-17.0-3.5,94164,List2B,black,woman,,,,,"{""Q0"":""Luke and Fred are touching each other""}","<img src=""stim_listB/touch6.gif""</stim_listB>",are touching each other,
null,"<div style=""font-size:60px;"">+</div>",,html-keyboard-response,250,980326,0.0-17.0-0.6,94164,List2B,black,woman,,,,null,,,,
null,"<img src=""stim_listB/argue8.gif""</stim_listB>",,html-keyboard-response,251,982329,0.0-17.0-1.6,94164,List2B,black,woman,,,,null,,,,
null,are arguing with each other,,html-keyboard-response,252,984331,0.0-17.0-2.6,94164,List2B,black,woman,,,,null,,,,
7542,,,survey-text,253,991875,0.0-17.0-3.6,94164,List2B,black,woman,,,,,"{""Q0"":""Kate and Ruth are arguing with each other""}","<img src=""stim_listB/argue8.gif""</stim_listB>",are arguing with each other,
null,"<div style=""font-size:60px;"">+</div>",,html-keyboard-response,254,992380,0.0-17.0-0.7,94164,List2B,black,woman,,,,null,,,,
null,"<img src=""stim_listB/touch1.gif""</stim_listB>",,html-keyboard-response,255,994385,0.0-17.0-1.7,94164,List2B,black,woman,,,,null,,,,
null,is touching,,html-keyboard-response,256,996387,0.0-17.0-2.7,94164,List2B,black,woman,,,,null,,,,
5142,,,survey-text,257,1001532,0.0-17.0-3.7,94164,List2B,black,woman,,,,,"{""Q0"":""Jane is touching Dave""}","<img src=""stim_listB/touch1.gif""</stim_listB>",is touching,
null,"<div style=""font-size:60px;"">+</div>",,html-keyboard-response,258,1002036,0.0-17.0-0.8,94164,List2B,black,woman,,,,null,,,,
null,"<img src=""stim_listB/kiss2.gif""</stim_listB>",,html-keyboard-response,259,1004039,0.0-17.0-1.8,94164,List2B,black,woman,,,,null,,,,
null,are kissing each other,,html-keyboard-response,260,1006041,0.0-17.0-2.8,94164,List2B,black,woman,,,,null,,,,
8042,,,survey-text,261,1014084,0.0-17.0-3.8,94164,List2B,black,woman,,,,,"{""Q0"":""Jane and Dave are kissing each other""}","<img src=""stim_listB/kiss2.gif""</stim_listB>",are kissing each other,
null,"<div style=""font-size:60px;"">+</div>",,html-keyboard-response,262,1014588,0.0-17.0-0.9,94164,List2B,black,woman,,,,null,,,,
null,"<img src=""stim_listB/hug6.gif""</stim_listB>",,html-keyboard-response,263,1016591,0.0-17.0-1.9,94164,List2B,black,woman,,,,null,,,,
null,are hugging each other,,html-keyboard-response,264,1018592,0.0-17.0-2.9,94164,List2B,black,woman,,,,null,,,,
9323,,,survey-text,265,1027919,0.0-17.0-3.9,94164,List2B,black,woman,,,,,"{""Q0"":""Mike and Dave are hugging each other""}","<img src=""stim_listB/hug6.gif""</stim_listB>",are hugging each other,
null,"<div style=""font-size:60px;"">+</div>",,html-keyboard-response,266,1028427,0.0-17.0-0.10,94164,List2B,black,woman,,,,null,,,,
null,"<img src=""stim_listB/dance6.gif""</stim_listB>",,html-keyboard-response,267,1030435,0.0-17.0-1.10,94164,List2B,black,woman,,,,null,,,,
null,are dancing with each other,,html-keyboard-response,268,1032440,0.0-17.0-2.10,94164,List2B,black,woman,,,,null,,,,
8341,,,survey-text,269,1040785,0.0-17.0-3.10,94164,List2B,black,woman,,,,,"{""Q0"":""Dave and Fred are dancing with each other""}","<img src=""stim_listB/dance6.gif""</stim_listB>",are dancing with each other,
null,"<div style=""font-size:60px;"">+</div>",,html-keyboard-response,270,1041291,0.0-17.0-0.11,94164,List2B,black,woman,,,,null,,,,
null,"<img src=""stim_listB/hug4.gif""</stim_listB>",,html-keyboard-response,271,1043293,0.0-17.0-1.11,94164,List2B,black,woman,,,,null,,,,
null,are hugging each other,,html-keyboard-response,272,1045296,0.0-17.0-2.11,94164,List2B,black,woman,,,,null,,,,
9418,,,survey-text,273,1054717,0.0-17.0-3.11,94164,List2B,black,woman,,,,,"{""Q0"":""Mike and Kate are hugging each other""}","<img src=""stim_listB/hug4.gif""</stim_listB>",are hugging each other,
null,"<div style=""font-size:60px;"">+</div>",,html-keyboard-response,274,1055221,0.0-17.0-0.12,94164,List2B,black,woman,,,,null,,,,
null,"<img src=""stim_listB/meet4.gif""</stim_listB>",,html-keyboard-response,275,1057226,0.0-17.0-1.12,94164,List2B,black,woman,,,,null,,,,
null,are meeting each other,,html-keyboard-response,276,1059230,0.0-17.0-2.12,94164,List2B,black,woman,,,,null,,,,
10288,,,survey-text,277,1069523,0.0-17.0-3.12,94164,List2B,black,woman,,,,,"{""Q0"":""Fred and Beth are meeting each other""}","<img src=""stim_listB/meet4.gif""</stim_listB>",are meeting each other,
null,"<div style=""font-size:60px;"">+</div>",,html-keyboard-response,278,1070036,0.0-17.0-0.13,94164,List2B,black,woman,,,,null,,,,
null,"<img src=""stim_listB/kiss5.gif""</stim_listB>",,html-keyboard-response,279,1072043,0.0-17.0-1.13,94164,List2B,black,woman,,,,null,,,,
null,is kissing,,html-keyboard-response,280,1074047,0.0-17.0-2.13,94164,List2B,black,woman,,,,null,,,,
5368,,,survey-text,281,1079418,0.0-17.0-3.13,94164,List2B,black,woman,,,,,"{""Q0"":""Luke is kissing Fred""}","<img src=""stim_listB/kiss5.gif""</stim_listB>",is kissing,
null,"<div style=""font-size:60px;"">+</div>",,html-keyboard-response,282,1079923,0.0-17.0-0.14,94164,List2B,black,woman,,,,null,,,,
null,"<img src=""stim_listB/fight4.gif""</stim_listB>",,html-keyboard-response,283,1081926,0.0-17.0-1.14,94164,List2B,black,woman,,,,null,,,,
null,are fighting each other,,html-keyboard-response,284,1083928,0.0-17.0-2.14,94164,List2B,black,woman,,,,null,,,,
7925,,,survey-text,285,1091855,0.0-17.0-3.14,94164,List2B,black,woman,,,,,"{""Q0"":""Fred and Beth are fighting each other""}","<img src=""stim_listB/fight4.gif""</stim_listB>",are fighting each other,
null,"<div style=""font-size:60px;"">+</div>",,html-keyboard-response,286,1092359,0.0-17.0-0.15,94164,List2B,black,woman,,,,null,,,,
null,"<img src=""stim_listB/kiss1.gif""</stim_listB>",,html-keyboard-response,287,1094362,0.0-17.0-1.15,94164,List2B,black,woman,,,,null,,,,
null,is kissing,,html-keyboard-response,288,1096367,0.0-17.0-2.15,94164,List2B,black,woman,,,,null,,,,
5725,,,survey-text,289,1102095,0.0-17.0-3.15,94164,List2B,black,woman,,,,,"{""Q0"":""Ruth is kissing Luke""}","<img src=""stim_listB/kiss1.gif""</stim_listB>",is kissing,
null,"<div style=""font-size:60px;"">+</div>",,html-keyboard-response,290,1102597,0.0-17.0-0.16,94164,List2B,black,woman,,,,null,,,,
null,"<img src=""stim_listB/shout1.gif""</stim_listB>",,html-keyboard-response,291,1104601,0.0-17.0-1.16,94164,List2B,black,woman,,,,null,,,,
null,is shouting at,,html-keyboard-response,292,1106603,0.0-17.0-2.16,94164,List2B,black,woman,,,,null,,,,
5864,,,survey-text,293,1112469,0.0-17.0-3.16,94164,List2B,black,woman,,,,,"{""Q0"":""Ruth is shouting at Luke""}","<img src=""stim_listB/shout1.gif""</stim_listB>",is shouting at,
null,"<div style=""font-size:60px;"">+</div>",,html-keyboard-response,294,1112973,0.0-17.0-0.17,94164,List2B,black,woman,,,,null,,,,
null,"<img src=""stim_listB/hug2.gif""</stim_listB>",,html-keyboard-response,295,1114976,0.0-17.0-1.17,94164,List2B,black,woman,,,,null,,,,
null,are hugging each other,,html-keyboard-response,296,1116978,0.0-17.0-2.17,94164,List2B,black,woman,,,,null,,,,
7678,,,survey-text,297,1124661,0.0-17.0-3.17,94164,List2B,black,woman,,,,,"{""Q0"":""Dave and Jane are hugging each other""}","<img src=""stim_listB/hug2.gif""</stim_listB>",are hugging each other,
null,"<div style=""font-size:60px;"">+</div>",,html-keyboard-response,298,1125170,0.0-17.0-0.18,94164,List2B,black,woman,,,,null,,,,
null,"<img src=""stim_listB/fight2.gif""</stim_listB>",,html-keyboard-response,299,1127177,0.0-17.0-1.18,94164,List2B,black,woman,,,,null,,,,
null,are fighting each other,,html-keyboard-response,300,1129182,0.0-17.0-2.18,94164,List2B,black,woman,,,,null,,,,
13986,,,survey-text,301,1143172,0.0-17.0-3.18,94164,List2B,black,woman,,,,,"{""Q0"":""Dave and Ruth are fighting each other""}","<img src=""stim_listB/fight2.gif""</stim_listB>",are fighting each other,
null,"<div style=""font-size:60px;"">+</div>",,html-keyboard-response,302,1143676,0.0-17.0-0.19,94164,List2B,black,woman,,,,null,,,,
null,"<img src=""stim_listB/kiss3.gif""</stim_listB>",,html-keyboard-response,303,1145678,0.0-17.0-1.19,94164,List2B,black,woman,,,,null,,,,
null,is kissing,,html-keyboard-response,304,1147681,0.0-17.0-2.19,94164,List2B,black,woman,,,,null,,,,
8243,,,survey-text,305,1155926,0.0-17.0-3.19,94164,List2B,black,woman,,,,,"{""Q0"":""Fred is kissing Beth""}","<img src=""stim_listB/kiss3.gif""</stim_listB>",is kissing,
36641,"<img src='img/portrait_matrix_list2.JPG' style='width:900px;height:500px;''></img><p>If you have memorised all the portraits and names and are ready to start, press Continue.</p><p><strong>Please note: Your memory of these faces will be tested 4 times during this experiment.</strong></p>",0,html-button-response,306,1192575,0.0-18.0-0.0,94164,List2B,black,woman,,,,,,,,
2799,"<img src=""portrait/WM1.jpg""style=""width:400px;height:400px;""></img>",6,html-button-response,307,1196386,0.0-18.0-1.0,94164,List2B,black,woman,,TRUE,6,,,,,
null,CORRECT,,html-keyboard-response,308,1197896,0.0-18.0-2.0-0.0,94164,List2B,black,woman,,,,null,,,,
2103,"<img src=""portrait/BW1.jpg""style=""width:400px;height:400px;""></img>",0,html-button-response,309,1200007,0.0-18.0-4.0,94164,List2B,black,woman,,TRUE,0,,,,,
null,CORRECT,,html-keyboard-response,310,1201516,0.0-18.0-5.0-0.0,94164,List2B,black,woman,,,,null,,,,
1505,"<img src=""portrait/BM2.jpg""style=""width:400px;height:400px;""></img>",5,html-button-response,311,1203024,0.0-18.0-7.0,94164,List2B,black,woman,,TRUE,5,,,,,
null,CORRECT,,html-keyboard-response,312,1204528,0.0-18.0-8.0-0.0,94164,List2B,black,woman,,,,null,,,,
1869,"<img src=""portrait/BM1.jpg""style=""width:400px;height:400px;""></img>",4,html-button-response,313,1206400,0.0-18.0-10.0,94164,List2B,black,woman,,TRUE,4,,,,,
null,CORRECT,,html-keyboard-response,314,1207903,0.0-18.0-11.0-0.0,94164,List2B,black,woman,,,,null,,,,
1592,"<img src=""portrait/BW2.jpg""style=""width:400px;height:400px;""></img>",2,html-button-response,315,1209500,0.0-18.0-13.0,94164,List2B,black,woman,,TRUE,2,,,,,
null,CORRECT,,html-keyboard-response,316,1211005,0.0-18.0-14.0-0.0,94164,List2B,black,woman,,,,null,,,,
2496,"<img src=""portrait/WM2.jpg""style=""width:400px;height:400px;""></img>",7,html-button-response,317,1213505,0.0-18.0-16.0,94164,List2B,black,woman,,TRUE,7,,,,,
null,CORRECT,,html-keyboard-response,318,1215009,0.0-18.0-17.0-0.0,94164,List2B,black,woman,,,,null,,,,
2386,"<img src=""portrait/WW1.jpg""style=""width:400px;height:400px;""></img>",1,html-button-response,319,1217401,0.0-18.0-19.0,94164,List2B,black,woman,,TRUE,1,,,,,
null,CORRECT,,html-keyboard-response,320,1218905,0.0-18.0-20.0-0.0,94164,List2B,black,woman,,,,null,,,,
1622,"<img src=""portrait/WW2.jpg""style=""width:400px;height:400px;""></img>",3,html-button-response,321,1220530,0.0-18.0-22.0,94164,List2B,black,woman,,TRUE,3,,,,,
null,CORRECT,,html-keyboard-response,322,1222035,0.0-18.0-23.0-0.0,94164,List2B,black,woman,,,,null,,,,
1635,<p>You got 8 out of 8 right first time. Press Continue.</p>,0,html-button-response,323,1223677,0.0-18.0-25.0,94164,List2B,black,woman,,,,,,,,
null,"<div style=""font-size:60px;"">+</div>",,html-keyboard-response,324,1225185,0.0-19.0-0.0,94164,List2B,black,woman,,,,null,,,,
null,"<img src=""stim_listB/hug7.gif""</stim_listB>",,html-keyboard-response,325,1227189,0.0-19.0-1.0,94164,List2B,black,woman,,,,null,,,,
null,is hugging,,html-keyboard-response,326,1229191,0.0-19.0-2.0,94164,List2B,black,woman,,,,null,,,,
5345,,,survey-text,327,1234537,0.0-19.0-3.0,94164,List2B,black,woman,,,,,"{""Q0"":""Beth is hugging Ruth""}","<img src=""stim_listB/hug7.gif""</stim_listB>",is hugging,
null,"<div style=""font-size:60px;"">+</div>",,html-keyboard-response,328,1235040,0.0-19.0-0.1,94164,List2B,black,woman,,,,null,,,,
null,"<img src=""stim_listB/argue1.gif""</stim_listB>",,html-keyboard-response,329,1237043,0.0-19.0-1.1,94164,List2B,black,woman,,,,null,,,,
null,is arguing with,,html-keyboard-response,330,1239044,0.0-19.0-2.1,94164,List2B,black,woman,,,,null,,,,
8153,,,survey-text,331,1247203,0.0-19.0-3.1,94164,List2B,black,woman,,,,,"{""Q0"":""Ruth is arguing with Dave""}","<img src=""stim_listB/argue1.gif""</stim_listB>",is arguing with,
null,"<div style=""font-size:60px;"">+</div>",,html-keyboard-response,332,1247711,0.0-19.0-0.2,94164,List2B,black,woman,,,,null,,,,
null,"<img src=""stim_listB/fight1.gif""</stim_listB>",,html-keyboard-response,333,1249718,0.0-19.0-1.2,94164,List2B,black,woman,,,,null,,,,
null,is fighting,,html-keyboard-response,334,1251722,0.0-19.0-2.2,94164,List2B,black,woman,,,,null,,,,
6941,,,survey-text,335,1258667,0.0-19.0-3.2,94164,List2B,black,woman,,,,,"{""Q0"":""Jane is fighting Dave""}","<img src=""stim_listB/fight1.gif""</stim_listB>",is fighting,
null,"<div style=""font-size:60px;"">+</div>",,html-keyboard-response,336,1259171,0.0-19.0-0.3,94164,List2B,black,woman,,,,null,,,,
null,"<img src=""stim_listB/marry2.gif""</stim_listB>",,html-keyboard-response,337,1261175,0.0-19.0-1.3,94164,List2B,black,woman,,,,null,,,,
null,are marrying each other,,html-keyboard-response,338,1263177,0.0-19.0-2.3,94164,List2B,black,woman,,,,null,,,,
7530,,,survey-text,339,1270709,0.0-19.0-3.3,94164,List2B,black,woman,,,,,"{""Q0"":""Luke and Jane are marrying each other""}","<img src=""stim_listB/marry2.gif""</stim_listB>",are marrying each other,
null,"<div style=""font-size:60px;"">+</div>",,html-keyboard-response,340,1271215,0.0-19.0-0.4,94164,List2B,black,woman,,,,null,,,,
null,"<img src=""stim_listB/kiss4.gif""</stim_listB>",,html-keyboard-response,341,1273220,0.0-19.0-1.4,94164,List2B,black,woman,,,,null,,,,
null,are kissing each other,,html-keyboard-response,342,1275226,0.0-19.0-2.4,94164,List2B,black,woman,,,,null,,,,
6553,,,survey-text,343,1281787,0.0-19.0-3.4,94164,List2B,black,woman,,,,,"{""Q0"":""Mike and Kate are kissing each other""}","<img src=""stim_listB/kiss4.gif""</stim_listB>",are kissing each other,
null,"<div style=""font-size:60px;"">+</div>",,html-keyboard-response,344,1282292,0.0-19.0-0.5,94164,List2B,black,woman,,,,null,,,,
null,"<img src=""stim_listB/meet3.gif""</stim_listB>",,html-keyboard-response,345,1284298,0.0-19.0-1.5,94164,List2B,black,woman,,,,null,,,,
null,is meeting,,html-keyboard-response,346,1286300,0.0-19.0-2.5,94164,List2B,black,woman,,,,null,,,,
6497,,,survey-text,347,1292799,0.0-19.0-3.5,94164,List2B,black,woman,,,,,"{""Q0"":""Kate is meeting Mike""}","<img src=""stim_listB/meet3.gif""</stim_listB>",is meeting,
null,"<div style=""font-size:60px;"">+</div>",,html-keyboard-response,348,1293306,0.0-19.0-0.6,94164,List2B,black,woman,,,,null,,,,
null,"<img src=""stim_listB/shout4.gif""</stim_listB>",,html-keyboard-response,349,1295309,0.0-19.0-1.6,94164,List2B,black,woman,,,,null,,,,
null,are shouting at each other,,html-keyboard-response,350,1297312,0.0-19.0-2.6,94164,List2B,black,woman,,,,null,,,,
8856,,,survey-text,351,1306171,0.0-19.0-3.6,94164,List2B,black,woman,,,,,"{""Q0"":""Mike and Kate are shouting at each other""}","<img src=""stim_listB/shout4.gif""</stim_listB>",are shouting at each other,
null,"<div style=""font-size:60px;"">+</div>",,html-keyboard-response,352,1306678,0.0-19.0-0.7,94164,List2B,black,woman,,,,null,,,,
null,"<img src=""stim_listB/dance7.gif""</stim_listB>",,html-keyboard-response,353,1308681,0.0-19.0-1.7,94164,List2B,black,woman,,,,null,,,,
null,is dancing with,,html-keyboard-response,354,1310685,0.0-19.0-2.7,94164,List2B,black,woman,,,,null,,,,
6353,,,survey-text,355,1317040,0.0-19.0-3.7,94164,List2B,black,woman,,,,,"{""Q0"":""Kate is dancing with Ruth""}","<img src=""stim_listB/dance7.gif""</stim_listB>",is dancing with,
null,"<div style=""font-size:60px;"">+</div>",,html-keyboard-response,356,1317545,0.0-19.0-0.8,94164,List2B,black,woman,,,,null,,,,
null,"<img src=""stim_listB/shout7.gif""</stim_listB>",,html-keyboard-response,357,1319548,0.0-19.0-1.8,94164,List2B,black,woman,,,,null,,,,
null,is shouting at,,html-keyboard-response,358,1321550,0.0-19.0-2.8,94164,List2B,black,woman,,,,null,,,,
10580,,,survey-text,359,1332130,0.0-19.0-3.8,94164,List2B,black,woman,,,,,"{""Q0"":""Beth is shouting at Ruth""}","<img src=""stim_listB/shout7.gif""</stim_listB>",is shouting at,
null,"<div style=""font-size:60px;"">+</div>",,html-keyboard-response,360,1332634,0.0-19.0-0.9,94164,List2B,black,woman,,,,null,,,,
null,"<img src=""stim_listB/touch2.gif""</stim_listB>",,html-keyboard-response,361,1334638,0.0-19.0-1.9,94164,List2B,black,woman,,,,null,,,,
null,are touching each other,,html-keyboard-response,362,1336642,0.0-19.0-2.9,94164,List2B,black,woman,,,,null,,,,
7605,,,survey-text,363,1344255,0.0-19.0-3.9,94164,List2B,black,woman,,,,,"{""Q0"":""Luke and Ruth are touching each other""}","<img src=""stim_listB/touch2.gif""</stim_listB>",are touching each other,
null,"<div style=""font-size:60px;"">+</div>",,html-keyboard-response,364,1344763,0.0-19.0-0.10,94164,List2B,black,woman,,,,null,,,,
null,"<img src=""stim_listB/touch3.gif""</stim_listB>",,html-keyboard-response,365,1346767,0.0-19.0-1.10,94164,List2B,black,woman,,,,null,,,,
null,is touching,,html-keyboard-response,366,1348770,0.0-19.0-2.10,94164,List2B,black,woman,,,,null,,,,
4509,,,survey-text,367,1353282,0.0-19.0-3.10,94164,List2B,black,woman,,,,,"{""Q0"":""Kate is touching Mike""}","<img src=""stim_listB/touch3.gif""</stim_listB>",is touching,
null,"<div style=""font-size:60px;"">+</div>",,html-keyboard-response,368,1353787,0.0-19.0-0.11,94164,List2B,black,woman,,,,null,,,,
null,"<img src=""stim_listB/shout3.gif""</stim_listB>",,html-keyboard-response,369,1355789,0.0-19.0-1.11,94164,List2B,black,woman,,,,null,,,,
null,is shouting at,,html-keyboard-response,370,1357793,0.0-19.0-2.11,94164,List2B,black,woman,,,,null,,,,
5360,,,survey-text,371,1363157,0.0-19.0-3.11,94164,List2B,black,woman,,,,,"{""Q0"":""Fred is shouting at Beth""}","<img src=""stim_listB/shout3.gif""</stim_listB>",is shouting at,
null,"<div style=""font-size:60px;"">+</div>",,html-keyboard-response,372,1363664,0.0-19.0-0.12,94164,List2B,black,woman,,,,null,,,,
null,"<img src=""stim_listB/dance4.gif""</stim_listB>",,html-keyboard-response,373,1365666,0.0-19.0-1.12,94164,List2B,black,woman,,,,null,,,,
null,are dancing with each other,,html-keyboard-response,374,1367668,0.0-19.0-2.12,94164,List2B,black,woman,,,,null,,,,
7573,,,survey-text,375,1375244,0.0-19.0-3.12,94164,List2B,black,woman,,,,,"{""Q0"":""Mike and Beth are dancing with each other""}","<img src=""stim_listB/dance4.gif""</stim_listB>",are dancing with each other,
null,"<div style=""font-size:60px;"">+</div>",,html-keyboard-response,376,1375747,0.0-19.0-0.13,94164,List2B,black,woman,,,,null,,,,
null,"<img src=""stim_listB/fight5.gif""</stim_listB>",,html-keyboard-response,377,1377756,0.0-19.0-1.13,94164,List2B,black,woman,,,,null,,,,
null,is fighting,,html-keyboard-response,378,1379762,0.0-19.0-2.13,94164,List2B,black,woman,,,,null,,,,
6336,,,survey-text,379,1386104,0.0-19.0-3.13,94164,List2B,black,woman,,,,,"{""Q0"":""Mike is fighting Dave""}","<img src=""stim_listB/fight5.gif""</stim_listB>",is fighting,
null,"<div style=""font-size:60px;"">+</div>",,html-keyboard-response,380,1386613,0.0-19.0-0.14,94164,List2B,black,woman,,,,null,,,,
null,"<img src=""stim_listB/marry5.gif""</stim_listB>",,html-keyboard-response,381,1388619,0.0-19.0-1.14,94164,List2B,black,woman,,,,null,,,,
null,is marrying,,html-keyboard-response,382,1390622,0.0-19.0-2.14,94164,List2B,black,woman,,,,null,,,,
7596,,,survey-text,383,1398221,0.0-19.0-3.14,94164,List2B,black,woman,,,,,"{""Q0"":""Fred is marrying Dave""}","<img src=""stim_listB/marry5.gif""</stim_listB>",is marrying,
null,"<div style=""font-size:60px;"">+</div>",,html-keyboard-response,384,1398723,0.0-19.0-0.15,94164,List2B,black,woman,,,,null,,,,
null,"<img src=""stim_listB/marry4.gif""</stim_listB>",,html-keyboard-response,385,1400726,0.0-19.0-1.15,94164,List2B,black,woman,,,,null,,,,
null,are marrying each other,,html-keyboard-response,386,1402728,0.0-19.0-2.15,94164,List2B,black,woman,,,,null,,,,
8899,,,survey-text,387,1411628,0.0-19.0-3.15,94164,List2B,black,woman,,,,,"{""Q0"":""Fred and Kate are marrying each other""}","<img src=""stim_listB/marry4.gif""</stim_listB>",are marrying each other,
null,"<div style=""font-size:60px;"">+</div>",,html-keyboard-response,388,1412132,0.0-19.0-0.16,94164,List2B,black,woman,,,,null,,,,
null,"<img src=""stim_listB/talk8.gif""</stim_listB>",,html-keyboard-response,389,1414139,0.0-19.0-1.16,94164,List2B,black,woman,,,,null,,,,
null,are talking to each other,,html-keyboard-response,390,1416141,0.0-19.0-2.16,94164,List2B,black,woman,,,,null,,,,
6941,,,survey-text,391,1423086,0.0-19.0-3.16,94164,List2B,black,woman,,,,,"{""Q0"":""Jane and Beth are talking to each other""}","<img src=""stim_listB/talk8.gif""</stim_listB>",are talking to each other,
null,"<div style=""font-size:60px;"">+</div>",,html-keyboard-response,392,1423591,0.0-19.0-0.17,94164,List2B,black,woman,,,,null,,,,
null,"<img src=""stim_listB/fight8.gif""</stim_listB>",,html-keyboard-response,393,1425593,0.0-19.0-1.17,94164,List2B,black,woman,,,,null,,,,
null,are fighting each other,,html-keyboard-response,394,1427594,0.0-19.0-2.17,94164,List2B,black,woman,,,,null,,,,
7058,,,survey-text,395,1434654,0.0-19.0-3.17,94164,List2B,black,woman,,,,,"{""Q0"":""Ruth and Beth are fighting each other""}","<img src=""stim_listB/fight8.gif""</stim_listB>",are fighting each other,
null,"<div style=""font-size:60px;"">+</div>",,html-keyboard-response,396,1435156,0.0-19.0-0.18,94164,List2B,black,woman,,,,null,,,,
null,"<img src=""stim_listB/touch4.gif""</stim_listB>",,html-keyboard-response,397,1437159,0.0-19.0-1.18,94164,List2B,black,woman,,,,null,,,,
null,are touching each other,,html-keyboard-response,398,1439162,0.0-19.0-2.18,94164,List2B,black,woman,,,,null,,,,
7245,,,survey-text,399,1446415,0.0-19.0-3.18,94164,List2B,black,woman,,,,,"{""Q0"":""Fred and Beth are touching each other""}","<img src=""stim_listB/touch4.gif""</stim_listB>",are touching each other,
null,"<div style=""font-size:60px;"">+</div>",,html-keyboard-response,400,1446922,0.0-19.0-0.19,94164,List2B,black,woman,,,,null,,,,
null,"<img src=""stim_listB/marry3.gif""</stim_listB>",,html-keyboard-response,401,1448928,0.0-19.0-1.19,94164,List2B,black,woman,,,,null,,,,
null,is marrying,,html-keyboard-response,402,1450930,0.0-19.0-2.19,94164,List2B,black,woman,,,,null,,,,
5945,,,survey-text,403,1456881,0.0-19.0-3.19,94164,List2B,black,woman,,,,,"{""Q0"":""Mike is marrying Beth""}","<img src=""stim_listB/marry3.gif""</stim_listB>",is marrying,
2755,<p>Thank you for completing that task.</p><p>The final part of this session is a short questionnaire.</p><p>Press Continue.</p>,0,html-button-response,404,1459638,0.0-20.0,94164,List2B,black,woman,,,,,,,,
36329,,,survey-text,405,1496977,0.0-21.0,94164,List2B,black,woman,,,,,"{""Q0"":""27"",""Q1"":""English"",""Q2"":""English"",""Q3"":""United States"",""Q4"":""African American / Black"",""Q5"":""Female""}",,,demographics
148300,,,survey-likert,406,1645294,0.0-22.0,94164,List2B,black,woman,,,,,"{""Q0"":3,""Q1"":5,""Q2"":2,""Q3"":4,""Q4"":5,""Q5"":5,""Q6"":5,""Q7"":4,""Q8"":4,""Q9"":4,""Q10"":3,""Q11"":3,""Q12"":1,""Q13"":2}",,,likert_race
54578,,,survey-likert,407,1699884,0.0-23.0,94164,List2B,black,woman,,,,,"{""Q0"":3,""Q1"":5,""Q2"":2,""Q3"":5,""Q4"":5,""Q5"":5,""Q6"":4,""Q7"":0,""Q8"":4,""Q9"":5,""Q10"":3,""Q11"":3,""Q12"":0,""Q13"":1}",,,likert_gender
12454,,,survey-text,408,1712348,0.0-24.0,94164,List2B,black,woman,,,,,"{""Q0"":""ccc""}",,,worker_id
40968,,,external-html,409,1753710,0.0-25.0,94164,List2B,black,woman,debrief.html,,,,,,,
