rt,stimulus,button_pressed,trial_type,trial_index,time_elapsed,internal_node_id,subject,list,ppt_race,ppt_gender,url,first_guess,correct,key_press,responses,image_type,phrase_type,test_part
2407,Welcome to the experiment. Press Continue to begin.,0,html-button-response,0,2453,0.0-0.0,94466,List1A,black,woman,,,,,,,,
40820,,,external-html,1,44410,0.0-1.0,94466,List1A,black,woman,consent.html,,,,,,,
11678,"<p>On the next page, you will see portraits of 8 people and their names.</p><p>Your first task is to take a few minutes to memorise the names of these people.</p><p>You will have to recall their names during the rest of the experiment, so it is</p><p>essential that you try to memorise these people and their names as best as you can.</p><br><p><strong>You will then be tested on your memory of these names and portraits.</strong></p><br><p>The experiment will start after you have completed this memory test.</p><br><p>Ready?</p>",0,html-button-response,2,56090,0.0-2.0,94466,List1A,black,woman,,,,,,,,
83015,"<img src='img/portrait_matrix_list1.JPG' style='width:900px;height:500px;''></img><p>If you have memorised all the portraits and names and are ready to start, press Continue.</p><p><strong>Please note: Your memory of these faces will be tested 4 times during this experiment.</strong></p>",0,html-button-response,3,140109,0.0-3.0-0.0,94466,List1A,black,woman,,,,,,,,
4248,"<img src=""portrait/WM1.jpg""style=""width:400px;height:400px;""></img>",6,html-button-response,4,145360,0.0-3.0-1.0,94466,List1A,black,woman,,TRUE,6,,,,,
null,CORRECT,,html-keyboard-response,5,146869,0.0-3.0-2.0-0.0,94466,List1A,black,woman,,,,null,,,,
16738,"<img src=""portrait/WW1.jpg""style=""width:400px;height:400px;""></img>",1,html-button-response,6,163608,0.0-3.0-4.0,94466,List1A,black,woman,,TRUE,1,,,,,
null,CORRECT,,html-keyboard-response,7,165116,0.0-3.0-5.0-0.0,94466,List1A,black,woman,,,,null,,,,
9557,"<img src=""portrait/WM2.jpg""style=""width:400px;height:400px;""></img>",7,html-button-response,8,174674,0.0-3.0-7.0,94466,List1A,black,woman,,TRUE,7,,,,,
null,CORRECT,,html-keyboard-response,9,176185,0.0-3.0-8.0-0.0,94466,List1A,black,woman,,,,null,,,,
5546,"<img src=""portrait/BW2.jpg""style=""width:400px;height:400px;""></img>",2,html-button-response,10,181733,0.0-3.0-10.0,94466,List1A,black,woman,,TRUE,2,,,,,
null,CORRECT,,html-keyboard-response,11,183240,0.0-3.0-11.0-0.0,94466,List1A,black,woman,,,,null,,,,
3651,"<img src=""portrait/BM2.jpg""style=""width:400px;height:400px;""></img>",5,html-button-response,12,186893,0.0-3.0-13.0,94466,List1A,black,woman,,TRUE,5,,,,,
null,CORRECT,,html-keyboard-response,13,188401,0.0-3.0-14.0-0.0,94466,List1A,black,woman,,,,null,,,,
8470,"<img src=""portrait/WW2.jpg""style=""width:400px;height:400px;""></img>",3,html-button-response,14,196873,0.0-3.0-16.0,94466,List1A,black,woman,,TRUE,3,,,,,
null,CORRECT,,html-keyboard-response,15,198380,0.0-3.0-17.0-0.0,94466,List1A,black,woman,,,,null,,,,
3601,"<img src=""portrait/BW1.jpg""style=""width:400px;height:400px;""></img>",0,html-button-response,16,201983,0.0-3.0-19.0,94466,List1A,black,woman,,TRUE,0,,,,,
null,CORRECT,,html-keyboard-response,17,203493,0.0-3.0-20.0-0.0,94466,List1A,black,woman,,,,null,,,,
3781,"<img src=""portrait/BM1.jpg""style=""width:400px;height:400px;""></img>",4,html-button-response,18,207275,0.0-3.0-22.0,94466,List1A,black,woman,,TRUE,4,,,,,
null,CORRECT,,html-keyboard-response,19,208781,0.0-3.0-23.0-0.0,94466,List1A,black,woman,,,,null,,,,
2010,<p>You got 8 out of 8 right first time. Press Continue.</p>,0,html-button-response,20,210793,0.0-3.0-25.0,94466,List1A,black,woman,,,,,,,,
26739,"<p>In this experiment, you will view photographs of the people from the memory game interacting.</p><p>By using the <strong>exact</strong> phrase given <i>after</i> the photograph appears and recalling the correct names of the people in the photographs, form a sentence describing the interaction. You do not need to capitalise names.</p><p>Type your answer in the space provided. Please complete every sentence before moving onto the next trial.</p><p>You will only have a few seconds to memorise each given photograph and phrase before you can respond, so try your best to focus.</p><p>An example is given below. Press 'Continue' when you are ready.</p><img src='img/speaking_example_v2.jpg' style='width:800px;height:460px;''></img>",0,html-button-response,21,238536,0.0-4.0,94466,List1A,black,woman,,,,,,,,
1788,"<p>Before the experiment starts, you will watch two example trials. Press 'Continue'.</p>",0,html-button-response,22,241326,0.0-5.0,94466,List1A,black,woman,,,,,,,,
null,<img src='img/speaking_WW.gif'></img>,,html-keyboard-response,23,244332,0.0-6.0,94466,List1A,black,woman,,,,null,,,,
null,<p>is speaking to</p>,,html-keyboard-response,24,246334,0.0-7.0,94466,List1A,black,woman,,,,null,,,,
4394,<p><b>Answer:</b> kate is speaking to beth</p>,0,html-button-response,25,250728,0.0-8.0,94466,List1A,black,woman,,,,,,,,
null,<img src='img/pointing_BM.gif'></img>,,html-keyboard-response,26,253739,0.0-9.0,94466,List1A,black,woman,,,,null,,,,
null,<p>are pointing at each other</p>,,html-keyboard-response,27,255744,0.0-10.0,94466,List1A,black,woman,,,,null,,,,
2629,<p><b>Answer:</b> luke and dave are pointing at each other</p>,0,html-button-response,28,258374,0.0-11.0,94466,List1A,black,woman,,,,,,,,
6211,"<p>Ready to start the experiment?</p><br><p><strong>Remember to describe the picture using a full sentence,</strong></p><p><strong> that combines the names of the people with the given phrase.</strong></p><p><strong> You do not need to capitalise names or use punctuation.</strong></p><br><p>Press 'Continue' to begin.</p>",0,html-button-response,29,265593,0.0-12.0,94466,List1A,black,woman,,,,,,,,
null,"<div style=""font-size:60px;"">+</div>",,html-keyboard-response,30,267097,0.0-13.0-0.0,94466,List1A,black,woman,,,,null,,,,
null,"<img src=""stim_listA/argue5.gif""</stim_listA>",,html-keyboard-response,31,269099,0.0-13.0-1.0,94466,List1A,black,woman,,,,null,,,,
null,is arguing with,,html-keyboard-response,32,271100,0.0-13.0-2.0,94466,List1A,black,woman,,,,null,,,,
15686,,,survey-text,33,286787,0.0-13.0-3.0,94466,List1A,black,woman,,,,,"{""Q0"":""luke is arguing with mike""}","<img src=""stim_listA/argue5.gif""</stim_listA>",is arguing with,
null,"<div style=""font-size:60px;"">+</div>",,html-keyboard-response,34,287290,0.0-13.0-0.1,94466,List1A,black,woman,,,,null,,,,
null,"<img src=""stim_listA/meet1.gif""</stim_listA>",,html-keyboard-response,35,289293,0.0-13.0-1.1,94466,List1A,black,woman,,,,null,,,,
null,is meeting,,html-keyboard-response,36,291297,0.0-13.0-2.1,94466,List1A,black,woman,,,,null,,,,
10753,,,survey-text,37,302051,0.0-13.0-3.1,94466,List1A,black,woman,,,,,"{""Q0"":""kate is meeting mike""}","<img src=""stim_listA/meet1.gif""</stim_listA>",is meeting,
null,"<div style=""font-size:60px;"">+</div>",,html-keyboard-response,38,302556,0.0-13.0-0.2,94466,List1A,black,woman,,,,null,,,,
null,"<img src=""stim_listA/kiss1.gif""</stim_listA>",,html-keyboard-response,39,304561,0.0-13.0-1.2,94466,List1A,black,woman,,,,null,,,,
null,is kissing,,html-keyboard-response,40,306563,0.0-13.0-2.2,94466,List1A,black,woman,,,,null,,,,
10289,,,survey-text,41,316854,0.0-13.0-3.2,94466,List1A,black,woman,,,,,"{""Q0"":""Fred is kissing beth""}","<img src=""stim_listA/kiss1.gif""</stim_listA>",is kissing,
null,"<div style=""font-size:60px;"">+</div>",,html-keyboard-response,42,317356,0.0-13.0-0.3,94466,List1A,black,woman,,,,null,,,,
null,"<img src=""stim_listA/touch7.gif""</stim_listA>",,html-keyboard-response,43,319362,0.0-13.0-1.3,94466,List1A,black,woman,,,,null,,,,
null,is touching,,html-keyboard-response,44,321363,0.0-13.0-2.3,94466,List1A,black,woman,,,,null,,,,
10514,,,survey-text,45,331878,0.0-13.0-3.3,94466,List1A,black,woman,,,,,"{""Q0"":""beth is touching jane""}","<img src=""stim_listA/touch7.gif""</stim_listA>",is touching,
null,"<div style=""font-size:60px;"">+</div>",,html-keyboard-response,46,332380,0.0-13.0-0.4,94466,List1A,black,woman,,,,null,,,,
null,"<img src=""stim_listA/dance7.gif""</stim_listA>",,html-keyboard-response,47,334382,0.0-13.0-1.4,94466,List1A,black,woman,,,,null,,,,
null,is dancing with,,html-keyboard-response,48,336384,0.0-13.0-2.4,94466,List1A,black,woman,,,,null,,,,
12577,,,survey-text,49,348962,0.0-13.0-3.4,94466,List1A,black,woman,,,,,"{""Q0"":""beth is dancing with jane""}","<img src=""stim_listA/dance7.gif""</stim_listA>",is dancing with,
null,"<div style=""font-size:60px;"">+</div>",,html-keyboard-response,50,349469,0.0-13.0-0.5,94466,List1A,black,woman,,,,null,,,,
null,"<img src=""stim_listA/argue8.gif""</stim_listA>",,html-keyboard-response,51,351471,0.0-13.0-1.5,94466,List1A,black,woman,,,,null,,,,
null,are arguing with each other,,html-keyboard-response,52,353475,0.0-13.0-2.5,94466,List1A,black,woman,,,,null,,,,
18252,,,survey-text,53,371729,0.0-13.0-3.5,94466,List1A,black,woman,,,,,"{""Q0"":""jane and beth are arguing with each other ""}","<img src=""stim_listA/argue8.gif""</stim_listA>",are arguing with each other,
null,"<div style=""font-size:60px;"">+</div>",,html-keyboard-response,54,372231,0.0-13.0-0.6,94466,List1A,black,woman,,,,null,,,,
null,"<img src=""stim_listA/touch5.gif""</stim_listA>",,html-keyboard-response,55,374234,0.0-13.0-1.6,94466,List1A,black,woman,,,,null,,,,
null,is touching,,html-keyboard-response,56,376240,0.0-13.0-2.6,94466,List1A,black,woman,,,,null,,,,
4249,,,survey-text,57,380489,0.0-13.0-3.6,94466,List1A,black,woman,,,,,"{""Q0"":""dave is touching mike""}","<img src=""stim_listA/touch5.gif""</stim_listA>",is touching,
null,"<div style=""font-size:60px;"">+</div>",,html-keyboard-response,58,380996,0.0-13.0-0.7,94466,List1A,black,woman,,,,null,,,,
null,"<img src=""stim_listA/talk3.gif""</stim_listA>",,html-keyboard-response,59,382998,0.0-13.0-1.7,94466,List1A,black,woman,,,,null,,,,
null,is talking to,,html-keyboard-response,60,385004,0.0-13.0-2.7,94466,List1A,black,woman,,,,null,,,,
16992,,,survey-text,61,401998,0.0-13.0-3.7,94466,List1A,black,woman,,,,,"{""Q0"":""jane is talking to luke""}","<img src=""stim_listA/talk3.gif""</stim_listA>",is talking to,
null,"<div style=""font-size:60px;"">+</div>",,html-keyboard-response,62,402504,0.0-13.0-0.8,94466,List1A,black,woman,,,,null,,,,
null,"<img src=""stim_listA/hug2.gif""</stim_listA>",,html-keyboard-response,63,404507,0.0-13.0-1.8,94466,List1A,black,woman,,,,null,,,,
null,are hugging each other,,html-keyboard-response,64,406510,0.0-13.0-2.8,94466,List1A,black,woman,,,,null,,,,
17440,,,survey-text,65,423950,0.0-13.0-3.8,94466,List1A,black,woman,,,,,"{""Q0"":""mike and kate are hugging each other ""}","<img src=""stim_listA/hug2.gif""</stim_listA>",are hugging each other,
null,"<div style=""font-size:60px;"">+</div>",,html-keyboard-response,66,424454,0.0-13.0-0.9,94466,List1A,black,woman,,,,null,,,,
null,"<img src=""stim_listA/fight4.gif""</stim_listA>",,html-keyboard-response,67,426460,0.0-13.0-1.9,94466,List1A,black,woman,,,,null,,,,
null,are fighting each other,,html-keyboard-response,68,428466,0.0-13.0-2.9,94466,List1A,black,woman,,,,null,,,,
9286,,,survey-text,69,437753,0.0-13.0-3.9,94466,List1A,black,woman,,,,,"{""Q0"":""ruth and luke are fighting each other""}","<img src=""stim_listA/fight4.gif""</stim_listA>",are fighting each other,
null,"<div style=""font-size:60px;"">+</div>",,html-keyboard-response,70,438259,0.0-13.0-0.10,94466,List1A,black,woman,,,,null,,,,
null,"<img src=""stim_listA/shout1.gif""</stim_listA>",,html-keyboard-response,71,440262,0.0-13.0-1.10,94466,List1A,black,woman,,,,null,,,,
null,is shouting at,,html-keyboard-response,72,442262,0.0-13.0-2.10,94466,List1A,black,woman,,,,null,,,,
5066,,,survey-text,73,447329,0.0-13.0-3.10,94466,List1A,black,woman,,,,,"{""Q0"":""fred is shouting at beth""}","<img src=""stim_listA/shout1.gif""</stim_listA>",is shouting at,
null,"<div style=""font-size:60px;"">+</div>",,html-keyboard-response,74,447831,0.0-13.0-0.11,94466,List1A,black,woman,,,,null,,,,
null,"<img src=""stim_listA/talk2.gif""</stim_listA>",,html-keyboard-response,75,449835,0.0-13.0-1.11,94466,List1A,black,woman,,,,null,,,,
null,are talking to each other,,html-keyboard-response,76,451837,0.0-13.0-2.11,94466,List1A,black,woman,,,,null,,,,
6445,,,survey-text,77,458283,0.0-13.0-3.11,94466,List1A,black,woman,,,,,"{""Q0"":""beth and mike are talking to each other""}","<img src=""stim_listA/talk2.gif""</stim_listA>",are talking to each other,
null,"<div style=""font-size:60px;"">+</div>",,html-keyboard-response,78,458785,0.0-13.0-0.12,94466,List1A,black,woman,,,,null,,,,
null,"<img src=""stim_listA/touch3.gif""</stim_listA>",,html-keyboard-response,79,460787,0.0-13.0-1.12,94466,List1A,black,woman,,,,null,,,,
null,is touching,,html-keyboard-response,80,462788,0.0-13.0-2.12,94466,List1A,black,woman,,,,null,,,,
5926,,,survey-text,81,468716,0.0-13.0-3.12,94466,List1A,black,woman,,,,,"{""Q0"":""dave is touching jane""}","<img src=""stim_listA/touch3.gif""</stim_listA>",is touching,
null,"<div style=""font-size:60px;"">+</div>",,html-keyboard-response,82,469218,0.0-13.0-0.13,94466,List1A,black,woman,,,,null,,,,
null,"<img src=""stim_listA/meet6.gif""</stim_listA>",,html-keyboard-response,83,471224,0.0-13.0-1.13,94466,List1A,black,woman,,,,null,,,,
null,are meeting each other,,html-keyboard-response,84,473228,0.0-13.0-2.13,94466,List1A,black,woman,,,,null,,,,
5366,,,survey-text,85,478596,0.0-13.0-3.13,94466,List1A,black,woman,,,,,"{""Q0"":""luke and mike are meeting each other""}","<img src=""stim_listA/meet6.gif""</stim_listA>",are meeting each other,
null,"<div style=""font-size:60px;"">+</div>",,html-keyboard-response,86,479101,0.0-13.0-0.14,94466,List1A,black,woman,,,,null,,,,
null,"<img src=""stim_listA/marry7.gif""</stim_listA>",,html-keyboard-response,87,481108,0.0-13.0-1.14,94466,List1A,black,woman,,,,null,,,,
null,is marrying,,html-keyboard-response,88,483110,0.0-13.0-2.14,94466,List1A,black,woman,,,,null,,,,
8249,,,survey-text,89,491360,0.0-13.0-3.14,94466,List1A,black,woman,,,,,"{""Q0"":""ruth is marrying kate""}","<img src=""stim_listA/marry7.gif""</stim_listA>",is marrying,
null,"<div style=""font-size:60px;"">+</div>",,html-keyboard-response,90,491863,0.0-13.0-0.15,94466,List1A,black,woman,,,,null,,,,
null,"<img src=""stim_listA/fight6.gif""</stim_listA>",,html-keyboard-response,91,493866,0.0-13.0-1.15,94466,List1A,black,woman,,,,null,,,,
null,are fighting each other,,html-keyboard-response,92,495867,0.0-13.0-2.15,94466,List1A,black,woman,,,,null,,,,
11099,,,survey-text,93,506966,0.0-13.0-3.15,94466,List1A,black,woman,,,,,"{""Q0"":""fred is fighting luke""}","<img src=""stim_listA/fight6.gif""</stim_listA>",are fighting each other,
null,"<div style=""font-size:60px;"">+</div>",,html-keyboard-response,94,507470,0.0-13.0-0.16,94466,List1A,black,woman,,,,null,,,,
null,"<img src=""stim_listA/fight7.gif""</stim_listA>",,html-keyboard-response,95,509475,0.0-13.0-1.16,94466,List1A,black,woman,,,,null,,,,
null,is fighting,,html-keyboard-response,96,511476,0.0-13.0-2.16,94466,List1A,black,woman,,,,null,,,,
5454,,,survey-text,97,516931,0.0-13.0-3.16,94466,List1A,black,woman,,,,,"{""Q0"":""jane is fighting kate""}","<img src=""stim_listA/fight7.gif""</stim_listA>",is fighting,
null,"<div style=""font-size:60px;"">+</div>",,html-keyboard-response,98,517435,0.0-13.0-0.17,94466,List1A,black,woman,,,,null,,,,
null,"<img src=""stim_listA/shout8.gif""</stim_listA>",,html-keyboard-response,99,519439,0.0-13.0-1.17,94466,List1A,black,woman,,,,null,,,,
null,are shouting at each other,,html-keyboard-response,100,521441,0.0-13.0-2.17,94466,List1A,black,woman,,,,null,,,,
7384,,,survey-text,101,528825,0.0-13.0-3.17,94466,List1A,black,woman,,,,,"{""Q0"":""jane and kate are shouting at each other""}","<img src=""stim_listA/shout8.gif""</stim_listA>",are shouting at each other,
null,"<div style=""font-size:60px;"">+</div>",,html-keyboard-response,102,529329,0.0-13.0-0.18,94466,List1A,black,woman,,,,null,,,,
null,"<img src=""stim_listA/shout2.gif""</stim_listA>",,html-keyboard-response,103,531332,0.0-13.0-1.18,94466,List1A,black,woman,,,,null,,,,
null,are shouting at each other,,html-keyboard-response,104,533335,0.0-13.0-2.18,94466,List1A,black,woman,,,,null,,,,
6919,,,survey-text,105,540255,0.0-13.0-3.18,94466,List1A,black,woman,,,,,"{""Q0"":""mike and kate are shouting at each other""}","<img src=""stim_listA/shout2.gif""</stim_listA>",are shouting at each other,
null,"<div style=""font-size:60px;"">+</div>",,html-keyboard-response,106,540758,0.0-13.0-0.19,94466,List1A,black,woman,,,,null,,,,
null,"<img src=""stim_listA/meet3.gif""</stim_listA>",,html-keyboard-response,107,542762,0.0-13.0-1.19,94466,List1A,black,woman,,,,null,,,,
null,is meeting,,html-keyboard-response,108,544764,0.0-13.0-2.19,94466,List1A,black,woman,,,,null,,,,
7015,,,survey-text,109,551780,0.0-13.0-3.19,94466,List1A,black,woman,,,,,"{""Q0"":""dave is meeting jane""}","<img src=""stim_listA/meet3.gif""</stim_listA>",is meeting,
10032,"<img src='img/portrait_matrix_list1.JPG' style='width:900px;height:500px;''></img><p>If you have memorised all the portraits and names and are ready to start, press Continue.</p><p><strong>Please note: Your memory of these faces will be tested 4 times during this experiment.</strong></p>",0,html-button-response,110,561814,0.0-14.0-0.0,94466,List1A,black,woman,,,,,,,,
5268,"<img src=""portrait/WW1.jpg""style=""width:400px;height:400px;""></img>",1,html-button-response,111,568086,0.0-14.0-1.0,94466,List1A,black,woman,,TRUE,1,,,,,
null,CORRECT,,html-keyboard-response,112,569598,0.0-14.0-2.0-0.0,94466,List1A,black,woman,,,,null,,,,
1741,"<img src=""portrait/BM2.jpg""style=""width:400px;height:400px;""></img>",5,html-button-response,113,571341,0.0-14.0-4.0,94466,List1A,black,woman,,TRUE,5,,,,,
null,CORRECT,,html-keyboard-response,114,572845,0.0-14.0-5.0-0.0,94466,List1A,black,woman,,,,null,,,,
1656,"<img src=""portrait/BW1.jpg""style=""width:400px;height:400px;""></img>",0,html-button-response,115,574503,0.0-14.0-7.0,94466,List1A,black,woman,,TRUE,0,,,,,
null,CORRECT,,html-keyboard-response,116,576008,0.0-14.0-8.0-0.0,94466,List1A,black,woman,,,,null,,,,
1379,"<img src=""portrait/BW2.jpg""style=""width:400px;height:400px;""></img>",2,html-button-response,117,577389,0.0-14.0-10.0,94466,List1A,black,woman,,TRUE,2,,,,,
null,CORRECT,,html-keyboard-response,118,578899,0.0-14.0-11.0-0.0,94466,List1A,black,woman,,,,null,,,,
1471,"<img src=""portrait/WM2.jpg""style=""width:400px;height:400px;""></img>",7,html-button-response,119,580372,0.0-14.0-13.0,94466,List1A,black,woman,,TRUE,7,,,,,
null,CORRECT,,html-keyboard-response,120,581882,0.0-14.0-14.0-0.0,94466,List1A,black,woman,,,,null,,,,
1307,"<img src=""portrait/WW2.jpg""style=""width:400px;height:400px;""></img>",3,html-button-response,121,583191,0.0-14.0-16.0,94466,List1A,black,woman,,TRUE,3,,,,,
null,CORRECT,,html-keyboard-response,122,584697,0.0-14.0-17.0-0.0,94466,List1A,black,woman,,,,null,,,,
1620,"<img src=""portrait/WM1.jpg""style=""width:400px;height:400px;""></img>",6,html-button-response,123,586319,0.0-14.0-19.0,94466,List1A,black,woman,,TRUE,6,,,,,
null,CORRECT,,html-keyboard-response,124,587829,0.0-14.0-20.0-0.0,94466,List1A,black,woman,,,,null,,,,
1644,"<img src=""portrait/BM1.jpg""style=""width:400px;height:400px;""></img>",4,html-button-response,125,589475,0.0-14.0-22.0,94466,List1A,black,woman,,TRUE,4,,,,,
null,CORRECT,,html-keyboard-response,126,590987,0.0-14.0-23.0-0.0,94466,List1A,black,woman,,,,null,,,,
1181,<p>You got 8 out of 8 right first time. Press Continue.</p>,0,html-button-response,127,592169,0.0-14.0-25.0,94466,List1A,black,woman,,,,,,,,
null,"<div style=""font-size:60px;"">+</div>",,html-keyboard-response,128,593679,0.0-15.0-0.0,94466,List1A,black,woman,,,,null,,,,
null,"<img src=""stim_listA/fight5.gif""</stim_listA>",,html-keyboard-response,129,595681,0.0-15.0-1.0,94466,List1A,black,woman,,,,null,,,,
null,is fighting,,html-keyboard-response,130,597685,0.0-15.0-2.0,94466,List1A,black,woman,,,,null,,,,
6561,,,survey-text,131,604247,0.0-15.0-3.0,94466,List1A,black,woman,,,,,"{""Q0"":""dave is fighting mike""}","<img src=""stim_listA/fight5.gif""</stim_listA>",is fighting,
null,"<div style=""font-size:60px;"">+</div>",,html-keyboard-response,132,604752,0.0-15.0-0.1,94466,List1A,black,woman,,,,null,,,,
null,"<img src=""stim_listA/meet7.gif""</stim_listA>",,html-keyboard-response,133,606757,0.0-15.0-1.1,94466,List1A,black,woman,,,,null,,,,
null,is meeting,,html-keyboard-response,134,608760,0.0-15.0-2.1,94466,List1A,black,woman,,,,null,,,,
4117,,,survey-text,135,612877,0.0-15.0-3.1,94466,List1A,black,woman,,,,,"{""Q0"":""jane is meeting kate""}","<img src=""stim_listA/meet7.gif""</stim_listA>",is meeting,
null,"<div style=""font-size:60px;"">+</div>",,html-keyboard-response,136,613382,0.0-15.0-0.2,94466,List1A,black,woman,,,,null,,,,
null,"<img src=""stim_listA/hug6.gif""</stim_listA>",,html-keyboard-response,137,615387,0.0-15.0-1.2,94466,List1A,black,woman,,,,null,,,,
null,are hugging each other,,html-keyboard-response,138,617390,0.0-15.0-2.2,94466,List1A,black,woman,,,,null,,,,
7590,,,survey-text,139,624982,0.0-15.0-3.2,94466,List1A,black,woman,,,,,"{""Q0"":""dave and mike are hugging each other""}","<img src=""stim_listA/hug6.gif""</stim_listA>",are hugging each other,
null,"<div style=""font-size:60px;"">+</div>",,html-keyboard-response,140,625486,0.0-15.0-0.3,94466,List1A,black,woman,,,,null,,,,
null,"<img src=""stim_listA/dance1.gif""</stim_listA>",,html-keyboard-response,141,627491,0.0-15.0-1.3,94466,List1A,black,woman,,,,null,,,,
null,is dancing with,,html-keyboard-response,142,629492,0.0-15.0-2.3,94466,List1A,black,woman,,,,null,,,,
4439,,,survey-text,143,633931,0.0-15.0-3.3,94466,List1A,black,woman,,,,,"{""Q0"":""kate is dancing with fred""}","<img src=""stim_listA/dance1.gif""</stim_listA>",is dancing with,
null,"<div style=""font-size:60px;"">+</div>",,html-keyboard-response,144,634434,0.0-15.0-0.4,94466,List1A,black,woman,,,,null,,,,
null,"<img src=""stim_listA/argue6.gif""</stim_listA>",,html-keyboard-response,145,636439,0.0-15.0-1.4,94466,List1A,black,woman,,,,null,,,,
null,are arguing with each other,,html-keyboard-response,146,638440,0.0-15.0-2.4,94466,List1A,black,woman,,,,null,,,,
7581,,,survey-text,147,646022,0.0-15.0-3.4,94466,List1A,black,woman,,,,,"{""Q0"":""dave and fred are arguing with each other""}","<img src=""stim_listA/argue6.gif""</stim_listA>",are arguing with each other,
null,"<div style=""font-size:60px;"">+</div>",,html-keyboard-response,148,646523,0.0-15.0-0.5,94466,List1A,black,woman,,,,null,,,,
null,"<img src=""stim_listA/meet2.gif""</stim_listA>",,html-keyboard-response,149,648525,0.0-15.0-1.5,94466,List1A,black,woman,,,,null,,,,
null,are meeting each other,,html-keyboard-response,150,650529,0.0-15.0-2.5,94466,List1A,black,woman,,,,null,,,,
5679,,,survey-text,151,656208,0.0-15.0-3.5,94466,List1A,black,woman,,,,,"{""Q0"":""beth and fred are meeting each other""}","<img src=""stim_listA/meet2.gif""</stim_listA>",are meeting each other,
null,"<div style=""font-size:60px;"">+</div>",,html-keyboard-response,152,656712,0.0-15.0-0.6,94466,List1A,black,woman,,,,null,,,,
null,"<img src=""stim_listA/kiss6.gif""</stim_listA>",,html-keyboard-response,153,658714,0.0-15.0-1.6,94466,List1A,black,woman,,,,null,,,,
null,are kissing each other,,html-keyboard-response,154,660717,0.0-15.0-2.6,94466,List1A,black,woman,,,,null,,,,
4967,,,survey-text,155,665685,0.0-15.0-3.6,94466,List1A,black,woman,,,,,"{""Q0"":""dave and mike are kissing each other""}","<img src=""stim_listA/kiss6.gif""</stim_listA>",are kissing each other,
null,"<div style=""font-size:60px;"">+</div>",,html-keyboard-response,156,666191,0.0-15.0-0.7,94466,List1A,black,woman,,,,null,,,,
null,"<img src=""stim_listA/hug3.gif""</stim_listA>",,html-keyboard-response,157,668194,0.0-15.0-1.7,94466,List1A,black,woman,,,,null,,,,
null,is hugging,,html-keyboard-response,158,670196,0.0-15.0-2.7,94466,List1A,black,woman,,,,null,,,,
5577,,,survey-text,159,675775,0.0-15.0-3.7,94466,List1A,black,woman,,,,,"{""Q0"":""mike is hugging ruth""}","<img src=""stim_listA/hug3.gif""</stim_listA>",is hugging,
null,"<div style=""font-size:60px;"">+</div>",,html-keyboard-response,160,676279,0.0-15.0-0.8,94466,List1A,black,woman,,,,null,,,,
null,"<img src=""stim_listA/kiss8.gif""</stim_listA>",,html-keyboard-response,161,678283,0.0-15.0-1.8,94466,List1A,black,woman,,,,null,,,,
null,are kissing each other,,html-keyboard-response,162,680284,0.0-15.0-2.8,94466,List1A,black,woman,,,,null,,,,
5359,,,survey-text,163,685643,0.0-15.0-3.8,94466,List1A,black,woman,,,,,"{""Q0"":""kate and jane are kissing each other""}","<img src=""stim_listA/kiss8.gif""</stim_listA>",are kissing each other,
null,"<div style=""font-size:60px;"">+</div>",,html-keyboard-response,164,686150,0.0-15.0-0.9,94466,List1A,black,woman,,,,null,,,,
null,"<img src=""stim_listA/talk1.gif""</stim_listA>",,html-keyboard-response,165,688155,0.0-15.0-1.9,94466,List1A,black,woman,,,,null,,,,
null,is talking to,,html-keyboard-response,166,690160,0.0-15.0-2.9,94466,List1A,black,woman,,,,null,,,,
4807,,,survey-text,167,694967,0.0-15.0-3.9,94466,List1A,black,woman,,,,,"{""Q0"":""kate is talking to fred""}","<img src=""stim_listA/talk1.gif""</stim_listA>",is talking to,
null,"<div style=""font-size:60px;"">+</div>",,html-keyboard-response,168,695470,0.0-15.0-0.10,94466,List1A,black,woman,,,,null,,,,
null,"<img src=""stim_listA/hug1.gif""</stim_listA>",,html-keyboard-response,169,697471,0.0-15.0-1.10,94466,List1A,black,woman,,,,null,,,,
null,is hugging,,html-keyboard-response,170,699476,0.0-15.0-2.10,94466,List1A,black,woman,,,,null,,,,
5355,,,survey-text,171,704832,0.0-15.0-3.10,94466,List1A,black,woman,,,,,"{""Q0"":""fred is hugging beth""}","<img src=""stim_listA/hug1.gif""</stim_listA>",is hugging,
null,"<div style=""font-size:60px;"">+</div>",,html-keyboard-response,172,705338,0.0-15.0-0.11,94466,List1A,black,woman,,,,null,,,,
null,"<img src=""stim_listA/talk8.gif""</stim_listA>",,html-keyboard-response,173,707344,0.0-15.0-1.11,94466,List1A,black,woman,,,,null,,,,
null,are talking to each other,,html-keyboard-response,174,709347,0.0-15.0-2.11,94466,List1A,black,woman,,,,null,,,,
6442,,,survey-text,175,715790,0.0-15.0-3.11,94466,List1A,black,woman,,,,,"{""Q0"":""kate and ruth are talking to each other""}","<img src=""stim_listA/talk8.gif""</stim_listA>",are talking to each other,
null,"<div style=""font-size:60px;"">+</div>",,html-keyboard-response,176,716296,0.0-15.0-0.12,94466,List1A,black,woman,,,,null,,,,
null,"<img src=""stim_listA/marry3.gif""</stim_listA>",,html-keyboard-response,177,718298,0.0-15.0-1.12,94466,List1A,black,woman,,,,null,,,,
null,is marrying,,html-keyboard-response,178,720303,0.0-15.0-2.12,94466,List1A,black,woman,,,,null,,,,
5303,,,survey-text,179,725606,0.0-15.0-3.12,94466,List1A,black,woman,,,,,"{""Q0"":""dave is marrying ruth""}","<img src=""stim_listA/marry3.gif""</stim_listA>",is marrying,
null,"<div style=""font-size:60px;"">+</div>",,html-keyboard-response,180,726112,0.0-15.0-0.13,94466,List1A,black,woman,,,,null,,,,
null,"<img src=""stim_listA/fight8.gif""</stim_listA>",,html-keyboard-response,181,728114,0.0-15.0-1.13,94466,List1A,black,woman,,,,null,,,,
null,are fighting each other,,html-keyboard-response,182,730118,0.0-15.0-2.13,94466,List1A,black,woman,,,,null,,,,
4654,,,survey-text,183,734773,0.0-15.0-3.13,94466,List1A,black,woman,,,,,"{""Q0"":""ruth and beth are fighting each other""}","<img src=""stim_listA/fight8.gif""</stim_listA>",are fighting each other,
null,"<div style=""font-size:60px;"">+</div>",,html-keyboard-response,184,735279,0.0-15.0-0.14,94466,List1A,black,woman,,,,null,,,,
null,"<img src=""stim_listA/marry8.gif""</stim_listA>",,html-keyboard-response,185,737282,0.0-15.0-1.14,94466,List1A,black,woman,,,,null,,,,
null,are marrying each other,,html-keyboard-response,186,739284,0.0-15.0-2.14,94466,List1A,black,woman,,,,null,,,,
8720,,,survey-text,187,748005,0.0-15.0-3.14,94466,List1A,black,woman,,,,,"{""Q0"":""jane and beth are marrying each other""}","<img src=""stim_listA/marry8.gif""</stim_listA>",are marrying each other,
null,"<div style=""font-size:60px;"">+</div>",,html-keyboard-response,188,748509,0.0-15.0-0.15,94466,List1A,black,woman,,,,null,,,,
null,"<img src=""stim_listA/marry2.gif""</stim_listA>",,html-keyboard-response,189,750511,0.0-15.0-1.15,94466,List1A,black,woman,,,,null,,,,
null,are marrying each other,,html-keyboard-response,190,752512,0.0-15.0-2.15,94466,List1A,black,woman,,,,null,,,,
5435,,,survey-text,191,757947,0.0-15.0-3.15,94466,List1A,black,woman,,,,,"{""Q0"":""kate and fred are marrying each other""}","<img src=""stim_listA/marry2.gif""</stim_listA>",are marrying each other,
null,"<div style=""font-size:60px;"">+</div>",,html-keyboard-response,192,758451,0.0-15.0-0.16,94466,List1A,black,woman,,,,null,,,,
null,"<img src=""stim_listA/shout7.gif""</stim_listA>",,html-keyboard-response,193,760456,0.0-15.0-1.16,94466,List1A,black,woman,,,,null,,,,
null,is shouting at,,html-keyboard-response,194,762458,0.0-15.0-2.16,94466,List1A,black,woman,,,,null,,,,
4682,,,survey-text,195,767141,0.0-15.0-3.16,94466,List1A,black,woman,,,,,"{""Q0"":""beth is shouting at ruth""}","<img src=""stim_listA/shout7.gif""</stim_listA>",is shouting at,
null,"<div style=""font-size:60px;"">+</div>",,html-keyboard-response,196,767644,0.0-15.0-0.17,94466,List1A,black,woman,,,,null,,,,
null,"<img src=""stim_listA/dance5.gif""</stim_listA>",,html-keyboard-response,197,769646,0.0-15.0-1.17,94466,List1A,black,woman,,,,null,,,,
null,is dancing with,,html-keyboard-response,198,771649,0.0-15.0-2.17,94466,List1A,black,woman,,,,null,,,,
5498,,,survey-text,199,777148,0.0-15.0-3.17,94466,List1A,black,woman,,,,,"{""Q0"":""fred is dancing with dave""}","<img src=""stim_listA/dance5.gif""</stim_listA>",is dancing with,
null,"<div style=""font-size:60px;"">+</div>",,html-keyboard-response,200,777649,0.0-15.0-0.18,94466,List1A,black,woman,,,,null,,,,
null,"<img src=""stim_listA/meet4.gif""</stim_listA>",,html-keyboard-response,201,779653,0.0-15.0-1.18,94466,List1A,black,woman,,,,null,,,,
null,are meeting each other,,html-keyboard-response,202,781654,0.0-15.0-2.18,94466,List1A,black,woman,,,,null,,,,
6280,,,survey-text,203,787936,0.0-15.0-3.18,94466,List1A,black,woman,,,,,"{""Q0"":""mike and ruth are meeting each other""}","<img src=""stim_listA/meet4.gif""</stim_listA>",are meeting each other,
null,"<div style=""font-size:60px;"">+</div>",,html-keyboard-response,204,788441,0.0-15.0-0.19,94466,List1A,black,woman,,,,null,,,,
null,"<img src=""stim_listA/shout5.gif""</stim_listA>",,html-keyboard-response,205,790444,0.0-15.0-1.19,94466,List1A,black,woman,,,,null,,,,
null,is shouting at,,html-keyboard-response,206,792445,0.0-15.0-2.19,94466,List1A,black,woman,,,,null,,,,
4012,,,survey-text,207,796458,0.0-15.0-3.19,94466,List1A,black,woman,,,,,"{""Q0"":""mike is shouting at fred""}","<img src=""stim_listA/shout5.gif""</stim_listA>",is shouting at,
5881,"<img src='img/portrait_matrix_list1.JPG' style='width:900px;height:500px;''></img><p>If you have memorised all the portraits and names and are ready to start, press Continue.</p><p><strong>Please note: Your memory of these faces will be tested 4 times during this experiment.</strong></p>",0,html-button-response,208,802340,0.0-16.0-0.0,94466,List1A,black,woman,,,,,,,,
4162,"<img src=""portrait/BW1.jpg""style=""width:400px;height:400px;""></img>",0,html-button-response,209,807508,0.0-16.0-1.0,94466,List1A,black,woman,,TRUE,0,,,,,
null,CORRECT,,html-keyboard-response,210,809015,0.0-16.0-2.0-0.0,94466,List1A,black,woman,,,,null,,,,
2917,"<img src=""portrait/WM1.jpg""style=""width:400px;height:400px;""></img>",6,html-button-response,211,811933,0.0-16.0-4.0,94466,List1A,black,woman,,TRUE,6,,,,,
null,CORRECT,,html-keyboard-response,212,813442,0.0-16.0-5.0-0.0,94466,List1A,black,woman,,,,null,,,,
1573,"<img src=""portrait/WW2.jpg""style=""width:400px;height:400px;""></img>",3,html-button-response,213,815017,0.0-16.0-7.0,94466,List1A,black,woman,,TRUE,3,,,,,
null,CORRECT,,html-keyboard-response,214,816528,0.0-16.0-8.0-0.0,94466,List1A,black,woman,,,,null,,,,
1416,"<img src=""portrait/WM2.jpg""style=""width:400px;height:400px;""></img>",7,html-button-response,215,817945,0.0-16.0-10.0,94466,List1A,black,woman,,TRUE,7,,,,,
null,CORRECT,,html-keyboard-response,216,819450,0.0-16.0-11.0-0.0,94466,List1A,black,woman,,,,null,,,,
3273,"<img src=""portrait/BM1.jpg""style=""width:400px;height:400px;""></img>",4,html-button-response,217,822725,0.0-16.0-13.0,94466,List1A,black,woman,,TRUE,4,,,,,
null,CORRECT,,html-keyboard-response,218,824232,0.0-16.0-14.0-0.0,94466,List1A,black,woman,,,,null,,,,
1928,"<img src=""portrait/BW2.jpg""style=""width:400px;height:400px;""></img>",2,html-button-response,219,826161,0.0-16.0-16.0,94466,List1A,black,woman,,TRUE,2,,,,,
null,CORRECT,,html-keyboard-response,220,827668,0.0-16.0-17.0-0.0,94466,List1A,black,woman,,,,null,,,,
2114,"<img src=""portrait/BM2.jpg""style=""width:400px;height:400px;""></img>",5,html-button-response,221,829783,0.0-16.0-19.0,94466,List1A,black,woman,,TRUE,5,,,,,
null,CORRECT,,html-keyboard-response,222,831287,0.0-16.0-20.0-0.0,94466,List1A,black,woman,,,,null,,,,
2318,"<img src=""portrait/WW1.jpg""style=""width:400px;height:400px;""></img>",1,html-button-response,223,833607,0.0-16.0-22.0,94466,List1A,black,woman,,TRUE,1,,,,,
null,CORRECT,,html-keyboard-response,224,835115,0.0-16.0-23.0-0.0,94466,List1A,black,woman,,,,null,,,,
1328,<p>You got 8 out of 8 right first time. Press Continue.</p>,0,html-button-response,225,836445,0.0-16.0-25.0,94466,List1A,black,woman,,,,,,,,
null,"<div style=""font-size:60px;"">+</div>",,html-keyboard-response,226,837954,0.0-17.0-0.0,94466,List1A,black,woman,,,,null,,,,
null,"<img src=""stim_listA/dance8.gif""</stim_listA>",,html-keyboard-response,227,839961,0.0-17.0-1.0,94466,List1A,black,woman,,,,null,,,,
null,are dancing with each other,,html-keyboard-response,228,841964,0.0-17.0-2.0,94466,List1A,black,woman,,,,null,,,,
8795,,,survey-text,229,850759,0.0-17.0-3.0,94466,List1A,black,woman,,,,,"{""Q0"":""kate and ruth are dancing with each other""}","<img src=""stim_listA/dance8.gif""</stim_listA>",are dancing with each other,
null,"<div style=""font-size:60px;"">+</div>",,html-keyboard-response,230,851266,0.0-17.0-0.1,94466,List1A,black,woman,,,,null,,,,
null,"<img src=""stim_listA/touch8.gif""</stim_listA>",,html-keyboard-response,231,853267,0.0-17.0-1.1,94466,List1A,black,woman,,,,null,,,,
null,are touching each other,,html-keyboard-response,232,855273,0.0-17.0-2.1,94466,List1A,black,woman,,,,null,,,,
6078,,,survey-text,233,861352,0.0-17.0-3.1,94466,List1A,black,woman,,,,,"{""Q0"":""beth and ruth are touching each other""}","<img src=""stim_listA/touch8.gif""</stim_listA>",are touching each other,
null,"<div style=""font-size:60px;"">+</div>",,html-keyboard-response,234,861855,0.0-17.0-0.2,94466,List1A,black,woman,,,,null,,,,
null,"<img src=""stim_listA/argue7.gif""</stim_listA>",,html-keyboard-response,235,863857,0.0-17.0-1.2,94466,List1A,black,woman,,,,null,,,,
null,is arguing with,,html-keyboard-response,236,865860,0.0-17.0-2.2,94466,List1A,black,woman,,,,null,,,,
3739,,,survey-text,237,869600,0.0-17.0-3.2,94466,List1A,black,woman,,,,,"{""Q0"":""ruth is arguing with kate""}","<img src=""stim_listA/argue7.gif""</stim_listA>",is arguing with,
null,"<div style=""font-size:60px;"">+</div>",,html-keyboard-response,238,870103,0.0-17.0-0.3,94466,List1A,black,woman,,,,null,,,,
null,"<img src=""stim_listA/argue2.gif""</stim_listA>",,html-keyboard-response,239,872109,0.0-17.0-1.3,94466,List1A,black,woman,,,,null,,,,
null,are arguing with each other,,html-keyboard-response,240,874115,0.0-17.0-2.3,94466,List1A,black,woman,,,,null,,,,
9102,,,survey-text,241,883218,0.0-17.0-3.3,94466,List1A,black,woman,,,,,"{""Q0"":""kate and fred are arguing with each other""}","<img src=""stim_listA/argue2.gif""</stim_listA>",are arguing with each other,
null,"<div style=""font-size:60px;"">+</div>",,html-keyboard-response,242,883721,0.0-17.0-0.4,94466,List1A,black,woman,,,,null,,,,
null,"<img src=""stim_listA/touch4.gif""</stim_listA>",,html-keyboard-response,243,885724,0.0-17.0-1.4,94466,List1A,black,woman,,,,null,,,,
null,are touching each other,,html-keyboard-response,244,887726,0.0-17.0-2.4,94466,List1A,black,woman,,,,null,,,,
6323,,,survey-text,245,894050,0.0-17.0-3.4,94466,List1A,black,woman,,,,,"{""Q0"":""ruth and luke are touching each other""}","<img src=""stim_listA/touch4.gif""</stim_listA>",are touching each other,
null,"<div style=""font-size:60px;"">+</div>",,html-keyboard-response,246,894555,0.0-17.0-0.5,94466,List1A,black,woman,,,,null,,,,
null,"<img src=""stim_listA/kiss7.gif""</stim_listA>",,html-keyboard-response,247,896556,0.0-17.0-1.5,94466,List1A,black,woman,,,,null,,,,
null,is kissing,,html-keyboard-response,248,898559,0.0-17.0-2.5,94466,List1A,black,woman,,,,null,,,,
3861,,,survey-text,249,902421,0.0-17.0-3.5,94466,List1A,black,woman,,,,,"{""Q0"":""ruth is kissing beth""}","<img src=""stim_listA/kiss7.gif""</stim_listA>",is kissing,
null,"<div style=""font-size:60px;"">+</div>",,html-keyboard-response,250,902922,0.0-17.0-0.6,94466,List1A,black,woman,,,,null,,,,
null,"<img src=""stim_listA/kiss4.gif""</stim_listA>",,html-keyboard-response,251,904925,0.0-17.0-1.6,94466,List1A,black,woman,,,,null,,,,
null,are kissing each other,,html-keyboard-response,252,906930,0.0-17.0-2.6,94466,List1A,black,woman,,,,null,,,,
6507,,,survey-text,253,913439,0.0-17.0-3.6,94466,List1A,black,woman,,,,,"{""Q0"":""dave and jane are kissing each other""}","<img src=""stim_listA/kiss4.gif""</stim_listA>",are kissing each other,
null,"<div style=""font-size:60px;"">+</div>",,html-keyboard-response,254,913944,0.0-17.0-0.7,94466,List1A,black,woman,,,,null,,,,
null,"<img src=""stim_listA/dance3.gif""</stim_listA>",,html-keyboard-response,255,915951,0.0-17.0-1.7,94466,List1A,black,woman,,,,null,,,,
null,is dancing with,,html-keyboard-response,256,917955,0.0-17.0-2.7,94466,List1A,black,woman,,,,null,,,,
4841,,,survey-text,257,922797,0.0-17.0-3.7,94466,List1A,black,woman,,,,,"{""Q0"":""jane is dancing with mike""}","<img src=""stim_listA/dance3.gif""</stim_listA>",is dancing with,
null,"<div style=""font-size:60px;"">+</div>",,html-keyboard-response,258,923300,0.0-17.0-0.8,94466,List1A,black,woman,,,,null,,,,
null,"<img src=""stim_listA/fight1.gif""</stim_listA>",,html-keyboard-response,259,925303,0.0-17.0-1.8,94466,List1A,black,woman,,,,null,,,,
null,is fighting,,html-keyboard-response,260,927306,0.0-17.0-2.8,94466,List1A,black,woman,,,,null,,,,
10008,,,survey-text,261,937315,0.0-17.0-3.8,94466,List1A,black,woman,,,,,"{""Q0"":""mike is fighting with kate""}","<img src=""stim_listA/fight1.gif""</stim_listA>",is fighting,
null,"<div style=""font-size:60px;"">+</div>",,html-keyboard-response,262,937820,0.0-17.0-0.9,94466,List1A,black,woman,,,,null,,,,
null,"<img src=""stim_listA/dance2.gif""</stim_listA>",,html-keyboard-response,263,939822,0.0-17.0-1.9,94466,List1A,black,woman,,,,null,,,,
null,are dancing with each other,,html-keyboard-response,264,941823,0.0-17.0-2.9,94466,List1A,black,woman,,,,null,,,,
6674,,,survey-text,265,948498,0.0-17.0-3.9,94466,List1A,black,woman,,,,,"{""Q0"":""beth and mike are dancing with each other""}","<img src=""stim_listA/dance2.gif""</stim_listA>",are dancing with each other,
null,"<div style=""font-size:60px;"">+</div>",,html-keyboard-response,266,949002,0.0-17.0-0.10,94466,List1A,black,woman,,,,null,,,,
null,"<img src=""stim_listA/marry5.gif""</stim_listA>",,html-keyboard-response,267,951004,0.0-17.0-1.10,94466,List1A,black,woman,,,,null,,,,
null,is marrying,,html-keyboard-response,268,953005,0.0-17.0-2.10,94466,List1A,black,woman,,,,null,,,,
4921,,,survey-text,269,957928,0.0-17.0-3.10,94466,List1A,black,woman,,,,,"{""Q0"":""luke is marrying mike""}","<img src=""stim_listA/marry5.gif""</stim_listA>",is marrying,
null,"<div style=""font-size:60px;"">+</div>",,html-keyboard-response,270,958433,0.0-17.0-0.11,94466,List1A,black,woman,,,,null,,,,
null,"<img src=""stim_listA/marry4.gif""</stim_listA>",,html-keyboard-response,271,960435,0.0-17.0-1.11,94466,List1A,black,woman,,,,null,,,,
null,are marrying each other,,html-keyboard-response,272,962437,0.0-17.0-2.11,94466,List1A,black,woman,,,,null,,,,
5997,,,survey-text,273,968434,0.0-17.0-3.11,94466,List1A,black,woman,,,,,"{""Q0"":""jane and luke are marrying each other""}","<img src=""stim_listA/marry4.gif""</stim_listA>",are marrying each other,
null,"<div style=""font-size:60px;"">+</div>",,html-keyboard-response,274,968937,0.0-17.0-0.12,94466,List1A,black,woman,,,,null,,,,
null,"<img src=""stim_listA/meet8.gif""</stim_listA>",,html-keyboard-response,275,970941,0.0-17.0-1.12,94466,List1A,black,woman,,,,null,,,,
null,are meeting each other,,html-keyboard-response,276,972942,0.0-17.0-2.12,94466,List1A,black,woman,,,,null,,,,
4676,,,survey-text,277,977619,0.0-17.0-3.12,94466,List1A,black,woman,,,,,"{""Q0"":""ruth and beth are meeting each other""}","<img src=""stim_listA/meet8.gif""</stim_listA>",are meeting each other,
null,"<div style=""font-size:60px;"">+</div>",,html-keyboard-response,278,978124,0.0-17.0-0.13,94466,List1A,black,woman,,,,null,,,,
null,"<img src=""stim_listA/kiss5.gif""</stim_listA>",,html-keyboard-response,279,980127,0.0-17.0-1.13,94466,List1A,black,woman,,,,null,,,,
null,is kissing,,html-keyboard-response,280,982128,0.0-17.0-2.13,94466,List1A,black,woman,,,,null,,,,
10790,,,survey-text,281,992919,0.0-17.0-3.13,94466,List1A,black,woman,,,,,"{""Q0"":""fred is kissing mike""}","<img src=""stim_listA/kiss5.gif""</stim_listA>",is kissing,
null,"<div style=""font-size:60px;"">+</div>",,html-keyboard-response,282,993422,0.0-17.0-0.14,94466,List1A,black,woman,,,,null,,,,
null,"<img src=""stim_listA/dance6.gif""</stim_listA>",,html-keyboard-response,283,995427,0.0-17.0-1.14,94466,List1A,black,woman,,,,null,,,,
null,are dancing with each other,,html-keyboard-response,284,997428,0.0-17.0-2.14,94466,List1A,black,woman,,,,null,,,,
9440,,,survey-text,285,1006869,0.0-17.0-3.14,94466,List1A,black,woman,,,,,"{""Q0"":""mike is dancing with dave""}","<img src=""stim_listA/dance6.gif""</stim_listA>",are dancing with each other,
null,"<div style=""font-size:60px;"">+</div>",,html-keyboard-response,286,1007376,0.0-17.0-0.15,94466,List1A,black,woman,,,,null,,,,
null,"<img src=""stim_listA/marry6.gif""</stim_listA>",,html-keyboard-response,287,1009379,0.0-17.0-1.15,94466,List1A,black,woman,,,,null,,,,
null,are marrying each other,,html-keyboard-response,288,1011380,0.0-17.0-2.15,94466,List1A,black,woman,,,,null,,,,
5803,,,survey-text,289,1017184,0.0-17.0-3.15,94466,List1A,black,woman,,,,,"{""Q0"":""fred and dave are marrying each other""}","<img src=""stim_listA/marry6.gif""</stim_listA>",are marrying each other,
null,"<div style=""font-size:60px;"">+</div>",,html-keyboard-response,290,1017690,0.0-17.0-0.16,94466,List1A,black,woman,,,,null,,,,
null,"<img src=""stim_listA/kiss2.gif""</stim_listA>",,html-keyboard-response,291,1019695,0.0-17.0-1.16,94466,List1A,black,woman,,,,null,,,,
null,are kissing each other,,html-keyboard-response,292,1021697,0.0-17.0-2.16,94466,List1A,black,woman,,,,null,,,,
9938,,,survey-text,293,1031638,0.0-17.0-3.16,94466,List1A,black,woman,,,,,"{""Q0"":""mike and kate are kissing each other""}","<img src=""stim_listA/kiss2.gif""</stim_listA>",are kissing each other,
null,"<div style=""font-size:60px;"">+</div>",,html-keyboard-response,294,1032140,0.0-17.0-0.17,94466,List1A,black,woman,,,,null,,,,
null,"<img src=""stim_listA/hug4.gif""</stim_listA>",,html-keyboard-response,295,1034143,0.0-17.0-1.17,94466,List1A,black,woman,,,,null,,,,
null,are hugging each other,,html-keyboard-response,296,1036147,0.0-17.0-2.17,94466,List1A,black,woman,,,,null,,,,
6817,,,survey-text,297,1042964,0.0-17.0-3.17,94466,List1A,black,woman,,,,,"{""Q0"":""jane and dave are hugging each other""}","<img src=""stim_listA/hug4.gif""</stim_listA>",are hugging each other,
null,"<div style=""font-size:60px;"">+</div>",,html-keyboard-response,298,1043467,0.0-17.0-0.18,94466,List1A,black,woman,,,,null,,,,
null,"<img src=""stim_listA/fight3.gif""</stim_listA>",,html-keyboard-response,299,1045470,0.0-17.0-1.18,94466,List1A,black,woman,,,,null,,,,
null,is fighting,,html-keyboard-response,300,1047471,0.0-17.0-2.18,94466,List1A,black,woman,,,,null,,,,
5329,,,survey-text,301,1052801,0.0-17.0-3.18,94466,List1A,black,woman,,,,,"{""Q0"":""jane is fighting dave""}","<img src=""stim_listA/fight3.gif""</stim_listA>",is fighting,
null,"<div style=""font-size:60px;"">+</div>",,html-keyboard-response,302,1053304,0.0-17.0-0.19,94466,List1A,black,woman,,,,null,,,,
null,"<img src=""stim_listA/hug7.gif""</stim_listA>",,html-keyboard-response,303,1055306,0.0-17.0-1.19,94466,List1A,black,woman,,,,null,,,,
null,is hugging,,html-keyboard-response,304,1057309,0.0-17.0-2.19,94466,List1A,black,woman,,,,null,,,,
3745,,,survey-text,305,1061055,0.0-17.0-3.19,94466,List1A,black,woman,,,,,"{""Q0"":""ruth is hugging beth""}","<img src=""stim_listA/hug7.gif""</stim_listA>",is hugging,
1017899,"<img src='img/portrait_matrix_list1.JPG' style='width:900px;height:500px;''></img><p>If you have memorised all the portraits and names and are ready to start, press Continue.</p><p><strong>Please note: Your memory of these faces will be tested 4 times during this experiment.</strong></p>",0,html-button-response,306,2078956,0.0-18.0-0.0,94466,List1A,black,woman,,,,,,,,
2413,"<img src=""portrait/WW1.jpg""style=""width:400px;height:400px;""></img>",1,html-button-response,307,2082372,0.0-18.0-1.0,94466,List1A,black,woman,,TRUE,1,,,,,
null,CORRECT,,html-keyboard-response,308,2083878,0.0-18.0-2.0-0.0,94466,List1A,black,woman,,,,null,,,,
1844,"<img src=""portrait/BM1.jpg""style=""width:400px;height:400px;""></img>",4,html-button-response,309,2085724,0.0-18.0-4.0,94466,List1A,black,woman,,TRUE,4,,,,,
null,CORRECT,,html-keyboard-response,310,2087236,0.0-18.0-5.0-0.0,94466,List1A,black,woman,,,,null,,,,
1772,"<img src=""portrait/BW1.jpg""style=""width:400px;height:400px;""></img>",0,html-button-response,311,2089010,0.0-18.0-7.0,94466,List1A,black,woman,,TRUE,0,,,,,
null,CORRECT,,html-keyboard-response,312,2090517,0.0-18.0-8.0-0.0,94466,List1A,black,woman,,,,null,,,,
1171,"<img src=""portrait/WW2.jpg""style=""width:400px;height:400px;""></img>",3,html-button-response,313,2091690,0.0-18.0-10.0,94466,List1A,black,woman,,TRUE,3,,,,,
null,CORRECT,,html-keyboard-response,314,2093199,0.0-18.0-11.0-0.0,94466,List1A,black,woman,,,,null,,,,
1751,"<img src=""portrait/BM2.jpg""style=""width:400px;height:400px;""></img>",5,html-button-response,315,2094953,0.0-18.0-13.0,94466,List1A,black,woman,,TRUE,5,,,,,
null,CORRECT,,html-keyboard-response,316,2096458,0.0-18.0-14.0-0.0,94466,List1A,black,woman,,,,null,,,,
1044,"<img src=""portrait/WM1.jpg""style=""width:400px;height:400px;""></img>",6,html-button-response,317,2097504,0.0-18.0-16.0,94466,List1A,black,woman,,TRUE,6,,,,,
null,CORRECT,,html-keyboard-response,318,2099011,0.0-18.0-17.0-0.0,94466,List1A,black,woman,,,,null,,,,
1742,"<img src=""portrait/BW2.jpg""style=""width:400px;height:400px;""></img>",2,html-button-response,319,2100755,0.0-18.0-19.0,94466,List1A,black,woman,,TRUE,2,,,,,
null,CORRECT,,html-keyboard-response,320,2102262,0.0-18.0-20.0-0.0,94466,List1A,black,woman,,,,null,,,,
2073,"<img src=""portrait/WM2.jpg""style=""width:400px;height:400px;""></img>",7,html-button-response,321,2104337,0.0-18.0-22.0,94466,List1A,black,woman,,TRUE,7,,,,,
null,CORRECT,,html-keyboard-response,322,2105843,0.0-18.0-23.0-0.0,94466,List1A,black,woman,,,,null,,,,
1503,<p>You got 8 out of 8 right first time. Press Continue.</p>,0,html-button-response,323,2107347,0.0-18.0-25.0,94466,List1A,black,woman,,,,,,,,
null,"<div style=""font-size:60px;"">+</div>",,html-keyboard-response,324,2108856,0.0-19.0-0.0,94466,List1A,black,woman,,,,null,,,,
null,"<img src=""stim_listA/talk6.gif""</stim_listA>",,html-keyboard-response,325,2110858,0.0-19.0-1.0,94466,List1A,black,woman,,,,null,,,,
null,are talking to each other,,html-keyboard-response,326,2112862,0.0-19.0-2.0,94466,List1A,black,woman,,,,null,,,,
6420,,,survey-text,327,2119283,0.0-19.0-3.0,94466,List1A,black,woman,,,,,"{""Q0"":""luke and mike are talking to each other""}","<img src=""stim_listA/talk6.gif""</stim_listA>",are talking to each other,
null,"<div style=""font-size:60px;"">+</div>",,html-keyboard-response,328,2119787,0.0-19.0-0.1,94466,List1A,black,woman,,,,null,,,,
null,"<img src=""stim_listA/touch2.gif""</stim_listA>",,html-keyboard-response,329,2121793,0.0-19.0-1.1,94466,List1A,black,woman,,,,null,,,,
null,are touching each other,,html-keyboard-response,330,2123795,0.0-19.0-2.1,94466,List1A,black,woman,,,,null,,,,
5212,,,survey-text,331,2129009,0.0-19.0-3.1,94466,List1A,black,woman,,,,,"{""Q0"":""beth and fred are touching each other""}","<img src=""stim_listA/touch2.gif""</stim_listA>",are touching each other,
null,"<div style=""font-size:60px;"">+</div>",,html-keyboard-response,332,2129512,0.0-19.0-0.2,94466,List1A,black,woman,,,,null,,,,
null,"<img src=""stim_listA/shout4.gif""</stim_listA>",,html-keyboard-response,333,2131514,0.0-19.0-1.2,94466,List1A,black,woman,,,,null,,,,
null,are shouting at each other,,html-keyboard-response,334,2133515,0.0-19.0-2.2,94466,List1A,black,woman,,,,null,,,,
4773,,,survey-text,335,2138289,0.0-19.0-3.2,94466,List1A,black,woman,,,,,"{""Q0"":""jane and dave are shouting at each other""}","<img src=""stim_listA/shout4.gif""</stim_listA>",are shouting at each other,
null,"<div style=""font-size:60px;"">+</div>",,html-keyboard-response,336,2138793,0.0-19.0-0.3,94466,List1A,black,woman,,,,null,,,,
null,"<img src=""stim_listA/marry1.gif""</stim_listA>",,html-keyboard-response,337,2140795,0.0-19.0-1.3,94466,List1A,black,woman,,,,null,,,,
null,is marrying,,html-keyboard-response,338,2142796,0.0-19.0-2.3,94466,List1A,black,woman,,,,null,,,,
4865,,,survey-text,339,2147662,0.0-19.0-3.3,94466,List1A,black,woman,,,,,"{""Q0"":""mike is marrying beth""}","<img src=""stim_listA/marry1.gif""</stim_listA>",is marrying,
null,"<div style=""font-size:60px;"">+</div>",,html-keyboard-response,340,2148163,0.0-19.0-0.4,94466,List1A,black,woman,,,,null,,,,
null,"<img src=""stim_listA/argue3.gif""</stim_listA>",,html-keyboard-response,341,2150169,0.0-19.0-1.4,94466,List1A,black,woman,,,,null,,,,
null,is arguing with,,html-keyboard-response,342,2152174,0.0-19.0-2.4,94466,List1A,black,woman,,,,null,,,,
4601,,,survey-text,343,2156775,0.0-19.0-3.4,94466,List1A,black,woman,,,,,"{""Q0"":""ruth is arguing with dave""}","<img src=""stim_listA/argue3.gif""</stim_listA>",is arguing with,
null,"<div style=""font-size:60px;"">+</div>",,html-keyboard-response,344,2157281,0.0-19.0-0.5,94466,List1A,black,woman,,,,null,,,,
null,"<img src=""stim_listA/dance4.gif""</stim_listA>",,html-keyboard-response,345,2159284,0.0-19.0-1.5,94466,List1A,black,woman,,,,null,,,,
null,are dancing with each other,,html-keyboard-response,346,2161288,0.0-19.0-2.5,94466,List1A,black,woman,,,,null,,,,
7122,,,survey-text,347,2168410,0.0-19.0-3.5,94466,List1A,black,woman,,,,,"{""Q0"":""ruth and dave are dancing with each other""}","<img src=""stim_listA/dance4.gif""</stim_listA>",are dancing with each other,
null,"<div style=""font-size:60px;"">+</div>",,html-keyboard-response,348,2168913,0.0-19.0-0.6,94466,List1A,black,woman,,,,null,,,,
null,"<img src=""stim_listA/shout3.gif""</stim_listA>",,html-keyboard-response,349,2170918,0.0-19.0-1.6,94466,List1A,black,woman,,,,null,,,,
null,is shouting at,,html-keyboard-response,350,2172922,0.0-19.0-2.6,94466,List1A,black,woman,,,,null,,,,
5856,,,survey-text,351,2178778,0.0-19.0-3.6,94466,List1A,black,woman,,,,,"{""Q0"":""ruth is shouting at luke""}","<img src=""stim_listA/shout3.gif""</stim_listA>",is shouting at,
null,"<div style=""font-size:60px;"">+</div>",,html-keyboard-response,352,2179284,0.0-19.0-0.7,94466,List1A,black,woman,,,,null,,,,
null,"<img src=""stim_listA/shout6.gif""</stim_listA>",,html-keyboard-response,353,2181289,0.0-19.0-1.7,94466,List1A,black,woman,,,,null,,,,
null,are shouting at each other,,html-keyboard-response,354,2183290,0.0-19.0-2.7,94466,List1A,black,woman,,,,null,,,,
6179,,,survey-text,355,2189471,0.0-19.0-3.7,94466,List1A,black,woman,,,,,"{""Q0"":""mike and dave are shouting at each other""}","<img src=""stim_listA/shout6.gif""</stim_listA>",are shouting at each other,
null,"<div style=""font-size:60px;"">+</div>",,html-keyboard-response,356,2189973,0.0-19.0-0.8,94466,List1A,black,woman,,,,null,,,,
null,"<img src=""stim_listA/argue1.gif""</stim_listA>",,html-keyboard-response,357,2191979,0.0-19.0-1.8,94466,List1A,black,woman,,,,null,,,,
null,is arguing with,,html-keyboard-response,358,2193980,0.0-19.0-2.8,94466,List1A,black,woman,,,,null,,,,
15264,,,survey-text,359,2209245,0.0-19.0-3.8,94466,List1A,black,woman,,,,,"{""Q0"":""beth is arguing with mike""}","<img src=""stim_listA/argue1.gif""</stim_listA>",is arguing with,
null,"<div style=""font-size:60px;"">+</div>",,html-keyboard-response,360,2209747,0.0-19.0-0.9,94466,List1A,black,woman,,,,null,,,,
null,"<img src=""stim_listA/talk4.gif""</stim_listA>",,html-keyboard-response,361,2211752,0.0-19.0-1.9,94466,List1A,black,woman,,,,null,,,,
null,are talking to each other,,html-keyboard-response,362,2213755,0.0-19.0-2.9,94466,List1A,black,woman,,,,null,,,,
6722,,,survey-text,363,2220477,0.0-19.0-3.9,94466,List1A,black,woman,,,,,"{""Q0"":""dave and ruth are talking to each other""}","<img src=""stim_listA/talk4.gif""</stim_listA>",are talking to each other,
null,"<div style=""font-size:60px;"">+</div>",,html-keyboard-response,364,2220979,0.0-19.0-0.10,94466,List1A,black,woman,,,,null,,,,
null,"<img src=""stim_listA/fight2.gif""</stim_listA>",,html-keyboard-response,365,2222980,0.0-19.0-1.10,94466,List1A,black,woman,,,,null,,,,
null,are fighting each other,,html-keyboard-response,366,2224982,0.0-19.0-2.10,94466,List1A,black,woman,,,,null,,,,
6829,,,survey-text,367,2231812,0.0-19.0-3.10,94466,List1A,black,woman,,,,,"{""Q0"":""fred and beth are fighting with each other""}","<img src=""stim_listA/fight2.gif""</stim_listA>",are fighting each other,
null,"<div style=""font-size:60px;"">+</div>",,html-keyboard-response,368,2232315,0.0-19.0-0.11,94466,List1A,black,woman,,,,null,,,,
null,"<img src=""stim_listA/hug5.gif""</stim_listA>",,html-keyboard-response,369,2234316,0.0-19.0-1.11,94466,List1A,black,woman,,,,null,,,,
null,is hugging,,html-keyboard-response,370,2236317,0.0-19.0-2.11,94466,List1A,black,woman,,,,null,,,,
4747,,,survey-text,371,2241066,0.0-19.0-3.11,94466,List1A,black,woman,,,,,"{""Q0"":""fred is hugging mike""}","<img src=""stim_listA/hug5.gif""</stim_listA>",is hugging,
null,"<div style=""font-size:60px;"">+</div>",,html-keyboard-response,372,2241568,0.0-19.0-0.12,94466,List1A,black,woman,,,,null,,,,
null,"<img src=""stim_listA/talk5.gif""</stim_listA>",,html-keyboard-response,373,2243573,0.0-19.0-1.12,94466,List1A,black,woman,,,,null,,,,
null,is talking to,,html-keyboard-response,374,2245575,0.0-19.0-2.12,94466,List1A,black,woman,,,,null,,,,
8320,,,survey-text,375,2253896,0.0-19.0-3.12,94466,List1A,black,woman,,,,,"{""Q0"":""fred is talking to dave""}","<img src=""stim_listA/talk5.gif""</stim_listA>",is talking to,
null,"<div style=""font-size:60px;"">+</div>",,html-keyboard-response,376,2254402,0.0-19.0-0.13,94466,List1A,black,woman,,,,null,,,,
null,"<img src=""stim_listA/talk7.gif""</stim_listA>",,html-keyboard-response,377,2256405,0.0-19.0-1.13,94466,List1A,black,woman,,,,null,,,,
null,is talking to,,html-keyboard-response,378,2258407,0.0-19.0-2.13,94466,List1A,black,woman,,,,null,,,,
639225,,,survey-text,379,2897634,0.0-19.0-3.13,94466,List1A,black,woman,,,,,"{""Q0"":""jane is talking to beth""}","<img src=""stim_listA/talk7.gif""</stim_listA>",is talking to,
null,"<div style=""font-size:60px;"">+</div>",,html-keyboard-response,380,2898139,0.0-19.0-0.14,94466,List1A,black,woman,,,,null,,,,
null,"<img src=""stim_listA/meet5.gif""</stim_listA>",,html-keyboard-response,381,2900142,0.0-19.0-1.14,94466,List1A,black,woman,,,,null,,,,
null,is meeting,,html-keyboard-response,382,2902145,0.0-19.0-2.14,94466,List1A,black,woman,,,,null,,,,
3015,,,survey-text,383,2905160,0.0-19.0-3.14,94466,List1A,black,woman,,,,,"{""Q0"":""dave is meeting mike""}","<img src=""stim_listA/meet5.gif""</stim_listA>",is meeting,
null,"<div style=""font-size:60px;"">+</div>",,html-keyboard-response,384,2905664,0.0-19.0-0.15,94466,List1A,black,woman,,,,null,,,,
null,"<img src=""stim_listA/argue4.gif""</stim_listA>",,html-keyboard-response,385,2907665,0.0-19.0-1.15,94466,List1A,black,woman,,,,null,,,,
null,are arguing with each other,,html-keyboard-response,386,2909669,0.0-19.0-2.15,94466,List1A,black,woman,,,,null,,,,
5348,,,survey-text,387,2915018,0.0-19.0-3.15,94466,List1A,black,woman,,,,,"{""Q0"":""jane and luke are arguing with each other""}","<img src=""stim_listA/argue4.gif""</stim_listA>",are arguing with each other,
null,"<div style=""font-size:60px;"">+</div>",,html-keyboard-response,388,2915520,0.0-19.0-0.16,94466,List1A,black,woman,,,,null,,,,
null,"<img src=""stim_listA/hug8.gif""</stim_listA>",,html-keyboard-response,389,2917526,0.0-19.0-1.16,94466,List1A,black,woman,,,,null,,,,
null,are hugging each other,,html-keyboard-response,390,2919529,0.0-19.0-2.16,94466,List1A,black,woman,,,,null,,,,
6234,,,survey-text,391,2925765,0.0-19.0-3.16,94466,List1A,black,woman,,,,,"{""Q0"":""jane and kate are hugging each other""}","<img src=""stim_listA/hug8.gif""</stim_listA>",are hugging each other,
null,"<div style=""font-size:60px;"">+</div>",,html-keyboard-response,392,2926271,0.0-19.0-0.17,94466,List1A,black,woman,,,,null,,,,
null,"<img src=""stim_listA/touch6.gif""</stim_listA>",,html-keyboard-response,393,2928275,0.0-19.0-1.17,94466,List1A,black,woman,,,,null,,,,
null,are touching each other,,html-keyboard-response,394,2930276,0.0-19.0-2.17,94466,List1A,black,woman,,,,null,,,,
8710,,,survey-text,395,2938987,0.0-19.0-3.17,94466,List1A,black,woman,,,,,"{""Q0"":""fred and luke are touching each other""}","<img src=""stim_listA/touch6.gif""</stim_listA>",are touching each other,
null,"<div style=""font-size:60px;"">+</div>",,html-keyboard-response,396,2939489,0.0-19.0-0.18,94466,List1A,black,woman,,,,null,,,,
null,"<img src=""stim_listA/kiss3.gif""</stim_listA>",,html-keyboard-response,397,2941492,0.0-19.0-1.18,94466,List1A,black,woman,,,,null,,,,
null,is kissing,,html-keyboard-response,398,2943498,0.0-19.0-2.18,94466,List1A,black,woman,,,,null,,,,
5395,,,survey-text,399,2948893,0.0-19.0-3.18,94466,List1A,black,woman,,,,,"{""Q0"":""ruth is kissing luke""}","<img src=""stim_listA/kiss3.gif""</stim_listA>",is kissing,
null,"<div style=""font-size:60px;"">+</div>",,html-keyboard-response,400,2949399,0.0-19.0-0.19,94466,List1A,black,woman,,,,null,,,,
null,"<img src=""stim_listA/touch1.gif""</stim_listA>",,html-keyboard-response,401,2951402,0.0-19.0-1.19,94466,List1A,black,woman,,,,null,,,,
null,is touching,,html-keyboard-response,402,2953404,0.0-19.0-2.19,94466,List1A,black,woman,,,,null,,,,
5470,,,survey-text,403,2958876,0.0-19.0-3.19,94466,List1A,black,woman,,,,,"{""Q0"":""kate is touching mike""}","<img src=""stim_listA/touch1.gif""</stim_listA>",is touching,
1926,<p>Thank you for completing that task.</p><p>The final part of this session is a short questionnaire.</p><p>Press Continue.</p>,0,html-button-response,404,2960804,0.0-20.0,94466,List1A,black,woman,,,,,,,,
85125,,,survey-text,405,3046932,0.0-21.0,94466,List1A,black,woman,,,,,"{""Q0"":""20"",""Q1"":""English"",""Q2"":""English"",""Q3"":""UK"",""Q4"":""Black"",""Q5"":""Female""}",,,demographics
67588,,,survey-likert,406,3114526,0.0-22.0,94466,List1A,black,woman,,,,,"{""Q0"":5,""Q1"":3,""Q2"":3,""Q3"":6,""Q4"":5,""Q5"":5,""Q6"":5,""Q7"":5,""Q8"":5,""Q9"":5,""Q10"":5,""Q11"":2,""Q12"":4,""Q13"":2}",,,likert_race
36924,,,survey-likert,407,3151468,0.0-23.0,94466,List1A,black,woman,,,,,"{""Q0"":6,""Q1"":6,""Q2"":6,""Q3"":6,""Q4"":6,""Q5"":6,""Q6"":6,""Q7"":5,""Q8"":5,""Q9"":5,""Q10"":4,""Q11"":4,""Q12"":4,""Q13"":4}",,,likert_gender
9067,,,survey-text,408,3160551,0.0-24.0,94466,List1A,black,woman,,,,,"{""Q0"":""ccc""}",,,worker_id
21106,,,external-html,409,3181722,0.0-25.0,94466,List1A,black,woman,debrief.html,,,,,,,
