rt,stimulus,button_pressed,trial_type,trial_index,time_elapsed,internal_node_id,subject,list,ppt_race,ppt_gender,url,first_guess,correct,key_press,responses,image_type,phrase_type,test_part
2033,Welcome to the experiment. Press Continue to begin.,0,html-button-response,0,2043,0.0-0.0,95275,List2B,black,man,,,,,,,,
55397,,,external-html,1,58526,0.0-1.0,95275,List2B,black,man,consent.html,,,,,,,
20537,"<p>On the next page, you will see portraits of 8 people and their names.</p><p>Your first task is to take a few minutes to memorise the names of these people.</p><p>You will have to recall their names during the rest of the experiment, so it is</p><p>essential that you try to memorise these people and their names as best as you can.</p><br><p><strong>You will then be tested on your memory of these names and portraits.</strong></p><br><p>The experiment will start after you have completed this memory test.</p><br><p>Ready?</p>",0,html-button-response,2,79066,0.0-2.0,95275,List2B,black,man,,,,,,,,
57455,"<img src='img/portrait_matrix_list2.JPG' style='width:900px;height:500px;''></img><p>If you have memorised all the portraits and names and are ready to start, press Continue.</p><p><strong>Please note: Your memory of these faces will be tested 4 times during this experiment.</strong></p>",0,html-button-response,3,137525,0.0-3.0-0.0,95275,List2B,black,man,,,,,,,,
9411,"<img src=""portrait/BW2.jpg""style=""width:400px;height:400px;""></img>",2,html-button-response,4,147942,0.0-3.0-1.0,95275,List2B,black,man,,TRUE,2,,,,,
null,CORRECT,,html-keyboard-response,5,149450,0.0-3.0-2.0-0.0,95275,List2B,black,man,,,,null,,,,
10745,"<img src=""portrait/WW2.jpg""style=""width:400px;height:400px;""></img>",3,html-button-response,6,160199,0.0-3.0-4.0,95275,List2B,black,man,,TRUE,3,,,,,
null,CORRECT,,html-keyboard-response,7,161705,0.0-3.0-5.0-0.0,95275,List2B,black,man,,,,null,,,,
4943,"<img src=""portrait/BW1.jpg""style=""width:400px;height:400px;""></img>",0,html-button-response,8,166650,0.0-3.0-7.0,95275,List2B,black,man,,TRUE,0,,,,,
null,CORRECT,,html-keyboard-response,9,168155,0.0-3.0-8.0-0.0,95275,List2B,black,man,,,,null,,,,
9882,"<img src=""portrait/WM2.jpg""style=""width:400px;height:400px;""></img>",6,html-button-response,10,178041,0.0-3.0-10.0,95275,List2B,black,man,,TRUE,7,,,,,
3521,"<img src=""portrait/WM2.jpg""style=""width:400px;height:400px;""></img>",7,html-button-response,11,182565,0.0-3.0-12.0-0.0,95275,List2B,black,man,,FALSE,7,,,,,
null,CORRECT,,html-keyboard-response,12,184069,0.0-3.0-12.0-1.0-0.0,95275,List2B,black,man,,,,null,,,,
3185,"<img src=""portrait/BM2.jpg""style=""width:400px;height:400px;""></img>",5,html-button-response,13,187257,0.0-3.0-13.0,95275,List2B,black,man,,TRUE,5,,,,,
null,CORRECT,,html-keyboard-response,14,188759,0.0-3.0-14.0-0.0,95275,List2B,black,man,,,,null,,,,
5952,"<img src=""portrait/WW1.jpg""style=""width:400px;height:400px;""></img>",1,html-button-response,15,194714,0.0-3.0-16.0,95275,List2B,black,man,,TRUE,1,,,,,
null,CORRECT,,html-keyboard-response,16,196220,0.0-3.0-17.0-0.0,95275,List2B,black,man,,,,null,,,,
6420,"<img src=""portrait/WM1.jpg""style=""width:400px;height:400px;""></img>",4,html-button-response,17,202643,0.0-3.0-19.0,95275,List2B,black,man,,TRUE,6,,,,,
3484,"<img src=""portrait/WM1.jpg""style=""width:400px;height:400px;""></img>",6,html-button-response,18,207130,0.0-3.0-21.0-0.0,95275,List2B,black,man,,FALSE,6,,,,,
null,CORRECT,,html-keyboard-response,19,208632,0.0-3.0-21.0-1.0-0.0,95275,List2B,black,man,,,,null,,,,
5558,"<img src=""portrait/BM1.jpg""style=""width:400px;height:400px;""></img>",4,html-button-response,20,214193,0.0-3.0-22.0,95275,List2B,black,man,,TRUE,4,,,,,
null,CORRECT,,html-keyboard-response,21,215699,0.0-3.0-23.0-0.0,95275,List2B,black,man,,,,null,,,,
2524,<p>You got 6 out of 8 right first time. Press Continue.</p>,0,html-button-response,22,218226,0.0-3.0-25.0,95275,List2B,black,man,,,,,,,,
3105,"As you did not score 100%, the memory game will repeat. Press Continue.",0,html-button-response,23,222334,0.0-3.0-26.0-0.0,95275,List2B,black,man,,,,,,,,
12991,"<img src='img/portrait_matrix_list2.JPG' style='width:900px;height:500px;''></img><p>If you have memorised all the portraits and names and are ready to start, press Continue.</p><p><strong>Please note: Your memory of these faces will be tested 4 times during this experiment.</strong></p>",0,html-button-response,24,236329,0.0-3.1-0.1,95275,List2B,black,man,,,,,,,,
3238,"<img src=""portrait/BW2.jpg""style=""width:400px;height:400px;""></img>",2,html-button-response,25,240571,0.0-3.1-1.1,95275,List2B,black,man,,TRUE,2,,,,,
null,CORRECT,,html-keyboard-response,26,242076,0.0-3.1-2.1-0.1,95275,List2B,black,man,,,,null,,,,
6630,"<img src=""portrait/WW2.jpg""style=""width:400px;height:400px;""></img>",3,html-button-response,27,248709,0.0-3.1-4.1,95275,List2B,black,man,,TRUE,3,,,,,
null,CORRECT,,html-keyboard-response,28,250215,0.0-3.1-5.1-0.1,95275,List2B,black,man,,,,null,,,,
3980,"<img src=""portrait/BW1.jpg""style=""width:400px;height:400px;""></img>",0,html-button-response,29,254198,0.0-3.1-7.1,95275,List2B,black,man,,TRUE,0,,,,,
null,CORRECT,,html-keyboard-response,30,255703,0.0-3.1-8.1-0.1,95275,List2B,black,man,,,,null,,,,
2357,"<img src=""portrait/WM2.jpg""style=""width:400px;height:400px;""></img>",7,html-button-response,31,258063,0.0-3.1-10.1,95275,List2B,black,man,,TRUE,7,,,,,
null,CORRECT,,html-keyboard-response,32,259566,0.0-3.1-11.1-0.1,95275,List2B,black,man,,,,null,,,,
4597,"<img src=""portrait/BM2.jpg""style=""width:400px;height:400px;""></img>",5,html-button-response,33,264166,0.0-3.1-13.1,95275,List2B,black,man,,TRUE,5,,,,,
null,CORRECT,,html-keyboard-response,34,265670,0.0-3.1-14.1-0.1,95275,List2B,black,man,,,,null,,,,
4721,"<img src=""portrait/WW1.jpg""style=""width:400px;height:400px;""></img>",1,html-button-response,35,270394,0.0-3.1-16.1,95275,List2B,black,man,,TRUE,1,,,,,
null,CORRECT,,html-keyboard-response,36,271898,0.0-3.1-17.1-0.1,95275,List2B,black,man,,,,null,,,,
4114,"<img src=""portrait/WM1.jpg""style=""width:400px;height:400px;""></img>",6,html-button-response,37,276015,0.0-3.1-19.1,95275,List2B,black,man,,TRUE,6,,,,,
null,CORRECT,,html-keyboard-response,38,277517,0.0-3.1-20.1-0.1,95275,List2B,black,man,,,,null,,,,
5075,"<img src=""portrait/BM1.jpg""style=""width:400px;height:400px;""></img>",4,html-button-response,39,282594,0.0-3.1-22.1,95275,List2B,black,man,,TRUE,4,,,,,
null,CORRECT,,html-keyboard-response,40,284097,0.0-3.1-23.1-0.1,95275,List2B,black,man,,,,null,,,,
2045,<p>You got 8 out of 8 right first time. Press Continue.</p>,0,html-button-response,41,286144,0.0-3.1-25.1,95275,List2B,black,man,,,,,,,,
64189,"<p>In this experiment, you will view photographs of the people from the memory game interacting.</p><p>By using the <strong>exact</strong> phrase given <i>after</i> the photograph appears and recalling the correct names of the people in the photographs, form a sentence describing the interaction. You do not need to capitalise names.</p><p>Type your answer in the space provided. Please complete every sentence before moving onto the next trial.</p><p>You will only have a few seconds to memorise each given photograph and phrase before you can respond, so try your best to focus.</p><p>An example is given below. Press 'Continue' when you are ready.</p><img src='img/speaking_example_v2.jpg' style='width:800px;height:460px;''></img>",0,html-button-response,42,351338,0.0-4.0,95275,List2B,black,man,,,,,,,,
5045,"<p>Before the experiment starts, you will watch two example trials. Press 'Continue'.</p>",0,html-button-response,43,357386,0.0-5.0,95275,List2B,black,man,,,,,,,,
null,<img src='img/speaking_WW.gif'></img>,,html-keyboard-response,44,360392,0.0-6.0,95275,List2B,black,man,,,,null,,,,
null,<p>is speaking to</p>,,html-keyboard-response,45,362395,0.0-7.0,95275,List2B,black,man,,,,null,,,,
7747,<p><b>Answer:</b> jane is speaking to ruth</p>,0,html-button-response,46,370143,0.0-8.0,95275,List2B,black,man,,,,,,,,
null,<img src='img/pointing_BM.gif'></img>,,html-keyboard-response,47,373148,0.0-9.0,95275,List2B,black,man,,,,null,,,,
null,<p>are pointing at each other</p>,,html-keyboard-response,48,375150,0.0-10.0,95275,List2B,black,man,,,,null,,,,
19642,<p><b>Answer:</b> fred and mike are pointing at each other</p>,0,html-button-response,49,394794,0.0-11.0,95275,List2B,black,man,,,,,,,,
9380,"<p>Ready to start the experiment?</p><br><p><strong>Remember to describe the picture using a full sentence,</strong></p><p><strong>that combines the names of the people with the given phrase.</strong></p><p><strong>If you do not do this correctly you will not be paid.</strong></p><p><strong> You do not need to capitalise names or use punctuation.</strong></p><br><p>Press 'Continue' to begin.</p>",0,html-button-response,50,405178,0.0-12.0,95275,List2B,black,man,,,,,,,,
null,"<div style=""font-size:60px;"">+</div>",,html-keyboard-response,51,406683,0.0-13.0-0.0,95275,List2B,black,man,,,,null,,,,
null,"<img src=""stim_listB/talk1.gif""</stim_listB>",,html-keyboard-response,52,408687,0.0-13.0-1.0,95275,List2B,black,man,,,,null,,,,
null,is talking to,,html-keyboard-response,53,410690,0.0-13.0-2.0,95275,List2B,black,man,,,,null,,,,
32199,,,survey-text,54,442892,0.0-13.0-3.0,95275,List2B,black,man,,,,,"{""Q0"":""luke is talking to beth""}","<img src=""stim_listB/talk1.gif""</stim_listB>",is talking to,
null,"<div style=""font-size:60px;"">+</div>",,html-keyboard-response,55,443395,0.0-13.0-0.1,95275,List2B,black,man,,,,null,,,,
null,"<img src=""stim_listB/dance8.gif""</stim_listB>",,html-keyboard-response,56,445398,0.0-13.0-1.1,95275,List2B,black,man,,,,null,,,,
null,are dancing with each other,,html-keyboard-response,57,447403,0.0-13.0-2.1,95275,List2B,black,man,,,,null,,,,
32897,,,survey-text,58,480306,0.0-13.0-3.1,95275,List2B,black,man,,,,,"{""Q0"":""beth is dancing with ruth""}","<img src=""stim_listB/dance8.gif""</stim_listB>",are dancing with each other,
null,"<div style=""font-size:60px;"">+</div>",,html-keyboard-response,59,480809,0.0-13.0-0.2,95275,List2B,black,man,,,,null,,,,
null,"<img src=""stim_listB/fight7.gif""</stim_listB>",,html-keyboard-response,60,482811,0.0-13.0-1.2,95275,List2B,black,man,,,,null,,,,
null,is fighting,,html-keyboard-response,61,484814,0.0-13.0-2.2,95275,List2B,black,man,,,,null,,,,
37808,,,survey-text,62,522623,0.0-13.0-3.2,95275,List2B,black,man,,,,,"{""Q0"":""kate is fighting with jane""}","<img src=""stim_listB/fight7.gif""</stim_listB>",is fighting,
null,"<div style=""font-size:60px;"">+</div>",,html-keyboard-response,63,523125,0.0-13.0-0.3,95275,List2B,black,man,,,,null,,,,
null,"<img src=""stim_listB/meet2.gif""</stim_listB>",,html-keyboard-response,64,525128,0.0-13.0-1.3,95275,List2B,black,man,,,,null,,,,
null,are meeting each other,,html-keyboard-response,65,527131,0.0-13.0-2.3,95275,List2B,black,man,,,,null,,,,
49784,,,survey-text,66,576917,0.0-13.0-3.3,95275,List2B,black,man,,,,,"{""Q0"":""luke is shaking hands with ruth""}","<img src=""stim_listB/meet2.gif""</stim_listB>",are meeting each other,
null,"<div style=""font-size:60px;"">+</div>",,html-keyboard-response,67,577420,0.0-13.0-0.4,95275,List2B,black,man,,,,null,,,,
null,"<img src=""stim_listB/talk2.gif""</stim_listB>",,html-keyboard-response,68,579422,0.0-13.0-1.4,95275,List2B,black,man,,,,null,,,,
null,are talking to each other,,html-keyboard-response,69,581424,0.0-13.0-2.4,95275,List2B,black,man,,,,null,,,,
63827,,,survey-text,70,645253,0.0-13.0-3.4,95275,List2B,black,man,,,,,"{""Q0"":""ruth and dave are talking with each other""}","<img src=""stim_listB/talk2.gif""</stim_listB>",are talking to each other,
null,"<div style=""font-size:60px;"">+</div>",,html-keyboard-response,71,645756,0.0-13.0-0.5,95275,List2B,black,man,,,,null,,,,
null,"<img src=""stim_listB/meet7.gif""</stim_listB>",,html-keyboard-response,72,647758,0.0-13.0-1.5,95275,List2B,black,man,,,,null,,,,
null,is meeting,,html-keyboard-response,73,649761,0.0-13.0-2.5,95275,List2B,black,man,,,,null,,,,
97935,,,survey-text,74,747698,0.0-13.0-3.5,95275,List2B,black,man,,,,,"{""Q0"":""kate is meeting jane""}","<img src=""stim_listB/meet7.gif""</stim_listB>",is meeting,
null,"<div style=""font-size:60px;"">+</div>",,html-keyboard-response,75,748200,0.0-13.0-0.6,95275,List2B,black,man,,,,null,,,,
null,"<img src=""stim_listB/marry8.gif""</stim_listB>",,html-keyboard-response,76,750203,0.0-13.0-1.6,95275,List2B,black,man,,,,null,,,,
null,are marrying each other,,html-keyboard-response,77,752205,0.0-13.0-2.6,95275,List2B,black,man,,,,null,,,,
46200,,,survey-text,78,798407,0.0-13.0-3.6,95275,List2B,black,man,,,,,"{""Q0"":""kate and ruth are marrying each other""}","<img src=""stim_listB/marry8.gif""</stim_listB>",are marrying each other,
null,"<div style=""font-size:60px;"">+</div>",,html-keyboard-response,79,798910,0.0-13.0-0.7,95275,List2B,black,man,,,,null,,,,
null,"<img src=""stim_listB/kiss4.gif""</stim_listB>",,html-keyboard-response,80,800912,0.0-13.0-1.7,95275,List2B,black,man,,,,null,,,,
null,are kissing each other,,html-keyboard-response,81,802914,0.0-13.0-2.7,95275,List2B,black,man,,,,null,,,,
36088,,,survey-text,82,839004,0.0-13.0-3.7,95275,List2B,black,man,,,,,"{""Q0"":""kate and mike are kissing each other""}","<img src=""stim_listB/kiss4.gif""</stim_listB>",are kissing each other,
null,"<div style=""font-size:60px;"">+</div>",,html-keyboard-response,83,839507,0.0-13.0-0.8,95275,List2B,black,man,,,,null,,,,
null,"<img src=""stim_listB/meet4.gif""</stim_listB>",,html-keyboard-response,84,841509,0.0-13.0-1.8,95275,List2B,black,man,,,,null,,,,
null,are meeting each other,,html-keyboard-response,85,843510,0.0-13.0-2.8,95275,List2B,black,man,,,,null,,,,
47397,,,survey-text,86,890909,0.0-13.0-3.8,95275,List2B,black,man,,,,,"{""Q0"":""beth and fred are meeting each other""}","<img src=""stim_listB/meet4.gif""</stim_listB>",are meeting each other,
null,"<div style=""font-size:60px;"">+</div>",,html-keyboard-response,87,891412,0.0-13.0-0.9,95275,List2B,black,man,,,,null,,,,
null,"<img src=""stim_listB/argue2.gif""</stim_listB>",,html-keyboard-response,88,893414,0.0-13.0-1.9,95275,List2B,black,man,,,,null,,,,
null,are arguing with each other,,html-keyboard-response,89,895417,0.0-13.0-2.9,95275,List2B,black,man,,,,null,,,,
49004,,,survey-text,90,944423,0.0-13.0-3.9,95275,List2B,black,man,,,,,"{""Q0"":""luke and jane are arguing with each other""}","<img src=""stim_listB/argue2.gif""</stim_listB>",are arguing with each other,
null,"<div style=""font-size:60px;"">+</div>",,html-keyboard-response,91,944925,0.0-13.0-0.10,95275,List2B,black,man,,,,null,,,,
null,"<img src=""stim_listB/touch5.gif""</stim_listB>",,html-keyboard-response,92,946928,0.0-13.0-1.10,95275,List2B,black,man,,,,null,,,,
null,is touching,,html-keyboard-response,93,948930,0.0-13.0-2.10,95275,List2B,black,man,,,,null,,,,
22675,,,survey-text,94,971607,0.0-13.0-3.10,95275,List2B,black,man,,,,,"{""Q0"":""mike is touching dave""}","<img src=""stim_listB/touch5.gif""</stim_listB>",is touching,
null,"<div style=""font-size:60px;"">+</div>",,html-keyboard-response,95,972110,0.0-13.0-0.11,95275,List2B,black,man,,,,null,,,,
null,"<img src=""stim_listB/fight8.gif""</stim_listB>",,html-keyboard-response,96,974113,0.0-13.0-1.11,95275,List2B,black,man,,,,null,,,,
null,are fighting each other,,html-keyboard-response,97,976116,0.0-13.0-2.11,95275,List2B,black,man,,,,null,,,,
41460,,,survey-text,98,1017578,0.0-13.0-3.11,95275,List2B,black,man,,,,,"{""Q0"":""beth and ruth are fighting each other""}","<img src=""stim_listB/fight8.gif""</stim_listB>",are fighting each other,
null,"<div style=""font-size:60px;"">+</div>",,html-keyboard-response,99,1018081,0.0-13.0-0.12,95275,List2B,black,man,,,,null,,,,
null,"<img src=""stim_listB/hug2.gif""</stim_listB>",,html-keyboard-response,100,1020083,0.0-13.0-1.12,95275,List2B,black,man,,,,null,,,,
null,are hugging each other,,html-keyboard-response,101,1022084,0.0-13.0-2.12,95275,List2B,black,man,,,,null,,,,
35541,,,survey-text,102,1057627,0.0-13.0-3.12,95275,List2B,black,man,,,,,"{""Q0"":""dave and jane are hugging each other""}","<img src=""stim_listB/hug2.gif""</stim_listB>",are hugging each other,
null,"<div style=""font-size:60px;"">+</div>",,html-keyboard-response,103,1058129,0.0-13.0-0.13,95275,List2B,black,man,,,,null,,,,
null,"<img src=""stim_listB/shout8.gif""</stim_listB>",,html-keyboard-response,104,1060132,0.0-13.0-1.13,95275,List2B,black,man,,,,null,,,,
null,are shouting at each other,,html-keyboard-response,105,1062135,0.0-13.0-2.13,95275,List2B,black,man,,,,null,,,,
25850,,,survey-text,106,1087987,0.0-13.0-3.13,95275,List2B,black,man,,,,,"{""Q0"":""kate and jane are shouting at each other""}","<img src=""stim_listB/shout8.gif""</stim_listB>",are shouting at each other,
null,"<div style=""font-size:60px;"">+</div>",,html-keyboard-response,107,1088490,0.0-13.0-0.14,95275,List2B,black,man,,,,null,,,,
null,"<img src=""stim_listB/fight6.gif""</stim_listB>",,html-keyboard-response,108,1090492,0.0-13.0-1.14,95275,List2B,black,man,,,,null,,,,
null,are fighting each other,,html-keyboard-response,109,1092495,0.0-13.0-2.14,95275,List2B,black,man,,,,null,,,,
22790,,,survey-text,110,1115287,0.0-13.0-3.14,95275,List2B,black,man,,,,,"{""Q0"":""luke and fred are fighting each other""}","<img src=""stim_listB/fight6.gif""</stim_listB>",are fighting each other,
null,"<div style=""font-size:60px;"">+</div>",,html-keyboard-response,111,1115788,0.0-13.0-0.15,95275,List2B,black,man,,,,null,,,,
null,"<img src=""stim_listB/kiss8.gif""</stim_listB>",,html-keyboard-response,112,1117790,0.0-13.0-1.15,95275,List2B,black,man,,,,null,,,,
null,are kissing each other,,html-keyboard-response,113,1119797,0.0-13.0-2.15,95275,List2B,black,man,,,,null,,,,
16172,,,survey-text,114,1135971,0.0-13.0-3.15,95275,List2B,black,man,,,,,"{""Q0"":""kate and jane are kissing each other""}","<img src=""stim_listB/kiss8.gif""</stim_listB>",are kissing each other,
null,"<div style=""font-size:60px;"">+</div>",,html-keyboard-response,115,1136473,0.0-13.0-0.16,95275,List2B,black,man,,,,null,,,,
null,"<img src=""stim_listB/fight3.gif""</stim_listB>",,html-keyboard-response,116,1138475,0.0-13.0-1.16,95275,List2B,black,man,,,,null,,,,
null,is fighting,,html-keyboard-response,117,1140479,0.0-13.0-2.16,95275,List2B,black,man,,,,null,,,,
31114,,,survey-text,118,1171595,0.0-13.0-3.16,95275,List2B,black,man,,,,,"{""Q0"":""kate and mike are fighting each other""}","<img src=""stim_listB/fight3.gif""</stim_listB>",is fighting,
null,"<div style=""font-size:60px;"">+</div>",,html-keyboard-response,119,1172097,0.0-13.0-0.17,95275,List2B,black,man,,,,null,,,,
null,"<img src=""stim_listB/kiss1.gif""</stim_listB>",,html-keyboard-response,120,1174100,0.0-13.0-1.17,95275,List2B,black,man,,,,null,,,,
null,is kissing,,html-keyboard-response,121,1176103,0.0-13.0-2.17,95275,List2B,black,man,,,,null,,,,
16798,,,survey-text,122,1192902,0.0-13.0-3.17,95275,List2B,black,man,,,,,"{""Q0"":""fred is kissing ruth""}","<img src=""stim_listB/kiss1.gif""</stim_listB>",is kissing,
null,"<div style=""font-size:60px;"">+</div>",,html-keyboard-response,123,1193404,0.0-13.0-0.18,95275,List2B,black,man,,,,null,,,,
null,"<img src=""stim_listB/kiss2.gif""</stim_listB>",,html-keyboard-response,124,1195407,0.0-13.0-1.18,95275,List2B,black,man,,,,null,,,,
null,are kissing each other,,html-keyboard-response,125,1197410,0.0-13.0-2.18,95275,List2B,black,man,,,,null,,,,
35566,,,survey-text,126,1232978,0.0-13.0-3.18,95275,List2B,black,man,,,,,"{""Q0"":""fred is kissing jane""}","<img src=""stim_listB/kiss2.gif""</stim_listB>",are kissing each other,
null,"<div style=""font-size:60px;"">+</div>",,html-keyboard-response,127,1233480,0.0-13.0-0.19,95275,List2B,black,man,,,,null,,,,
null,"<img src=""stim_listB/fight4.gif""</stim_listB>",,html-keyboard-response,128,1235482,0.0-13.0-1.19,95275,List2B,black,man,,,,null,,,,
null,are fighting each other,,html-keyboard-response,129,1237485,0.0-13.0-2.19,95275,List2B,black,man,,,,null,,,,
34240,,,survey-text,130,1271727,0.0-13.0-3.19,95275,List2B,black,man,,,,,"{""Q0"":""beth and fred are fighting each other""}","<img src=""stim_listB/fight4.gif""</stim_listB>",are fighting each other,
13005,"<img src='img/portrait_matrix_list2.JPG' style='width:900px;height:500px;''></img><p>If you have memorised all the portraits and names and are ready to start, press Continue.</p><p><strong>Please note: Your memory of these faces will be tested 4 times during this experiment.</strong></p>",0,html-button-response,131,1284734,0.0-14.0-0.0,95275,List2B,black,man,,,,,,,,
9563,"<img src=""portrait/WW1.jpg""style=""width:400px;height:400px;""></img>",1,html-button-response,132,1295302,0.0-14.0-1.0,95275,List2B,black,man,,TRUE,1,,,,,
null,CORRECT,,html-keyboard-response,133,1296805,0.0-14.0-2.0-0.0,95275,List2B,black,man,,,,null,,,,
2489,"<img src=""portrait/BM2.jpg""style=""width:400px;height:400px;""></img>",5,html-button-response,134,1299297,0.0-14.0-4.0,95275,List2B,black,man,,TRUE,5,,,,,
null,CORRECT,,html-keyboard-response,135,1300801,0.0-14.0-5.0-0.0,95275,List2B,black,man,,,,null,,,,
1773,"<img src=""portrait/WM2.jpg""style=""width:400px;height:400px;""></img>",7,html-button-response,136,1302576,0.0-14.0-7.0,95275,List2B,black,man,,TRUE,7,,,,,
null,CORRECT,,html-keyboard-response,137,1304080,0.0-14.0-8.0-0.0,95275,List2B,black,man,,,,null,,,,
1800,"<img src=""portrait/WW2.jpg""style=""width:400px;height:400px;""></img>",3,html-button-response,138,1305882,0.0-14.0-10.0,95275,List2B,black,man,,TRUE,3,,,,,
null,CORRECT,,html-keyboard-response,139,1307387,0.0-14.0-11.0-0.0,95275,List2B,black,man,,,,null,,,,
2446,"<img src=""portrait/WM1.jpg""style=""width:400px;height:400px;""></img>",6,html-button-response,140,1309835,0.0-14.0-13.0,95275,List2B,black,man,,TRUE,6,,,,,
null,CORRECT,,html-keyboard-response,141,1311338,0.0-14.0-14.0-0.0,95275,List2B,black,man,,,,null,,,,
1800,"<img src=""portrait/BM1.jpg""style=""width:400px;height:400px;""></img>",4,html-button-response,142,1313142,0.0-14.0-16.0,95275,List2B,black,man,,TRUE,4,,,,,
null,CORRECT,,html-keyboard-response,143,1314646,0.0-14.0-17.0-0.0,95275,List2B,black,man,,,,null,,,,
2697,"<img src=""portrait/BW1.jpg""style=""width:400px;height:400px;""></img>",0,html-button-response,144,1317347,0.0-14.0-19.0,95275,List2B,black,man,,TRUE,0,,,,,
null,CORRECT,,html-keyboard-response,145,1318852,0.0-14.0-20.0-0.0,95275,List2B,black,man,,,,null,,,,
2339,"<img src=""portrait/BW2.jpg""style=""width:400px;height:400px;""></img>",2,html-button-response,146,1321193,0.0-14.0-22.0,95275,List2B,black,man,,TRUE,2,,,,,
null,CORRECT,,html-keyboard-response,147,1322698,0.0-14.0-23.0-0.0,95275,List2B,black,man,,,,null,,,,
1550,<p>You got 8 out of 8 right first time. Press Continue.</p>,0,html-button-response,148,1324250,0.0-14.0-25.0,95275,List2B,black,man,,,,,,,,
null,"<div style=""font-size:60px;"">+</div>",,html-keyboard-response,149,1325754,0.0-15.0-0.0,95275,List2B,black,man,,,,null,,,,
null,"<img src=""stim_listB/argue5.gif""</stim_listB>",,html-keyboard-response,150,1327757,0.0-15.0-1.0,95275,List2B,black,man,,,,null,,,,
null,is arguing with,,html-keyboard-response,151,1329759,0.0-15.0-2.0,95275,List2B,black,man,,,,null,,,,
18074,,,survey-text,152,1347835,0.0-15.0-3.0,95275,List2B,black,man,,,,,"{""Q0"":""dave is arguing with fred""}","<img src=""stim_listB/argue5.gif""</stim_listB>",is arguing with,
null,"<div style=""font-size:60px;"">+</div>",,html-keyboard-response,153,1348338,0.0-15.0-0.1,95275,List2B,black,man,,,,null,,,,
null,"<img src=""stim_listB/marry5.gif""</stim_listB>",,html-keyboard-response,154,1350341,0.0-15.0-1.1,95275,List2B,black,man,,,,null,,,,
null,is marrying,,html-keyboard-response,155,1352343,0.0-15.0-2.1,95275,List2B,black,man,,,,null,,,,
11387,,,survey-text,156,1363733,0.0-15.0-3.1,95275,List2B,black,man,,,,,"{""Q0"":""dave is marring fred""}","<img src=""stim_listB/marry5.gif""</stim_listB>",is marrying,
null,"<div style=""font-size:60px;"">+</div>",,html-keyboard-response,157,1364235,0.0-15.0-0.2,95275,List2B,black,man,,,,null,,,,
null,"<img src=""stim_listB/meet1.gif""</stim_listB>",,html-keyboard-response,158,1366237,0.0-15.0-1.2,95275,List2B,black,man,,,,null,,,,
null,is meeting,,html-keyboard-response,159,1368238,0.0-15.0-2.2,95275,List2B,black,man,,,,null,,,,
11510,,,survey-text,160,1379750,0.0-15.0-3.2,95275,List2B,black,man,,,,,"{""Q0"":""dave is meeting jane""}","<img src=""stim_listB/meet1.gif""</stim_listB>",is meeting,
null,"<div style=""font-size:60px;"">+</div>",,html-keyboard-response,161,1380252,0.0-15.0-0.3,95275,List2B,black,man,,,,null,,,,
null,"<img src=""stim_listB/hug1.gif""</stim_listB>",,html-keyboard-response,162,1382254,0.0-15.0-1.3,95275,List2B,black,man,,,,null,,,,
null,is hugging,,html-keyboard-response,163,1384257,0.0-15.0-2.3,95275,List2B,black,man,,,,null,,,,
13062,,,survey-text,164,1397321,0.0-15.0-3.3,95275,List2B,black,man,,,,,"{""Q0"":""luke is hugging ruth""}","<img src=""stim_listB/hug1.gif""</stim_listB>",is hugging,
null,"<div style=""font-size:60px;"">+</div>",,html-keyboard-response,165,1397822,0.0-15.0-0.4,95275,List2B,black,man,,,,null,,,,
null,"<img src=""stim_listB/dance7.gif""</stim_listB>",,html-keyboard-response,166,1399826,0.0-15.0-1.4,95275,List2B,black,man,,,,null,,,,
null,is dancing with,,html-keyboard-response,167,1401828,0.0-15.0-2.4,95275,List2B,black,man,,,,null,,,,
18716,,,survey-text,168,1420546,0.0-15.0-3.4,95275,List2B,black,man,,,,,"{""Q0"":""kate is dancing with ruth""}","<img src=""stim_listB/dance7.gif""</stim_listB>",is dancing with,
null,"<div style=""font-size:60px;"">+</div>",,html-keyboard-response,169,1421048,0.0-15.0-0.5,95275,List2B,black,man,,,,null,,,,
null,"<img src=""stim_listB/hug7.gif""</stim_listB>",,html-keyboard-response,170,1423049,0.0-15.0-1.5,95275,List2B,black,man,,,,null,,,,
null,is hugging,,html-keyboard-response,171,1425052,0.0-15.0-2.5,95275,List2B,black,man,,,,null,,,,
10039,,,survey-text,172,1435096,0.0-15.0-3.5,95275,List2B,black,man,,,,,"{""Q0"":""beth is hugging ruth""}","<img src=""stim_listB/hug7.gif""</stim_listB>",is hugging,
null,"<div style=""font-size:60px;"">+</div>",,html-keyboard-response,173,1435598,0.0-15.0-0.6,95275,List2B,black,man,,,,null,,,,
null,"<img src=""stim_listB/argue8.gif""</stim_listB>",,html-keyboard-response,174,1437601,0.0-15.0-1.6,95275,List2B,black,man,,,,null,,,,
null,are arguing with each other,,html-keyboard-response,175,1439603,0.0-15.0-2.6,95275,List2B,black,man,,,,null,,,,
18041,,,survey-text,176,1457645,0.0-15.0-3.6,95275,List2B,black,man,,,,,"{""Q0"":""kate and ruth are arguing with each other""}","<img src=""stim_listB/argue8.gif""</stim_listB>",are arguing with each other,
null,"<div style=""font-size:60px;"">+</div>",,html-keyboard-response,177,1458147,0.0-15.0-0.7,95275,List2B,black,man,,,,null,,,,
null,"<img src=""stim_listB/hug4.gif""</stim_listB>",,html-keyboard-response,178,1460151,0.0-15.0-1.7,95275,List2B,black,man,,,,null,,,,
null,are hugging each other,,html-keyboard-response,179,1462153,0.0-15.0-2.7,95275,List2B,black,man,,,,null,,,,
14835,,,survey-text,180,1476990,0.0-15.0-3.7,95275,List2B,black,man,,,,,"{""Q0"":""kate and mike are hugging each other""}","<img src=""stim_listB/hug4.gif""</stim_listB>",are hugging each other,
null,"<div style=""font-size:60px;"">+</div>",,html-keyboard-response,181,1477492,0.0-15.0-0.8,95275,List2B,black,man,,,,null,,,,
null,"<img src=""stim_listB/dance6.gif""</stim_listB>",,html-keyboard-response,182,1479496,0.0-15.0-1.8,95275,List2B,black,man,,,,null,,,,
null,are dancing with each other,,html-keyboard-response,183,1481499,0.0-15.0-2.8,95275,List2B,black,man,,,,null,,,,
20818,,,survey-text,184,1502318,0.0-15.0-3.8,95275,List2B,black,man,,,,,"{""Q0"":""dave and fred are dancing with each other""}","<img src=""stim_listB/dance6.gif""</stim_listB>",are dancing with each other,
null,"<div style=""font-size:60px;"">+</div>",,html-keyboard-response,185,1502821,0.0-15.0-0.9,95275,List2B,black,man,,,,null,,,,
null,"<img src=""stim_listB/kiss3.gif""</stim_listB>",,html-keyboard-response,186,1504825,0.0-15.0-1.9,95275,List2B,black,man,,,,null,,,,
null,is kissing,,html-keyboard-response,187,1506827,0.0-15.0-2.9,95275,List2B,black,man,,,,null,,,,
7282,,,survey-text,188,1514111,0.0-15.0-3.9,95275,List2B,black,man,,,,,"{""Q0"":""beth is kissing fred""}","<img src=""stim_listB/kiss3.gif""</stim_listB>",is kissing,
null,"<div style=""font-size:60px;"">+</div>",,html-keyboard-response,189,1514614,0.0-15.0-0.10,95275,List2B,black,man,,,,null,,,,
null,"<img src=""stim_listB/kiss5.gif""</stim_listB>",,html-keyboard-response,190,1516617,0.0-15.0-1.10,95275,List2B,black,man,,,,null,,,,
null,is kissing,,html-keyboard-response,191,1518619,0.0-15.0-2.10,95275,List2B,black,man,,,,null,,,,
7717,,,survey-text,192,1526337,0.0-15.0-3.10,95275,List2B,black,man,,,,,"{""Q0"":""fred is kissing luke""}","<img src=""stim_listB/kiss5.gif""</stim_listB>",is kissing,
null,"<div style=""font-size:60px;"">+</div>",,html-keyboard-response,193,1526840,0.0-15.0-0.11,95275,List2B,black,man,,,,null,,,,
null,"<img src=""stim_listB/shout4.gif""</stim_listB>",,html-keyboard-response,194,1528841,0.0-15.0-1.11,95275,List2B,black,man,,,,null,,,,
null,are shouting at each other,,html-keyboard-response,195,1530843,0.0-15.0-2.11,95275,List2B,black,man,,,,null,,,,
17564,,,survey-text,196,1548408,0.0-15.0-3.11,95275,List2B,black,man,,,,,"{""Q0"":""mike and kate are shouting at each other""}","<img src=""stim_listB/shout4.gif""</stim_listB>",are shouting at each other,
null,"<div style=""font-size:60px;"">+</div>",,html-keyboard-response,197,1548910,0.0-15.0-0.12,95275,List2B,black,man,,,,null,,,,
null,"<img src=""stim_listB/marry1.gif""</stim_listB>",,html-keyboard-response,198,1550914,0.0-15.0-1.12,95275,List2B,black,man,,,,null,,,,
null,is marrying,,html-keyboard-response,199,1552915,0.0-15.0-2.12,95275,List2B,black,man,,,,null,,,,
13142,,,survey-text,200,1566059,0.0-15.0-3.12,95275,List2B,black,man,,,,,"{""Q0"":""dave is marrying ruth""}","<img src=""stim_listB/marry1.gif""</stim_listB>",is marrying,
null,"<div style=""font-size:60px;"">+</div>",,html-keyboard-response,201,1566561,0.0-15.0-0.13,95275,List2B,black,man,,,,null,,,,
null,"<img src=""stim_listB/hug6.gif""</stim_listB>",,html-keyboard-response,202,1568563,0.0-15.0-1.13,95275,List2B,black,man,,,,null,,,,
null,are hugging each other,,html-keyboard-response,203,1570564,0.0-15.0-2.13,95275,List2B,black,man,,,,null,,,,
12759,,,survey-text,204,1583325,0.0-15.0-3.13,95275,List2B,black,man,,,,,"{""Q0"":""mike and dave are hugging each other""}","<img src=""stim_listB/hug6.gif""</stim_listB>",are hugging each other,
null,"<div style=""font-size:60px;"">+</div>",,html-keyboard-response,205,1583827,0.0-15.0-0.14,95275,List2B,black,man,,,,null,,,,
null,"<img src=""stim_listB/marry4.gif""</stim_listB>",,html-keyboard-response,206,1585830,0.0-15.0-1.14,95275,List2B,black,man,,,,null,,,,
null,are marrying each other,,html-keyboard-response,207,1587832,0.0-15.0-2.14,95275,List2B,black,man,,,,null,,,,
12494,,,survey-text,208,1600328,0.0-15.0-3.14,95275,List2B,black,man,,,,,"{""Q0"":""kate and fred are marying each other""}","<img src=""stim_listB/marry4.gif""</stim_listB>",are marrying each other,
null,"<div style=""font-size:60px;"">+</div>",,html-keyboard-response,209,1600831,0.0-15.0-0.15,95275,List2B,black,man,,,,null,,,,
null,"<img src=""stim_listB/touch3.gif""</stim_listB>",,html-keyboard-response,210,1602834,0.0-15.0-1.15,95275,List2B,black,man,,,,null,,,,
null,is touching,,html-keyboard-response,211,1604838,0.0-15.0-2.15,95275,List2B,black,man,,,,null,,,,
10999,,,survey-text,212,1615838,0.0-15.0-3.15,95275,List2B,black,man,,,,,"{""Q0"":""dave is touching kate""}","<img src=""stim_listB/touch3.gif""</stim_listB>",is touching,
null,"<div style=""font-size:60px;"">+</div>",,html-keyboard-response,213,1616340,0.0-15.0-0.16,95275,List2B,black,man,,,,null,,,,
null,"<img src=""stim_listB/talk6.gif""</stim_listB>",,html-keyboard-response,214,1618342,0.0-15.0-1.16,95275,List2B,black,man,,,,null,,,,
null,are talking to each other,,html-keyboard-response,215,1620347,0.0-15.0-2.16,95275,List2B,black,man,,,,null,,,,
18964,,,survey-text,216,1639313,0.0-15.0-3.16,95275,List2B,black,man,,,,,"{""Q0"":""fred and dave are talking to each other""}","<img src=""stim_listB/talk6.gif""</stim_listB>",are talking to each other,
null,"<div style=""font-size:60px;"">+</div>",,html-keyboard-response,217,1639818,0.0-15.0-0.17,95275,List2B,black,man,,,,null,,,,
null,"<img src=""stim_listB/touch8.gif""</stim_listB>",,html-keyboard-response,218,1641821,0.0-15.0-1.17,95275,List2B,black,man,,,,null,,,,
null,are touching each other,,html-keyboard-response,219,1643823,0.0-15.0-2.17,95275,List2B,black,man,,,,null,,,,
26929,,,survey-text,220,1670754,0.0-15.0-3.17,95275,List2B,black,man,,,,,"{""Q0"":""beth and ruth are touching each other""}","<img src=""stim_listB/touch8.gif""</stim_listB>",are touching each other,
null,"<div style=""font-size:60px;"">+</div>",,html-keyboard-response,221,1671256,0.0-15.0-0.18,95275,List2B,black,man,,,,null,,,,
null,"<img src=""stim_listB/talk8.gif""</stim_listB>",,html-keyboard-response,222,1673259,0.0-15.0-1.18,95275,List2B,black,man,,,,null,,,,
null,are talking to each other,,html-keyboard-response,223,1675261,0.0-15.0-2.18,95275,List2B,black,man,,,,null,,,,
14360,,,survey-text,224,1689622,0.0-15.0-3.18,95275,List2B,black,man,,,,,"{""Q0"":""beth and jane are talking to each other""}","<img src=""stim_listB/talk8.gif""</stim_listB>",are talking to each other,
null,"<div style=""font-size:60px;"">+</div>",,html-keyboard-response,225,1690124,0.0-15.0-0.19,95275,List2B,black,man,,,,null,,,,
null,"<img src=""stim_listB/touch6.gif""</stim_listB>",,html-keyboard-response,226,1692127,0.0-15.0-1.19,95275,List2B,black,man,,,,null,,,,
null,are touching each other,,html-keyboard-response,227,1694129,0.0-15.0-2.19,95275,List2B,black,man,,,,null,,,,
16183,,,survey-text,228,1710314,0.0-15.0-3.19,95275,List2B,black,man,,,,,"{""Q0"":""luke and fred are touching each other""}","<img src=""stim_listB/touch6.gif""</stim_listB>",are touching each other,
2053,"<img src='img/portrait_matrix_list2.JPG' style='width:900px;height:500px;''></img><p>If you have memorised all the portraits and names and are ready to start, press Continue.</p><p><strong>Please note: Your memory of these faces will be tested 4 times during this experiment.</strong></p>",0,html-button-response,229,1712369,0.0-16.0-0.0,95275,List2B,black,man,,,,,,,,
2049,"<img src=""portrait/BM1.jpg""style=""width:400px;height:400px;""></img>",4,html-button-response,230,1715423,0.0-16.0-1.0,95275,List2B,black,man,,TRUE,4,,,,,
null,CORRECT,,html-keyboard-response,231,1716927,0.0-16.0-2.0-0.0,95275,List2B,black,man,,,,null,,,,
2562,"<img src=""portrait/BW1.jpg""style=""width:400px;height:400px;""></img>",0,html-button-response,232,1719492,0.0-16.0-4.0,95275,List2B,black,man,,TRUE,0,,,,,
null,CORRECT,,html-keyboard-response,233,1720997,0.0-16.0-5.0-0.0,95275,List2B,black,man,,,,null,,,,
1885,"<img src=""portrait/BM2.jpg""style=""width:400px;height:400px;""></img>",5,html-button-response,234,1722886,0.0-16.0-7.0,95275,List2B,black,man,,TRUE,5,,,,,
null,CORRECT,,html-keyboard-response,235,1724391,0.0-16.0-8.0-0.0,95275,List2B,black,man,,,,null,,,,
1946,"<img src=""portrait/WM1.jpg""style=""width:400px;height:400px;""></img>",6,html-button-response,236,1726342,0.0-16.0-10.0,95275,List2B,black,man,,TRUE,6,,,,,
null,CORRECT,,html-keyboard-response,237,1727846,0.0-16.0-11.0-0.0,95275,List2B,black,man,,,,null,,,,
1717,"<img src=""portrait/WW2.jpg""style=""width:400px;height:400px;""></img>",3,html-button-response,238,1729566,0.0-16.0-13.0,95275,List2B,black,man,,TRUE,3,,,,,
null,CORRECT,,html-keyboard-response,239,1731068,0.0-16.0-14.0-0.0,95275,List2B,black,man,,,,null,,,,
1865,"<img src=""portrait/BW2.jpg""style=""width:400px;height:400px;""></img>",2,html-button-response,240,1732936,0.0-16.0-16.0,95275,List2B,black,man,,TRUE,2,,,,,
null,CORRECT,,html-keyboard-response,241,1734441,0.0-16.0-17.0-0.0,95275,List2B,black,man,,,,null,,,,
2012,"<img src=""portrait/WW1.jpg""style=""width:400px;height:400px;""></img>",1,html-button-response,242,1736455,0.0-16.0-19.0,95275,List2B,black,man,,TRUE,1,,,,,
null,CORRECT,,html-keyboard-response,243,1737961,0.0-16.0-20.0-0.0,95275,List2B,black,man,,,,null,,,,
1680,"<img src=""portrait/WM2.jpg""style=""width:400px;height:400px;""></img>",7,html-button-response,244,1739646,0.0-16.0-22.0,95275,List2B,black,man,,TRUE,7,,,,,
null,CORRECT,,html-keyboard-response,245,1741151,0.0-16.0-23.0-0.0,95275,List2B,black,man,,,,null,,,,
1465,<p>You got 8 out of 8 right first time. Press Continue.</p>,0,html-button-response,246,1742618,0.0-16.0-25.0,95275,List2B,black,man,,,,,,,,
null,"<div style=""font-size:60px;"">+</div>",,html-keyboard-response,247,1744122,0.0-17.0-0.0,95275,List2B,black,man,,,,null,,,,
null,"<img src=""stim_listB/dance1.gif""</stim_listB>",,html-keyboard-response,248,1746124,0.0-17.0-1.0,95275,List2B,black,man,,,,null,,,,
null,is dancing with,,html-keyboard-response,249,1748127,0.0-17.0-2.0,95275,List2B,black,man,,,,null,,,,
10965,,,survey-text,250,1759093,0.0-17.0-3.0,95275,List2B,black,man,,,,,"{""Q0"":""luke is dancing with jane""}","<img src=""stim_listB/dance1.gif""</stim_listB>",is dancing with,
null,"<div style=""font-size:60px;"">+</div>",,html-keyboard-response,251,1759596,0.0-17.0-0.1,95275,List2B,black,man,,,,null,,,,
null,"<img src=""stim_listB/hug3.gif""</stim_listB>",,html-keyboard-response,252,1761600,0.0-17.0-1.1,95275,List2B,black,man,,,,null,,,,
null,is hugging,,html-keyboard-response,253,1763604,0.0-17.0-2.1,95275,List2B,black,man,,,,null,,,,
6947,,,survey-text,254,1770553,0.0-17.0-3.1,95275,List2B,black,man,,,,,"{""Q0"":""beth is hugging fred""}","<img src=""stim_listB/hug3.gif""</stim_listB>",is hugging,
null,"<div style=""font-size:60px;"">+</div>",,html-keyboard-response,255,1771055,0.0-17.0-0.2,95275,List2B,black,man,,,,null,,,,
null,"<img src=""stim_listB/meet8.gif""</stim_listB>",,html-keyboard-response,256,1773058,0.0-17.0-1.2,95275,List2B,black,man,,,,null,,,,
null,are meeting each other,,html-keyboard-response,257,1775062,0.0-17.0-2.2,95275,List2B,black,man,,,,null,,,,
13325,,,survey-text,258,1788388,0.0-17.0-3.2,95275,List2B,black,man,,,,,"{""Q0"":""beth and ruth are meeting each other""}","<img src=""stim_listB/meet8.gif""</stim_listB>",are meeting each other,
null,"<div style=""font-size:60px;"">+</div>",,html-keyboard-response,259,1788891,0.0-17.0-0.3,95275,List2B,black,man,,,,null,,,,
null,"<img src=""stim_listB/shout6.gif""</stim_listB>",,html-keyboard-response,260,1790897,0.0-17.0-1.3,95275,List2B,black,man,,,,null,,,,
null,are shouting at each other,,html-keyboard-response,261,1792901,0.0-17.0-2.3,95275,List2B,black,man,,,,null,,,,
14192,,,survey-text,262,1807095,0.0-17.0-3.3,95275,List2B,black,man,,,,,"{""Q0"":""dave and mike are shouting at each other""}","<img src=""stim_listB/shout6.gif""</stim_listB>",are shouting at each other,
null,"<div style=""font-size:60px;"">+</div>",,html-keyboard-response,263,1807598,0.0-17.0-0.4,95275,List2B,black,man,,,,null,,,,
null,"<img src=""stim_listB/marry6.gif""</stim_listB>",,html-keyboard-response,264,1809601,0.0-17.0-1.4,95275,List2B,black,man,,,,null,,,,
null,are marrying each other,,html-keyboard-response,265,1811604,0.0-17.0-2.4,95275,List2B,black,man,,,,null,,,,
13485,,,survey-text,266,1825091,0.0-17.0-3.4,95275,List2B,black,man,,,,,"{""Q0"":""mike and luke are marrying each other""}","<img src=""stim_listB/marry6.gif""</stim_listB>",are marrying each other,
null,"<div style=""font-size:60px;"">+</div>",,html-keyboard-response,267,1825595,0.0-17.0-0.5,95275,List2B,black,man,,,,null,,,,
null,"<img src=""stim_listB/meet3.gif""</stim_listB>",,html-keyboard-response,268,1827597,0.0-17.0-1.5,95275,List2B,black,man,,,,null,,,,
null,is meeting,,html-keyboard-response,269,1829599,0.0-17.0-2.5,95275,List2B,black,man,,,,null,,,,
10206,,,survey-text,270,1839807,0.0-17.0-3.5,95275,List2B,black,man,,,,,"{""Q0"":""kate is meeting mike""}","<img src=""stim_listB/meet3.gif""</stim_listB>",is meeting,
null,"<div style=""font-size:60px;"">+</div>",,html-keyboard-response,271,1840310,0.0-17.0-0.6,95275,List2B,black,man,,,,null,,,,
null,"<img src=""stim_listB/argue6.gif""</stim_listB>",,html-keyboard-response,272,1842314,0.0-17.0-1.6,95275,List2B,black,man,,,,null,,,,
null,are arguing with each other,,html-keyboard-response,273,1844316,0.0-17.0-2.6,95275,List2B,black,man,,,,null,,,,
17253,,,survey-text,274,1861570,0.0-17.0-3.6,95275,List2B,black,man,,,,,"{""Q0"":""luke and mike are arguing with each other""}","<img src=""stim_listB/argue6.gif""</stim_listB>",are arguing with each other,
null,"<div style=""font-size:60px;"">+</div>",,html-keyboard-response,275,1862073,0.0-17.0-0.7,95275,List2B,black,man,,,,null,,,,
null,"<img src=""stim_listB/meet5.gif""</stim_listB>",,html-keyboard-response,276,1864075,0.0-17.0-1.7,95275,List2B,black,man,,,,null,,,,
null,is meeting,,html-keyboard-response,277,1866077,0.0-17.0-2.7,95275,List2B,black,man,,,,null,,,,
8825,,,survey-text,278,1874906,0.0-17.0-3.7,95275,List2B,black,man,,,,,"{""Q0"":""dave is meeting mike""}","<img src=""stim_listB/meet5.gif""</stim_listB>",is meeting,
null,"<div style=""font-size:60px;"">+</div>",,html-keyboard-response,279,1875408,0.0-17.0-0.8,95275,List2B,black,man,,,,null,,,,
null,"<img src=""stim_listB/dance3.gif""</stim_listB>",,html-keyboard-response,280,1877410,0.0-17.0-1.8,95275,List2B,black,man,,,,null,,,,
null,is dancing with,,html-keyboard-response,281,1879413,0.0-17.0-2.8,95275,List2B,black,man,,,,null,,,,
9380,,,survey-text,282,1888795,0.0-17.0-3.8,95275,List2B,black,man,,,,,"{""Q0"":""kate is dancing with fred""}","<img src=""stim_listB/dance3.gif""</stim_listB>",is dancing with,
null,"<div style=""font-size:60px;"">+</div>",,html-keyboard-response,283,1889298,0.0-17.0-0.9,95275,List2B,black,man,,,,null,,,,
null,"<img src=""stim_listB/argue7.gif""</stim_listB>",,html-keyboard-response,284,1891301,0.0-17.0-1.9,95275,List2B,black,man,,,,null,,,,
null,is arguing with,,html-keyboard-response,285,1893303,0.0-17.0-2.9,95275,List2B,black,man,,,,null,,,,
9829,,,survey-text,286,1903134,0.0-17.0-3.9,95275,List2B,black,man,,,,,"{""Q0"":""beth is arguing with jane""}","<img src=""stim_listB/argue7.gif""</stim_listB>",is arguing with,
null,"<div style=""font-size:60px;"">+</div>",,html-keyboard-response,287,1903635,0.0-17.0-0.10,95275,List2B,black,man,,,,null,,,,
null,"<img src=""stim_listB/touch1.gif""</stim_listB>",,html-keyboard-response,288,1905638,0.0-17.0-1.10,95275,List2B,black,man,,,,null,,,,
null,is touching,,html-keyboard-response,289,1907641,0.0-17.0-2.10,95275,List2B,black,man,,,,null,,,,
9203,,,survey-text,290,1916847,0.0-17.0-3.10,95275,List2B,black,man,,,,,"{""Q0"":""jane is touching dave""}","<img src=""stim_listB/touch1.gif""</stim_listB>",is touching,
null,"<div style=""font-size:60px;"">+</div>",,html-keyboard-response,291,1917350,0.0-17.0-0.11,95275,List2B,black,man,,,,null,,,,
null,"<img src=""stim_listB/fight5.gif""</stim_listB>",,html-keyboard-response,292,1919353,0.0-17.0-1.11,95275,List2B,black,man,,,,null,,,,
null,is fighting,,html-keyboard-response,293,1921355,0.0-17.0-2.11,95275,List2B,black,man,,,,null,,,,
8423,,,survey-text,294,1929779,0.0-17.0-3.11,95275,List2B,black,man,,,,,"{""Q0"":""mike is fighting dave""}","<img src=""stim_listB/fight5.gif""</stim_listB>",is fighting,
null,"<div style=""font-size:60px;"">+</div>",,html-keyboard-response,295,1930281,0.0-17.0-0.12,95275,List2B,black,man,,,,null,,,,
null,"<img src=""stim_listB/argue4.gif""</stim_listB>",,html-keyboard-response,296,1932284,0.0-17.0-1.12,95275,List2B,black,man,,,,null,,,,
null,are arguing with each other,,html-keyboard-response,297,1934286,0.0-17.0-2.12,95275,List2B,black,man,,,,null,,,,
20263,,,survey-text,298,1954550,0.0-17.0-3.12,95275,List2B,black,man,,,,,"{""Q0"":""fred is arguing with kate""}","<img src=""stim_listB/argue4.gif""</stim_listB>",are arguing with each other,
null,"<div style=""font-size:60px;"">+</div>",,html-keyboard-response,299,1955053,0.0-17.0-0.13,95275,List2B,black,man,,,,null,,,,
null,"<img src=""stim_listB/hug5.gif""</stim_listB>",,html-keyboard-response,300,1957054,0.0-17.0-1.13,95275,List2B,black,man,,,,null,,,,
null,is hugging,,html-keyboard-response,301,1959057,0.0-17.0-2.13,95275,List2B,black,man,,,,null,,,,
13188,,,survey-text,302,1972246,0.0-17.0-3.13,95275,List2B,black,man,,,,,"{""Q0"":""fred is hugging luke""}","<img src=""stim_listB/hug5.gif""</stim_listB>",is hugging,
null,"<div style=""font-size:60px;"">+</div>",,html-keyboard-response,303,1972749,0.0-17.0-0.14,95275,List2B,black,man,,,,null,,,,
null,"<img src=""stim_listB/argue1.gif""</stim_listB>",,html-keyboard-response,304,1974753,0.0-17.0-1.14,95275,List2B,black,man,,,,null,,,,
null,is arguing with,,html-keyboard-response,305,1976754,0.0-17.0-2.14,95275,List2B,black,man,,,,null,,,,
10035,,,survey-text,306,1986791,0.0-17.0-3.14,95275,List2B,black,man,,,,,"{""Q0"":""dave is arguing with ruth""}","<img src=""stim_listB/argue1.gif""</stim_listB>",is arguing with,
null,"<div style=""font-size:60px;"">+</div>",,html-keyboard-response,307,1987294,0.0-17.0-0.15,95275,List2B,black,man,,,,null,,,,
null,"<img src=""stim_listB/dance2.gif""</stim_listB>",,html-keyboard-response,308,1989299,0.0-17.0-1.15,95275,List2B,black,man,,,,null,,,,
null,are dancing with each other,,html-keyboard-response,309,1991300,0.0-17.0-2.15,95275,List2B,black,man,,,,null,,,,
15961,,,survey-text,310,2007263,0.0-17.0-3.15,95275,List2B,black,man,,,,,"{""Q0"":""dave and ruth are dancing with each other""}","<img src=""stim_listB/dance2.gif""</stim_listB>",are dancing with each other,
null,"<div style=""font-size:60px;"">+</div>",,html-keyboard-response,311,2007765,0.0-17.0-0.16,95275,List2B,black,man,,,,null,,,,
null,"<img src=""stim_listB/talk7.gif""</stim_listB>",,html-keyboard-response,312,2009768,0.0-17.0-1.16,95275,List2B,black,man,,,,null,,,,
null,is talking to,,html-keyboard-response,313,2011770,0.0-17.0-2.16,95275,List2B,black,man,,,,null,,,,
8908,,,survey-text,314,2020681,0.0-17.0-3.16,95275,List2B,black,man,,,,,"{""Q0"":""kate is talking to ruth""}","<img src=""stim_listB/talk7.gif""</stim_listB>",is talking to,
null,"<div style=""font-size:60px;"">+</div>",,html-keyboard-response,315,2021184,0.0-17.0-0.17,95275,List2B,black,man,,,,null,,,,
null,"<img src=""stim_listB/shout2.gif""</stim_listB>",,html-keyboard-response,316,2023187,0.0-17.0-1.17,95275,List2B,black,man,,,,null,,,,
null,are shouting at each other,,html-keyboard-response,317,2025189,0.0-17.0-2.17,95275,List2B,black,man,,,,null,,,,
17606,,,survey-text,318,2042797,0.0-17.0-3.17,95275,List2B,black,man,,,,,"{""Q0"":""dave and jane are shouting at each other""}","<img src=""stim_listB/shout2.gif""</stim_listB>",are shouting at each other,
null,"<div style=""font-size:60px;"">+</div>",,html-keyboard-response,319,2043300,0.0-17.0-0.18,95275,List2B,black,man,,,,null,,,,
null,"<img src=""stim_listB/touch4.gif""</stim_listB>",,html-keyboard-response,320,2045302,0.0-17.0-1.18,95275,List2B,black,man,,,,null,,,,
null,are touching each other,,html-keyboard-response,321,2047305,0.0-17.0-2.18,95275,List2B,black,man,,,,null,,,,
15391,,,survey-text,322,2062700,0.0-17.0-3.18,95275,List2B,black,man,,,,,"{""Q0"":""beth and fred are touching each other""}","<img src=""stim_listB/touch4.gif""</stim_listB>",are touching each other,
null,"<div style=""font-size:60px;"">+</div>",,html-keyboard-response,323,2063202,0.0-17.0-0.19,95275,List2B,black,man,,,,null,,,,
null,"<img src=""stim_listB/fight1.gif""</stim_listB>",,html-keyboard-response,324,2065204,0.0-17.0-1.19,95275,List2B,black,man,,,,null,,,,
null,is fighting,,html-keyboard-response,325,2067206,0.0-17.0-2.19,95275,List2B,black,man,,,,null,,,,
7665,,,survey-text,326,2074873,0.0-17.0-3.19,95275,List2B,black,man,,,,,"{""Q0"":""jane is fighting dave""}","<img src=""stim_listB/fight1.gif""</stim_listB>",is fighting,
4295,"<img src='img/portrait_matrix_list2.JPG' style='width:900px;height:500px;''></img><p>If you have memorised all the portraits and names and are ready to start, press Continue.</p><p><strong>Please note: Your memory of these faces will be tested 4 times during this experiment.</strong></p>",0,html-button-response,327,2079169,0.0-18.0-0.0,95275,List2B,black,man,,,,,,,,
3417,"<img src=""portrait/BW2.jpg""style=""width:400px;height:400px;""></img>",2,html-button-response,328,2083591,0.0-18.0-1.0,95275,List2B,black,man,,TRUE,2,,,,,
null,CORRECT,,html-keyboard-response,329,2085094,0.0-18.0-2.0-0.0,95275,List2B,black,man,,,,null,,,,
1431,"<img src=""portrait/WM2.jpg""style=""width:400px;height:400px;""></img>",7,html-button-response,330,2086531,0.0-18.0-4.0,95275,List2B,black,man,,TRUE,7,,,,,
null,CORRECT,,html-keyboard-response,331,2088034,0.0-18.0-5.0-0.0,95275,List2B,black,man,,,,null,,,,
1434,"<img src=""portrait/WW2.jpg""style=""width:400px;height:400px;""></img>",3,html-button-response,332,2089472,0.0-18.0-7.0,95275,List2B,black,man,,TRUE,3,,,,,
null,CORRECT,,html-keyboard-response,333,2090974,0.0-18.0-8.0-0.0,95275,List2B,black,man,,,,null,,,,
1173,"<img src=""portrait/BM2.jpg""style=""width:400px;height:400px;""></img>",5,html-button-response,334,2092150,0.0-18.0-10.0,95275,List2B,black,man,,TRUE,5,,,,,
null,CORRECT,,html-keyboard-response,335,2093655,0.0-18.0-11.0-0.0,95275,List2B,black,man,,,,null,,,,
2230,"<img src=""portrait/WW1.jpg""style=""width:400px;height:400px;""></img>",1,html-button-response,336,2095888,0.0-18.0-13.0,95275,List2B,black,man,,TRUE,1,,,,,
null,CORRECT,,html-keyboard-response,337,2097392,0.0-18.0-14.0-0.0,95275,List2B,black,man,,,,null,,,,
1476,"<img src=""portrait/BM1.jpg""style=""width:400px;height:400px;""></img>",4,html-button-response,338,2098873,0.0-18.0-16.0,95275,List2B,black,man,,TRUE,4,,,,,
null,CORRECT,,html-keyboard-response,339,2100377,0.0-18.0-17.0-0.0,95275,List2B,black,man,,,,null,,,,
2402,"<img src=""portrait/BW1.jpg""style=""width:400px;height:400px;""></img>",0,html-button-response,340,2102782,0.0-18.0-19.0,95275,List2B,black,man,,TRUE,0,,,,,
null,CORRECT,,html-keyboard-response,341,2104287,0.0-18.0-20.0-0.0,95275,List2B,black,man,,,,null,,,,
1379,"<img src=""portrait/WM1.jpg""style=""width:400px;height:400px;""></img>",6,html-button-response,342,2105669,0.0-18.0-22.0,95275,List2B,black,man,,TRUE,6,,,,,
null,CORRECT,,html-keyboard-response,343,2107172,0.0-18.0-23.0-0.0,95275,List2B,black,man,,,,null,,,,
1217,<p>You got 8 out of 8 right first time. Press Continue.</p>,0,html-button-response,344,2108393,0.0-18.0-25.0,95275,List2B,black,man,,,,,,,,
null,"<div style=""font-size:60px;"">+</div>",,html-keyboard-response,345,2109897,0.0-19.0-0.0,95275,List2B,black,man,,,,null,,,,
null,"<img src=""stim_listB/touch2.gif""</stim_listB>",,html-keyboard-response,346,2111899,0.0-19.0-1.0,95275,List2B,black,man,,,,null,,,,
null,are touching each other,,html-keyboard-response,347,2113901,0.0-19.0-2.0,95275,List2B,black,man,,,,null,,,,
12131,,,survey-text,348,2126034,0.0-19.0-3.0,95275,List2B,black,man,,,,,"{""Q0"":""luke and ruth are touching each other""}","<img src=""stim_listB/touch2.gif""</stim_listB>",are touching each other,
null,"<div style=""font-size:60px;"">+</div>",,html-keyboard-response,349,2126538,0.0-19.0-0.1,95275,List2B,black,man,,,,null,,,,
null,"<img src=""stim_listB/talk5.gif""</stim_listB>",,html-keyboard-response,350,2128540,0.0-19.0-1.1,95275,List2B,black,man,,,,null,,,,
null,is talking to,,html-keyboard-response,351,2130543,0.0-19.0-2.1,95275,List2B,black,man,,,,null,,,,
10633,,,survey-text,352,2141178,0.0-19.0-3.1,95275,List2B,black,man,,,,,"{""Q0"":""luke is talking to mike""}","<img src=""stim_listB/talk5.gif""</stim_listB>",is talking to,
null,"<div style=""font-size:60px;"">+</div>",,html-keyboard-response,353,2141682,0.0-19.0-0.2,95275,List2B,black,man,,,,null,,,,
null,"<img src=""stim_listB/talk3.gif""</stim_listB>",,html-keyboard-response,354,2143685,0.0-19.0-1.2,95275,List2B,black,man,,,,null,,,,
null,is talking to,,html-keyboard-response,355,2145687,0.0-19.0-2.2,95275,List2B,black,man,,,,null,,,,
13001,,,survey-text,356,2158689,0.0-19.0-3.2,95275,List2B,black,man,,,,,"{""Q0"":""kate is talking to fred""}","<img src=""stim_listB/talk3.gif""</stim_listB>",is talking to,
null,"<div style=""font-size:60px;"">+</div>",,html-keyboard-response,357,2159193,0.0-19.0-0.3,95275,List2B,black,man,,,,null,,,,
null,"<img src=""stim_listB/shout7.gif""</stim_listB>",,html-keyboard-response,358,2161196,0.0-19.0-1.3,95275,List2B,black,man,,,,null,,,,
null,is shouting at,,html-keyboard-response,359,2163198,0.0-19.0-2.3,95275,List2B,black,man,,,,null,,,,
15214,,,survey-text,360,2178414,0.0-19.0-3.3,95275,List2B,black,man,,,,,"{""Q0"":""beth is shouting at ruth""}","<img src=""stim_listB/shout7.gif""</stim_listB>",is shouting at,
null,"<div style=""font-size:60px;"">+</div>",,html-keyboard-response,361,2178918,0.0-19.0-0.4,95275,List2B,black,man,,,,null,,,,
null,"<img src=""stim_listB/shout3.gif""</stim_listB>",,html-keyboard-response,362,2180922,0.0-19.0-1.4,95275,List2B,black,man,,,,null,,,,
null,is shouting at,,html-keyboard-response,363,2182923,0.0-19.0-2.4,95275,List2B,black,man,,,,null,,,,
9482,,,survey-text,364,2192406,0.0-19.0-3.4,95275,List2B,black,man,,,,,"{""Q0"":""beth is shouting at fred""}","<img src=""stim_listB/shout3.gif""</stim_listB>",is shouting at,
null,"<div style=""font-size:60px;"">+</div>",,html-keyboard-response,365,2192909,0.0-19.0-0.5,95275,List2B,black,man,,,,null,,,,
null,"<img src=""stim_listB/marry3.gif""</stim_listB>",,html-keyboard-response,366,2194911,0.0-19.0-1.5,95275,List2B,black,man,,,,null,,,,
null,is marrying,,html-keyboard-response,367,2196913,0.0-19.0-2.5,95275,List2B,black,man,,,,null,,,,
9758,,,survey-text,368,2206673,0.0-19.0-3.5,95275,List2B,black,man,,,,,"{""Q0"":""beth is marrying mike""}","<img src=""stim_listB/marry3.gif""</stim_listB>",is marrying,
null,"<div style=""font-size:60px;"">+</div>",,html-keyboard-response,369,2207174,0.0-19.0-0.6,95275,List2B,black,man,,,,null,,,,
null,"<img src=""stim_listB/talk4.gif""</stim_listB>",,html-keyboard-response,370,2209178,0.0-19.0-1.6,95275,List2B,black,man,,,,null,,,,
null,are talking to each other,,html-keyboard-response,371,2211180,0.0-19.0-2.6,95275,List2B,black,man,,,,null,,,,
12191,,,survey-text,372,2223374,0.0-19.0-3.6,95275,List2B,black,man,,,,,"{""Q0"":""beth and mike are talking to each other""}","<img src=""stim_listB/talk4.gif""</stim_listB>",are talking to each other,
null,"<div style=""font-size:60px;"">+</div>",,html-keyboard-response,373,2223876,0.0-19.0-0.7,95275,List2B,black,man,,,,null,,,,
null,"<img src=""stim_listB/kiss7.gif""</stim_listB>",,html-keyboard-response,374,2225879,0.0-19.0-1.7,95275,List2B,black,man,,,,null,,,,
null,is kissing,,html-keyboard-response,375,2227883,0.0-19.0-2.7,95275,List2B,black,man,,,,null,,,,
7439,,,survey-text,376,2235324,0.0-19.0-3.7,95275,List2B,black,man,,,,,"{""Q0"":""beth is kissing ruth""}","<img src=""stim_listB/kiss7.gif""</stim_listB>",is kissing,
null,"<div style=""font-size:60px;"">+</div>",,html-keyboard-response,377,2235826,0.0-19.0-0.8,95275,List2B,black,man,,,,null,,,,
null,"<img src=""stim_listB/fight2.gif""</stim_listB>",,html-keyboard-response,378,2237828,0.0-19.0-1.8,95275,List2B,black,man,,,,null,,,,
null,are fighting each other,,html-keyboard-response,379,2239831,0.0-19.0-2.8,95275,List2B,black,man,,,,null,,,,
12272,,,survey-text,380,2252105,0.0-19.0-3.8,95275,List2B,black,man,,,,,"{""Q0"":""ruth and luke are fighting each other""}","<img src=""stim_listB/fight2.gif""</stim_listB>",are fighting each other,
null,"<div style=""font-size:60px;"">+</div>",,html-keyboard-response,381,2252609,0.0-19.0-0.9,95275,List2B,black,man,,,,null,,,,
null,"<img src=""stim_listB/marry7.gif""</stim_listB>",,html-keyboard-response,382,2254611,0.0-19.0-1.9,95275,List2B,black,man,,,,null,,,,
null,is marrying,,html-keyboard-response,383,2256613,0.0-19.0-2.9,95275,List2B,black,man,,,,null,,,,
8902,,,survey-text,384,2265517,0.0-19.0-3.9,95275,List2B,black,man,,,,,"{""Q0"":""jane is marrying beth""}","<img src=""stim_listB/marry7.gif""</stim_listB>",is marrying,
null,"<div style=""font-size:60px;"">+</div>",,html-keyboard-response,385,2266019,0.0-19.0-0.10,95275,List2B,black,man,,,,null,,,,
null,"<img src=""stim_listB/marry2.gif""</stim_listB>",,html-keyboard-response,386,2268022,0.0-19.0-1.10,95275,List2B,black,man,,,,null,,,,
null,are marrying each other,,html-keyboard-response,387,2270023,0.0-19.0-2.10,95275,List2B,black,man,,,,null,,,,
16698,,,survey-text,388,2286723,0.0-19.0-3.10,95275,List2B,black,man,,,,,"{""Q0"":""jane and luke are marrying each other""}","<img src=""stim_listB/marry2.gif""</stim_listB>",are marrying each other,
null,"<div style=""font-size:60px;"">+</div>",,html-keyboard-response,389,2287224,0.0-19.0-0.11,95275,List2B,black,man,,,,null,,,,
null,"<img src=""stim_listB/meet6.gif""</stim_listB>",,html-keyboard-response,390,2289226,0.0-19.0-1.11,95275,List2B,black,man,,,,null,,,,
null,are meeting each other,,html-keyboard-response,391,2291228,0.0-19.0-2.11,95275,List2B,black,man,,,,null,,,,
16167,,,survey-text,392,2307398,0.0-19.0-3.11,95275,List2B,black,man,,,,,"{""Q0"":""luke and fred are meeting each other""}","<img src=""stim_listB/meet6.gif""</stim_listB>",are meeting each other,
null,"<div style=""font-size:60px;"">+</div>",,html-keyboard-response,393,2307900,0.0-19.0-0.12,95275,List2B,black,man,,,,null,,,,
null,"<img src=""stim_listB/argue3.gif""</stim_listB>",,html-keyboard-response,394,2309903,0.0-19.0-1.12,95275,List2B,black,man,,,,null,,,,
null,is arguing with,,html-keyboard-response,395,2311905,0.0-19.0-2.12,95275,List2B,black,man,,,,null,,,,
8883,,,survey-text,396,2320790,0.0-19.0-3.12,95275,List2B,black,man,,,,,"{""Q0"":""beth is arguing with mike""}","<img src=""stim_listB/argue3.gif""</stim_listB>",is arguing with,
null,"<div style=""font-size:60px;"">+</div>",,html-keyboard-response,397,2321293,0.0-19.0-0.13,95275,List2B,black,man,,,,null,,,,
null,"<img src=""stim_listB/dance5.gif""</stim_listB>",,html-keyboard-response,398,2323297,0.0-19.0-1.13,95275,List2B,black,man,,,,null,,,,
null,is dancing with,,html-keyboard-response,399,2325300,0.0-19.0-2.13,95275,List2B,black,man,,,,null,,,,
9314,,,survey-text,400,2334616,0.0-19.0-3.13,95275,List2B,black,man,,,,,"{""Q0"":""mike is dancing with luke""}","<img src=""stim_listB/dance5.gif""</stim_listB>",is dancing with,
null,"<div style=""font-size:60px;"">+</div>",,html-keyboard-response,401,2335119,0.0-19.0-0.14,95275,List2B,black,man,,,,null,,,,
null,"<img src=""stim_listB/dance4.gif""</stim_listB>",,html-keyboard-response,402,2337122,0.0-19.0-1.14,95275,List2B,black,man,,,,null,,,,
null,are dancing with each other,,html-keyboard-response,403,2339126,0.0-19.0-2.14,95275,List2B,black,man,,,,null,,,,
15586,,,survey-text,404,2354715,0.0-19.0-3.14,95275,List2B,black,man,,,,,"{""Q0"":""beth and mike are dancing with each other""}","<img src=""stim_listB/dance4.gif""</stim_listB>",are dancing with each other,
null,"<div style=""font-size:60px;"">+</div>",,html-keyboard-response,405,2355217,0.0-19.0-0.15,95275,List2B,black,man,,,,null,,,,
null,"<img src=""stim_listB/hug8.gif""</stim_listB>",,html-keyboard-response,406,2357219,0.0-19.0-1.15,95275,List2B,black,man,,,,null,,,,
null,are hugging each other,,html-keyboard-response,407,2359221,0.0-19.0-2.15,95275,List2B,black,man,,,,null,,,,
10818,,,survey-text,408,2370040,0.0-19.0-3.15,95275,List2B,black,man,,,,,"{""Q0"":""kate and jane are hugging each other""}","<img src=""stim_listB/hug8.gif""</stim_listB>",are hugging each other,
null,"<div style=""font-size:60px;"">+</div>",,html-keyboard-response,409,2370543,0.0-19.0-0.16,95275,List2B,black,man,,,,null,,,,
null,"<img src=""stim_listB/shout5.gif""</stim_listB>",,html-keyboard-response,410,2372548,0.0-19.0-1.16,95275,List2B,black,man,,,,null,,,,
null,is shouting at,,html-keyboard-response,411,2374550,0.0-19.0-2.16,95275,List2B,black,man,,,,null,,,,
9172,,,survey-text,412,2383725,0.0-19.0-3.16,95275,List2B,black,man,,,,,"{""Q0"":""luke is shouting at fred""}","<img src=""stim_listB/shout5.gif""</stim_listB>",is shouting at,
null,"<div style=""font-size:60px;"">+</div>",,html-keyboard-response,413,2384228,0.0-19.0-0.17,95275,List2B,black,man,,,,null,,,,
null,"<img src=""stim_listB/shout1.gif""</stim_listB>",,html-keyboard-response,414,2386231,0.0-19.0-1.17,95275,List2B,black,man,,,,null,,,,
null,is shouting at,,html-keyboard-response,415,2388234,0.0-19.0-2.17,95275,List2B,black,man,,,,null,,,,
17268,,,survey-text,416,2405505,0.0-19.0-3.17,95275,List2B,black,man,,,,,"{""Q0"":""luke is shouting at ruth""}","<img src=""stim_listB/shout1.gif""</stim_listB>",is shouting at,
null,"<div style=""font-size:60px;"">+</div>",,html-keyboard-response,417,2406006,0.0-19.0-0.18,95275,List2B,black,man,,,,null,,,,
null,"<img src=""stim_listB/kiss6.gif""</stim_listB>",,html-keyboard-response,418,2408008,0.0-19.0-1.18,95275,List2B,black,man,,,,null,,,,
null,are kissing each other,,html-keyboard-response,419,2410010,0.0-19.0-2.18,95275,List2B,black,man,,,,null,,,,
18520,,,survey-text,420,2428532,0.0-19.0-3.18,95275,List2B,black,man,,,,,"{""Q0"":""dave and mike are kissing each other ""}","<img src=""stim_listB/kiss6.gif""</stim_listB>",are kissing each other,
null,"<div style=""font-size:60px;"">+</div>",,html-keyboard-response,421,2429034,0.0-19.0-0.19,95275,List2B,black,man,,,,null,,,,
null,"<img src=""stim_listB/touch7.gif""</stim_listB>",,html-keyboard-response,422,2431036,0.0-19.0-1.19,95275,List2B,black,man,,,,null,,,,
null,is touching,,html-keyboard-response,423,2433038,0.0-19.0-2.19,95275,List2B,black,man,,,,null,,,,
8606,,,survey-text,424,2441646,0.0-19.0-3.19,95275,List2B,black,man,,,,,"{""Q0"":""kate is touching jane""}","<img src=""stim_listB/touch7.gif""</stim_listB>",is touching,
1866,<p>Thank you for completing that task.</p><p>The final part of this session is a short questionnaire.</p><p>Press Continue.</p>,0,html-button-response,425,2443513,0.0-20.0,95275,List2B,black,man,,,,,,,,
38875,,,survey-text,426,2483391,0.0-21.0,95275,List2B,black,man,,,,,"{""Q0"":""35"",""Q1"":""english"",""Q2"":""english"",""Q3"":""scotland"",""Q4"":""black"",""Q5"":""male""}",,,demographics
61425,,,survey-likert,427,2544833,0.0-22.0,95275,List2B,black,man,,,,,"{""Q0"":2,""Q1"":5,""Q2"":3,""Q3"":2,""Q4"":4,""Q5"":2,""Q6"":3,""Q7"":5,""Q8"":3,""Q9"":5,""Q10"":4,""Q11"":3,""Q12"":3,""Q13"":2}",,,likert_race
47623,,,survey-likert,428,2592463,0.0-23.0,95275,List2B,black,man,,,,,"{""Q0"":5,""Q1"":3,""Q2"":4,""Q3"":4,""Q4"":3,""Q5"":4,""Q6"":3,""Q7"":4,""Q8"":5,""Q9"":5,""Q10"":4,""Q11"":4,""Q12"":3,""Q13"":3}",,,likert_gender
4998,,,survey-text,429,2597463,0.0-24.0,95275,List2B,black,man,,,,,"{""Q0"":""ccc""}",,,worker_id
3083,,,external-html,430,2600659,0.0-25.0,95275,List2B,black,man,debrief.html,,,,,,,
