rt,stimulus,button_pressed,trial_type,trial_index,time_elapsed,internal_node_id,subject,list,ppt_race,ppt_gender,url,first_guess,correct,key_press,responses,image_type,phrase_type,test_part
8710,Welcome to the experiment. Press Continue to begin.,0,html-button-response,0,8715,0.0-0.0,95473,List1A,black,woman,,,,,,,,
17578,,,external-html,1,27667,0.0-1.0,95473,List1A,black,woman,consent.html,,,,,,,
86266,"<p>On the next page, you will see portraits of 8 people and their names.</p><p>Your first task is to take a few minutes to memorise the names of these people.</p><p>You will have to recall their names during the rest of the experiment, so it is</p><p>essential that you try to memorise these people and their names as best as you can.</p><br><p><strong>You will then be tested on your memory of these names and portraits.</strong></p><br><p>The experiment will start after you have completed this memory test.</p><br><p>Ready?</p>",0,html-button-response,2,113935,0.0-2.0,95473,List1A,black,woman,,,,,,,,
155512,"<img src='img/portrait_matrix_list1.JPG' style='width:900px;height:500px;''></img><p>If you have memorised all the portraits and names and are ready to start, press Continue.</p><p><strong>Please note: Your memory of these faces will be tested 4 times during this experiment.</strong></p>",0,html-button-response,3,270450,0.0-3.0-0.0,95473,List1A,black,woman,,,,,,,,
5272,"<img src=""portrait/WM1.jpg""style=""width:400px;height:400px;""></img>",6,html-button-response,4,276726,0.0-3.0-1.0,95473,List1A,black,woman,,TRUE,6,,,,,
null,CORRECT,,html-keyboard-response,5,278229,0.0-3.0-2.0-0.0,95473,List1A,black,woman,,,,null,,,,
2778,"<img src=""portrait/WW2.jpg""style=""width:400px;height:400px;""></img>",3,html-button-response,6,281008,0.0-3.0-4.0,95473,List1A,black,woman,,TRUE,3,,,,,
null,CORRECT,,html-keyboard-response,7,282511,0.0-3.0-5.0-0.0,95473,List1A,black,woman,,,,null,,,,
8707,"<img src=""portrait/BM1.jpg""style=""width:400px;height:400px;""></img>",4,html-button-response,8,291220,0.0-3.0-7.0,95473,List1A,black,woman,,TRUE,4,,,,,
null,CORRECT,,html-keyboard-response,9,292721,0.0-3.0-8.0-0.0,95473,List1A,black,woman,,,,null,,,,
2827,"<img src=""portrait/BM2.jpg""style=""width:400px;height:400px;""></img>",5,html-button-response,10,295550,0.0-3.0-10.0,95473,List1A,black,woman,,TRUE,5,,,,,
null,CORRECT,,html-keyboard-response,11,297053,0.0-3.0-11.0-0.0,95473,List1A,black,woman,,,,null,,,,
3064,"<img src=""portrait/WW1.jpg""style=""width:400px;height:400px;""></img>",1,html-button-response,12,300118,0.0-3.0-13.0,95473,List1A,black,woman,,TRUE,1,,,,,
null,CORRECT,,html-keyboard-response,13,301620,0.0-3.0-14.0-0.0,95473,List1A,black,woman,,,,null,,,,
6318,"<img src=""portrait/WM2.jpg""style=""width:400px;height:400px;""></img>",7,html-button-response,14,307938,0.0-3.0-16.0,95473,List1A,black,woman,,TRUE,7,,,,,
null,CORRECT,,html-keyboard-response,15,309441,0.0-3.0-17.0-0.0,95473,List1A,black,woman,,,,null,,,,
2938,"<img src=""portrait/BW1.jpg""style=""width:400px;height:400px;""></img>",0,html-button-response,16,312381,0.0-3.0-19.0,95473,List1A,black,woman,,TRUE,0,,,,,
null,CORRECT,,html-keyboard-response,17,313884,0.0-3.0-20.0-0.0,95473,List1A,black,woman,,,,null,,,,
1785,"<img src=""portrait/BW2.jpg""style=""width:400px;height:400px;""></img>",2,html-button-response,18,315670,0.0-3.0-22.0,95473,List1A,black,woman,,TRUE,2,,,,,
null,CORRECT,,html-keyboard-response,19,317173,0.0-3.0-23.0-0.0,95473,List1A,black,woman,,,,null,,,,
2464,<p>You got 8 out of 8 right first time. Press Continue.</p>,0,html-button-response,20,319638,0.0-3.0-25.0,95473,List1A,black,woman,,,,,,,,
16784,"<p>In this experiment, you will view photographs of the people from the memory game interacting.</p><p>By using the <strong>exact</strong> phrase given <i>after</i> the photograph appears and recalling the correct names of the people in the photographs, form a sentence describing the interaction. You do not need to capitalise names.</p><p>Type your answer in the space provided. Please complete every sentence before moving onto the next trial.</p><p>You will only have a few seconds to memorise each given photograph and phrase before you can respond, so try your best to focus.</p><p>An example is given below. Press 'Continue' when you are ready.</p><img src='img/speaking_example_v2.jpg' style='width:800px;height:460px;''></img>",0,html-button-response,21,337424,0.0-4.0,95473,List1A,black,woman,,,,,,,,
3535,"<p>Before the experiment starts, you will watch two example trials. Press 'Continue'.</p>",0,html-button-response,22,341960,0.0-5.0,95473,List1A,black,woman,,,,,,,,
null,<img src='img/speaking_WW.gif'></img>,,html-keyboard-response,23,344961,0.0-6.0,95473,List1A,black,woman,,,,null,,,,
null,<p>is speaking to</p>,,html-keyboard-response,24,346963,0.0-7.0,95473,List1A,black,woman,,,,null,,,,
6822,<p><b>Answer:</b> kate is speaking to beth</p>,0,html-button-response,25,353785,0.0-8.0,95473,List1A,black,woman,,,,,,,,
null,<img src='img/pointing_BM.gif'></img>,,html-keyboard-response,26,356789,0.0-9.0,95473,List1A,black,woman,,,,null,,,,
null,<p>are pointing at each other</p>,,html-keyboard-response,27,358790,0.0-10.0,95473,List1A,black,woman,,,,null,,,,
1935,<p><b>Answer:</b> luke and dave are pointing at each other</p>,0,html-button-response,28,360725,0.0-11.0,95473,List1A,black,woman,,,,,,,,
3661,"<p>Ready to start the experiment?</p><br><p><strong>Remember to describe the picture using a full sentence,</strong></p><p><strong> that combines the names of the people with the given phrase.</strong></p><p><strong> You do not need to capitalise names or use punctuation.</strong></p><br><p>Press 'Continue' to begin.</p>",0,html-button-response,29,365388,0.0-12.0,95473,List1A,black,woman,,,,,,,,
null,"<div style=""font-size:60px;"">+</div>",,html-keyboard-response,30,366890,0.0-13.0-0.0,95473,List1A,black,woman,,,,null,,,,
null,"<img src=""stim_listA/meet6.gif""</stim_listA>",,html-keyboard-response,31,368892,0.0-13.0-1.0,95473,List1A,black,woman,,,,null,,,,
null,are meeting each other,,html-keyboard-response,32,370892,0.0-13.0-2.0,95473,List1A,black,woman,,,,null,,,,
20898,,,survey-text,33,391792,0.0-13.0-3.0,95473,List1A,black,woman,,,,,"{""Q0"":""Fred and Luke are holding hands""}","<img src=""stim_listA/meet6.gif""</stim_listA>",are meeting each other,
null,"<div style=""font-size:60px;"">+</div>",,html-keyboard-response,34,392295,0.0-13.0-0.1,95473,List1A,black,woman,,,,null,,,,
null,"<img src=""stim_listA/fight5.gif""</stim_listA>",,html-keyboard-response,35,394296,0.0-13.0-1.1,95473,List1A,black,woman,,,,null,,,,
null,is fighting,,html-keyboard-response,36,396297,0.0-13.0-2.1,95473,List1A,black,woman,,,,null,,,,
13420,,,survey-text,37,409718,0.0-13.0-3.1,95473,List1A,black,woman,,,,,"{""Q0"":""Fred and Luke are fighting""}","<img src=""stim_listA/fight5.gif""</stim_listA>",is fighting,
null,"<div style=""font-size:60px;"">+</div>",,html-keyboard-response,38,410220,0.0-13.0-0.2,95473,List1A,black,woman,,,,null,,,,
null,"<img src=""stim_listA/kiss3.gif""</stim_listA>",,html-keyboard-response,39,412222,0.0-13.0-1.2,95473,List1A,black,woman,,,,null,,,,
null,is kissing,,html-keyboard-response,40,414224,0.0-13.0-2.2,95473,List1A,black,woman,,,,null,,,,
15123,,,survey-text,41,429348,0.0-13.0-3.2,95473,List1A,black,woman,,,,,"{""Q0"":""Luke and RUth are kissing""}","<img src=""stim_listA/kiss3.gif""</stim_listA>",is kissing,
null,"<div style=""font-size:60px;"">+</div>",,html-keyboard-response,42,429849,0.0-13.0-0.3,95473,List1A,black,woman,,,,null,,,,
null,"<img src=""stim_listA/touch7.gif""</stim_listA>",,html-keyboard-response,43,431850,0.0-13.0-1.3,95473,List1A,black,woman,,,,null,,,,
null,is touching,,html-keyboard-response,44,433851,0.0-13.0-2.3,95473,List1A,black,woman,,,,null,,,,
22062,,,survey-text,45,455914,0.0-13.0-3.3,95473,List1A,black,woman,,,,,"{""Q0"":""Kate is touching Jane""}","<img src=""stim_listA/touch7.gif""</stim_listA>",is touching,
null,"<div style=""font-size:60px;"">+</div>",,html-keyboard-response,46,456416,0.0-13.0-0.4,95473,List1A,black,woman,,,,null,,,,
null,"<img src=""stim_listA/shout6.gif""</stim_listA>",,html-keyboard-response,47,458418,0.0-13.0-1.4,95473,List1A,black,woman,,,,null,,,,
null,are shouting at each other,,html-keyboard-response,48,460419,0.0-13.0-2.4,95473,List1A,black,woman,,,,null,,,,
11818,,,survey-text,49,472237,0.0-13.0-3.4,95473,List1A,black,woman,,,,,"{""Q0"":""Dave and Mike are shouting at each other""}","<img src=""stim_listA/shout6.gif""</stim_listA>",are shouting at each other,
null,"<div style=""font-size:60px;"">+</div>",,html-keyboard-response,50,472739,0.0-13.0-0.5,95473,List1A,black,woman,,,,null,,,,
null,"<img src=""stim_listA/touch2.gif""</stim_listA>",,html-keyboard-response,51,474740,0.0-13.0-1.5,95473,List1A,black,woman,,,,null,,,,
null,are touching each other,,html-keyboard-response,52,476742,0.0-13.0-2.5,95473,List1A,black,woman,,,,null,,,,
12018,,,survey-text,53,488761,0.0-13.0-3.5,95473,List1A,black,woman,,,,,"{""Q0"":""Beth and Fred are touching hands""}","<img src=""stim_listA/touch2.gif""</stim_listA>",are touching each other,
null,"<div style=""font-size:60px;"">+</div>",,html-keyboard-response,54,489263,0.0-13.0-0.6,95473,List1A,black,woman,,,,null,,,,
null,"<img src=""stim_listA/argue4.gif""</stim_listA>",,html-keyboard-response,55,491264,0.0-13.0-1.6,95473,List1A,black,woman,,,,null,,,,
null,are arguing with each other,,html-keyboard-response,56,493266,0.0-13.0-2.6,95473,List1A,black,woman,,,,null,,,,
17287,,,survey-text,57,510555,0.0-13.0-3.6,95473,List1A,black,woman,,,,,"{""Q0"":""Jane and Luke are arguing with each other""}","<img src=""stim_listA/argue4.gif""</stim_listA>",are arguing with each other,
null,"<div style=""font-size:60px;"">+</div>",,html-keyboard-response,58,511056,0.0-13.0-0.7,95473,List1A,black,woman,,,,null,,,,
null,"<img src=""stim_listA/touch1.gif""</stim_listA>",,html-keyboard-response,59,513058,0.0-13.0-1.7,95473,List1A,black,woman,,,,null,,,,
null,is touching,,html-keyboard-response,60,515060,0.0-13.0-2.7,95473,List1A,black,woman,,,,null,,,,
15404,,,survey-text,61,530465,0.0-13.0-3.7,95473,List1A,black,woman,,,,,"{""Q0"":""Mike is touching Kate""}","<img src=""stim_listA/touch1.gif""</stim_listA>",is touching,
null,"<div style=""font-size:60px;"">+</div>",,html-keyboard-response,62,530966,0.0-13.0-0.8,95473,List1A,black,woman,,,,null,,,,
null,"<img src=""stim_listA/hug7.gif""</stim_listA>",,html-keyboard-response,63,532969,0.0-13.0-1.8,95473,List1A,black,woman,,,,null,,,,
null,is hugging,,html-keyboard-response,64,534970,0.0-13.0-2.8,95473,List1A,black,woman,,,,null,,,,
14679,,,survey-text,65,549650,0.0-13.0-3.8,95473,List1A,black,woman,,,,,"{""Q0"":""Ruth is hugging Beth""}","<img src=""stim_listA/hug7.gif""</stim_listA>",is hugging,
null,"<div style=""font-size:60px;"">+</div>",,html-keyboard-response,66,550153,0.0-13.0-0.9,95473,List1A,black,woman,,,,null,,,,
null,"<img src=""stim_listA/touch8.gif""</stim_listA>",,html-keyboard-response,67,552155,0.0-13.0-1.9,95473,List1A,black,woman,,,,null,,,,
null,are touching each other,,html-keyboard-response,68,554156,0.0-13.0-2.9,95473,List1A,black,woman,,,,null,,,,
9772,,,survey-text,69,563928,0.0-13.0-3.9,95473,List1A,black,woman,,,,,"{""Q0"":""ruth and beth are touching each other""}","<img src=""stim_listA/touch8.gif""</stim_listA>",are touching each other,
null,"<div style=""font-size:60px;"">+</div>",,html-keyboard-response,70,564430,0.0-13.0-0.10,95473,List1A,black,woman,,,,null,,,,
null,"<img src=""stim_listA/argue3.gif""</stim_listA>",,html-keyboard-response,71,566432,0.0-13.0-1.10,95473,List1A,black,woman,,,,null,,,,
null,is arguing with,,html-keyboard-response,72,568434,0.0-13.0-2.10,95473,List1A,black,woman,,,,null,,,,
11445,,,survey-text,73,579879,0.0-13.0-3.10,95473,List1A,black,woman,,,,,"{""Q0"":""Ruth is arguing with Dave""}","<img src=""stim_listA/argue3.gif""</stim_listA>",is arguing with,
null,"<div style=""font-size:60px;"">+</div>",,html-keyboard-response,74,580380,0.0-13.0-0.11,95473,List1A,black,woman,,,,null,,,,
null,"<img src=""stim_listA/shout4.gif""</stim_listA>",,html-keyboard-response,75,582381,0.0-13.0-1.11,95473,List1A,black,woman,,,,null,,,,
null,are shouting at each other,,html-keyboard-response,76,584382,0.0-13.0-2.11,95473,List1A,black,woman,,,,null,,,,
12539,,,survey-text,77,596922,0.0-13.0-3.11,95473,List1A,black,woman,,,,,"{""Q0"":""Jane and Dave are shouting at each other""}","<img src=""stim_listA/shout4.gif""</stim_listA>",are shouting at each other,
null,"<div style=""font-size:60px;"">+</div>",,html-keyboard-response,78,597424,0.0-13.0-0.12,95473,List1A,black,woman,,,,null,,,,
null,"<img src=""stim_listA/dance3.gif""</stim_listA>",,html-keyboard-response,79,599426,0.0-13.0-1.12,95473,List1A,black,woman,,,,null,,,,
null,is dancing with,,html-keyboard-response,80,601427,0.0-13.0-2.12,95473,List1A,black,woman,,,,null,,,,
9127,,,survey-text,81,610554,0.0-13.0-3.12,95473,List1A,black,woman,,,,,"{""Q0"":""Luke is dancing with Jane""}","<img src=""stim_listA/dance3.gif""</stim_listA>",is dancing with,
null,"<div style=""font-size:60px;"">+</div>",,html-keyboard-response,82,611057,0.0-13.0-0.13,95473,List1A,black,woman,,,,null,,,,
null,"<img src=""stim_listA/fight2.gif""</stim_listA>",,html-keyboard-response,83,613058,0.0-13.0-1.13,95473,List1A,black,woman,,,,null,,,,
null,are fighting each other,,html-keyboard-response,84,615059,0.0-13.0-2.13,95473,List1A,black,woman,,,,null,,,,
10587,,,survey-text,85,625647,0.0-13.0-3.13,95473,List1A,black,woman,,,,,"{""Q0"":""Fred and Kate are fighting each other""}","<img src=""stim_listA/fight2.gif""</stim_listA>",are fighting each other,
null,"<div style=""font-size:60px;"">+</div>",,html-keyboard-response,86,626149,0.0-13.0-0.14,95473,List1A,black,woman,,,,null,,,,
null,"<img src=""stim_listA/hug6.gif""</stim_listA>",,html-keyboard-response,87,628150,0.0-13.0-1.14,95473,List1A,black,woman,,,,null,,,,
null,are hugging each other,,html-keyboard-response,88,630150,0.0-13.0-2.14,95473,List1A,black,woman,,,,null,,,,
13810,,,survey-text,89,643961,0.0-13.0-3.14,95473,List1A,black,woman,,,,,"{""Q0"":""Dave and Mike are hugging each other""}","<img src=""stim_listA/hug6.gif""</stim_listA>",are hugging each other,
null,"<div style=""font-size:60px;"">+</div>",,html-keyboard-response,90,644463,0.0-13.0-0.15,95473,List1A,black,woman,,,,null,,,,
null,"<img src=""stim_listA/dance7.gif""</stim_listA>",,html-keyboard-response,91,646464,0.0-13.0-1.15,95473,List1A,black,woman,,,,null,,,,
null,is dancing with,,html-keyboard-response,92,648466,0.0-13.0-2.15,95473,List1A,black,woman,,,,null,,,,
13428,,,survey-text,93,661894,0.0-13.0-3.15,95473,List1A,black,woman,,,,,"{""Q0"":""Jane is dancing with Kate""}","<img src=""stim_listA/dance7.gif""</stim_listA>",is dancing with,
null,"<div style=""font-size:60px;"">+</div>",,html-keyboard-response,94,662396,0.0-13.0-0.16,95473,List1A,black,woman,,,,null,,,,
null,"<img src=""stim_listA/dance5.gif""</stim_listA>",,html-keyboard-response,95,664397,0.0-13.0-1.16,95473,List1A,black,woman,,,,null,,,,
null,is dancing with,,html-keyboard-response,96,666399,0.0-13.0-2.16,95473,List1A,black,woman,,,,null,,,,
12816,,,survey-text,97,679215,0.0-13.0-3.16,95473,List1A,black,woman,,,,,"{""Q0"":""Fred is dancing with Dave""}","<img src=""stim_listA/dance5.gif""</stim_listA>",is dancing with,
null,"<div style=""font-size:60px;"">+</div>",,html-keyboard-response,98,679718,0.0-13.0-0.17,95473,List1A,black,woman,,,,null,,,,
null,"<img src=""stim_listA/argue7.gif""</stim_listA>",,html-keyboard-response,99,681719,0.0-13.0-1.17,95473,List1A,black,woman,,,,null,,,,
null,is arguing with,,html-keyboard-response,100,683722,0.0-13.0-2.17,95473,List1A,black,woman,,,,null,,,,
97755,,,survey-text,101,781477,0.0-13.0-3.17,95473,List1A,black,woman,,,,,"{""Q0"":""Beth is arguing with Ruth""}","<img src=""stim_listA/argue7.gif""</stim_listA>",is arguing with,
null,"<div style=""font-size:60px;"">+</div>",,html-keyboard-response,102,781978,0.0-13.0-0.18,95473,List1A,black,woman,,,,null,,,,
null,"<img src=""stim_listA/kiss1.gif""</stim_listA>",,html-keyboard-response,103,783980,0.0-13.0-1.18,95473,List1A,black,woman,,,,null,,,,
null,is kissing,,html-keyboard-response,104,785982,0.0-13.0-2.18,95473,List1A,black,woman,,,,null,,,,
9998,,,survey-text,105,795980,0.0-13.0-3.18,95473,List1A,black,woman,,,,,"{""Q0"":""Fred is kissing Kate""}","<img src=""stim_listA/kiss1.gif""</stim_listA>",is kissing,
null,"<div style=""font-size:60px;"">+</div>",,html-keyboard-response,106,796482,0.0-13.0-0.19,95473,List1A,black,woman,,,,null,,,,
null,"<img src=""stim_listA/talk5.gif""</stim_listA>",,html-keyboard-response,107,798484,0.0-13.0-1.19,95473,List1A,black,woman,,,,null,,,,
null,is talking to,,html-keyboard-response,108,800485,0.0-13.0-2.19,95473,List1A,black,woman,,,,null,,,,
6921,,,survey-text,109,807406,0.0-13.0-3.19,95473,List1A,black,woman,,,,,"{""Q0"":""Dave is talking to Fred""}","<img src=""stim_listA/talk5.gif""</stim_listA>",is talking to,
223306,"<img src='img/portrait_matrix_list1.JPG' style='width:900px;height:500px;''></img><p>If you have memorised all the portraits and names and are ready to start, press Continue.</p><p><strong>Please note: Your memory of these faces will be tested 4 times during this experiment.</strong></p>",0,html-button-response,110,1030715,0.0-14.0-0.0,95473,List1A,black,woman,,,,,,,,
11404,"<img src=""portrait/BW2.jpg""style=""width:400px;height:400px;""></img>",2,html-button-response,111,1043123,0.0-14.0-1.0,95473,List1A,black,woman,,TRUE,2,,,,,
null,CORRECT,,html-keyboard-response,112,1044627,0.0-14.0-2.0-0.0,95473,List1A,black,woman,,,,null,,,,
2523,"<img src=""portrait/WM2.jpg""style=""width:400px;height:400px;""></img>",7,html-button-response,113,1047152,0.0-14.0-4.0,95473,List1A,black,woman,,TRUE,7,,,,,
null,CORRECT,,html-keyboard-response,114,1048654,0.0-14.0-5.0-0.0,95473,List1A,black,woman,,,,null,,,,
2004,"<img src=""portrait/BW1.jpg""style=""width:400px;height:400px;""></img>",0,html-button-response,115,1050658,0.0-14.0-7.0,95473,List1A,black,woman,,TRUE,0,,,,,
null,CORRECT,,html-keyboard-response,116,1052160,0.0-14.0-8.0-0.0,95473,List1A,black,woman,,,,null,,,,
3554,"<img src=""portrait/WW2.jpg""style=""width:400px;height:400px;""></img>",3,html-button-response,117,1055716,0.0-14.0-10.0,95473,List1A,black,woman,,TRUE,3,,,,,
null,CORRECT,,html-keyboard-response,118,1057219,0.0-14.0-11.0-0.0,95473,List1A,black,woman,,,,null,,,,
3105,"<img src=""portrait/BM2.jpg""style=""width:400px;height:400px;""></img>",5,html-button-response,119,1060325,0.0-14.0-13.0,95473,List1A,black,woman,,TRUE,5,,,,,
null,CORRECT,,html-keyboard-response,120,1061829,0.0-14.0-14.0-0.0,95473,List1A,black,woman,,,,null,,,,
3805,"<img src=""portrait/BM1.jpg""style=""width:400px;height:400px;""></img>",4,html-button-response,121,1065635,0.0-14.0-16.0,95473,List1A,black,woman,,TRUE,4,,,,,
null,CORRECT,,html-keyboard-response,122,1067137,0.0-14.0-17.0-0.0,95473,List1A,black,woman,,,,null,,,,
1853,"<img src=""portrait/WW1.jpg""style=""width:400px;height:400px;""></img>",3,html-button-response,123,1068991,0.0-14.0-19.0,95473,List1A,black,woman,,TRUE,1,,,,,
3493,"<img src=""portrait/WW1.jpg""style=""width:400px;height:400px;""></img>",1,html-button-response,124,1073486,0.0-14.0-21.0-0.0,95473,List1A,black,woman,,FALSE,1,,,,,
null,CORRECT,,html-keyboard-response,125,1074991,0.0-14.0-21.0-1.0-0.0,95473,List1A,black,woman,,,,null,,,,
37974,"<img src=""portrait/WM1.jpg""style=""width:400px;height:400px;""></img>",6,html-button-response,126,1112968,0.0-14.0-22.0,95473,List1A,black,woman,,TRUE,6,,,,,
null,CORRECT,,html-keyboard-response,127,1114473,0.0-14.0-23.0-0.0,95473,List1A,black,woman,,,,null,,,,
1398,<p>You got 7 out of 8 right first time. Press Continue.</p>,0,html-button-response,128,1115873,0.0-14.0-25.0,95473,List1A,black,woman,,,,,,,,
3456,"As you did not score 100%, the memory game will repeat. Press Continue.",0,html-button-response,129,1120333,0.0-14.0-26.0-0.0,95473,List1A,black,woman,,,,,,,,
3250,"<img src='img/portrait_matrix_list1.JPG' style='width:900px;height:500px;''></img><p>If you have memorised all the portraits and names and are ready to start, press Continue.</p><p><strong>Please note: Your memory of these faces will be tested 4 times during this experiment.</strong></p>",0,html-button-response,130,1124585,0.0-14.1-0.1,95473,List1A,black,woman,,,,,,,,
4715,"<img src=""portrait/BW2.jpg""style=""width:400px;height:400px;""></img>",2,html-button-response,131,1130302,0.0-14.1-1.1,95473,List1A,black,woman,,TRUE,2,,,,,
null,CORRECT,,html-keyboard-response,132,1131804,0.0-14.1-2.1-0.1,95473,List1A,black,woman,,,,null,,,,
1943,"<img src=""portrait/WM2.jpg""style=""width:400px;height:400px;""></img>",7,html-button-response,133,1133749,0.0-14.1-4.1,95473,List1A,black,woman,,TRUE,7,,,,,
null,CORRECT,,html-keyboard-response,134,1135251,0.0-14.1-5.1-0.1,95473,List1A,black,woman,,,,null,,,,
1775,"<img src=""portrait/BW1.jpg""style=""width:400px;height:400px;""></img>",0,html-button-response,135,1137026,0.0-14.1-7.1,95473,List1A,black,woman,,TRUE,0,,,,,
null,CORRECT,,html-keyboard-response,136,1138529,0.0-14.1-8.1-0.1,95473,List1A,black,woman,,,,null,,,,
1370,"<img src=""portrait/WW2.jpg""style=""width:400px;height:400px;""></img>",3,html-button-response,137,1139900,0.0-14.1-10.1,95473,List1A,black,woman,,TRUE,3,,,,,
null,CORRECT,,html-keyboard-response,138,1141403,0.0-14.1-11.1-0.1,95473,List1A,black,woman,,,,null,,,,
1905,"<img src=""portrait/BM2.jpg""style=""width:400px;height:400px;""></img>",5,html-button-response,139,1143310,0.0-14.1-13.1,95473,List1A,black,woman,,TRUE,5,,,,,
null,CORRECT,,html-keyboard-response,140,1144812,0.0-14.1-14.1-0.1,95473,List1A,black,woman,,,,null,,,,
6329,"<img src=""portrait/BM1.jpg""style=""width:400px;height:400px;""></img>",4,html-button-response,141,1151142,0.0-14.1-16.1,95473,List1A,black,woman,,TRUE,4,,,,,
null,CORRECT,,html-keyboard-response,142,1152644,0.0-14.1-17.1-0.1,95473,List1A,black,woman,,,,null,,,,
2338,"<img src=""portrait/WW1.jpg""style=""width:400px;height:400px;""></img>",1,html-button-response,143,1154984,0.0-14.1-19.1,95473,List1A,black,woman,,TRUE,1,,,,,
null,CORRECT,,html-keyboard-response,144,1156487,0.0-14.1-20.1-0.1,95473,List1A,black,woman,,,,null,,,,
43346,"<img src=""portrait/WM1.jpg""style=""width:400px;height:400px;""></img>",6,html-button-response,145,1199834,0.0-14.1-22.1,95473,List1A,black,woman,,TRUE,6,,,,,
null,CORRECT,,html-keyboard-response,146,1201336,0.0-14.1-23.1-0.1,95473,List1A,black,woman,,,,null,,,,
1280,<p>You got 8 out of 8 right first time. Press Continue.</p>,0,html-button-response,147,1202616,0.0-14.1-25.1,95473,List1A,black,woman,,,,,,,,
null,"<div style=""font-size:60px;"">+</div>",,html-keyboard-response,148,1204119,0.0-15.0-0.0,95473,List1A,black,woman,,,,null,,,,
null,"<img src=""stim_listA/touch6.gif""</stim_listA>",,html-keyboard-response,149,1206120,0.0-15.0-1.0,95473,List1A,black,woman,,,,null,,,,
null,are touching each other,,html-keyboard-response,150,1208121,0.0-15.0-2.0,95473,List1A,black,woman,,,,null,,,,
20716,,,survey-text,151,1228838,0.0-15.0-3.0,95473,List1A,black,woman,,,,,"{""Q0"":""MIke and Fred are touching each other""}","<img src=""stim_listA/touch6.gif""</stim_listA>",are touching each other,
null,"<div style=""font-size:60px;"">+</div>",,html-keyboard-response,152,1229339,0.0-15.0-0.1,95473,List1A,black,woman,,,,null,,,,
null,"<img src=""stim_listA/fight3.gif""</stim_listA>",,html-keyboard-response,153,1231340,0.0-15.0-1.1,95473,List1A,black,woman,,,,null,,,,
null,is fighting,,html-keyboard-response,154,1233343,0.0-15.0-2.1,95473,List1A,black,woman,,,,null,,,,
7457,,,survey-text,155,1240800,0.0-15.0-3.1,95473,List1A,black,woman,,,,,"{""Q0"":""Dave is fighting Jane""}","<img src=""stim_listA/fight3.gif""</stim_listA>",is fighting,
null,"<div style=""font-size:60px;"">+</div>",,html-keyboard-response,156,1241302,0.0-15.0-0.2,95473,List1A,black,woman,,,,null,,,,
null,"<img src=""stim_listA/marry1.gif""</stim_listA>",,html-keyboard-response,157,1243303,0.0-15.0-1.2,95473,List1A,black,woman,,,,null,,,,
null,is marrying,,html-keyboard-response,158,1245304,0.0-15.0-2.2,95473,List1A,black,woman,,,,null,,,,
7034,,,survey-text,159,1252338,0.0-15.0-3.2,95473,List1A,black,woman,,,,,"{""Q0"":""Beth is marrying Mike""}","<img src=""stim_listA/marry1.gif""</stim_listA>",is marrying,
null,"<div style=""font-size:60px;"">+</div>",,html-keyboard-response,160,1252839,0.0-15.0-0.3,95473,List1A,black,woman,,,,null,,,,
null,"<img src=""stim_listA/talk8.gif""</stim_listA>",,html-keyboard-response,161,1254841,0.0-15.0-1.3,95473,List1A,black,woman,,,,null,,,,
null,are talking to each other,,html-keyboard-response,162,1256939,0.0-15.0-2.3,95473,List1A,black,woman,,,,null,,,,
202567,,,survey-text,163,1459509,0.0-15.0-3.3,95473,List1A,black,woman,,,,,"{""Q0"":""Jane is fighting Dave""}","<img src=""stim_listA/talk8.gif""</stim_listA>",are talking to each other,
null,"<div style=""font-size:60px;"">+</div>",,html-keyboard-response,164,1460012,0.0-15.0-0.4,95473,List1A,black,woman,,,,null,,,,
null,"<img src=""stim_listA/talk7.gif""</stim_listA>",,html-keyboard-response,165,1462015,0.0-15.0-1.4,95473,List1A,black,woman,,,,null,,,,
null,is talking to,,html-keyboard-response,166,1464016,0.0-15.0-2.4,95473,List1A,black,woman,,,,null,,,,
6641,,,survey-text,167,1470659,0.0-15.0-3.4,95473,List1A,black,woman,,,,,"{""Q0"":""Jane is talking to Beth""}","<img src=""stim_listA/talk7.gif""</stim_listA>",is talking to,
null,"<div style=""font-size:60px;"">+</div>",,html-keyboard-response,168,1471159,0.0-15.0-0.5,95473,List1A,black,woman,,,,null,,,,
null,"<img src=""stim_listA/argue1.gif""</stim_listA>",,html-keyboard-response,169,1473162,0.0-15.0-1.5,95473,List1A,black,woman,,,,null,,,,
null,is arguing with,,html-keyboard-response,170,1475164,0.0-15.0-2.5,95473,List1A,black,woman,,,,null,,,,
7871,,,survey-text,171,1483037,0.0-15.0-3.5,95473,List1A,black,woman,,,,,"{""Q0"":""Beth is arguing with Mike""}","<img src=""stim_listA/argue1.gif""</stim_listA>",is arguing with,
null,"<div style=""font-size:60px;"">+</div>",,html-keyboard-response,172,1483538,0.0-15.0-0.6,95473,List1A,black,woman,,,,null,,,,
null,"<img src=""stim_listA/fight1.gif""</stim_listA>",,html-keyboard-response,173,1485539,0.0-15.0-1.6,95473,List1A,black,woman,,,,null,,,,
null,is fighting,,html-keyboard-response,174,1487540,0.0-15.0-2.6,95473,List1A,black,woman,,,,null,,,,
5574,,,survey-text,175,1493114,0.0-15.0-3.6,95473,List1A,black,woman,,,,,"{""Q0"":""Kate is fighting MIke""}","<img src=""stim_listA/fight1.gif""</stim_listA>",is fighting,
null,"<div style=""font-size:60px;"">+</div>",,html-keyboard-response,176,1493616,0.0-15.0-0.7,95473,List1A,black,woman,,,,null,,,,
null,"<img src=""stim_listA/talk4.gif""</stim_listA>",,html-keyboard-response,177,1495617,0.0-15.0-1.7,95473,List1A,black,woman,,,,null,,,,
null,are talking to each other,,html-keyboard-response,178,1497619,0.0-15.0-2.7,95473,List1A,black,woman,,,,null,,,,
85240,,,survey-text,179,1582860,0.0-15.0-3.7,95473,List1A,black,woman,,,,,"{""Q0"":""Dave and Jane are fighting each other""}","<img src=""stim_listA/talk4.gif""</stim_listA>",are talking to each other,
null,"<div style=""font-size:60px;"">+</div>",,html-keyboard-response,180,1583361,0.0-15.0-0.8,95473,List1A,black,woman,,,,null,,,,
null,"<img src=""stim_listA/talk1.gif""</stim_listA>",,html-keyboard-response,181,1585362,0.0-15.0-1.8,95473,List1A,black,woman,,,,null,,,,
null,is talking to,,html-keyboard-response,182,1587363,0.0-15.0-2.8,95473,List1A,black,woman,,,,null,,,,
8109,,,survey-text,183,1595472,0.0-15.0-3.8,95473,List1A,black,woman,,,,,"{""Q0"":""Kate is talking to Dave""}","<img src=""stim_listA/talk1.gif""</stim_listA>",is talking to,
null,"<div style=""font-size:60px;"">+</div>",,html-keyboard-response,184,1595974,0.0-15.0-0.9,95473,List1A,black,woman,,,,null,,,,
null,"<img src=""stim_listA/hug2.gif""</stim_listA>",,html-keyboard-response,185,1598939,0.0-15.0-1.9,95473,List1A,black,woman,,,,null,,,,
null,are hugging each other,,html-keyboard-response,186,1600941,0.0-15.0-2.9,95473,List1A,black,woman,,,,null,,,,
12866,,,survey-text,187,1613808,0.0-15.0-3.9,95473,List1A,black,woman,,,,,"{""Q0"":""Beth and Dave are hugging each other""}","<img src=""stim_listA/hug2.gif""</stim_listA>",are hugging each other,
null,"<div style=""font-size:60px;"">+</div>",,html-keyboard-response,188,1614309,0.0-15.0-0.10,95473,List1A,black,woman,,,,null,,,,
null,"<img src=""stim_listA/kiss8.gif""</stim_listA>",,html-keyboard-response,189,1616310,0.0-15.0-1.10,95473,List1A,black,woman,,,,null,,,,
null,are kissing each other,,html-keyboard-response,190,1618311,0.0-15.0-2.10,95473,List1A,black,woman,,,,null,,,,
17306,,,survey-text,191,1635617,0.0-15.0-3.10,95473,List1A,black,woman,,,,,"{""Q0"":""Jane and Kate are kissing each other""}","<img src=""stim_listA/kiss8.gif""</stim_listA>",are kissing each other,
null,"<div style=""font-size:60px;"">+</div>",,html-keyboard-response,192,1636118,0.0-15.0-0.11,95473,List1A,black,woman,,,,null,,,,
null,"<img src=""stim_listA/kiss2.gif""</stim_listA>",,html-keyboard-response,193,1638119,0.0-15.0-1.11,95473,List1A,black,woman,,,,null,,,,
null,are kissing each other,,html-keyboard-response,194,1640121,0.0-15.0-2.11,95473,List1A,black,woman,,,,null,,,,
211494,,,survey-text,195,1851616,0.0-15.0-3.11,95473,List1A,black,woman,,,,,"{""Q0"":""Mike and Kate are kissing each other""}","<img src=""stim_listA/kiss2.gif""</stim_listA>",are kissing each other,
null,"<div style=""font-size:60px;"">+</div>",,html-keyboard-response,196,1852119,0.0-15.0-0.12,95473,List1A,black,woman,,,,null,,,,
null,"<img src=""stim_listA/fight6.gif""</stim_listA>",,html-keyboard-response,197,1854939,0.0-15.0-1.12,95473,List1A,black,woman,,,,null,,,,
null,are fighting each other,,html-keyboard-response,198,1856940,0.0-15.0-2.12,95473,List1A,black,woman,,,,null,,,,
13082,,,survey-text,199,1870024,0.0-15.0-3.12,95473,List1A,black,woman,,,,,"{""Q0"":""Dave and Luke are fighting each other""}","<img src=""stim_listA/fight6.gif""</stim_listA>",are fighting each other,
null,"<div style=""font-size:60px;"">+</div>",,html-keyboard-response,200,1870526,0.0-15.0-0.13,95473,List1A,black,woman,,,,null,,,,
null,"<img src=""stim_listA/meet4.gif""</stim_listA>",,html-keyboard-response,201,1872528,0.0-15.0-1.13,95473,List1A,black,woman,,,,null,,,,
null,are meeting each other,,html-keyboard-response,202,1874529,0.0-15.0-2.13,95473,List1A,black,woman,,,,null,,,,
15731,,,survey-text,203,1890261,0.0-15.0-3.13,95473,List1A,black,woman,,,,,"{""Q0"":""Ruth and Luke are meeting each other""}","<img src=""stim_listA/meet4.gif""</stim_listA>",are meeting each other,
null,"<div style=""font-size:60px;"">+</div>",,html-keyboard-response,204,1890762,0.0-15.0-0.14,95473,List1A,black,woman,,,,null,,,,
null,"<img src=""stim_listA/argue6.gif""</stim_listA>",,html-keyboard-response,205,1892764,0.0-15.0-1.14,95473,List1A,black,woman,,,,null,,,,
null,are arguing with each other,,html-keyboard-response,206,1894766,0.0-15.0-2.14,95473,List1A,black,woman,,,,null,,,,
14347,,,survey-text,207,1909113,0.0-15.0-3.14,95473,List1A,black,woman,,,,,"{""Q0"":""Mike and Luke are arguing with each other""}","<img src=""stim_listA/argue6.gif""</stim_listA>",are arguing with each other,
null,"<div style=""font-size:60px;"">+</div>",,html-keyboard-response,208,1909615,0.0-15.0-0.15,95473,List1A,black,woman,,,,null,,,,
null,"<img src=""stim_listA/shout7.gif""</stim_listA>",,html-keyboard-response,209,1911616,0.0-15.0-1.15,95473,List1A,black,woman,,,,null,,,,
null,is shouting at,,html-keyboard-response,210,1913617,0.0-15.0-2.15,95473,List1A,black,woman,,,,null,,,,
17599,,,survey-text,211,1931217,0.0-15.0-3.15,95473,List1A,black,woman,,,,,"{""Q0"":""Beth is shouting at Ruth""}","<img src=""stim_listA/shout7.gif""</stim_listA>",is shouting at,
null,"<div style=""font-size:60px;"">+</div>",,html-keyboard-response,212,1931719,0.0-15.0-0.16,95473,List1A,black,woman,,,,null,,,,
null,"<img src=""stim_listA/argue2.gif""</stim_listA>",,html-keyboard-response,213,1933720,0.0-15.0-1.16,95473,List1A,black,woman,,,,null,,,,
null,are arguing with each other,,html-keyboard-response,214,1935721,0.0-15.0-2.16,95473,List1A,black,woman,,,,null,,,,
12706,,,survey-text,215,1948429,0.0-15.0-3.16,95473,List1A,black,woman,,,,,"{""Q0"":""Beth and Mike are arguing with each other""}","<img src=""stim_listA/argue2.gif""</stim_listA>",are arguing with each other,
null,"<div style=""font-size:60px;"">+</div>",,html-keyboard-response,216,1948930,0.0-15.0-0.17,95473,List1A,black,woman,,,,null,,,,
null,"<img src=""stim_listA/marry6.gif""</stim_listA>",,html-keyboard-response,217,1950931,0.0-15.0-1.17,95473,List1A,black,woman,,,,null,,,,
null,are marrying each other,,html-keyboard-response,218,1952933,0.0-15.0-2.17,95473,List1A,black,woman,,,,null,,,,
38693,,,survey-text,219,1991627,0.0-15.0-3.17,95473,List1A,black,woman,,,,,"{""Q0"":""Dave and Fred are marrying each other""}","<img src=""stim_listA/marry6.gif""</stim_listA>",are marrying each other,
null,"<div style=""font-size:60px;"">+</div>",,html-keyboard-response,220,1992128,0.0-15.0-0.18,95473,List1A,black,woman,,,,null,,,,
null,"<img src=""stim_listA/marry3.gif""</stim_listA>",,html-keyboard-response,221,1994129,0.0-15.0-1.18,95473,List1A,black,woman,,,,null,,,,
null,is marrying,,html-keyboard-response,222,1996130,0.0-15.0-2.18,95473,List1A,black,woman,,,,null,,,,
15262,,,survey-text,223,2011392,0.0-15.0-3.18,95473,List1A,black,woman,,,,,"{""Q0"":""Dave and Beth are kissing each other""}","<img src=""stim_listA/marry3.gif""</stim_listA>",is marrying,
null,"<div style=""font-size:60px;"">+</div>",,html-keyboard-response,224,2011894,0.0-15.0-0.19,95473,List1A,black,woman,,,,null,,,,
null,"<img src=""stim_listA/touch4.gif""</stim_listA>",,html-keyboard-response,225,2013895,0.0-15.0-1.19,95473,List1A,black,woman,,,,null,,,,
null,are touching each other,,html-keyboard-response,226,2015897,0.0-15.0-2.19,95473,List1A,black,woman,,,,null,,,,
11774,,,survey-text,227,2027671,0.0-15.0-3.19,95473,List1A,black,woman,,,,,"{""Q0"":""Ruth and Luke are touching each other""}","<img src=""stim_listA/touch4.gif""</stim_listA>",are touching each other,
4187,"<img src='img/portrait_matrix_list1.JPG' style='width:900px;height:500px;''></img><p>If you have memorised all the portraits and names and are ready to start, press Continue.</p><p><strong>Please note: Your memory of these faces will be tested 4 times during this experiment.</strong></p>",0,html-button-response,228,2031860,0.0-16.0-0.0,95473,List1A,black,woman,,,,,,,,
4397,"<img src=""portrait/BM1.jpg""style=""width:400px;height:400px;""></img>",4,html-button-response,229,2037260,0.0-16.0-1.0,95473,List1A,black,woman,,TRUE,4,,,,,
null,CORRECT,,html-keyboard-response,230,2038763,0.0-16.0-2.0-0.0,95473,List1A,black,woman,,,,null,,,,
1676,"<img src=""portrait/BW2.jpg""style=""width:400px;height:400px;""></img>",2,html-button-response,231,2040441,0.0-16.0-4.0,95473,List1A,black,woman,,TRUE,2,,,,,
null,CORRECT,,html-keyboard-response,232,2041945,0.0-16.0-5.0-0.0,95473,List1A,black,woman,,,,null,,,,
1884,"<img src=""portrait/WM2.jpg""style=""width:400px;height:400px;""></img>",7,html-button-response,233,2043829,0.0-16.0-7.0,95473,List1A,black,woman,,TRUE,7,,,,,
null,CORRECT,,html-keyboard-response,234,2045331,0.0-16.0-8.0-0.0,95473,List1A,black,woman,,,,null,,,,
3816,"<img src=""portrait/WM1.jpg""style=""width:400px;height:400px;""></img>",6,html-button-response,235,2049149,0.0-16.0-10.0,95473,List1A,black,woman,,TRUE,6,,,,,
null,CORRECT,,html-keyboard-response,236,2050651,0.0-16.0-11.0-0.0,95473,List1A,black,woman,,,,null,,,,
1626,"<img src=""portrait/WW2.jpg""style=""width:400px;height:400px;""></img>",3,html-button-response,237,2052278,0.0-16.0-13.0,95473,List1A,black,woman,,TRUE,3,,,,,
null,CORRECT,,html-keyboard-response,238,2053779,0.0-16.0-14.0-0.0,95473,List1A,black,woman,,,,null,,,,
2113,"<img src=""portrait/BW1.jpg""style=""width:400px;height:400px;""></img>",0,html-button-response,239,2055894,0.0-16.0-16.0,95473,List1A,black,woman,,TRUE,0,,,,,
null,CORRECT,,html-keyboard-response,240,2057395,0.0-16.0-17.0-0.0,95473,List1A,black,woman,,,,null,,,,
3116,"<img src=""portrait/BM2.jpg""style=""width:400px;height:400px;""></img>",5,html-button-response,241,2060512,0.0-16.0-19.0,95473,List1A,black,woman,,TRUE,5,,,,,
null,CORRECT,,html-keyboard-response,242,2062014,0.0-16.0-20.0-0.0,95473,List1A,black,woman,,,,null,,,,
3186,"<img src=""portrait/WW1.jpg""style=""width:400px;height:400px;""></img>",1,html-button-response,243,2065202,0.0-16.0-22.0,95473,List1A,black,woman,,TRUE,1,,,,,
null,CORRECT,,html-keyboard-response,244,2066704,0.0-16.0-23.0-0.0,95473,List1A,black,woman,,,,null,,,,
1559,<p>You got 8 out of 8 right first time. Press Continue.</p>,0,html-button-response,245,2068264,0.0-16.0-25.0,95473,List1A,black,woman,,,,,,,,
null,"<div style=""font-size:60px;"">+</div>",,html-keyboard-response,246,2069769,0.0-17.0-0.0,95473,List1A,black,woman,,,,null,,,,
null,"<img src=""stim_listA/hug5.gif""</stim_listA>",,html-keyboard-response,247,2071770,0.0-17.0-1.0,95473,List1A,black,woman,,,,null,,,,
null,is hugging,,html-keyboard-response,248,2073770,0.0-17.0-2.0,95473,List1A,black,woman,,,,null,,,,
11504,,,survey-text,249,2085276,0.0-17.0-3.0,95473,List1A,black,woman,,,,,"{""Q0"":""Luke is hugging Fred""}","<img src=""stim_listA/hug5.gif""</stim_listA>",is hugging,
null,"<div style=""font-size:60px;"">+</div>",,html-keyboard-response,250,2085777,0.0-17.0-0.1,95473,List1A,black,woman,,,,null,,,,
null,"<img src=""stim_listA/marry4.gif""</stim_listA>",,html-keyboard-response,251,2087778,0.0-17.0-1.1,95473,List1A,black,woman,,,,null,,,,
null,are marrying each other,,html-keyboard-response,252,2089780,0.0-17.0-2.1,95473,List1A,black,woman,,,,null,,,,
14094,,,survey-text,253,2103874,0.0-17.0-3.1,95473,List1A,black,woman,,,,,"{""Q0"":""Jane and Luke are marrying each other""}","<img src=""stim_listA/marry4.gif""</stim_listA>",are marrying each other,
null,"<div style=""font-size:60px;"">+</div>",,html-keyboard-response,254,2104375,0.0-17.0-0.2,95473,List1A,black,woman,,,,null,,,,
null,"<img src=""stim_listA/talk6.gif""</stim_listA>",,html-keyboard-response,255,2106377,0.0-17.0-1.2,95473,List1A,black,woman,,,,null,,,,
null,are talking to each other,,html-keyboard-response,256,2108379,0.0-17.0-2.2,95473,List1A,black,woman,,,,null,,,,
14430,,,survey-text,257,2122810,0.0-17.0-3.2,95473,List1A,black,woman,,,,,"{""Q0"":""Mike and Luke are talking to each other""}","<img src=""stim_listA/talk6.gif""</stim_listA>",are talking to each other,
null,"<div style=""font-size:60px;"">+</div>",,html-keyboard-response,258,2123311,0.0-17.0-0.3,95473,List1A,black,woman,,,,null,,,,
null,"<img src=""stim_listA/kiss5.gif""</stim_listA>",,html-keyboard-response,259,2125312,0.0-17.0-1.3,95473,List1A,black,woman,,,,null,,,,
null,is kissing,,html-keyboard-response,260,2127313,0.0-17.0-2.3,95473,List1A,black,woman,,,,null,,,,
18381,,,survey-text,261,2145695,0.0-17.0-3.3,95473,List1A,black,woman,,,,,"{""Q0"":""Fred and Luke is kissing""}","<img src=""stim_listA/kiss5.gif""</stim_listA>",is kissing,
null,"<div style=""font-size:60px;"">+</div>",,html-keyboard-response,262,2146197,0.0-17.0-0.4,95473,List1A,black,woman,,,,null,,,,
null,"<img src=""stim_listA/kiss7.gif""</stim_listA>",,html-keyboard-response,263,2148199,0.0-17.0-1.4,95473,List1A,black,woman,,,,null,,,,
null,is kissing,,html-keyboard-response,264,2150201,0.0-17.0-2.4,95473,List1A,black,woman,,,,null,,,,
83772,,,survey-text,265,2233973,0.0-17.0-3.4,95473,List1A,black,woman,,,,,"{""Q0"":""Ruth and Beth is kissing""}","<img src=""stim_listA/kiss7.gif""</stim_listA>",is kissing,
null,"<div style=""font-size:60px;"">+</div>",,html-keyboard-response,266,2234474,0.0-17.0-0.5,95473,List1A,black,woman,,,,null,,,,
null,"<img src=""stim_listA/marry7.gif""</stim_listA>",,html-keyboard-response,267,2236475,0.0-17.0-1.5,95473,List1A,black,woman,,,,null,,,,
null,is marrying,,html-keyboard-response,268,2238476,0.0-17.0-2.5,95473,List1A,black,woman,,,,null,,,,
6079,,,survey-text,269,2244556,0.0-17.0-3.5,95473,List1A,black,woman,,,,,"{""Q0"":""Kate is marrying Ruth""}","<img src=""stim_listA/marry7.gif""</stim_listA>",is marrying,
null,"<div style=""font-size:60px;"">+</div>",,html-keyboard-response,270,2245057,0.0-17.0-0.6,95473,List1A,black,woman,,,,null,,,,
null,"<img src=""stim_listA/marry8.gif""</stim_listA>",,html-keyboard-response,271,2247058,0.0-17.0-1.6,95473,List1A,black,woman,,,,null,,,,
null,are marrying each other,,html-keyboard-response,272,2249059,0.0-17.0-2.6,95473,List1A,black,woman,,,,null,,,,
15989,,,survey-text,273,2265050,0.0-17.0-3.6,95473,List1A,black,woman,,,,,"{""Q0"":""Beth and Jane are marrying each other""}","<img src=""stim_listA/marry8.gif""</stim_listA>",are marrying each other,
null,"<div style=""font-size:60px;"">+</div>",,html-keyboard-response,274,2265551,0.0-17.0-0.7,95473,List1A,black,woman,,,,null,,,,
null,"<img src=""stim_listA/talk2.gif""</stim_listA>",,html-keyboard-response,275,2267553,0.0-17.0-1.7,95473,List1A,black,woman,,,,null,,,,
null,are talking to each other,,html-keyboard-response,276,2269554,0.0-17.0-2.7,95473,List1A,black,woman,,,,null,,,,
10996,,,survey-text,277,2280551,0.0-17.0-3.7,95473,List1A,black,woman,,,,,"{""Q0"":""Mike and Beth are talking to each other""}","<img src=""stim_listA/talk2.gif""</stim_listA>",are talking to each other,
null,"<div style=""font-size:60px;"">+</div>",,html-keyboard-response,278,2281054,0.0-17.0-0.8,95473,List1A,black,woman,,,,null,,,,
null,"<img src=""stim_listA/meet8.gif""</stim_listA>",,html-keyboard-response,279,2283055,0.0-17.0-1.8,95473,List1A,black,woman,,,,null,,,,
null,are meeting each other,,html-keyboard-response,280,2285056,0.0-17.0-2.8,95473,List1A,black,woman,,,,null,,,,
18039,,,survey-text,281,2303096,0.0-17.0-3.8,95473,List1A,black,woman,,,,,"{""Q0"":""Ruth and Kate are meeting each other""}","<img src=""stim_listA/meet8.gif""</stim_listA>",are meeting each other,
null,"<div style=""font-size:60px;"">+</div>",,html-keyboard-response,282,2303598,0.0-17.0-0.9,95473,List1A,black,woman,,,,null,,,,
null,"<img src=""stim_listA/dance2.gif""</stim_listA>",,html-keyboard-response,283,2305599,0.0-17.0-1.9,95473,List1A,black,woman,,,,null,,,,
null,are dancing with each other,,html-keyboard-response,284,2307601,0.0-17.0-2.9,95473,List1A,black,woman,,,,null,,,,
11003,,,survey-text,285,2318605,0.0-17.0-3.9,95473,List1A,black,woman,,,,,"{""Q0"":""Mike and Beth are dancing with each other""}","<img src=""stim_listA/dance2.gif""</stim_listA>",are dancing with each other,
null,"<div style=""font-size:60px;"">+</div>",,html-keyboard-response,286,2319107,0.0-17.0-0.10,95473,List1A,black,woman,,,,null,,,,
null,"<img src=""stim_listA/kiss6.gif""</stim_listA>",,html-keyboard-response,287,2321108,0.0-17.0-1.10,95473,List1A,black,woman,,,,null,,,,
null,are kissing each other,,html-keyboard-response,288,2323109,0.0-17.0-2.10,95473,List1A,black,woman,,,,null,,,,
11764,,,survey-text,289,2334874,0.0-17.0-3.10,95473,List1A,black,woman,,,,,"{""Q0"":""Dave and Mike are kissing each other""}","<img src=""stim_listA/kiss6.gif""</stim_listA>",are kissing each other,
null,"<div style=""font-size:60px;"">+</div>",,html-keyboard-response,290,2335376,0.0-17.0-0.11,95473,List1A,black,woman,,,,null,,,,
null,"<img src=""stim_listA/touch5.gif""</stim_listA>",,html-keyboard-response,291,2337377,0.0-17.0-1.11,95473,List1A,black,woman,,,,null,,,,
null,is touching,,html-keyboard-response,292,2339379,0.0-17.0-2.11,95473,List1A,black,woman,,,,null,,,,
23074,,,survey-text,293,2362453,0.0-17.0-3.11,95473,List1A,black,woman,,,,,"{""Q0"":""Dave is fighting with Luke""}","<img src=""stim_listA/touch5.gif""</stim_listA>",is touching,
null,"<div style=""font-size:60px;"">+</div>",,html-keyboard-response,294,2362955,0.0-17.0-0.12,95473,List1A,black,woman,,,,null,,,,
null,"<img src=""stim_listA/dance8.gif""</stim_listA>",,html-keyboard-response,295,2364956,0.0-17.0-1.12,95473,List1A,black,woman,,,,null,,,,
null,are dancing with each other,,html-keyboard-response,296,2366958,0.0-17.0-2.12,95473,List1A,black,woman,,,,null,,,,
12024,,,survey-text,297,2378983,0.0-17.0-3.12,95473,List1A,black,woman,,,,,"{""Q0"":""Kate and Ruth are dancing with each other""}","<img src=""stim_listA/dance8.gif""</stim_listA>",are dancing with each other,
null,"<div style=""font-size:60px;"">+</div>",,html-keyboard-response,298,2379484,0.0-17.0-0.13,95473,List1A,black,woman,,,,null,,,,
null,"<img src=""stim_listA/talk3.gif""</stim_listA>",,html-keyboard-response,299,2381486,0.0-17.0-1.13,95473,List1A,black,woman,,,,null,,,,
null,is talking to,,html-keyboard-response,300,2383487,0.0-17.0-2.13,95473,List1A,black,woman,,,,null,,,,
11849,,,survey-text,301,2395337,0.0-17.0-3.13,95473,List1A,black,woman,,,,,"{""Q0"":""Luke is talking to Jane""}","<img src=""stim_listA/talk3.gif""</stim_listA>",is talking to,
null,"<div style=""font-size:60px;"">+</div>",,html-keyboard-response,302,2395839,0.0-17.0-0.14,95473,List1A,black,woman,,,,null,,,,
null,"<img src=""stim_listA/hug4.gif""</stim_listA>",,html-keyboard-response,303,2397840,0.0-17.0-1.14,95473,List1A,black,woman,,,,null,,,,
null,are hugging each other,,html-keyboard-response,304,2399842,0.0-17.0-2.14,95473,List1A,black,woman,,,,null,,,,
10887,,,survey-text,305,2410729,0.0-17.0-3.14,95473,List1A,black,woman,,,,,"{""Q0"":""Jane and Dave are hugging each oother""}","<img src=""stim_listA/hug4.gif""</stim_listA>",are hugging each other,
null,"<div style=""font-size:60px;"">+</div>",,html-keyboard-response,306,2411231,0.0-17.0-0.15,95473,List1A,black,woman,,,,null,,,,
null,"<img src=""stim_listA/dance4.gif""</stim_listA>",,html-keyboard-response,307,2413234,0.0-17.0-1.15,95473,List1A,black,woman,,,,null,,,,
null,are dancing with each other,,html-keyboard-response,308,2415235,0.0-17.0-2.15,95473,List1A,black,woman,,,,null,,,,
12999,,,survey-text,309,2428235,0.0-17.0-3.15,95473,List1A,black,woman,,,,,"{""Q0"":""Dave and Ruth are dancing with each other""}","<img src=""stim_listA/dance4.gif""</stim_listA>",are dancing with each other,
null,"<div style=""font-size:60px;"">+</div>",,html-keyboard-response,310,2428736,0.0-17.0-0.16,95473,List1A,black,woman,,,,null,,,,
null,"<img src=""stim_listA/argue5.gif""</stim_listA>",,html-keyboard-response,311,2430776,0.0-17.0-1.16,95473,List1A,black,woman,,,,null,,,,
null,is arguing with,,html-keyboard-response,312,2432776,0.0-17.0-2.16,95473,List1A,black,woman,,,,null,,,,
13002,,,survey-text,313,2445779,0.0-17.0-3.16,95473,List1A,black,woman,,,,,"{""Q0"":""Ruth is arguing with Jane""}","<img src=""stim_listA/argue5.gif""</stim_listA>",is arguing with,
null,"<div style=""font-size:60px;"">+</div>",,html-keyboard-response,314,2446281,0.0-17.0-0.17,95473,List1A,black,woman,,,,null,,,,
null,"<img src=""stim_listA/marry5.gif""</stim_listA>",,html-keyboard-response,315,2448282,0.0-17.0-1.17,95473,List1A,black,woman,,,,null,,,,
null,is marrying,,html-keyboard-response,316,2450284,0.0-17.0-2.17,95473,List1A,black,woman,,,,null,,,,
8743,,,survey-text,317,2459028,0.0-17.0-3.17,95473,List1A,black,woman,,,,,"{""Q0"":""Mike is marrying Luke""}","<img src=""stim_listA/marry5.gif""</stim_listA>",is marrying,
null,"<div style=""font-size:60px;"">+</div>",,html-keyboard-response,318,2459529,0.0-17.0-0.18,95473,List1A,black,woman,,,,null,,,,
null,"<img src=""stim_listA/meet2.gif""</stim_listA>",,html-keyboard-response,319,2461531,0.0-17.0-1.18,95473,List1A,black,woman,,,,null,,,,
null,are meeting each other,,html-keyboard-response,320,2463533,0.0-17.0-2.18,95473,List1A,black,woman,,,,null,,,,
11658,,,survey-text,321,2475192,0.0-17.0-3.18,95473,List1A,black,woman,,,,,"{""Q0"":""Fred and Beth are meeting each other""}","<img src=""stim_listA/meet2.gif""</stim_listA>",are meeting each other,
null,"<div style=""font-size:60px;"">+</div>",,html-keyboard-response,322,2475695,0.0-17.0-0.19,95473,List1A,black,woman,,,,null,,,,
null,"<img src=""stim_listA/shout8.gif""</stim_listA>",,html-keyboard-response,323,2477940,0.0-17.0-1.19,95473,List1A,black,woman,,,,null,,,,
null,are shouting at each other,,html-keyboard-response,324,2479941,0.0-17.0-2.19,95473,List1A,black,woman,,,,null,,,,
27153,,,survey-text,325,2507095,0.0-17.0-3.19,95473,List1A,black,woman,,,,,"{""Q0"":""Luke is dancing with Ruth""}","<img src=""stim_listA/shout8.gif""</stim_listA>",are shouting at each other,
3383,"<img src='img/portrait_matrix_list1.JPG' style='width:900px;height:500px;''></img><p>If you have memorised all the portraits and names and are ready to start, press Continue.</p><p><strong>Please note: Your memory of these faces will be tested 4 times during this experiment.</strong></p>",0,html-button-response,326,2510480,0.0-18.0-0.0,95473,List1A,black,woman,,,,,,,,
2076,"<img src=""portrait/BM2.jpg""style=""width:400px;height:400px;""></img>",5,html-button-response,327,2513558,0.0-18.0-1.0,95473,List1A,black,woman,,TRUE,5,,,,,
null,CORRECT,,html-keyboard-response,328,2515060,0.0-18.0-2.0-0.0,95473,List1A,black,woman,,,,null,,,,
3315,"<img src=""portrait/WW1.jpg""style=""width:400px;height:400px;""></img>",1,html-button-response,329,2518375,0.0-18.0-4.0,95473,List1A,black,woman,,TRUE,1,,,,,
null,CORRECT,,html-keyboard-response,330,2519877,0.0-18.0-5.0-0.0,95473,List1A,black,woman,,,,null,,,,
1635,"<img src=""portrait/WM1.jpg""style=""width:400px;height:400px;""></img>",6,html-button-response,331,2521513,0.0-18.0-7.0,95473,List1A,black,woman,,TRUE,6,,,,,
null,CORRECT,,html-keyboard-response,332,2523015,0.0-18.0-8.0-0.0,95473,List1A,black,woman,,,,null,,,,
3252,"<img src=""portrait/BM1.jpg""style=""width:400px;height:400px;""></img>",4,html-button-response,333,2526268,0.0-18.0-10.0,95473,List1A,black,woman,,TRUE,4,,,,,
null,CORRECT,,html-keyboard-response,334,2527770,0.0-18.0-11.0-0.0,95473,List1A,black,woman,,,,null,,,,
2095,"<img src=""portrait/WM2.jpg""style=""width:400px;height:400px;""></img>",7,html-button-response,335,2529866,0.0-18.0-13.0,95473,List1A,black,woman,,TRUE,7,,,,,
null,CORRECT,,html-keyboard-response,336,2531367,0.0-18.0-14.0-0.0,95473,List1A,black,woman,,,,null,,,,
3503,"<img src=""portrait/BW2.jpg""style=""width:400px;height:400px;""></img>",2,html-button-response,337,2534871,0.0-18.0-16.0,95473,List1A,black,woman,,TRUE,2,,,,,
null,CORRECT,,html-keyboard-response,338,2536374,0.0-18.0-17.0-0.0,95473,List1A,black,woman,,,,null,,,,
1681,"<img src=""portrait/BW1.jpg""style=""width:400px;height:400px;""></img>",0,html-button-response,339,2538056,0.0-18.0-19.0,95473,List1A,black,woman,,TRUE,0,,,,,
null,CORRECT,,html-keyboard-response,340,2539558,0.0-18.0-20.0-0.0,95473,List1A,black,woman,,,,null,,,,
2340,"<img src=""portrait/WW2.jpg""style=""width:400px;height:400px;""></img>",3,html-button-response,341,2541900,0.0-18.0-22.0,95473,List1A,black,woman,,TRUE,3,,,,,
null,CORRECT,,html-keyboard-response,342,2543402,0.0-18.0-23.0-0.0,95473,List1A,black,woman,,,,null,,,,
1470,<p>You got 8 out of 8 right first time. Press Continue.</p>,0,html-button-response,343,2544874,0.0-18.0-25.0,95473,List1A,black,woman,,,,,,,,
null,"<div style=""font-size:60px;"">+</div>",,html-keyboard-response,344,2546376,0.0-19.0-0.0,95473,List1A,black,woman,,,,null,,,,
null,"<img src=""stim_listA/dance1.gif""</stim_listA>",,html-keyboard-response,345,2548378,0.0-19.0-1.0,95473,List1A,black,woman,,,,null,,,,
null,is dancing with,,html-keyboard-response,346,2550380,0.0-19.0-2.0,95473,List1A,black,woman,,,,null,,,,
16138,,,survey-text,347,2566518,0.0-19.0-3.0,95473,List1A,black,woman,,,,,"{""Q0"":""Fred is dancing with Kate""}","<img src=""stim_listA/dance1.gif""</stim_listA>",is dancing with,
null,"<div style=""font-size:60px;"">+</div>",,html-keyboard-response,348,2567019,0.0-19.0-0.1,95473,List1A,black,woman,,,,null,,,,
null,"<img src=""stim_listA/fight7.gif""</stim_listA>",,html-keyboard-response,349,2569021,0.0-19.0-1.1,95473,List1A,black,woman,,,,null,,,,
null,is fighting,,html-keyboard-response,350,2571023,0.0-19.0-2.1,95473,List1A,black,woman,,,,null,,,,
8943,,,survey-text,351,2579968,0.0-19.0-3.1,95473,List1A,black,woman,,,,,"{""Q0"":""Kate is fighting Jane""}","<img src=""stim_listA/fight7.gif""</stim_listA>",is fighting,
null,"<div style=""font-size:60px;"">+</div>",,html-keyboard-response,352,2580469,0.0-19.0-0.2,95473,List1A,black,woman,,,,null,,,,
null,"<img src=""stim_listA/meet7.gif""</stim_listA>",,html-keyboard-response,353,2582471,0.0-19.0-1.2,95473,List1A,black,woman,,,,null,,,,
null,is meeting,,html-keyboard-response,354,2584472,0.0-19.0-2.2,95473,List1A,black,woman,,,,null,,,,
7426,,,survey-text,355,2591900,0.0-19.0-3.2,95473,List1A,black,woman,,,,,"{""Q0"":""Jane is meeting Kate""}","<img src=""stim_listA/meet7.gif""</stim_listA>",is meeting,
null,"<div style=""font-size:60px;"">+</div>",,html-keyboard-response,356,2592401,0.0-19.0-0.3,95473,List1A,black,woman,,,,null,,,,
null,"<img src=""stim_listA/touch3.gif""</stim_listA>",,html-keyboard-response,357,2594402,0.0-19.0-1.3,95473,List1A,black,woman,,,,null,,,,
null,is touching,,html-keyboard-response,358,2596403,0.0-19.0-2.3,95473,List1A,black,woman,,,,null,,,,
7722,,,survey-text,359,2604125,0.0-19.0-3.3,95473,List1A,black,woman,,,,,"{""Q0"":""Dave is touching Jane""}","<img src=""stim_listA/touch3.gif""</stim_listA>",is touching,
null,"<div style=""font-size:60px;"">+</div>",,html-keyboard-response,360,2604627,0.0-19.0-0.4,95473,List1A,black,woman,,,,null,,,,
null,"<img src=""stim_listA/meet3.gif""</stim_listA>",,html-keyboard-response,361,2606629,0.0-19.0-1.4,95473,List1A,black,woman,,,,null,,,,
null,is meeting,,html-keyboard-response,362,2608630,0.0-19.0-2.4,95473,List1A,black,woman,,,,null,,,,
9822,,,survey-text,363,2618452,0.0-19.0-3.4,95473,List1A,black,woman,,,,,"{""Q0"":""Jane is meeting Dave""}","<img src=""stim_listA/meet3.gif""</stim_listA>",is meeting,
null,"<div style=""font-size:60px;"">+</div>",,html-keyboard-response,364,2618953,0.0-19.0-0.5,95473,List1A,black,woman,,,,null,,,,
null,"<img src=""stim_listA/shout2.gif""</stim_listA>",,html-keyboard-response,365,2620955,0.0-19.0-1.5,95473,List1A,black,woman,,,,null,,,,
null,are shouting at each other,,html-keyboard-response,366,2622957,0.0-19.0-2.5,95473,List1A,black,woman,,,,null,,,,
12755,,,survey-text,367,2635712,0.0-19.0-3.5,95473,List1A,black,woman,,,,,"{""Q0"":""Kate and Mike are shouting at each other""}","<img src=""stim_listA/shout2.gif""</stim_listA>",are shouting at each other,
null,"<div style=""font-size:60px;"">+</div>",,html-keyboard-response,368,2636214,0.0-19.0-0.6,95473,List1A,black,woman,,,,null,,,,
null,"<img src=""stim_listA/hug3.gif""</stim_listA>",,html-keyboard-response,369,2638215,0.0-19.0-1.6,95473,List1A,black,woman,,,,null,,,,
null,is hugging,,html-keyboard-response,370,2640217,0.0-19.0-2.6,95473,List1A,black,woman,,,,null,,,,
7865,,,survey-text,371,2648083,0.0-19.0-3.6,95473,List1A,black,woman,,,,,"{""Q0"":""Luke is hugging Ruth""}","<img src=""stim_listA/hug3.gif""</stim_listA>",is hugging,
null,"<div style=""font-size:60px;"">+</div>",,html-keyboard-response,372,2648586,0.0-19.0-0.7,95473,List1A,black,woman,,,,null,,,,
null,"<img src=""stim_listA/hug1.gif""</stim_listA>",,html-keyboard-response,373,2650590,0.0-19.0-1.7,95473,List1A,black,woman,,,,null,,,,
null,is hugging,,html-keyboard-response,374,2652592,0.0-19.0-2.7,95473,List1A,black,woman,,,,null,,,,
7886,,,survey-text,375,2660478,0.0-19.0-3.7,95473,List1A,black,woman,,,,,"{""Q0"":""Dave is hugging Beth""}","<img src=""stim_listA/hug1.gif""</stim_listA>",is hugging,
null,"<div style=""font-size:60px;"">+</div>",,html-keyboard-response,376,2660980,0.0-19.0-0.8,95473,List1A,black,woman,,,,null,,,,
null,"<img src=""stim_listA/dance6.gif""</stim_listA>",,html-keyboard-response,377,2662982,0.0-19.0-1.8,95473,List1A,black,woman,,,,null,,,,
null,are dancing with each other,,html-keyboard-response,378,2664985,0.0-19.0-2.8,95473,List1A,black,woman,,,,null,,,,
13011,,,survey-text,379,2677997,0.0-19.0-3.8,95473,List1A,black,woman,,,,,"{""Q0"":""Luke and Mike are dancing with each other""}","<img src=""stim_listA/dance6.gif""</stim_listA>",are dancing with each other,
null,"<div style=""font-size:60px;"">+</div>",,html-keyboard-response,380,2678499,0.0-19.0-0.9,95473,List1A,black,woman,,,,null,,,,
null,"<img src=""stim_listA/marry2.gif""</stim_listA>",,html-keyboard-response,381,2680504,0.0-19.0-1.9,95473,List1A,black,woman,,,,null,,,,
null,are marrying each other,,html-keyboard-response,382,2682507,0.0-19.0-2.9,95473,List1A,black,woman,,,,null,,,,
15914,,,survey-text,383,2698421,0.0-19.0-3.9,95473,List1A,black,woman,,,,,"{""Q0"":""Fred and Kate ate dancing with each other""}","<img src=""stim_listA/marry2.gif""</stim_listA>",are marrying each other,
null,"<div style=""font-size:60px;"">+</div>",,html-keyboard-response,384,2698926,0.0-19.0-0.10,95473,List1A,black,woman,,,,null,,,,
null,"<img src=""stim_listA/hug8.gif""</stim_listA>",,html-keyboard-response,385,2700929,0.0-19.0-1.10,95473,List1A,black,woman,,,,null,,,,
null,are hugging each other,,html-keyboard-response,386,2702930,0.0-19.0-2.10,95473,List1A,black,woman,,,,null,,,,
9957,,,survey-text,387,2712888,0.0-19.0-3.10,95473,List1A,black,woman,,,,,"{""Q0"":""Jane and Kate are hugging each other""}","<img src=""stim_listA/hug8.gif""</stim_listA>",are hugging each other,
null,"<div style=""font-size:60px;"">+</div>",,html-keyboard-response,388,2713390,0.0-19.0-0.11,95473,List1A,black,woman,,,,null,,,,
null,"<img src=""stim_listA/argue8.gif""</stim_listA>",,html-keyboard-response,389,2715395,0.0-19.0-1.11,95473,List1A,black,woman,,,,null,,,,
null,are arguing with each other,,html-keyboard-response,390,2717938,0.0-19.0-2.11,95473,List1A,black,woman,,,,null,,,,
359663,,,survey-text,391,3077603,0.0-19.0-3.11,95473,List1A,black,woman,,,,,"{""Q0"":""Beth is fighting Ruth""}","<img src=""stim_listA/argue8.gif""</stim_listA>",are arguing with each other,
null,"<div style=""font-size:60px;"">+</div>",,html-keyboard-response,392,3078109,0.0-19.0-0.12,95473,List1A,black,woman,,,,null,,,,
null,"<img src=""stim_listA/fight4.gif""</stim_listA>",,html-keyboard-response,393,3080113,0.0-19.0-1.12,95473,List1A,black,woman,,,,null,,,,
null,are fighting each other,,html-keyboard-response,394,3082118,0.0-19.0-2.12,95473,List1A,black,woman,,,,null,,,,
16437,,,survey-text,395,3098556,0.0-19.0-3.12,95473,List1A,black,woman,,,,,"{""Q0"":""Ruth and Luke are fighint each other""}","<img src=""stim_listA/fight4.gif""</stim_listA>",are fighting each other,
null,"<div style=""font-size:60px;"">+</div>",,html-keyboard-response,396,3099057,0.0-19.0-0.13,95473,List1A,black,woman,,,,null,,,,
null,"<img src=""stim_listA/meet5.gif""</stim_listA>",,html-keyboard-response,397,3101061,0.0-19.0-1.13,95473,List1A,black,woman,,,,null,,,,
null,is meeting,,html-keyboard-response,398,3103069,0.0-19.0-2.13,95473,List1A,black,woman,,,,null,,,,
16782,,,survey-text,399,3119851,0.0-19.0-3.13,95473,List1A,black,woman,,,,,"{""Q0"":""Mike is meeting DAve""}","<img src=""stim_listA/meet5.gif""</stim_listA>",is meeting,
null,"<div style=""font-size:60px;"">+</div>",,html-keyboard-response,400,3120355,0.0-19.0-0.14,95473,List1A,black,woman,,,,null,,,,
null,"<img src=""stim_listA/fight8.gif""</stim_listA>",,html-keyboard-response,401,3122359,0.0-19.0-1.14,95473,List1A,black,woman,,,,null,,,,
null,are fighting each other,,html-keyboard-response,402,3124361,0.0-19.0-2.14,95473,List1A,black,woman,,,,null,,,,
20121,,,survey-text,403,3144483,0.0-19.0-3.14,95473,List1A,black,woman,,,,,"{""Q0"":""Ruth and Beth are fighting each otehr""}","<img src=""stim_listA/fight8.gif""</stim_listA>",are fighting each other,
null,"<div style=""font-size:60px;"">+</div>",,html-keyboard-response,404,3144988,0.0-19.0-0.15,95473,List1A,black,woman,,,,null,,,,
null,"<img src=""stim_listA/shout3.gif""</stim_listA>",,html-keyboard-response,405,3146992,0.0-19.0-1.15,95473,List1A,black,woman,,,,null,,,,
null,is shouting at,,html-keyboard-response,406,3148995,0.0-19.0-2.15,95473,List1A,black,woman,,,,null,,,,
16668,,,survey-text,407,3165663,0.0-19.0-3.15,95473,List1A,black,woman,,,,,"{""Q0"":""Luke is shouting at Ruth""}","<img src=""stim_listA/shout3.gif""</stim_listA>",is shouting at,
null,"<div style=""font-size:60px;"">+</div>",,html-keyboard-response,408,3166168,0.0-19.0-0.16,95473,List1A,black,woman,,,,null,,,,
null,"<img src=""stim_listA/kiss4.gif""</stim_listA>",,html-keyboard-response,409,3168172,0.0-19.0-1.16,95473,List1A,black,woman,,,,null,,,,
null,are kissing each other,,html-keyboard-response,410,3170176,0.0-19.0-2.16,95473,List1A,black,woman,,,,null,,,,
17914,,,survey-text,411,3188091,0.0-19.0-3.16,95473,List1A,black,woman,,,,,"{""Q0"":""Jane and Dave are kissing each other""}","<img src=""stim_listA/kiss4.gif""</stim_listA>",are kissing each other,
null,"<div style=""font-size:60px;"">+</div>",,html-keyboard-response,412,3188595,0.0-19.0-0.17,95473,List1A,black,woman,,,,null,,,,
null,"<img src=""stim_listA/shout5.gif""</stim_listA>",,html-keyboard-response,413,3190596,0.0-19.0-1.17,95473,List1A,black,woman,,,,null,,,,
null,is shouting at,,html-keyboard-response,414,3192597,0.0-19.0-2.17,95473,List1A,black,woman,,,,null,,,,
7713,,,survey-text,415,3200310,0.0-19.0-3.17,95473,List1A,black,woman,,,,,"{""Q0"":""Luke is shouting at Fred""}","<img src=""stim_listA/shout5.gif""</stim_listA>",is shouting at,
null,"<div style=""font-size:60px;"">+</div>",,html-keyboard-response,416,3200812,0.0-19.0-0.18,95473,List1A,black,woman,,,,null,,,,
null,"<img src=""stim_listA/meet1.gif""</stim_listA>",,html-keyboard-response,417,3202817,0.0-19.0-1.18,95473,List1A,black,woman,,,,null,,,,
null,is meeting,,html-keyboard-response,418,3204820,0.0-19.0-2.18,95473,List1A,black,woman,,,,null,,,,
9390,,,survey-text,419,3214211,0.0-19.0-3.18,95473,List1A,black,woman,,,,,"{""Q0"":""Mike is meeting Kate""}","<img src=""stim_listA/meet1.gif""</stim_listA>",is meeting,
null,"<div style=""font-size:60px;"">+</div>",,html-keyboard-response,420,3214713,0.0-19.0-0.19,95473,List1A,black,woman,,,,null,,,,
null,"<img src=""stim_listA/shout1.gif""</stim_listA>",,html-keyboard-response,421,3216714,0.0-19.0-1.19,95473,List1A,black,woman,,,,null,,,,
null,is shouting at,,html-keyboard-response,422,3218716,0.0-19.0-2.19,95473,List1A,black,woman,,,,null,,,,
7763,,,survey-text,423,3226481,0.0-19.0-3.19,95473,List1A,black,woman,,,,,"{""Q0"":""Fred is shouting at Beth""}","<img src=""stim_listA/shout1.gif""</stim_listA>",is shouting at,
1926,<p>Thank you for completing that task.</p><p>The final part of this session is a short questionnaire.</p><p>Press Continue.</p>,0,html-button-response,424,3228408,0.0-20.0,95473,List1A,black,woman,,,,,,,,
22118,,,survey-text,425,3251531,0.0-21.0,95473,List1A,black,woman,,,,,"{""Q0"":""21"",""Q1"":""German"",""Q2"":""English"",""Q3"":""England"",""Q4"":""Black"",""Q5"":""Female""}",,,demographics
50015,,,survey-likert,426,3301551,0.0-22.0,95473,List1A,black,woman,,,,,"{""Q0"":6,""Q1"":6,""Q2"":6,""Q3"":6,""Q4"":6,""Q5"":4,""Q6"":6,""Q7"":6,""Q8"":6,""Q9"":5,""Q10"":5,""Q11"":5,""Q12"":6,""Q13"":4}",,,likert_race
47910,,,survey-likert,427,3349482,0.0-23.0,95473,List1A,black,woman,,,,,"{""Q0"":5,""Q1"":5,""Q2"":5,""Q3"":6,""Q4"":6,""Q5"":4,""Q6"":6,""Q7"":5,""Q8"":"""",""Q9"":5,""Q10"":4,""Q11"":4,""Q12"":2,""Q13"":4}",,,likert_gender
8131,,,survey-text,428,3357630,0.0-24.0,95473,List1A,black,woman,,,,,"{""Q0"":""ccc""}",,,worker_id
20222,,,external-html,429,3378199,0.0-25.0,95473,List1A,black,woman,debrief.html,,,,,,,
