rt,stimulus,button_pressed,trial_type,trial_index,time_elapsed,internal_node_id,subject,list,ppt_race,ppt_gender,url,first_guess,correct,key_press,responses,image_type,phrase_type,test_part
4563,Welcome to the experiment. Press Continue to begin.,0,html-button-response,0,4569,0.0-0.0,95925,List1B,white,man,,,,,,,,
20381,,,external-html,1,26097,0.0-1.0,95925,List1B,white,man,consent.html,,,,,,,
3882,"<p>On the next page, you will see portraits of 8 people and their names.</p><p>Your first task is to take a few minutes to memorise the names of these people.</p><p>You will have to recall their names during the rest of the experiment, so it is</p><p>essential that you try to memorise these people and their names as best as you can.</p><br><p><strong>You will then be tested on your memory of these names and portraits.</strong></p><br><p>The experiment will start after you have completed this memory test.</p><br><p>Ready?</p>",0,html-button-response,2,29979,0.0-2.0,95925,List1B,white,man,,,,,,,,
21031,"<img src='img/portrait_matrix_list1.JPG' style='width:900px;height:500px;''></img><p>If you have memorised all the portraits and names and are ready to start, press Continue.</p><p><strong>Please note: Your memory of these faces will be tested 4 times during this experiment.</strong></p>",0,html-button-response,3,52028,0.0-3.0-0.0,95925,List1B,white,man,,,,,,,,
5785,"<img src=""portrait/BW1.jpg""style=""width:400px;height:400px;""></img>",0,html-button-response,4,58824,0.0-3.0-1.0,95925,List1B,white,man,,TRUE,0,,,,,
null,CORRECT,,html-keyboard-response,5,60376,0.0-3.0-2.0-0.0,95925,List1B,white,man,,,,null,,,,
3712,"<img src=""portrait/WW1.jpg""style=""width:400px;height:400px;""></img>",1,html-button-response,6,64093,0.0-3.0-4.0,95925,List1B,white,man,,TRUE,1,,,,,
null,CORRECT,,html-keyboard-response,7,65638,0.0-3.0-5.0-0.0,95925,List1B,white,man,,,,null,,,,
3863,"<img src=""portrait/BW2.jpg""style=""width:400px;height:400px;""></img>",2,html-button-response,8,69502,0.0-3.0-7.0,95925,List1B,white,man,,TRUE,2,,,,,
null,CORRECT,,html-keyboard-response,9,71033,0.0-3.0-8.0-0.0,95925,List1B,white,man,,,,null,,,,
3069,"<img src=""portrait/WW2.jpg""style=""width:400px;height:400px;""></img>",3,html-button-response,10,74103,0.0-3.0-10.0,95925,List1B,white,man,,TRUE,3,,,,,
null,CORRECT,,html-keyboard-response,11,75635,0.0-3.0-11.0-0.0,95925,List1B,white,man,,,,null,,,,
4581,"<img src=""portrait/WM2.jpg""style=""width:400px;height:400px;""></img>",7,html-button-response,12,80219,0.0-3.0-13.0,95925,List1B,white,man,,TRUE,7,,,,,
null,CORRECT,,html-keyboard-response,13,81738,0.0-3.0-14.0-0.0,95925,List1B,white,man,,,,null,,,,
4870,"<img src=""portrait/BM2.jpg""style=""width:400px;height:400px;""></img>",5,html-button-response,14,86611,0.0-3.0-16.0,95925,List1B,white,man,,TRUE,5,,,,,
null,CORRECT,,html-keyboard-response,15,88143,0.0-3.0-17.0-0.0,95925,List1B,white,man,,,,null,,,,
3855,"<img src=""portrait/WM1.jpg""style=""width:400px;height:400px;""></img>",6,html-button-response,16,92000,0.0-3.0-19.0,95925,List1B,white,man,,TRUE,6,,,,,
null,CORRECT,,html-keyboard-response,17,93521,0.0-3.0-20.0-0.0,95925,List1B,white,man,,,,null,,,,
5520,"<img src=""portrait/BM1.jpg""style=""width:400px;height:400px;""></img>",4,html-button-response,18,99043,0.0-3.0-22.0,95925,List1B,white,man,,TRUE,4,,,,,
null,CORRECT,,html-keyboard-response,19,100576,0.0-3.0-23.0-0.0,95925,List1B,white,man,,,,null,,,,
2266,<p>You got 8 out of 8 right first time. Press Continue.</p>,0,html-button-response,20,102844,0.0-3.0-25.0,95925,List1B,white,man,,,,,,,,
11453,"<p>In this experiment, you will view photographs of the people from the memory game interacting.</p><p>By using the <strong>exact</strong> phrase given <i>after</i> the photograph appears and recalling the correct names of the people in the photographs, form a sentence describing the interaction. You do not need to capitalise names.</p><p>Type your answer in the space provided. Please complete every sentence before moving onto the next trial.</p><p>You will only have a few seconds to memorise each given photograph and phrase before you can respond, so try your best to focus.</p><p>An example is given below. Press 'Continue' when you are ready.</p><img src='img/speaking_example_v2.jpg' style='width:800px;height:460px;''></img>",0,html-button-response,21,115321,0.0-4.0,95925,List1B,white,man,,,,,,,,
2635,"<p>Before the experiment starts, you will watch two example trials. Press 'Continue'.</p>",0,html-button-response,22,118972,0.0-5.0,95925,List1B,white,man,,,,,,,,
null,<img src='img/speaking_WW.gif'></img>,,html-keyboard-response,23,121991,0.0-6.0,95925,List1B,white,man,,,,null,,,,
null,<p>is speaking to</p>,,html-keyboard-response,24,123996,0.0-7.0,95925,List1B,white,man,,,,null,,,,
4427,<p><b>Answer:</b> kate is speaking to beth</p>,0,html-button-response,25,128426,0.0-8.0,95925,List1B,white,man,,,,,,,,
null,<img src='img/pointing_BM.gif'></img>,,html-keyboard-response,26,131460,0.0-9.0,95925,List1B,white,man,,,,null,,,,
null,<p>are pointing at each other</p>,,html-keyboard-response,27,133475,0.0-10.0,95925,List1B,white,man,,,,null,,,,
2336,<p><b>Answer:</b> luke and dave are pointing at each other</p>,0,html-button-response,28,135812,0.0-11.0,95925,List1B,white,man,,,,,,,,
3861,"<p>Ready to start the experiment?</p><br><p><strong>Remember to describe the picture using a full sentence,</strong></p><p><strong>that combines the names of the people with the given phrase.</strong></p><p><strong>If you do not do this correctly you will not be paid.</strong></p><p><strong> You do not need to capitalise names or use punctuation.</strong></p><br><p>Press 'Continue' to begin.</p>",0,html-button-response,29,140694,0.0-12.0,95925,List1B,white,man,,,,,,,,
null,"<div style=""font-size:60px;"">+</div>",,html-keyboard-response,30,142234,0.0-13.0-0.0,95925,List1B,white,man,,,,null,,,,
null,"<img src=""stim_listB/kiss1.gif""</stim_listB>",,html-keyboard-response,31,144238,0.0-13.0-1.0,95925,List1B,white,man,,,,null,,,,
null,is kissing,,html-keyboard-response,32,146249,0.0-13.0-2.0,95925,List1B,white,man,,,,null,,,,
6735,,,survey-text,33,152985,0.0-13.0-3.0,95925,List1B,white,man,,,,,"{""Q0"":""Fred is kissing Beth""}","<img src=""stim_listB/kiss1.gif""</stim_listB>",is kissing,
null,"<div style=""font-size:60px;"">+</div>",,html-keyboard-response,34,153502,0.0-13.0-0.1,95925,List1B,white,man,,,,null,,,,
null,"<img src=""stim_listB/fight4.gif""</stim_listB>",,html-keyboard-response,35,155516,0.0-13.0-1.1,95925,List1B,white,man,,,,null,,,,
null,are fighting each other,,html-keyboard-response,36,157524,0.0-13.0-2.1,95925,List1B,white,man,,,,null,,,,
11155,,,survey-text,37,168681,0.0-13.0-3.1,95925,List1B,white,man,,,,,"{""Q0"":""Ruth is fighting luke""}","<img src=""stim_listB/fight4.gif""</stim_listB>",are fighting each other,
null,"<div style=""font-size:60px;"">+</div>",,html-keyboard-response,38,169205,0.0-13.0-0.2,95925,List1B,white,man,,,,null,,,,
null,"<img src=""stim_listB/marry5.gif""</stim_listB>",,html-keyboard-response,39,171229,0.0-13.0-1.2,95925,List1B,white,man,,,,null,,,,
null,is marrying,,html-keyboard-response,40,173216,0.0-13.0-2.2,95925,List1B,white,man,,,,null,,,,
10844,,,survey-text,41,184063,0.0-13.0-3.2,95925,List1B,white,man,,,,,"{""Q0"":""Luke is marrying Mike""}","<img src=""stim_listB/marry5.gif""</stim_listB>",is marrying,
null,"<div style=""font-size:60px;"">+</div>",,html-keyboard-response,42,184580,0.0-13.0-0.3,95925,List1B,white,man,,,,null,,,,
null,"<img src=""stim_listB/shout5.gif""</stim_listB>",,html-keyboard-response,43,186613,0.0-13.0-1.3,95925,List1B,white,man,,,,null,,,,
null,is shouting at,,html-keyboard-response,44,188594,0.0-13.0-2.3,95925,List1B,white,man,,,,null,,,,
13735,,,survey-text,45,202334,0.0-13.0-3.3,95925,List1B,white,man,,,,,"{""Q0"":""Luke is shouting at Fred""}","<img src=""stim_listB/shout5.gif""</stim_listB>",is shouting at,
null,"<div style=""font-size:60px;"">+</div>",,html-keyboard-response,46,202861,0.0-13.0-0.4,95925,List1B,white,man,,,,null,,,,
null,"<img src=""stim_listB/meet2.gif""</stim_listB>",,html-keyboard-response,47,204881,0.0-13.0-1.4,95925,List1B,white,man,,,,null,,,,
null,are meeting each other,,html-keyboard-response,48,206870,0.0-13.0-2.4,95925,List1B,white,man,,,,null,,,,
8114,,,survey-text,49,214988,0.0-13.0-3.4,95925,List1B,white,man,,,,,"{""Q0"":""Fred is meeting Beth""}","<img src=""stim_listB/meet2.gif""</stim_listB>",are meeting each other,
null,"<div style=""font-size:60px;"">+</div>",,html-keyboard-response,50,215508,0.0-13.0-0.5,95925,List1B,white,man,,,,null,,,,
null,"<img src=""stim_listB/touch4.gif""</stim_listB>",,html-keyboard-response,51,217524,0.0-13.0-1.5,95925,List1B,white,man,,,,null,,,,
null,are touching each other,,html-keyboard-response,52,219510,0.0-13.0-2.5,95925,List1B,white,man,,,,null,,,,
13754,,,survey-text,53,233267,0.0-13.0-3.5,95925,List1B,white,man,,,,,"{""Q0"":""Luke is touching Ruth""}","<img src=""stim_listB/touch4.gif""</stim_listB>",are touching each other,
null,"<div style=""font-size:60px;"">+</div>",,html-keyboard-response,54,233775,0.0-13.0-0.6,95925,List1B,white,man,,,,null,,,,
null,"<img src=""stim_listB/hug5.gif""</stim_listB>",,html-keyboard-response,55,235799,0.0-13.0-1.6,95925,List1B,white,man,,,,null,,,,
null,is hugging,,html-keyboard-response,56,237791,0.0-13.0-2.6,95925,List1B,white,man,,,,null,,,,
7549,,,survey-text,57,245340,0.0-13.0-3.6,95925,List1B,white,man,,,,,"{""Q0"":""Luke is hugging Fred""}","<img src=""stim_listB/hug5.gif""</stim_listB>",is hugging,
null,"<div style=""font-size:60px;"">+</div>",,html-keyboard-response,58,245861,0.0-13.0-0.7,95925,List1B,white,man,,,,null,,,,
null,"<img src=""stim_listB/talk6.gif""</stim_listB>",,html-keyboard-response,59,247872,0.0-13.0-1.7,95925,List1B,white,man,,,,null,,,,
null,are talking to each other,,html-keyboard-response,60,249875,0.0-13.0-2.7,95925,List1B,white,man,,,,null,,,,
9777,,,survey-text,61,259653,0.0-13.0-3.7,95925,List1B,white,man,,,,,"{""Q0"":""Luke and Mike are talking to each other""}","<img src=""stim_listB/talk6.gif""</stim_listB>",are talking to each other,
null,"<div style=""font-size:60px;"">+</div>",,html-keyboard-response,62,260164,0.0-13.0-0.8,95925,List1B,white,man,,,,null,,,,
null,"<img src=""stim_listB/touch6.gif""</stim_listB>",,html-keyboard-response,63,262175,0.0-13.0-1.8,95925,List1B,white,man,,,,null,,,,
null,are touching each other,,html-keyboard-response,64,264172,0.0-13.0-2.8,95925,List1B,white,man,,,,null,,,,
11640,,,survey-text,65,275813,0.0-13.0-3.8,95925,List1B,white,man,,,,,"{""Q0"":""Fred and Luke are touching each other""}","<img src=""stim_listB/touch6.gif""</stim_listB>",are touching each other,
null,"<div style=""font-size:60px;"">+</div>",,html-keyboard-response,66,276335,0.0-13.0-0.9,95925,List1B,white,man,,,,null,,,,
null,"<img src=""stim_listB/fight2.gif""</stim_listB>",,html-keyboard-response,67,278359,0.0-13.0-1.9,95925,List1B,white,man,,,,null,,,,
null,are fighting each other,,html-keyboard-response,68,280340,0.0-13.0-2.9,95925,List1B,white,man,,,,null,,,,
15630,,,survey-text,69,295975,0.0-13.0-3.9,95925,List1B,white,man,,,,,"{""Q0"":""Fred and Kate are fighting each other""}","<img src=""stim_listB/fight2.gif""</stim_listB>",are fighting each other,
null,"<div style=""font-size:60px;"">+</div>",,html-keyboard-response,70,296494,0.0-13.0-0.10,95925,List1B,white,man,,,,null,,,,
null,"<img src=""stim_listB/dance2.gif""</stim_listB>",,html-keyboard-response,71,298512,0.0-13.0-1.10,95925,List1B,white,man,,,,null,,,,
null,are dancing with each other,,html-keyboard-response,72,300510,0.0-13.0-2.10,95925,List1B,white,man,,,,null,,,,
8874,,,survey-text,73,309386,0.0-13.0-3.10,95925,List1B,white,man,,,,,"{""Q0"":""Mike and Kate are dancing""}","<img src=""stim_listB/dance2.gif""</stim_listB>",are dancing with each other,
null,"<div style=""font-size:60px;"">+</div>",,html-keyboard-response,74,309913,0.0-13.0-0.11,95925,List1B,white,man,,,,null,,,,
null,"<img src=""stim_listB/dance8.gif""</stim_listB>",,html-keyboard-response,75,311932,0.0-13.0-1.11,95925,List1B,white,man,,,,null,,,,
null,are dancing with each other,,html-keyboard-response,76,313921,0.0-13.0-2.11,95925,List1B,white,man,,,,null,,,,
12026,,,survey-text,77,325950,0.0-13.0-3.11,95925,List1B,white,man,,,,,"{""Q0"":""Ruth and kate are dancing with each other""}","<img src=""stim_listB/dance8.gif""</stim_listB>",are dancing with each other,
null,"<div style=""font-size:60px;"">+</div>",,html-keyboard-response,78,326464,0.0-13.0-0.12,95925,List1B,white,man,,,,null,,,,
null,"<img src=""stim_listB/marry8.gif""</stim_listB>",,html-keyboard-response,79,328478,0.0-13.0-1.12,95925,List1B,white,man,,,,null,,,,
null,are marrying each other,,html-keyboard-response,80,330480,0.0-13.0-2.12,95925,List1B,white,man,,,,null,,,,
12195,,,survey-text,81,342678,0.0-13.0-3.12,95925,List1B,white,man,,,,,"{""Q0"":""Jane and Kate are Marrying each other""}","<img src=""stim_listB/marry8.gif""</stim_listB>",are marrying each other,
null,"<div style=""font-size:60px;"">+</div>",,html-keyboard-response,82,343189,0.0-13.0-0.13,95925,List1B,white,man,,,,null,,,,
null,"<img src=""stim_listB/shout7.gif""</stim_listB>",,html-keyboard-response,83,345204,0.0-13.0-1.13,95925,List1B,white,man,,,,null,,,,
null,is shouting at,,html-keyboard-response,84,347213,0.0-13.0-2.13,95925,List1B,white,man,,,,null,,,,
11294,,,survey-text,85,358510,0.0-13.0-3.13,95925,List1B,white,man,,,,,"{""Q0"":""Ruth is shouting at Beth""}","<img src=""stim_listB/shout7.gif""</stim_listB>",is shouting at,
null,"<div style=""font-size:60px;"">+</div>",,html-keyboard-response,86,359031,0.0-13.0-0.14,95925,List1B,white,man,,,,null,,,,
null,"<img src=""stim_listB/fight7.gif""</stim_listB>",,html-keyboard-response,87,361041,0.0-13.0-1.14,95925,List1B,white,man,,,,null,,,,
null,is fighting,,html-keyboard-response,88,363041,0.0-13.0-2.14,95925,List1B,white,man,,,,null,,,,
7436,,,survey-text,89,370480,0.0-13.0-3.14,95925,List1B,white,man,,,,,"{""Q0"":""Kate is fighting Jane""}","<img src=""stim_listB/fight7.gif""</stim_listB>",is fighting,
null,"<div style=""font-size:60px;"">+</div>",,html-keyboard-response,90,371000,0.0-13.0-0.15,95925,List1B,white,man,,,,null,,,,
null,"<img src=""stim_listB/touch3.gif""</stim_listB>",,html-keyboard-response,91,373024,0.0-13.0-1.15,95925,List1B,white,man,,,,null,,,,
null,is touching,,html-keyboard-response,92,375015,0.0-13.0-2.15,95925,List1B,white,man,,,,null,,,,
13116,,,survey-text,93,388132,0.0-13.0-3.15,95925,List1B,white,man,,,,,"{""Q0"":""Jane is touching Luke""}","<img src=""stim_listB/touch3.gif""</stim_listB>",is touching,
null,"<div style=""font-size:60px;"">+</div>",,html-keyboard-response,94,388636,0.0-13.0-0.16,95925,List1B,white,man,,,,null,,,,
null,"<img src=""stim_listB/meet6.gif""</stim_listB>",,html-keyboard-response,95,390657,0.0-13.0-1.16,95925,List1B,white,man,,,,null,,,,
null,are meeting each other,,html-keyboard-response,96,392657,0.0-13.0-2.16,95925,List1B,white,man,,,,null,,,,
14459,,,survey-text,97,407119,0.0-13.0-3.16,95925,List1B,white,man,,,,,"{""Q0"":""Fred and Luke are meeting Each other""}","<img src=""stim_listB/meet6.gif""</stim_listB>",are meeting each other,
null,"<div style=""font-size:60px;"">+</div>",,html-keyboard-response,98,407627,0.0-13.0-0.17,95925,List1B,white,man,,,,null,,,,
null,"<img src=""stim_listB/hug8.gif""</stim_listB>",,html-keyboard-response,99,409656,0.0-13.0-1.17,95925,List1B,white,man,,,,null,,,,
null,are hugging each other,,html-keyboard-response,100,411636,0.0-13.0-2.17,95925,List1B,white,man,,,,null,,,,
10318,,,survey-text,101,421956,0.0-13.0-3.17,95925,List1B,white,man,,,,,"{""Q0"":""Jane and Kate are hugging each other""}","<img src=""stim_listB/hug8.gif""</stim_listB>",are hugging each other,
null,"<div style=""font-size:60px;"">+</div>",,html-keyboard-response,102,422475,0.0-13.0-0.18,95925,List1B,white,man,,,,null,,,,
null,"<img src=""stim_listB/meet4.gif""</stim_listB>",,html-keyboard-response,103,424485,0.0-13.0-1.18,95925,List1B,white,man,,,,null,,,,
null,are meeting each other,,html-keyboard-response,104,426489,0.0-13.0-2.18,95925,List1B,white,man,,,,null,,,,
9362,,,survey-text,105,435853,0.0-13.0-3.18,95925,List1B,white,man,,,,,"{""Q0"":""Ruth and Luke are meeting""}","<img src=""stim_listB/meet4.gif""</stim_listB>",are meeting each other,
null,"<div style=""font-size:60px;"">+</div>",,html-keyboard-response,106,436372,0.0-13.0-0.19,95925,List1B,white,man,,,,null,,,,
null,"<img src=""stim_listB/talk2.gif""</stim_listB>",,html-keyboard-response,107,438391,0.0-13.0-1.19,95925,List1B,white,man,,,,null,,,,
null,are talking to each other,,html-keyboard-response,108,440383,0.0-13.0-2.19,95925,List1B,white,man,,,,null,,,,
11178,,,survey-text,109,451564,0.0-13.0-3.19,95925,List1B,white,man,,,,,"{""Q0"":""Mike and Kate are meeting each other""}","<img src=""stim_listB/talk2.gif""</stim_listB>",are talking to each other,
10087,"<img src='img/portrait_matrix_list1.JPG' style='width:900px;height:500px;''></img><p>If you have memorised all the portraits and names and are ready to start, press Continue.</p><p><strong>Please note: Your memory of these faces will be tested 4 times during this experiment.</strong></p>",0,html-button-response,110,461654,0.0-14.0-0.0,95925,List1B,white,man,,,,,,,,
3628,"<img src=""portrait/BM1.jpg""style=""width:400px;height:400px;""></img>",4,html-button-response,111,466305,0.0-14.0-1.0,95925,List1B,white,man,,TRUE,4,,,,,
null,CORRECT,,html-keyboard-response,112,467829,0.0-14.0-2.0-0.0,95925,List1B,white,man,,,,null,,,,
2507,"<img src=""portrait/WW2.jpg""style=""width:400px;height:400px;""></img>",3,html-button-response,113,470337,0.0-14.0-4.0,95925,List1B,white,man,,TRUE,3,,,,,
null,CORRECT,,html-keyboard-response,114,471878,0.0-14.0-5.0-0.0,95925,List1B,white,man,,,,null,,,,
3086,"<img src=""portrait/WW1.jpg""style=""width:400px;height:400px;""></img>",1,html-button-response,115,474967,0.0-14.0-7.0,95925,List1B,white,man,,TRUE,1,,,,,
null,CORRECT,,html-keyboard-response,116,476518,0.0-14.0-8.0-0.0,95925,List1B,white,man,,,,null,,,,
3896,"<img src=""portrait/BW2.jpg""style=""width:400px;height:400px;""></img>",2,html-button-response,117,480416,0.0-14.0-10.0,95925,List1B,white,man,,TRUE,2,,,,,
null,CORRECT,,html-keyboard-response,118,481953,0.0-14.0-11.0-0.0,95925,List1B,white,man,,,,null,,,,
4053,"<img src=""portrait/BM2.jpg""style=""width:400px;height:400px;""></img>",5,html-button-response,119,486008,0.0-14.0-13.0,95925,List1B,white,man,,TRUE,5,,,,,
null,CORRECT,,html-keyboard-response,120,487542,0.0-14.0-14.0-0.0,95925,List1B,white,man,,,,null,,,,
5865,"<img src=""portrait/BW1.jpg""style=""width:400px;height:400px;""></img>",0,html-button-response,121,493408,0.0-14.0-16.0,95925,List1B,white,man,,TRUE,0,,,,,
null,CORRECT,,html-keyboard-response,122,494937,0.0-14.0-17.0-0.0,95925,List1B,white,man,,,,null,,,,
4101,"<img src=""portrait/WM2.jpg""style=""width:400px;height:400px;""></img>",7,html-button-response,123,499040,0.0-14.0-19.0,95925,List1B,white,man,,TRUE,7,,,,,
null,CORRECT,,html-keyboard-response,124,500572,0.0-14.0-20.0-0.0,95925,List1B,white,man,,,,null,,,,
3935,"<img src=""portrait/WM1.jpg""style=""width:400px;height:400px;""></img>",6,html-button-response,125,504510,0.0-14.0-22.0,95925,List1B,white,man,,TRUE,6,,,,,
null,CORRECT,,html-keyboard-response,126,506048,0.0-14.0-23.0-0.0,95925,List1B,white,man,,,,null,,,,
1866,<p>You got 8 out of 8 right first time. Press Continue.</p>,0,html-button-response,127,507916,0.0-14.0-25.0,95925,List1B,white,man,,,,,,,,
null,"<div style=""font-size:60px;"">+</div>",,html-keyboard-response,128,509442,0.0-15.0-0.0,95925,List1B,white,man,,,,null,,,,
null,"<img src=""stim_listB/fight5.gif""</stim_listB>",,html-keyboard-response,129,511463,0.0-15.0-1.0,95925,List1B,white,man,,,,null,,,,
null,is fighting,,html-keyboard-response,130,513462,0.0-15.0-2.0,95925,List1B,white,man,,,,null,,,,
7488,,,survey-text,131,520954,0.0-15.0-3.0,95925,List1B,white,man,,,,,"{""Q0"":""Dave is fighting Mike""}","<img src=""stim_listB/fight5.gif""</stim_listB>",is fighting,
null,"<div style=""font-size:60px;"">+</div>",,html-keyboard-response,132,521472,0.0-15.0-0.1,95925,List1B,white,man,,,,null,,,,
null,"<img src=""stim_listB/marry4.gif""</stim_listB>",,html-keyboard-response,133,523479,0.0-15.0-1.1,95925,List1B,white,man,,,,null,,,,
null,are marrying each other,,html-keyboard-response,134,525494,0.0-15.0-2.1,95925,List1B,white,man,,,,null,,,,
7326,,,survey-text,135,532824,0.0-15.0-3.1,95925,List1B,white,man,,,,,"{""Q0"":""Luke is marrying Jane""}","<img src=""stim_listB/marry4.gif""</stim_listB>",are marrying each other,
null,"<div style=""font-size:60px;"">+</div>",,html-keyboard-response,136,533339,0.0-15.0-0.2,95925,List1B,white,man,,,,null,,,,
null,"<img src=""stim_listB/hug2.gif""</stim_listB>",,html-keyboard-response,137,535346,0.0-15.0-1.2,95925,List1B,white,man,,,,null,,,,
null,are hugging each other,,html-keyboard-response,138,537362,0.0-15.0-2.2,95925,List1B,white,man,,,,null,,,,
10144,,,survey-text,139,547510,0.0-15.0-3.2,95925,List1B,white,man,,,,,"{""Q0"":""Mike is hugging Kate""}","<img src=""stim_listB/hug2.gif""</stim_listB>",are hugging each other,
null,"<div style=""font-size:60px;"">+</div>",,html-keyboard-response,140,548024,0.0-15.0-0.3,95925,List1B,white,man,,,,null,,,,
null,"<img src=""stim_listB/shout1.gif""</stim_listB>",,html-keyboard-response,141,550038,0.0-15.0-1.3,95925,List1B,white,man,,,,null,,,,
null,is shouting at,,html-keyboard-response,142,552041,0.0-15.0-2.3,95925,List1B,white,man,,,,null,,,,
8866,,,survey-text,143,560910,0.0-15.0-3.3,95925,List1B,white,man,,,,,"{""Q0"":""Beth is shouting at Fred""}","<img src=""stim_listB/shout1.gif""</stim_listB>",is shouting at,
null,"<div style=""font-size:60px;"">+</div>",,html-keyboard-response,144,561424,0.0-15.0-0.4,95925,List1B,white,man,,,,null,,,,
null,"<img src=""stim_listB/meet8.gif""</stim_listB>",,html-keyboard-response,145,563438,0.0-15.0-1.4,95925,List1B,white,man,,,,null,,,,
null,are meeting each other,,html-keyboard-response,146,565447,0.0-15.0-2.4,95925,List1B,white,man,,,,null,,,,
6300,,,survey-text,147,571750,0.0-15.0-3.4,95925,List1B,white,man,,,,,"{""Q0"":""Beth and Ruth""}","<img src=""stim_listB/meet8.gif""</stim_listB>",are meeting each other,
null,"<div style=""font-size:60px;"">+</div>",,html-keyboard-response,148,572264,0.0-15.0-0.5,95925,List1B,white,man,,,,null,,,,
null,"<img src=""stim_listB/marry7.gif""</stim_listB>",,html-keyboard-response,149,574289,0.0-15.0-1.5,95925,List1B,white,man,,,,null,,,,
null,is marrying,,html-keyboard-response,150,576278,0.0-15.0-2.5,95925,List1B,white,man,,,,null,,,,
6004,,,survey-text,151,582283,0.0-15.0-3.5,95925,List1B,white,man,,,,,"{""Q0"":""Kate and Ruth""}","<img src=""stim_listB/marry7.gif""</stim_listB>",is marrying,
null,"<div style=""font-size:60px;"">+</div>",,html-keyboard-response,152,582808,0.0-15.0-0.6,95925,List1B,white,man,,,,null,,,,
null,"<img src=""stim_listB/talk4.gif""</stim_listB>",,html-keyboard-response,153,584826,0.0-15.0-1.6,95925,List1B,white,man,,,,null,,,,
null,are talking to each other,,html-keyboard-response,154,586829,0.0-15.0-2.6,95925,List1B,white,man,,,,null,,,,
6706,,,survey-text,155,593537,0.0-15.0-3.6,95925,List1B,white,man,,,,,"{""Q0"":""Dave and Ruth""}","<img src=""stim_listB/talk4.gif""</stim_listB>",are talking to each other,
null,"<div style=""font-size:60px;"">+</div>",,html-keyboard-response,156,594051,0.0-15.0-0.7,95925,List1B,white,man,,,,null,,,,
null,"<img src=""stim_listB/kiss6.gif""</stim_listB>",,html-keyboard-response,157,596078,0.0-15.0-1.7,95925,List1B,white,man,,,,null,,,,
null,are kissing each other,,html-keyboard-response,158,598075,0.0-15.0-2.7,95925,List1B,white,man,,,,null,,,,
5933,,,survey-text,159,604010,0.0-15.0-3.7,95925,List1B,white,man,,,,,"{""Q0"":""Mike and Dave""}","<img src=""stim_listB/kiss6.gif""</stim_listB>",are kissing each other,
null,"<div style=""font-size:60px;"">+</div>",,html-keyboard-response,160,604526,0.0-15.0-0.8,95925,List1B,white,man,,,,null,,,,
null,"<img src=""stim_listB/meet7.gif""</stim_listB>",,html-keyboard-response,161,606526,0.0-15.0-1.8,95925,List1B,white,man,,,,null,,,,
null,is meeting,,html-keyboard-response,162,608543,0.0-15.0-2.8,95925,List1B,white,man,,,,null,,,,
8685,,,survey-text,163,617230,0.0-15.0-3.8,95925,List1B,white,man,,,,,"{""Q0"":""Jane and Kate""}","<img src=""stim_listB/meet7.gif""</stim_listB>",is meeting,
null,"<div style=""font-size:60px;"">+</div>",,html-keyboard-response,164,617743,0.0-15.0-0.9,95925,List1B,white,man,,,,null,,,,
null,"<img src=""stim_listB/dance6.gif""</stim_listB>",,html-keyboard-response,165,619759,0.0-15.0-1.9,95925,List1B,white,man,,,,null,,,,
null,are dancing with each other,,html-keyboard-response,166,621759,0.0-15.0-2.9,95925,List1B,white,man,,,,null,,,,
6504,,,survey-text,167,628265,0.0-15.0-3.9,95925,List1B,white,man,,,,,"{""Q0"":""Mike and Luke""}","<img src=""stim_listB/dance6.gif""</stim_listB>",are dancing with each other,
null,"<div style=""font-size:60px;"">+</div>",,html-keyboard-response,168,628786,0.0-15.0-0.10,95925,List1B,white,man,,,,null,,,,
null,"<img src=""stim_listB/shout8.gif""</stim_listB>",,html-keyboard-response,169,630805,0.0-15.0-1.10,95925,List1B,white,man,,,,null,,,,
null,are shouting at each other,,html-keyboard-response,170,632797,0.0-15.0-2.10,95925,List1B,white,man,,,,null,,,,
5113,,,survey-text,171,637911,0.0-15.0-3.10,95925,List1B,white,man,,,,,"{""Q0"":""Kate and Jane""}","<img src=""stim_listB/shout8.gif""</stim_listB>",are shouting at each other,
null,"<div style=""font-size:60px;"">+</div>",,html-keyboard-response,172,638426,0.0-15.0-0.11,95925,List1B,white,man,,,,null,,,,
null,"<img src=""stim_listB/shout2.gif""</stim_listB>",,html-keyboard-response,173,640452,0.0-15.0-1.11,95925,List1B,white,man,,,,null,,,,
null,are shouting at each other,,html-keyboard-response,174,642445,0.0-15.0-2.11,95925,List1B,white,man,,,,null,,,,
5828,,,survey-text,175,648274,0.0-15.0-3.11,95925,List1B,white,man,,,,,"{""Q0"":""Kate and Mike""}","<img src=""stim_listB/shout2.gif""</stim_listB>",are shouting at each other,
null,"<div style=""font-size:60px;"">+</div>",,html-keyboard-response,176,648791,0.0-15.0-0.12,95925,List1B,white,man,,,,null,,,,
null,"<img src=""stim_listB/fight3.gif""</stim_listB>",,html-keyboard-response,177,650811,0.0-15.0-1.12,95925,List1B,white,man,,,,null,,,,
null,is fighting,,html-keyboard-response,178,652808,0.0-15.0-2.12,95925,List1B,white,man,,,,null,,,,
4938,,,survey-text,179,657748,0.0-15.0-3.12,95925,List1B,white,man,,,,,"{""Q0"":""Dave and Jane""}","<img src=""stim_listB/fight3.gif""</stim_listB>",is fighting,
null,"<div style=""font-size:60px;"">+</div>",,html-keyboard-response,180,658265,0.0-15.0-0.13,95925,List1B,white,man,,,,null,,,,
null,"<img src=""stim_listB/touch1.gif""</stim_listB>",,html-keyboard-response,181,660284,0.0-15.0-1.13,95925,List1B,white,man,,,,null,,,,
null,is touching,,html-keyboard-response,182,662267,0.0-15.0-2.13,95925,List1B,white,man,,,,null,,,,
5094,,,survey-text,183,667364,0.0-15.0-3.13,95925,List1B,white,man,,,,,"{""Q0"":""Mike and Kate""}","<img src=""stim_listB/touch1.gif""</stim_listB>",is touching,
null,"<div style=""font-size:60px;"">+</div>",,html-keyboard-response,184,667870,0.0-15.0-0.14,95925,List1B,white,man,,,,null,,,,
null,"<img src=""stim_listB/fight8.gif""</stim_listB>",,html-keyboard-response,185,669894,0.0-15.0-1.14,95925,List1B,white,man,,,,null,,,,
null,are fighting each other,,html-keyboard-response,186,671900,0.0-15.0-2.14,95925,List1B,white,man,,,,null,,,,
6097,,,survey-text,187,678000,0.0-15.0-3.14,95925,List1B,white,man,,,,,"{""Q0"":""Beth and Ruth""}","<img src=""stim_listB/fight8.gif""</stim_listB>",are fighting each other,
null,"<div style=""font-size:60px;"">+</div>",,html-keyboard-response,188,678526,0.0-15.0-0.15,95925,List1B,white,man,,,,null,,,,
null,"<img src=""stim_listB/marry2.gif""</stim_listB>",,html-keyboard-response,189,680544,0.0-15.0-1.15,95925,List1B,white,man,,,,null,,,,
null,are marrying each other,,html-keyboard-response,190,682537,0.0-15.0-2.15,95925,List1B,white,man,,,,null,,,,
5601,,,survey-text,191,688142,0.0-15.0-3.15,95925,List1B,white,man,,,,,"{""Q0"":""Kate and Fred""}","<img src=""stim_listB/marry2.gif""</stim_listB>",are marrying each other,
null,"<div style=""font-size:60px;"">+</div>",,html-keyboard-response,192,688656,0.0-15.0-0.16,95925,List1B,white,man,,,,null,,,,
null,"<img src=""stim_listB/touch7.gif""</stim_listB>",,html-keyboard-response,193,690664,0.0-15.0-1.16,95925,List1B,white,man,,,,null,,,,
null,is touching,,html-keyboard-response,194,692669,0.0-15.0-2.16,95925,List1B,white,man,,,,null,,,,
5226,,,survey-text,195,697896,0.0-15.0-3.16,95925,List1B,white,man,,,,,"{""Q0"":""Jane and Kate""}","<img src=""stim_listB/touch7.gif""</stim_listB>",is touching,
null,"<div style=""font-size:60px;"">+</div>",,html-keyboard-response,196,698431,0.0-15.0-0.17,95925,List1B,white,man,,,,null,,,,
null,"<img src=""stim_listB/fight1.gif""</stim_listB>",,html-keyboard-response,197,700453,0.0-15.0-1.17,95925,List1B,white,man,,,,null,,,,
null,is fighting,,html-keyboard-response,198,702440,0.0-15.0-2.17,95925,List1B,white,man,,,,null,,,,
7529,,,survey-text,199,709969,0.0-15.0-3.17,95925,List1B,white,man,,,,,"{""Q0"":""Kate and Mike are fighting""}","<img src=""stim_listB/fight1.gif""</stim_listB>",is fighting,
null,"<div style=""font-size:60px;"">+</div>",,html-keyboard-response,200,710483,0.0-15.0-0.18,95925,List1B,white,man,,,,null,,,,
null,"<img src=""stim_listB/argue3.gif""</stim_listB>",,html-keyboard-response,201,712499,0.0-15.0-1.18,95925,List1B,white,man,,,,null,,,,
null,is arguing with,,html-keyboard-response,202,714507,0.0-15.0-2.18,95925,List1B,white,man,,,,null,,,,
7854,,,survey-text,203,722365,0.0-15.0-3.18,95925,List1B,white,man,,,,,"{""Q0"":""Ruth is Arguing with Dave""}","<img src=""stim_listB/argue3.gif""</stim_listB>",is arguing with,
null,"<div style=""font-size:60px;"">+</div>",,html-keyboard-response,204,722886,0.0-15.0-0.19,95925,List1B,white,man,,,,null,,,,
null,"<img src=""stim_listB/dance4.gif""</stim_listB>",,html-keyboard-response,205,724900,0.0-15.0-1.19,95925,List1B,white,man,,,,null,,,,
null,are dancing with each other,,html-keyboard-response,206,726905,0.0-15.0-2.19,95925,List1B,white,man,,,,null,,,,
13163,,,survey-text,207,740069,0.0-15.0-3.19,95925,List1B,white,man,,,,,"{""Q0"":""Ruth and Dave are Dancing with Eacjh Other""}","<img src=""stim_listB/dance4.gif""</stim_listB>",are dancing with each other,
5244,"<img src='img/portrait_matrix_list1.JPG' style='width:900px;height:500px;''></img><p>If you have memorised all the portraits and names and are ready to start, press Continue.</p><p><strong>Please note: Your memory of these faces will be tested 4 times during this experiment.</strong></p>",0,html-button-response,208,745316,0.0-16.0-0.0,95925,List1B,white,man,,,,,,,,
3188,"<img src=""portrait/BM1.jpg""style=""width:400px;height:400px;""></img>",4,html-button-response,209,749523,0.0-16.0-1.0,95925,List1B,white,man,,TRUE,4,,,,,
null,CORRECT,,html-keyboard-response,210,751040,0.0-16.0-2.0-0.0,95925,List1B,white,man,,,,null,,,,
2364,"<img src=""portrait/WW2.jpg""style=""width:400px;height:400px;""></img>",3,html-button-response,211,753405,0.0-16.0-4.0,95925,List1B,white,man,,TRUE,3,,,,,
null,CORRECT,,html-keyboard-response,212,754929,0.0-16.0-5.0-0.0,95925,List1B,white,man,,,,null,,,,
4103,"<img src=""portrait/WW1.jpg""style=""width:400px;height:400px;""></img>",1,html-button-response,213,759036,0.0-16.0-7.0,95925,List1B,white,man,,TRUE,1,,,,,
null,CORRECT,,html-keyboard-response,214,760575,0.0-16.0-8.0-0.0,95925,List1B,white,man,,,,null,,,,
3971,"<img src=""portrait/BM2.jpg""style=""width:400px;height:400px;""></img>",5,html-button-response,215,764548,0.0-16.0-10.0,95925,List1B,white,man,,TRUE,5,,,,,
null,CORRECT,,html-keyboard-response,216,766074,0.0-16.0-11.0-0.0,95925,List1B,white,man,,,,null,,,,
2940,"<img src=""portrait/BW1.jpg""style=""width:400px;height:400px;""></img>",0,html-button-response,217,769018,0.0-16.0-13.0,95925,List1B,white,man,,TRUE,0,,,,,
null,CORRECT,,html-keyboard-response,218,770548,0.0-16.0-14.0-0.0,95925,List1B,white,man,,,,null,,,,
3633,"<img src=""portrait/WM1.jpg""style=""width:400px;height:400px;""></img>",6,html-button-response,219,774183,0.0-16.0-16.0,95925,List1B,white,man,,TRUE,6,,,,,
null,CORRECT,,html-keyboard-response,220,775727,0.0-16.0-17.0-0.0,95925,List1B,white,man,,,,null,,,,
7285,"<img src=""portrait/WM2.jpg""style=""width:400px;height:400px;""></img>",7,html-button-response,221,783015,0.0-16.0-19.0,95925,List1B,white,man,,TRUE,7,,,,,
null,CORRECT,,html-keyboard-response,222,784548,0.0-16.0-20.0-0.0,95925,List1B,white,man,,,,null,,,,
2944,"<img src=""portrait/BW2.jpg""style=""width:400px;height:400px;""></img>",2,html-button-response,223,787494,0.0-16.0-22.0,95925,List1B,white,man,,TRUE,2,,,,,
null,CORRECT,,html-keyboard-response,224,789032,0.0-16.0-23.0-0.0,95925,List1B,white,man,,,,null,,,,
4211,<p>You got 8 out of 8 right first time. Press Continue.</p>,0,html-button-response,225,793247,0.0-16.0-25.0,95925,List1B,white,man,,,,,,,,
null,"<div style=""font-size:60px;"">+</div>",,html-keyboard-response,226,795029,0.0-17.0-0.0,95925,List1B,white,man,,,,null,,,,
null,"<img src=""stim_listB/hug3.gif""</stim_listB>",,html-keyboard-response,227,797776,0.0-17.0-1.0,95925,List1B,white,man,,,,null,,,,
null,is hugging,,html-keyboard-response,228,799775,0.0-17.0-2.0,95925,List1B,white,man,,,,null,,,,
7574,,,survey-text,229,807351,0.0-17.0-3.0,95925,List1B,white,man,,,,,"{""Q0"":""Jane and Mike""}","<img src=""stim_listB/hug3.gif""</stim_listB>",is hugging,
null,"<div style=""font-size:60px;"">+</div>",,html-keyboard-response,230,807875,0.0-17.0-0.1,95925,List1B,white,man,,,,null,,,,
null,"<img src=""stim_listB/argue7.gif""</stim_listB>",,html-keyboard-response,231,809894,0.0-17.0-1.1,95925,List1B,white,man,,,,null,,,,
null,is arguing with,,html-keyboard-response,232,811889,0.0-17.0-2.1,95925,List1B,white,man,,,,null,,,,
5209,,,survey-text,233,817103,0.0-17.0-3.1,95925,List1B,white,man,,,,,"{""Q0"":""Kate and Ruth""}","<img src=""stim_listB/argue7.gif""</stim_listB>",is arguing with,
null,"<div style=""font-size:60px;"">+</div>",,html-keyboard-response,234,817610,0.0-17.0-0.2,95925,List1B,white,man,,,,null,,,,
null,"<img src=""stim_listB/hug6.gif""</stim_listB>",,html-keyboard-response,235,819627,0.0-17.0-1.2,95925,List1B,white,man,,,,null,,,,
null,are hugging each other,,html-keyboard-response,236,821624,0.0-17.0-2.2,95925,List1B,white,man,,,,null,,,,
6546,,,survey-text,237,828171,0.0-17.0-3.2,95925,List1B,white,man,,,,,"{""Q0"":""Mike and Dave""}","<img src=""stim_listB/hug6.gif""</stim_listB>",are hugging each other,
null,"<div style=""font-size:60px;"">+</div>",,html-keyboard-response,238,828681,0.0-17.0-0.3,95925,List1B,white,man,,,,null,,,,
null,"<img src=""stim_listB/kiss5.gif""</stim_listB>",,html-keyboard-response,239,830699,0.0-17.0-1.3,95925,List1B,white,man,,,,null,,,,
null,is kissing,,html-keyboard-response,240,832715,0.0-17.0-2.3,95925,List1B,white,man,,,,null,,,,
7487,,,survey-text,241,840202,0.0-17.0-3.3,95925,List1B,white,man,,,,,"{""Q0"":""Fred and Luke are Kissing""}","<img src=""stim_listB/kiss5.gif""</stim_listB>",is kissing,
null,"<div style=""font-size:60px;"">+</div>",,html-keyboard-response,242,840711,0.0-17.0-0.4,95925,List1B,white,man,,,,null,,,,
null,"<img src=""stim_listB/talk1.gif""</stim_listB>",,html-keyboard-response,243,842728,0.0-17.0-1.4,95925,List1B,white,man,,,,null,,,,
null,is talking to,,html-keyboard-response,244,844742,0.0-17.0-2.4,95925,List1B,white,man,,,,null,,,,
6946,,,survey-text,245,851689,0.0-17.0-3.4,95925,List1B,white,man,,,,,"{""Q0"":""Kate is talking to Fred""}","<img src=""stim_listB/talk1.gif""</stim_listB>",is talking to,
null,"<div style=""font-size:60px;"">+</div>",,html-keyboard-response,246,852205,0.0-17.0-0.5,95925,List1B,white,man,,,,null,,,,
null,"<img src=""stim_listB/meet5.gif""</stim_listB>",,html-keyboard-response,247,854213,0.0-17.0-1.5,95925,List1B,white,man,,,,null,,,,
null,is meeting,,html-keyboard-response,248,856216,0.0-17.0-2.5,95925,List1B,white,man,,,,null,,,,
7422,,,survey-text,249,863638,0.0-17.0-3.5,95925,List1B,white,man,,,,,"{""Q0"":""Dave is meeting Mike""}","<img src=""stim_listB/meet5.gif""</stim_listB>",is meeting,
null,"<div style=""font-size:60px;"">+</div>",,html-keyboard-response,250,864161,0.0-17.0-0.6,95925,List1B,white,man,,,,null,,,,
null,"<img src=""stim_listB/kiss7.gif""</stim_listB>",,html-keyboard-response,251,866173,0.0-17.0-1.6,95925,List1B,white,man,,,,null,,,,
null,is kissing,,html-keyboard-response,252,868180,0.0-17.0-2.6,95925,List1B,white,man,,,,null,,,,
7948,,,survey-text,253,876130,0.0-17.0-3.6,95925,List1B,white,man,,,,,"{""Q0"":""Beth is kissing ruth""}","<img src=""stim_listB/kiss7.gif""</stim_listB>",is kissing,
null,"<div style=""font-size:60px;"">+</div>",,html-keyboard-response,254,876650,0.0-17.0-0.7,95925,List1B,white,man,,,,null,,,,
null,"<img src=""stim_listB/hug4.gif""</stim_listB>",,html-keyboard-response,255,878662,0.0-17.0-1.7,95925,List1B,white,man,,,,null,,,,
null,are hugging each other,,html-keyboard-response,256,880650,0.0-17.0-2.7,95925,List1B,white,man,,,,null,,,,
9210,,,survey-text,257,889862,0.0-17.0-3.7,95925,List1B,white,man,,,,,"{""Q0"":""Jane is hugging dave""}","<img src=""stim_listB/hug4.gif""</stim_listB>",are hugging each other,
null,"<div style=""font-size:60px;"">+</div>",,html-keyboard-response,258,890375,0.0-17.0-0.8,95925,List1B,white,man,,,,null,,,,
null,"<img src=""stim_listB/argue6.gif""</stim_listB>",,html-keyboard-response,259,892407,0.0-17.0-1.8,95925,List1B,white,man,,,,null,,,,
null,are arguing with each other,,html-keyboard-response,260,894402,0.0-17.0-2.8,95925,List1B,white,man,,,,null,,,,
5395,,,survey-text,261,899799,0.0-17.0-3.8,95925,List1B,white,man,,,,,"{""Q0"":""Dave and Fred""}","<img src=""stim_listB/argue6.gif""</stim_listB>",are arguing with each other,
null,"<div style=""font-size:60px;"">+</div>",,html-keyboard-response,262,900321,0.0-17.0-0.9,95925,List1B,white,man,,,,null,,,,
null,"<img src=""stim_listB/marry1.gif""</stim_listB>",,html-keyboard-response,263,902334,0.0-17.0-1.9,95925,List1B,white,man,,,,null,,,,
null,is marrying,,html-keyboard-response,264,904340,0.0-17.0-2.9,95925,List1B,white,man,,,,null,,,,
7305,,,survey-text,265,911650,0.0-17.0-3.9,95925,List1B,white,man,,,,,"{""Q0"":""Mike is marrying beth""}","<img src=""stim_listB/marry1.gif""</stim_listB>",is marrying,
null,"<div style=""font-size:60px;"">+</div>",,html-keyboard-response,266,912167,0.0-17.0-0.10,95925,List1B,white,man,,,,null,,,,
null,"<img src=""stim_listB/hug7.gif""</stim_listB>",,html-keyboard-response,267,914194,0.0-17.0-1.10,95925,List1B,white,man,,,,null,,,,
null,is hugging,,html-keyboard-response,268,916186,0.0-17.0-2.10,95925,List1B,white,man,,,,null,,,,
5046,,,survey-text,269,921234,0.0-17.0-3.10,95925,List1B,white,man,,,,,"{""Q0"":""Ruth and Beth""}","<img src=""stim_listB/hug7.gif""</stim_listB>",is hugging,
null,"<div style=""font-size:60px;"">+</div>",,html-keyboard-response,270,921753,0.0-17.0-0.11,95925,List1B,white,man,,,,null,,,,
null,"<img src=""stim_listB/shout4.gif""</stim_listB>",,html-keyboard-response,271,923759,0.0-17.0-1.11,95925,List1B,white,man,,,,null,,,,
null,are shouting at each other,,html-keyboard-response,272,925775,0.0-17.0-2.11,95925,List1B,white,man,,,,null,,,,
6709,,,survey-text,273,932486,0.0-17.0-3.11,95925,List1B,white,man,,,,,"{""Q0"":""Jane nd Dave""}","<img src=""stim_listB/shout4.gif""</stim_listB>",are shouting at each other,
null,"<div style=""font-size:60px;"">+</div>",,html-keyboard-response,274,932994,0.0-17.0-0.12,95925,List1B,white,man,,,,null,,,,
null,"<img src=""stim_listB/kiss2.gif""</stim_listB>",,html-keyboard-response,275,935010,0.0-17.0-1.12,95925,List1B,white,man,,,,null,,,,
null,are kissing each other,,html-keyboard-response,276,937003,0.0-17.0-2.12,95925,List1B,white,man,,,,null,,,,
6239,,,survey-text,277,943245,0.0-17.0-3.12,95925,List1B,white,man,,,,,"{""Q0"":""Mike is kissing Kate""}","<img src=""stim_listB/kiss2.gif""</stim_listB>",are kissing each other,
null,"<div style=""font-size:60px;"">+</div>",,html-keyboard-response,278,943770,0.0-17.0-0.13,95925,List1B,white,man,,,,null,,,,
null,"<img src=""stim_listB/argue8.gif""</stim_listB>",,html-keyboard-response,279,945781,0.0-17.0-1.13,95925,List1B,white,man,,,,null,,,,
null,are arguing with each other,,html-keyboard-response,280,947791,0.0-17.0-2.13,95925,List1B,white,man,,,,null,,,,
6785,,,survey-text,281,954578,0.0-17.0-3.13,95925,List1B,white,man,,,,,"{""Q0"":""Jane and Beth""}","<img src=""stim_listB/argue8.gif""</stim_listB>",are arguing with each other,
null,"<div style=""font-size:60px;"">+</div>",,html-keyboard-response,282,955089,0.0-17.0-0.14,95925,List1B,white,man,,,,null,,,,
null,"<img src=""stim_listB/argue5.gif""</stim_listB>",,html-keyboard-response,283,957122,0.0-17.0-1.14,95925,List1B,white,man,,,,null,,,,
null,is arguing with,,html-keyboard-response,284,959105,0.0-17.0-2.14,95925,List1B,white,man,,,,null,,,,
5492,,,survey-text,285,964598,0.0-17.0-3.14,95925,List1B,white,man,,,,,"{""Q0"":""Mike and Beth""}","<img src=""stim_listB/argue5.gif""</stim_listB>",is arguing with,
null,"<div style=""font-size:60px;"">+</div>",,html-keyboard-response,286,965121,0.0-17.0-0.15,95925,List1B,white,man,,,,null,,,,
null,"<img src=""stim_listB/argue1.gif""</stim_listB>",,html-keyboard-response,287,967138,0.0-17.0-1.15,95925,List1B,white,man,,,,null,,,,
null,is arguing with,,html-keyboard-response,288,969124,0.0-17.0-2.15,95925,List1B,white,man,,,,null,,,,
6501,,,survey-text,289,975629,0.0-17.0-3.15,95925,List1B,white,man,,,,,"{""Q0"":""Beth and Mike""}","<img src=""stim_listB/argue1.gif""</stim_listB>",is arguing with,
null,"<div style=""font-size:60px;"">+</div>",,html-keyboard-response,290,976137,0.0-17.0-0.16,95925,List1B,white,man,,,,null,,,,
null,"<img src=""stim_listB/hug1.gif""</stim_listB>",,html-keyboard-response,291,978138,0.0-17.0-1.16,95925,List1B,white,man,,,,null,,,,
null,is hugging,,html-keyboard-response,292,980138,0.0-17.0-2.16,95925,List1B,white,man,,,,null,,,,
5507,,,survey-text,293,985648,0.0-17.0-3.16,95925,List1B,white,man,,,,,"{""Q0"":""Beth and Fred""}","<img src=""stim_listB/hug1.gif""</stim_listB>",is hugging,
null,"<div style=""font-size:60px;"">+</div>",,html-keyboard-response,294,986157,0.0-17.0-0.17,95925,List1B,white,man,,,,null,,,,
null,"<img src=""stim_listB/meet3.gif""</stim_listB>",,html-keyboard-response,295,988178,0.0-17.0-1.17,95925,List1B,white,man,,,,null,,,,
null,is meeting,,html-keyboard-response,296,990186,0.0-17.0-2.17,95925,List1B,white,man,,,,null,,,,
7991,,,survey-text,297,998180,0.0-17.0-3.17,95925,List1B,white,man,,,,,"{""Q0"":""Dave is meeting Jane""}","<img src=""stim_listB/meet3.gif""</stim_listB>",is meeting,
null,"<div style=""font-size:60px;"">+</div>",,html-keyboard-response,298,998689,0.0-17.0-0.18,95925,List1B,white,man,,,,null,,,,
null,"<img src=""stim_listB/dance5.gif""</stim_listB>",,html-keyboard-response,299,1000705,0.0-17.0-1.18,95925,List1B,white,man,,,,null,,,,
null,is dancing with,,html-keyboard-response,300,1002697,0.0-17.0-2.18,95925,List1B,white,man,,,,null,,,,
5640,,,survey-text,301,1008340,0.0-17.0-3.18,95925,List1B,white,man,,,,,"{""Q0"":""Fred and Dave""}","<img src=""stim_listB/dance5.gif""</stim_listB>",is dancing with,
null,"<div style=""font-size:60px;"">+</div>",,html-keyboard-response,302,1008861,0.0-17.0-0.19,95925,List1B,white,man,,,,null,,,,
null,"<img src=""stim_listB/kiss8.gif""</stim_listB>",,html-keyboard-response,303,1010870,0.0-17.0-1.19,95925,List1B,white,man,,,,null,,,,
null,are kissing each other,,html-keyboard-response,304,1012876,0.0-17.0-2.19,95925,List1B,white,man,,,,null,,,,
7184,,,survey-text,305,1020062,0.0-17.0-3.19,95925,List1B,white,man,,,,,"{""Q0"":""Brth and Jane""}","<img src=""stim_listB/kiss8.gif""</stim_listB>",are kissing each other,
6175,"<img src='img/portrait_matrix_list1.JPG' style='width:900px;height:500px;''></img><p>If you have memorised all the portraits and names and are ready to start, press Continue.</p><p><strong>Please note: Your memory of these faces will be tested 4 times during this experiment.</strong></p>",0,html-button-response,306,1026240,0.0-18.0-0.0,95925,List1B,white,man,,,,,,,,
9444,"<img src=""portrait/BW1.jpg""style=""width:400px;height:400px;""></img>",0,html-button-response,307,1036689,0.0-18.0-1.0,95925,List1B,white,man,,TRUE,0,,,,,
null,CORRECT,,html-keyboard-response,308,1038225,0.0-18.0-2.0-0.0,95925,List1B,white,man,,,,null,,,,
3002,"<img src=""portrait/BM1.jpg""style=""width:400px;height:400px;""></img>",4,html-button-response,309,1041229,0.0-18.0-4.0,95925,List1B,white,man,,TRUE,4,,,,,
null,CORRECT,,html-keyboard-response,310,1042766,0.0-18.0-5.0-0.0,95925,List1B,white,man,,,,null,,,,
3000,"<img src=""portrait/BM2.jpg""style=""width:400px;height:400px;""></img>",5,html-button-response,311,1045770,0.0-18.0-7.0,95925,List1B,white,man,,TRUE,5,,,,,
null,CORRECT,,html-keyboard-response,312,1047303,0.0-18.0-8.0-0.0,95925,List1B,white,man,,,,null,,,,
3357,"<img src=""portrait/WW2.jpg""style=""width:400px;height:400px;""></img>",3,html-button-response,313,1050662,0.0-18.0-10.0,95925,List1B,white,man,,TRUE,3,,,,,
null,CORRECT,,html-keyboard-response,314,1052187,0.0-18.0-11.0-0.0,95925,List1B,white,man,,,,null,,,,
4095,"<img src=""portrait/WW1.jpg""style=""width:400px;height:400px;""></img>",1,html-button-response,315,1056284,0.0-18.0-13.0,95925,List1B,white,man,,TRUE,1,,,,,
null,CORRECT,,html-keyboard-response,316,1057814,0.0-18.0-14.0-0.0,95925,List1B,white,man,,,,null,,,,
3685,"<img src=""portrait/WM1.jpg""style=""width:400px;height:400px;""></img>",6,html-button-response,317,1061501,0.0-18.0-16.0,95925,List1B,white,man,,TRUE,6,,,,,
null,CORRECT,,html-keyboard-response,318,1063045,0.0-18.0-17.0-0.0,95925,List1B,white,man,,,,null,,,,
2772,"<img src=""portrait/BW2.jpg""style=""width:400px;height:400px;""></img>",2,html-button-response,319,1065819,0.0-18.0-19.0,95925,List1B,white,man,,TRUE,2,,,,,
null,CORRECT,,html-keyboard-response,320,1067364,0.0-18.0-20.0-0.0,95925,List1B,white,man,,,,null,,,,
3507,"<img src=""portrait/WM2.jpg""style=""width:400px;height:400px;""></img>",7,html-button-response,321,1070874,0.0-18.0-22.0,95925,List1B,white,man,,TRUE,7,,,,,
null,CORRECT,,html-keyboard-response,322,1072414,0.0-18.0-23.0-0.0,95925,List1B,white,man,,,,null,,,,
1813,<p>You got 8 out of 8 right first time. Press Continue.</p>,0,html-button-response,323,1074230,0.0-18.0-25.0,95925,List1B,white,man,,,,,,,,
null,"<div style=""font-size:60px;"">+</div>",,html-keyboard-response,324,1075757,0.0-19.0-0.0,95925,List1B,white,man,,,,null,,,,
null,"<img src=""stim_listB/marry6.gif""</stim_listB>",,html-keyboard-response,325,1077786,0.0-19.0-1.0,95925,List1B,white,man,,,,null,,,,
null,are marrying each other,,html-keyboard-response,326,1079776,0.0-19.0-2.0,95925,List1B,white,man,,,,null,,,,
5832,,,survey-text,327,1085610,0.0-19.0-3.0,95925,List1B,white,man,,,,,"{""Q0"":""Fred and Dave""}","<img src=""stim_listB/marry6.gif""</stim_listB>",are marrying each other,
null,"<div style=""font-size:60px;"">+</div>",,html-keyboard-response,328,1086126,0.0-19.0-0.1,95925,List1B,white,man,,,,null,,,,
null,"<img src=""stim_listB/talk8.gif""</stim_listB>",,html-keyboard-response,329,1088144,0.0-19.0-1.1,95925,List1B,white,man,,,,null,,,,
null,are talking to each other,,html-keyboard-response,330,1090143,0.0-19.0-2.1,95925,List1B,white,man,,,,null,,,,
6205,,,survey-text,331,1096349,0.0-19.0-3.1,95925,List1B,white,man,,,,,"{""Q0"":""Luke and Jane""}","<img src=""stim_listB/talk8.gif""</stim_listB>",are talking to each other,
null,"<div style=""font-size:60px;"">+</div>",,html-keyboard-response,332,1096870,0.0-19.0-0.2,95925,List1B,white,man,,,,null,,,,
null,"<img src=""stim_listB/touch8.gif""</stim_listB>",,html-keyboard-response,333,1098888,0.0-19.0-1.2,95925,List1B,white,man,,,,null,,,,
null,are touching each other,,html-keyboard-response,334,1100888,0.0-19.0-2.2,95925,List1B,white,man,,,,null,,,,
7076,,,survey-text,335,1107966,0.0-19.0-3.2,95925,List1B,white,man,,,,,"{""Q0"":""Ruth and Luke""}","<img src=""stim_listB/touch8.gif""</stim_listB>",are touching each other,
null,"<div style=""font-size:60px;"">+</div>",,html-keyboard-response,336,1108489,0.0-19.0-0.3,95925,List1B,white,man,,,,null,,,,
null,"<img src=""stim_listB/talk5.gif""</stim_listB>",,html-keyboard-response,337,1110513,0.0-19.0-1.3,95925,List1B,white,man,,,,null,,,,
null,is talking to,,html-keyboard-response,338,1112511,0.0-19.0-2.3,95925,List1B,white,man,,,,null,,,,
6301,,,survey-text,339,1118814,0.0-19.0-3.3,95925,List1B,white,man,,,,,"{""Q0"":""Dave and Fred""}","<img src=""stim_listB/talk5.gif""</stim_listB>",is talking to,
null,"<div style=""font-size:60px;"">+</div>",,html-keyboard-response,340,1119335,0.0-19.0-0.4,95925,List1B,white,man,,,,null,,,,
null,"<img src=""stim_listB/fight6.gif""</stim_listB>",,html-keyboard-response,341,1121349,0.0-19.0-1.4,95925,List1B,white,man,,,,null,,,,
null,are fighting each other,,html-keyboard-response,342,1123356,0.0-19.0-2.4,95925,List1B,white,man,,,,null,,,,
5476,,,survey-text,343,1128835,0.0-19.0-3.4,95925,List1B,white,man,,,,,"{""Q0"":""Fred and Luke""}","<img src=""stim_listB/fight6.gif""</stim_listB>",are fighting each other,
null,"<div style=""font-size:60px;"">+</div>",,html-keyboard-response,344,1129359,0.0-19.0-0.5,95925,List1B,white,man,,,,null,,,,
null,"<img src=""stim_listB/shout3.gif""</stim_listB>",,html-keyboard-response,345,1131381,0.0-19.0-1.5,95925,List1B,white,man,,,,null,,,,
null,is shouting at,,html-keyboard-response,346,1133383,0.0-19.0-2.5,95925,List1B,white,man,,,,null,,,,
7546,,,survey-text,347,1140932,0.0-19.0-3.5,95925,List1B,white,man,,,,,"{""Q0"":""Luke and Mike""}","<img src=""stim_listB/shout3.gif""</stim_listB>",is shouting at,
null,"<div style=""font-size:60px;"">+</div>",,html-keyboard-response,348,1141454,0.0-19.0-0.6,95925,List1B,white,man,,,,null,,,,
null,"<img src=""stim_listB/shout6.gif""</stim_listB>",,html-keyboard-response,349,1143501,0.0-19.0-1.6,95925,List1B,white,man,,,,null,,,,
null,are shouting at each other,,html-keyboard-response,350,1145483,0.0-19.0-2.6,95925,List1B,white,man,,,,null,,,,
7669,,,survey-text,351,1153154,0.0-19.0-3.6,95925,List1B,white,man,,,,,"{""Q0"":""Mike is shouting at Dave""}","<img src=""stim_listB/shout6.gif""</stim_listB>",are shouting at each other,
null,"<div style=""font-size:60px;"">+</div>",,html-keyboard-response,352,1153674,0.0-19.0-0.7,95925,List1B,white,man,,,,null,,,,
null,"<img src=""stim_listB/dance7.gif""</stim_listB>",,html-keyboard-response,353,1155686,0.0-19.0-1.7,95925,List1B,white,man,,,,null,,,,
null,is dancing with,,html-keyboard-response,354,1157685,0.0-19.0-2.7,95925,List1B,white,man,,,,null,,,,
9173,,,survey-text,355,1166862,0.0-19.0-3.7,95925,List1B,white,man,,,,,"{""Q0"":""Beth is dancing with Jane""}","<img src=""stim_listB/dance7.gif""</stim_listB>",is dancing with,
null,"<div style=""font-size:60px;"">+</div>",,html-keyboard-response,356,1167377,0.0-19.0-0.8,95925,List1B,white,man,,,,null,,,,
null,"<img src=""stim_listB/dance3.gif""</stim_listB>",,html-keyboard-response,357,1169386,0.0-19.0-1.8,95925,List1B,white,man,,,,null,,,,
null,is dancing with,,html-keyboard-response,358,1171386,0.0-19.0-2.8,95925,List1B,white,man,,,,null,,,,
7021,,,survey-text,359,1178408,0.0-19.0-3.8,95925,List1B,white,man,,,,,"{""Q0"":""Luke is dancing with Jane""}","<img src=""stim_listB/dance3.gif""</stim_listB>",is dancing with,
null,"<div style=""font-size:60px;"">+</div>",,html-keyboard-response,360,1178929,0.0-19.0-0.9,95925,List1B,white,man,,,,null,,,,
null,"<img src=""stim_listB/touch5.gif""</stim_listB>",,html-keyboard-response,361,1180949,0.0-19.0-1.9,95925,List1B,white,man,,,,null,,,,
null,is touching,,html-keyboard-response,362,1182959,0.0-19.0-2.9,95925,List1B,white,man,,,,null,,,,
7013,,,survey-text,363,1189973,0.0-19.0-3.9,95925,List1B,white,man,,,,,"{""Q0"":""Mike is touching Dave""}","<img src=""stim_listB/touch5.gif""</stim_listB>",is touching,
null,"<div style=""font-size:60px;"">+</div>",,html-keyboard-response,364,1190501,0.0-19.0-0.10,95925,List1B,white,man,,,,null,,,,
null,"<img src=""stim_listB/argue4.gif""</stim_listB>",,html-keyboard-response,365,1192515,0.0-19.0-1.10,95925,List1B,white,man,,,,null,,,,
null,are arguing with each other,,html-keyboard-response,366,1194523,0.0-19.0-2.10,95925,List1B,white,man,,,,null,,,,
7640,,,survey-text,367,1202167,0.0-19.0-3.10,95925,List1B,white,man,,,,,"{""Q0"":""Jane is arguing with Luke""}","<img src=""stim_listB/argue4.gif""</stim_listB>",are arguing with each other,
null,"<div style=""font-size:60px;"">+</div>",,html-keyboard-response,368,1202688,0.0-19.0-0.11,95925,List1B,white,man,,,,null,,,,
null,"<img src=""stim_listB/kiss3.gif""</stim_listB>",,html-keyboard-response,369,1204705,0.0-19.0-1.11,95925,List1B,white,man,,,,null,,,,
null,is kissing,,html-keyboard-response,370,1206703,0.0-19.0-2.11,95925,List1B,white,man,,,,null,,,,
8122,,,survey-text,371,1214826,0.0-19.0-3.11,95925,List1B,white,man,,,,,"{""Q0"":""Luke is kissing Ruth""}","<img src=""stim_listB/kiss3.gif""</stim_listB>",is kissing,
null,"<div style=""font-size:60px;"">+</div>",,html-keyboard-response,372,1215348,0.0-19.0-0.12,95925,List1B,white,man,,,,null,,,,
null,"<img src=""stim_listB/touch2.gif""</stim_listB>",,html-keyboard-response,373,1217356,0.0-19.0-1.12,95925,List1B,white,man,,,,null,,,,
null,are touching each other,,html-keyboard-response,374,1219364,0.0-19.0-2.12,95925,List1B,white,man,,,,null,,,,
7402,,,survey-text,375,1226767,0.0-19.0-3.12,95925,List1B,white,man,,,,,"{""Q0"":""Fred is touching Beth""}","<img src=""stim_listB/touch2.gif""</stim_listB>",are touching each other,
null,"<div style=""font-size:60px;"">+</div>",,html-keyboard-response,376,1227278,0.0-19.0-0.13,95925,List1B,white,man,,,,null,,,,
null,"<img src=""stim_listB/talk3.gif""</stim_listB>",,html-keyboard-response,377,1229283,0.0-19.0-1.13,95925,List1B,white,man,,,,null,,,,
null,is talking to,,html-keyboard-response,378,1231303,0.0-19.0-2.13,95925,List1B,white,man,,,,null,,,,
7807,,,survey-text,379,1239112,0.0-19.0-3.13,95925,List1B,white,man,,,,,"{""Q0"":""Luke is talking to Jane""}","<img src=""stim_listB/talk3.gif""</stim_listB>",is talking to,
null,"<div style=""font-size:60px;"">+</div>",,html-keyboard-response,380,1239627,0.0-19.0-0.14,95925,List1B,white,man,,,,null,,,,
null,"<img src=""stim_listB/argue2.gif""</stim_listB>",,html-keyboard-response,381,1241641,0.0-19.0-1.14,95925,List1B,white,man,,,,null,,,,
null,are arguing with each other,,html-keyboard-response,382,1243640,0.0-19.0-2.14,95925,List1B,white,man,,,,null,,,,
8029,,,survey-text,383,1251670,0.0-19.0-3.14,95925,List1B,white,man,,,,,"{""Q0"":""Kate is arguing with Fred""}","<img src=""stim_listB/argue2.gif""</stim_listB>",are arguing with each other,
null,"<div style=""font-size:60px;"">+</div>",,html-keyboard-response,384,1252182,0.0-19.0-0.15,95925,List1B,white,man,,,,null,,,,
null,"<img src=""stim_listB/meet1.gif""</stim_listB>",,html-keyboard-response,385,1254211,0.0-19.0-1.15,95925,List1B,white,man,,,,null,,,,
null,is meeting,,html-keyboard-response,386,1256207,0.0-19.0-2.15,95925,List1B,white,man,,,,null,,,,
8773,,,survey-text,387,1264981,0.0-19.0-3.15,95925,List1B,white,man,,,,,"{""Q0"":""Mike is meeting Kate""}","<img src=""stim_listB/meet1.gif""</stim_listB>",is meeting,
null,"<div style=""font-size:60px;"">+</div>",,html-keyboard-response,388,1265491,0.0-19.0-0.16,95925,List1B,white,man,,,,null,,,,
null,"<img src=""stim_listB/kiss4.gif""</stim_listB>",,html-keyboard-response,389,1267510,0.0-19.0-1.16,95925,List1B,white,man,,,,null,,,,
null,are kissing each other,,html-keyboard-response,390,1269517,0.0-19.0-2.16,95925,List1B,white,man,,,,null,,,,
4986,,,survey-text,391,1274506,0.0-19.0-3.16,95925,List1B,white,man,,,,,"{""Q0"":""Jane and Dave""}","<img src=""stim_listB/kiss4.gif""</stim_listB>",are kissing each other,
null,"<div style=""font-size:60px;"">+</div>",,html-keyboard-response,392,1275023,0.0-19.0-0.17,95925,List1B,white,man,,,,null,,,,
null,"<img src=""stim_listB/dance1.gif""</stim_listB>",,html-keyboard-response,393,1277035,0.0-19.0-1.17,95925,List1B,white,man,,,,null,,,,
null,is dancing with,,html-keyboard-response,394,1279041,0.0-19.0-2.17,95925,List1B,white,man,,,,null,,,,
8597,,,survey-text,395,1287640,0.0-19.0-3.17,95925,List1B,white,man,,,,,"{""Q0"":""Kate is dancing with Fred""}","<img src=""stim_listB/dance1.gif""</stim_listB>",is dancing with,
null,"<div style=""font-size:60px;"">+</div>",,html-keyboard-response,396,1288156,0.0-19.0-0.18,95925,List1B,white,man,,,,null,,,,
null,"<img src=""stim_listB/talk7.gif""</stim_listB>",,html-keyboard-response,397,1290181,0.0-19.0-1.18,95925,List1B,white,man,,,,null,,,,
null,is talking to,,html-keyboard-response,398,1292176,0.0-19.0-2.18,95925,List1B,white,man,,,,null,,,,
7486,,,survey-text,399,1299663,0.0-19.0-3.18,95925,List1B,white,man,,,,,"{""Q0"":""Jane is talking to kate""}","<img src=""stim_listB/talk7.gif""</stim_listB>",is talking to,
null,"<div style=""font-size:60px;"">+</div>",,html-keyboard-response,400,1300182,0.0-19.0-0.19,95925,List1B,white,man,,,,null,,,,
null,"<img src=""stim_listB/marry3.gif""</stim_listB>",,html-keyboard-response,401,1302191,0.0-19.0-1.19,95925,List1B,white,man,,,,null,,,,
null,is marrying,,html-keyboard-response,402,1304197,0.0-19.0-2.19,95925,List1B,white,man,,,,null,,,,
10010,,,survey-text,403,1314208,0.0-19.0-3.19,95925,List1B,white,man,,,,,"{""Q0"":""Ruth is marrying Dave""}","<img src=""stim_listB/marry3.gif""</stim_listB>",is marrying,
2060,<p>Thank you for completing that task.</p><p>The final part of this session is a short questionnaire.</p><p>Press Continue.</p>,0,html-button-response,404,1316272,0.0-20.0,95925,List1B,white,man,,,,,,,,
18849,,,survey-text,405,1336143,0.0-21.0,95925,List1B,white,man,,,,,"{""Q0"":""36"",""Q1"":""British"",""Q2"":""British"",""Q3"":""England"",""Q4"":""White"",""Q5"":""Male""}",,,demographics
60513,,,survey-likert,406,1396664,0.0-22.0,95925,List1B,white,man,,,,,"{""Q0"":4,""Q1"":3,""Q2"":3,""Q3"":4,""Q4"":5,""Q5"":5,""Q6"":5,""Q7"":4,""Q8"":4,""Q9"":5,""Q10"":3,""Q11"":3,""Q12"":3,""Q13"":3}",,,likert_race
43676,,,survey-likert,407,1440348,0.0-23.0,95925,List1B,white,man,,,,,"{""Q0"":4,""Q1"":4,""Q2"":5,""Q3"":5,""Q4"":5,""Q5"":5,""Q6"":5,""Q7"":5,""Q8"":6,""Q9"":5,""Q10"":3,""Q11"":3,""Q12"":4,""Q13"":4}",,,likert_gender
13849,,,survey-text,408,1454202,0.0-24.0,95925,List1B,white,man,,,,,"{""Q0"":""ccc""}",,,worker_id
8564,,,external-html,409,1462907,0.0-25.0,95925,List1B,white,man,debrief.html,,,,,,,
