rt,stimulus,button_pressed,trial_type,trial_index,time_elapsed,internal_node_id,subject,list,ppt_race,ppt_gender,url,first_guess,correct,key_press,responses,image_type,phrase_type,test_part
2433,Welcome to the experiment. Press Continue to begin.,0,html-button-response,0,2449,0.0-0.0,96250,List1A,white,man,,,,,,,,
11473,,,external-html,1,15028,0.0-1.0,96250,List1A,white,man,consent.html,,,,,,,
12606,"<p>On the next page, you will see portraits of 8 people and their names.</p><p>Your first task is to take a few minutes to memorise the names of these people.</p><p>You will have to recall their names during the rest of the experiment, so it is</p><p>essential that you try to memorise these people and their names as best as you can.</p><br><p><strong>You will then be tested on your memory of these names and portraits.</strong></p><br><p>The experiment will start after you have completed this memory test.</p><br><p>Ready?</p>",0,html-button-response,2,27645,0.0-2.0,96250,List1A,white,man,,,,,,,,
80098,"<img src='img/portrait_matrix_list1.JPG' style='width:900px;height:500px;''></img><p>If you have memorised all the portraits and names and are ready to start, press Continue.</p><p><strong>Please note: Your memory of these faces will be tested 4 times during this experiment.</strong></p>",0,html-button-response,3,108763,0.0-3.0-0.0,96250,List1A,white,man,,,,,,,,
6512,"<img src=""portrait/BM2.jpg""style=""width:400px;height:400px;""></img>",5,html-button-response,4,116301,0.0-3.0-1.0,96250,List1A,white,man,,TRUE,5,,,,,
null,CORRECT,,html-keyboard-response,5,117835,0.0-3.0-2.0-0.0,96250,List1A,white,man,,,,null,,,,
5669,"<img src=""portrait/WW2.jpg""style=""width:400px;height:400px;""></img>",3,html-button-response,6,123510,0.0-3.0-4.0,96250,List1A,white,man,,TRUE,3,,,,,
null,CORRECT,,html-keyboard-response,7,125046,0.0-3.0-5.0-0.0,96250,List1A,white,man,,,,null,,,,
6520,"<img src=""portrait/BW1.jpg""style=""width:400px;height:400px;""></img>",0,html-button-response,8,131575,0.0-3.0-7.0,96250,List1A,white,man,,TRUE,0,,,,,
null,CORRECT,,html-keyboard-response,9,133116,0.0-3.0-8.0-0.0,96250,List1A,white,man,,,,null,,,,
2660,"<img src=""portrait/WM1.jpg""style=""width:400px;height:400px;""></img>",6,html-button-response,10,135784,0.0-3.0-10.0,96250,List1A,white,man,,TRUE,6,,,,,
null,CORRECT,,html-keyboard-response,11,137315,0.0-3.0-11.0-0.0,96250,List1A,white,man,,,,null,,,,
6461,"<img src=""portrait/WM2.jpg""style=""width:400px;height:400px;""></img>",7,html-button-response,12,143782,0.0-3.0-13.0,96250,List1A,white,man,,TRUE,7,,,,,
null,CORRECT,,html-keyboard-response,13,145319,0.0-3.0-14.0-0.0,96250,List1A,white,man,,,,null,,,,
6390,"<img src=""portrait/WW1.jpg""style=""width:400px;height:400px;""></img>",1,html-button-response,14,151718,0.0-3.0-16.0,96250,List1A,white,man,,TRUE,1,,,,,
null,CORRECT,,html-keyboard-response,15,153255,0.0-3.0-17.0-0.0,96250,List1A,white,man,,,,null,,,,
5478,"<img src=""portrait/BW2.jpg""style=""width:400px;height:400px;""></img>",2,html-button-response,16,158740,0.0-3.0-19.0,96250,List1A,white,man,,TRUE,2,,,,,
null,CORRECT,,html-keyboard-response,17,160264,0.0-3.0-20.0-0.0,96250,List1A,white,man,,,,null,,,,
8798,"<img src=""portrait/BM1.jpg""style=""width:400px;height:400px;""></img>",4,html-button-response,18,169067,0.0-3.0-22.0,96250,List1A,white,man,,TRUE,4,,,,,
null,CORRECT,,html-keyboard-response,19,170596,0.0-3.0-23.0-0.0,96250,List1A,white,man,,,,null,,,,
19153,<p>You got 8 out of 8 right first time. Press Continue.</p>,0,html-button-response,20,189758,0.0-3.0-25.0,96250,List1A,white,man,,,,,,,,
50610,"<p>In this experiment, you will view photographs of the people from the memory game interacting.</p><p>By using the <strong>exact</strong> phrase given <i>after</i> the photograph appears and recalling the correct names of the people in the photographs, form a sentence describing the interaction. You do not need to capitalise names.</p><p>Type your answer in the space provided. Please complete every sentence before moving onto the next trial.</p><p>You will only have a few seconds to memorise each given photograph and phrase before you can respond, so try your best to focus.</p><p>An example is given below. Press 'Continue' when you are ready.</p><img src='img/speaking_example_v2.jpg' style='width:800px;height:460px;''></img>",0,html-button-response,21,241402,0.0-4.0,96250,List1A,white,man,,,,,,,,
3821,"<p>Before the experiment starts, you will watch two example trials. Press 'Continue'.</p>",0,html-button-response,22,246240,0.0-5.0,96250,List1A,white,man,,,,,,,,
null,<img src='img/speaking_WW.gif'></img>,,html-keyboard-response,23,249268,0.0-6.0,96250,List1A,white,man,,,,null,,,,
null,<p>is speaking to</p>,,html-keyboard-response,24,251287,0.0-7.0,96250,List1A,white,man,,,,null,,,,
7796,<p><b>Answer:</b> kate is speaking to beth</p>,0,html-button-response,25,259088,0.0-8.0,96250,List1A,white,man,,,,,,,,
null,<img src='img/pointing_BM.gif'></img>,,html-keyboard-response,26,262124,0.0-9.0,96250,List1A,white,man,,,,null,,,,
null,<p>are pointing at each other</p>,,html-keyboard-response,27,264143,0.0-10.0,96250,List1A,white,man,,,,null,,,,
6758,<p><b>Answer:</b> luke and dave are pointing at each other</p>,0,html-button-response,28,270910,0.0-11.0,96250,List1A,white,man,,,,,,,,
7471,"<p>Ready to start the experiment?</p><br><p><strong>Remember to describe the picture using a full sentence,</strong></p><p><strong>that combines the names of the people with the given phrase.</strong></p><p><strong>If you do not do this correctly you will not be paid.</strong></p><p><strong> You do not need to capitalise names or use punctuation.</strong></p><br><p>Press 'Continue' to begin.</p>",0,html-button-response,29,279396,0.0-12.0,96250,List1A,white,man,,,,,,,,
null,"<div style=""font-size:60px;"">+</div>",,html-keyboard-response,30,280935,0.0-13.0-0.0,96250,List1A,white,man,,,,null,,,,
null,"<img src=""stim_listA/kiss4.gif""</stim_listA>",,html-keyboard-response,31,282944,0.0-13.0-1.0,96250,List1A,white,man,,,,null,,,,
null,are kissing each other,,html-keyboard-response,32,284964,0.0-13.0-2.0,96250,List1A,white,man,,,,null,,,,
10025,,,survey-text,33,294997,0.0-13.0-3.0,96250,List1A,white,man,,,,,"{""Q0"":""dave and jane kissing""}","<img src=""stim_listA/kiss4.gif""</stim_listA>",are kissing each other,
null,"<div style=""font-size:60px;"">+</div>",,html-keyboard-response,34,295507,0.0-13.0-0.1,96250,List1A,white,man,,,,null,,,,
null,"<img src=""stim_listA/dance4.gif""</stim_listA>",,html-keyboard-response,35,297527,0.0-13.0-1.1,96250,List1A,white,man,,,,null,,,,
null,are dancing with each other,,html-keyboard-response,36,299544,0.0-13.0-2.1,96250,List1A,white,man,,,,null,,,,
24079,,,survey-text,37,323627,0.0-13.0-3.1,96250,List1A,white,man,,,,,"{""Q0"":""ruth and dave dancing together""}","<img src=""stim_listA/dance4.gif""</stim_listA>",are dancing with each other,
null,"<div style=""font-size:60px;"">+</div>",,html-keyboard-response,38,324144,0.0-13.0-0.2,96250,List1A,white,man,,,,null,,,,
null,"<img src=""stim_listA/fight5.gif""</stim_listA>",,html-keyboard-response,39,326164,0.0-13.0-1.2,96250,List1A,white,man,,,,null,,,,
null,is fighting,,html-keyboard-response,40,328186,0.0-13.0-2.2,96250,List1A,white,man,,,,null,,,,
16685,,,survey-text,41,344876,0.0-13.0-3.2,96250,List1A,white,man,,,,,"{""Q0"":""mike and dave boxing""}","<img src=""stim_listA/fight5.gif""</stim_listA>",is fighting,
null,"<div style=""font-size:60px;"">+</div>",,html-keyboard-response,42,345396,0.0-13.0-0.3,96250,List1A,white,man,,,,null,,,,
null,"<img src=""stim_listA/argue4.gif""</stim_listA>",,html-keyboard-response,43,347416,0.0-13.0-1.3,96250,List1A,white,man,,,,null,,,,
null,are arguing with each other,,html-keyboard-response,44,349436,0.0-13.0-2.3,96250,List1A,white,man,,,,null,,,,
29761,,,survey-text,45,379207,0.0-13.0-3.3,96250,List1A,white,man,,,,,"{""Q0"":""jane and luke are arguing with each other""}","<img src=""stim_listA/argue4.gif""</stim_listA>",are arguing with each other,
null,"<div style=""font-size:60px;"">+</div>",,html-keyboard-response,46,379716,0.0-13.0-0.4,96250,List1A,white,man,,,,null,,,,
null,"<img src=""stim_listA/meet4.gif""</stim_listA>",,html-keyboard-response,47,381739,0.0-13.0-1.4,96250,List1A,white,man,,,,null,,,,
null,are meeting each other,,html-keyboard-response,48,383754,0.0-13.0-2.4,96250,List1A,white,man,,,,null,,,,
16918,,,survey-text,49,400676,0.0-13.0-3.4,96250,List1A,white,man,,,,,"{""Q0"":""ruth and luke are shaking hands""}","<img src=""stim_listA/meet4.gif""</stim_listA>",are meeting each other,
null,"<div style=""font-size:60px;"">+</div>",,html-keyboard-response,50,401197,0.0-13.0-0.5,96250,List1A,white,man,,,,null,,,,
null,"<img src=""stim_listA/meet7.gif""</stim_listA>",,html-keyboard-response,51,403217,0.0-13.0-1.5,96250,List1A,white,man,,,,null,,,,
null,is meeting,,html-keyboard-response,52,405225,0.0-13.0-2.5,96250,List1A,white,man,,,,null,,,,
17073,,,survey-text,53,422302,0.0-13.0-3.5,96250,List1A,white,man,,,,,"{""Q0"":""jane and beth are shaking hands""}","<img src=""stim_listA/meet7.gif""</stim_listA>",is meeting,
null,"<div style=""font-size:60px;"">+</div>",,html-keyboard-response,54,422816,0.0-13.0-0.6,96250,List1A,white,man,,,,null,,,,
null,"<img src=""stim_listA/hug3.gif""</stim_listA>",,html-keyboard-response,55,424834,0.0-13.0-1.6,96250,List1A,white,man,,,,null,,,,
null,is hugging,,html-keyboard-response,56,426857,0.0-13.0-2.6,96250,List1A,white,man,,,,null,,,,
11950,,,survey-text,57,438819,0.0-13.0-3.6,96250,List1A,white,man,,,,,"{""Q0"":""ruth and dave are cuddling""}","<img src=""stim_listA/hug3.gif""</stim_listA>",is hugging,
null,"<div style=""font-size:60px;"">+</div>",,html-keyboard-response,58,439344,0.0-13.0-0.7,96250,List1A,white,man,,,,null,,,,
null,"<img src=""stim_listA/kiss8.gif""</stim_listA>",,html-keyboard-response,59,441359,0.0-13.0-1.7,96250,List1A,white,man,,,,null,,,,
null,are kissing each other,,html-keyboard-response,60,443375,0.0-13.0-2.7,96250,List1A,white,man,,,,null,,,,
17029,,,survey-text,61,460408,0.0-13.0-3.7,96250,List1A,white,man,,,,,"{""Q0"":""jane and kate are kissing""}","<img src=""stim_listA/kiss8.gif""</stim_listA>",are kissing each other,
null,"<div style=""font-size:60px;"">+</div>",,html-keyboard-response,62,460928,0.0-13.0-0.8,96250,List1A,white,man,,,,null,,,,
null,"<img src=""stim_listA/marry8.gif""</stim_listA>",,html-keyboard-response,63,462945,0.0-13.0-1.8,96250,List1A,white,man,,,,null,,,,
null,are marrying each other,,html-keyboard-response,64,464969,0.0-13.0-2.8,96250,List1A,white,man,,,,null,,,,
19236,,,survey-text,65,484217,0.0-13.0-3.8,96250,List1A,white,man,,,,,"{""Q0"":""jane and beth are marrrying each other""}","<img src=""stim_listA/marry8.gif""</stim_listA>",are marrying each other,
null,"<div style=""font-size:60px;"">+</div>",,html-keyboard-response,66,484733,0.0-13.0-0.9,96250,List1A,white,man,,,,null,,,,
null,"<img src=""stim_listA/hug1.gif""</stim_listA>",,html-keyboard-response,67,486747,0.0-13.0-1.9,96250,List1A,white,man,,,,null,,,,
null,is hugging,,html-keyboard-response,68,488764,0.0-13.0-2.9,96250,List1A,white,man,,,,null,,,,
13338,,,survey-text,69,502108,0.0-13.0-3.9,96250,List1A,white,man,,,,,"{""Q0"":""fred and beth are holding each other""}","<img src=""stim_listA/hug1.gif""</stim_listA>",is hugging,
null,"<div style=""font-size:60px;"">+</div>",,html-keyboard-response,70,502624,0.0-13.0-0.10,96250,List1A,white,man,,,,null,,,,
null,"<img src=""stim_listA/fight4.gif""</stim_listA>",,html-keyboard-response,71,504651,0.0-13.0-1.10,96250,List1A,white,man,,,,null,,,,
null,are fighting each other,,html-keyboard-response,72,506655,0.0-13.0-2.10,96250,List1A,white,man,,,,null,,,,
17336,,,survey-text,73,524000,0.0-13.0-3.10,96250,List1A,white,man,,,,,"{""Q0"":""ruth and dave are fighting each other""}","<img src=""stim_listA/fight4.gif""</stim_listA>",are fighting each other,
null,"<div style=""font-size:60px;"">+</div>",,html-keyboard-response,74,524516,0.0-13.0-0.11,96250,List1A,white,man,,,,null,,,,
null,"<img src=""stim_listA/kiss1.gif""</stim_listA>",,html-keyboard-response,75,526533,0.0-13.0-1.11,96250,List1A,white,man,,,,null,,,,
null,is kissing,,html-keyboard-response,76,528548,0.0-13.0-2.11,96250,List1A,white,man,,,,null,,,,
12358,,,survey-text,77,540918,0.0-13.0-3.11,96250,List1A,white,man,,,,,"{""Q0"":""fred and beth are kissig each other""}","<img src=""stim_listA/kiss1.gif""</stim_listA>",is kissing,
null,"<div style=""font-size:60px;"">+</div>",,html-keyboard-response,78,541435,0.0-13.0-0.12,96250,List1A,white,man,,,,null,,,,
null,"<img src=""stim_listA/touch3.gif""</stim_listA>",,html-keyboard-response,79,543454,0.0-13.0-1.12,96250,List1A,white,man,,,,null,,,,
null,is touching,,html-keyboard-response,80,545464,0.0-13.0-2.12,96250,List1A,white,man,,,,null,,,,
13240,,,survey-text,81,558707,0.0-13.0-3.12,96250,List1A,white,man,,,,,"{""Q0"":""dave and jane are touching""}","<img src=""stim_listA/touch3.gif""</stim_listA>",is touching,
null,"<div style=""font-size:60px;"">+</div>",,html-keyboard-response,82,559225,0.0-13.0-0.13,96250,List1A,white,man,,,,null,,,,
null,"<img src=""stim_listA/kiss3.gif""</stim_listA>",,html-keyboard-response,83,561245,0.0-13.0-1.13,96250,List1A,white,man,,,,null,,,,
null,is kissing,,html-keyboard-response,84,563267,0.0-13.0-2.13,96250,List1A,white,man,,,,null,,,,
16881,,,survey-text,85,580157,0.0-13.0-3.13,96250,List1A,white,man,,,,,"{""Q0"":""ruth and luke are kissing""}","<img src=""stim_listA/kiss3.gif""</stim_listA>",is kissing,
null,"<div style=""font-size:60px;"">+</div>",,html-keyboard-response,86,580675,0.0-13.0-0.14,96250,List1A,white,man,,,,null,,,,
null,"<img src=""stim_listA/shout6.gif""</stim_listA>",,html-keyboard-response,87,582704,0.0-13.0-1.14,96250,List1A,white,man,,,,null,,,,
null,are shouting at each other,,html-keyboard-response,88,584724,0.0-13.0-2.14,96250,List1A,white,man,,,,null,,,,
16406,,,survey-text,89,601138,0.0-13.0-3.14,96250,List1A,white,man,,,,,"{""Q0"":""dave and mike are shuting at each other""}","<img src=""stim_listA/shout6.gif""</stim_listA>",are shouting at each other,
null,"<div style=""font-size:60px;"">+</div>",,html-keyboard-response,90,601668,0.0-13.0-0.15,96250,List1A,white,man,,,,null,,,,
null,"<img src=""stim_listA/hug5.gif""</stim_listA>",,html-keyboard-response,91,603685,0.0-13.0-1.15,96250,List1A,white,man,,,,null,,,,
null,is hugging,,html-keyboard-response,92,605705,0.0-13.0-2.15,96250,List1A,white,man,,,,null,,,,
15103,,,survey-text,93,620810,0.0-13.0-3.15,96250,List1A,white,man,,,,,"{""Q0"":""fred and luke are hugging""}","<img src=""stim_listA/hug5.gif""</stim_listA>",is hugging,
null,"<div style=""font-size:60px;"">+</div>",,html-keyboard-response,94,621337,0.0-13.0-0.16,96250,List1A,white,man,,,,null,,,,
null,"<img src=""stim_listA/touch1.gif""</stim_listA>",,html-keyboard-response,95,623357,0.0-13.0-1.16,96250,List1A,white,man,,,,null,,,,
null,is touching,,html-keyboard-response,96,625375,0.0-13.0-2.16,96250,List1A,white,man,,,,null,,,,
15180,,,survey-text,97,640559,0.0-13.0-3.16,96250,List1A,white,man,,,,,"{""Q0"":""male and kate are touching hands""}","<img src=""stim_listA/touch1.gif""</stim_listA>",is touching,
null,"<div style=""font-size:60px;"">+</div>",,html-keyboard-response,98,641067,0.0-13.0-0.17,96250,List1A,white,man,,,,null,,,,
null,"<img src=""stim_listA/kiss5.gif""</stim_listA>",,html-keyboard-response,99,643087,0.0-13.0-1.17,96250,List1A,white,man,,,,null,,,,
null,is kissing,,html-keyboard-response,100,645105,0.0-13.0-2.17,96250,List1A,white,man,,,,null,,,,
15802,,,survey-text,101,660913,0.0-13.0-3.17,96250,List1A,white,man,,,,,"{""Q0"":""fred and luke are kissing""}","<img src=""stim_listA/kiss5.gif""</stim_listA>",is kissing,
null,"<div style=""font-size:60px;"">+</div>",,html-keyboard-response,102,661436,0.0-13.0-0.18,96250,List1A,white,man,,,,null,,,,
null,"<img src=""stim_listA/marry2.gif""</stim_listA>",,html-keyboard-response,103,663454,0.0-13.0-1.18,96250,List1A,white,man,,,,null,,,,
null,are marrying each other,,html-keyboard-response,104,665465,0.0-13.0-2.18,96250,List1A,white,man,,,,null,,,,
14909,,,survey-text,105,680386,0.0-13.0-3.18,96250,List1A,white,man,,,,,"{""Q0"":""fred nad kate are marrying each other""}","<img src=""stim_listA/marry2.gif""</stim_listA>",are marrying each other,
null,"<div style=""font-size:60px;"">+</div>",,html-keyboard-response,106,680905,0.0-13.0-0.19,96250,List1A,white,man,,,,null,,,,
null,"<img src=""stim_listA/fight1.gif""</stim_listA>",,html-keyboard-response,107,682929,0.0-13.0-1.19,96250,List1A,white,man,,,,null,,,,
null,is fighting,,html-keyboard-response,108,684940,0.0-13.0-2.19,96250,List1A,white,man,,,,null,,,,
14506,,,survey-text,109,699457,0.0-13.0-3.19,96250,List1A,white,man,,,,,"{""Q0"":""mike and kate are fighting each other""}","<img src=""stim_listA/fight1.gif""</stim_listA>",is fighting,
13325,"<img src='img/portrait_matrix_list1.JPG' style='width:900px;height:500px;''></img><p>If you have memorised all the portraits and names and are ready to start, press Continue.</p><p><strong>Please note: Your memory of these faces will be tested 4 times during this experiment.</strong></p>",0,html-button-response,110,712789,0.0-14.0-0.0,96250,List1A,white,man,,,,,,,,
4279,"<img src=""portrait/BW1.jpg""style=""width:400px;height:400px;""></img>",0,html-button-response,111,718093,0.0-14.0-1.0,96250,List1A,white,man,,TRUE,0,,,,,
null,CORRECT,,html-keyboard-response,112,719627,0.0-14.0-2.0-0.0,96250,List1A,white,man,,,,null,,,,
2056,"<img src=""portrait/WM2.jpg""style=""width:400px;height:400px;""></img>",7,html-button-response,113,721698,0.0-14.0-4.0,96250,List1A,white,man,,TRUE,7,,,,,
null,CORRECT,,html-keyboard-response,114,723215,0.0-14.0-5.0-0.0,96250,List1A,white,man,,,,null,,,,
4211,"<img src=""portrait/WW1.jpg""style=""width:400px;height:400px;""></img>",1,html-button-response,115,727433,0.0-14.0-7.0,96250,List1A,white,man,,TRUE,1,,,,,
null,CORRECT,,html-keyboard-response,116,728948,0.0-14.0-8.0-0.0,96250,List1A,white,man,,,,null,,,,
2088,"<img src=""portrait/WW2.jpg""style=""width:400px;height:400px;""></img>",3,html-button-response,117,731041,0.0-14.0-10.0,96250,List1A,white,man,,TRUE,3,,,,,
null,CORRECT,,html-keyboard-response,118,732565,0.0-14.0-11.0-0.0,96250,List1A,white,man,,,,null,,,,
2322,"<img src=""portrait/WM1.jpg""style=""width:400px;height:400px;""></img>",6,html-button-response,119,734897,0.0-14.0-13.0,96250,List1A,white,man,,TRUE,6,,,,,
null,CORRECT,,html-keyboard-response,120,736428,0.0-14.0-14.0-0.0,96250,List1A,white,man,,,,null,,,,
4227,"<img src=""portrait/BW2.jpg""style=""width:400px;height:400px;""></img>",2,html-button-response,121,740661,0.0-14.0-16.0,96250,List1A,white,man,,TRUE,2,,,,,
null,CORRECT,,html-keyboard-response,122,742193,0.0-14.0-17.0-0.0,96250,List1A,white,man,,,,null,,,,
4535,"<img src=""portrait/BM2.jpg""style=""width:400px;height:400px;""></img>",5,html-button-response,123,746735,0.0-14.0-19.0,96250,List1A,white,man,,TRUE,5,,,,,
null,CORRECT,,html-keyboard-response,124,748268,0.0-14.0-20.0-0.0,96250,List1A,white,man,,,,null,,,,
5383,"<img src=""portrait/BM1.jpg""style=""width:400px;height:400px;""></img>",4,html-button-response,125,753662,0.0-14.0-22.0,96250,List1A,white,man,,TRUE,4,,,,,
null,CORRECT,,html-keyboard-response,126,755178,0.0-14.0-23.0-0.0,96250,List1A,white,man,,,,null,,,,
2607,<p>You got 8 out of 8 right first time. Press Continue.</p>,0,html-button-response,127,757793,0.0-14.0-25.0,96250,List1A,white,man,,,,,,,,
null,"<div style=""font-size:60px;"">+</div>",,html-keyboard-response,128,759338,0.0-15.0-0.0,96250,List1A,white,man,,,,null,,,,
null,"<img src=""stim_listA/shout5.gif""</stim_listA>",,html-keyboard-response,129,761361,0.0-15.0-1.0,96250,List1A,white,man,,,,null,,,,
null,is shouting at,,html-keyboard-response,130,763376,0.0-15.0-2.0,96250,List1A,white,man,,,,null,,,,
13852,,,survey-text,131,777231,0.0-15.0-3.0,96250,List1A,white,man,,,,,"{""Q0"":""fred is shouting at luke""}","<img src=""stim_listA/shout5.gif""</stim_listA>",is shouting at,
null,"<div style=""font-size:60px;"">+</div>",,html-keyboard-response,132,777755,0.0-15.0-0.1,96250,List1A,white,man,,,,null,,,,
null,"<img src=""stim_listA/dance2.gif""</stim_listA>",,html-keyboard-response,133,779787,0.0-15.0-1.1,96250,List1A,white,man,,,,null,,,,
null,are dancing with each other,,html-keyboard-response,134,781805,0.0-15.0-2.1,96250,List1A,white,man,,,,null,,,,
13270,,,survey-text,135,795080,0.0-15.0-3.1,96250,List1A,white,man,,,,,"{""Q0"":""mike and beth are dancing""}","<img src=""stim_listA/dance2.gif""</stim_listA>",are dancing with each other,
null,"<div style=""font-size:60px;"">+</div>",,html-keyboard-response,136,795596,0.0-15.0-0.2,96250,List1A,white,man,,,,null,,,,
null,"<img src=""stim_listA/argue6.gif""</stim_listA>",,html-keyboard-response,137,797615,0.0-15.0-1.2,96250,List1A,white,man,,,,null,,,,
null,are arguing with each other,,html-keyboard-response,138,799624,0.0-15.0-2.2,96250,List1A,white,man,,,,null,,,,
15977,,,survey-text,139,815604,0.0-15.0-3.2,96250,List1A,white,man,,,,,"{""Q0"":""dave and fred are arguing with one another""}","<img src=""stim_listA/argue6.gif""</stim_listA>",are arguing with each other,
null,"<div style=""font-size:60px;"">+</div>",,html-keyboard-response,140,816117,0.0-15.0-0.3,96250,List1A,white,man,,,,null,,,,
null,"<img src=""stim_listA/hug7.gif""</stim_listA>",,html-keyboard-response,141,818135,0.0-15.0-1.3,96250,List1A,white,man,,,,null,,,,
null,is hugging,,html-keyboard-response,142,820155,0.0-15.0-2.3,96250,List1A,white,man,,,,null,,,,
18789,,,survey-text,143,838950,0.0-15.0-3.3,96250,List1A,white,man,,,,,"{""Q0"":""ruth and beth are cuddling one another""}","<img src=""stim_listA/hug7.gif""</stim_listA>",is hugging,
null,"<div style=""font-size:60px;"">+</div>",,html-keyboard-response,144,839467,0.0-15.0-0.4,96250,List1A,white,man,,,,null,,,,
null,"<img src=""stim_listA/touch7.gif""</stim_listA>",,html-keyboard-response,145,841485,0.0-15.0-1.4,96250,List1A,white,man,,,,null,,,,
null,is touching,,html-keyboard-response,146,843505,0.0-15.0-2.4,96250,List1A,white,man,,,,null,,,,
26129,,,survey-text,147,869641,0.0-15.0-3.4,96250,List1A,white,man,,,,,"{""Q0"":""kate and jane are touching hands ""}","<img src=""stim_listA/touch7.gif""</stim_listA>",is touching,
null,"<div style=""font-size:60px;"">+</div>",,html-keyboard-response,148,870156,0.0-15.0-0.5,96250,List1A,white,man,,,,null,,,,
null,"<img src=""stim_listA/talk7.gif""</stim_listA>",,html-keyboard-response,149,872177,0.0-15.0-1.5,96250,List1A,white,man,,,,null,,,,
null,is talking to,,html-keyboard-response,150,874185,0.0-15.0-2.5,96250,List1A,white,man,,,,null,,,,
15314,,,survey-text,151,889503,0.0-15.0-3.5,96250,List1A,white,man,,,,,"{""Q0"":""beth is talking ro jane""}","<img src=""stim_listA/talk7.gif""</stim_listA>",is talking to,
null,"<div style=""font-size:60px;"">+</div>",,html-keyboard-response,152,890015,0.0-15.0-0.6,96250,List1A,white,man,,,,null,,,,
null,"<img src=""stim_listA/hug8.gif""</stim_listA>",,html-keyboard-response,153,892035,0.0-15.0-1.6,96250,List1A,white,man,,,,null,,,,
null,are hugging each other,,html-keyboard-response,154,894055,0.0-15.0-2.6,96250,List1A,white,man,,,,null,,,,
14702,,,survey-text,155,908770,0.0-15.0-3.6,96250,List1A,white,man,,,,,"{""Q0"":""kate and jane are holding one another""}","<img src=""stim_listA/hug8.gif""</stim_listA>",are hugging each other,
null,"<div style=""font-size:60px;"">+</div>",,html-keyboard-response,156,909295,0.0-15.0-0.7,96250,List1A,white,man,,,,null,,,,
null,"<img src=""stim_listA/dance5.gif""</stim_listA>",,html-keyboard-response,157,911316,0.0-15.0-1.7,96250,List1A,white,man,,,,null,,,,
null,is dancing with,,html-keyboard-response,158,913337,0.0-15.0-2.7,96250,List1A,white,man,,,,null,,,,
11031,,,survey-text,159,924372,0.0-15.0-3.7,96250,List1A,white,man,,,,,"{""Q0"":""dave is dancing with fred""}","<img src=""stim_listA/dance5.gif""</stim_listA>",is dancing with,
null,"<div style=""font-size:60px;"">+</div>",,html-keyboard-response,160,924887,0.0-15.0-0.8,96250,List1A,white,man,,,,null,,,,
null,"<img src=""stim_listA/shout4.gif""</stim_listA>",,html-keyboard-response,161,926907,0.0-15.0-1.8,96250,List1A,white,man,,,,null,,,,
null,are shouting at each other,,html-keyboard-response,162,928925,0.0-15.0-2.8,96250,List1A,white,man,,,,null,,,,
18328,,,survey-text,163,947259,0.0-15.0-3.8,96250,List1A,white,man,,,,,"{""Q0"":""dave and jane are shouting at one another""}","<img src=""stim_listA/shout4.gif""</stim_listA>",are shouting at each other,
null,"<div style=""font-size:60px;"">+</div>",,html-keyboard-response,164,947778,0.0-15.0-0.9,96250,List1A,white,man,,,,null,,,,
null,"<img src=""stim_listA/marry4.gif""</stim_listA>",,html-keyboard-response,165,949787,0.0-15.0-1.9,96250,List1A,white,man,,,,null,,,,
null,are marrying each other,,html-keyboard-response,166,951805,0.0-15.0-2.9,96250,List1A,white,man,,,,null,,,,
19812,,,survey-text,167,971629,0.0-15.0-3.9,96250,List1A,white,man,,,,,"{""Q0"":""jane and luke are getting married to one another""}","<img src=""stim_listA/marry4.gif""</stim_listA>",are marrying each other,
null,"<div style=""font-size:60px;"">+</div>",,html-keyboard-response,168,972138,0.0-15.0-0.10,96250,List1A,white,man,,,,null,,,,
null,"<img src=""stim_listA/touch8.gif""</stim_listA>",,html-keyboard-response,169,974150,0.0-15.0-1.10,96250,List1A,white,man,,,,null,,,,
null,are touching each other,,html-keyboard-response,170,976167,0.0-15.0-2.10,96250,List1A,white,man,,,,null,,,,
77146,,,survey-text,171,1053320,0.0-15.0-3.10,96250,List1A,white,man,,,,,"{""Q0"":""ruth and kate are holding hands""}","<img src=""stim_listA/touch8.gif""</stim_listA>",are touching each other,
null,"<div style=""font-size:60px;"">+</div>",,html-keyboard-response,172,1053836,0.0-15.0-0.11,96250,List1A,white,man,,,,null,,,,
null,"<img src=""stim_listA/argue5.gif""</stim_listA>",,html-keyboard-response,173,1055855,0.0-15.0-1.11,96250,List1A,white,man,,,,null,,,,
null,is arguing with,,html-keyboard-response,174,1057878,0.0-15.0-2.11,96250,List1A,white,man,,,,null,,,,
36982,,,survey-text,175,1094872,0.0-15.0-3.11,96250,List1A,white,man,,,,,"{""Q0"":""mike and luke are arguing with each other""}","<img src=""stim_listA/argue5.gif""</stim_listA>",is arguing with,
null,"<div style=""font-size:60px;"">+</div>",,html-keyboard-response,176,1095396,0.0-15.0-0.12,96250,List1A,white,man,,,,null,,,,
null,"<img src=""stim_listA/talk4.gif""</stim_listA>",,html-keyboard-response,177,1097416,0.0-15.0-1.12,96250,List1A,white,man,,,,null,,,,
null,are talking to each other,,html-keyboard-response,178,1099435,0.0-15.0-2.12,96250,List1A,white,man,,,,null,,,,
19561,,,survey-text,179,1119004,0.0-15.0-3.12,96250,List1A,white,man,,,,,"{""Q0"":""ruthand dave are talking to ne another""}","<img src=""stim_listA/talk4.gif""</stim_listA>",are talking to each other,
null,"<div style=""font-size:60px;"">+</div>",,html-keyboard-response,180,1119529,0.0-15.0-0.13,96250,List1A,white,man,,,,null,,,,
null,"<img src=""stim_listA/argue3.gif""</stim_listA>",,html-keyboard-response,181,1121546,0.0-15.0-1.13,96250,List1A,white,man,,,,null,,,,
null,is arguing with,,html-keyboard-response,182,1123553,0.0-15.0-2.13,96250,List1A,white,man,,,,null,,,,
13181,,,survey-text,183,1136739,0.0-15.0-3.13,96250,List1A,white,man,,,,,"{""Q0"":""ruth is arguing with dave""}","<img src=""stim_listA/argue3.gif""</stim_listA>",is arguing with,
null,"<div style=""font-size:60px;"">+</div>",,html-keyboard-response,184,1137245,0.0-15.0-0.14,96250,List1A,white,man,,,,null,,,,
null,"<img src=""stim_listA/argue7.gif""</stim_listA>",,html-keyboard-response,185,1139260,0.0-15.0-1.14,96250,List1A,white,man,,,,null,,,,
null,is arguing with,,html-keyboard-response,186,1141275,0.0-15.0-2.14,96250,List1A,white,man,,,,null,,,,
16244,,,survey-text,187,1157526,0.0-15.0-3.14,96250,List1A,white,man,,,,,"{""Q0"":""ruth is arguing with kate""}","<img src=""stim_listA/argue7.gif""</stim_listA>",is arguing with,
null,"<div style=""font-size:60px;"">+</div>",,html-keyboard-response,188,1158045,0.0-15.0-0.15,96250,List1A,white,man,,,,null,,,,
null,"<img src=""stim_listA/marry1.gif""</stim_listA>",,html-keyboard-response,189,1160067,0.0-15.0-1.15,96250,List1A,white,man,,,,null,,,,
null,is marrying,,html-keyboard-response,190,1162084,0.0-15.0-2.15,96250,List1A,white,man,,,,null,,,,
15671,,,survey-text,191,1177763,0.0-15.0-3.15,96250,List1A,white,man,,,,,"{""Q0"":""beth is getting married to mike""}","<img src=""stim_listA/marry1.gif""</stim_listA>",is marrying,
null,"<div style=""font-size:60px;"">+</div>",,html-keyboard-response,192,1178285,0.0-15.0-0.16,96250,List1A,white,man,,,,null,,,,
null,"<img src=""stim_listA/argue1.gif""</stim_listA>",,html-keyboard-response,193,1180298,0.0-15.0-1.16,96250,List1A,white,man,,,,null,,,,
null,is arguing with,,html-keyboard-response,194,1182315,0.0-15.0-2.16,96250,List1A,white,man,,,,null,,,,
16337,,,survey-text,195,1198660,0.0-15.0-3.16,96250,List1A,white,man,,,,,"{""Q0"":""mike and beth are arguing""}","<img src=""stim_listA/argue1.gif""</stim_listA>",is arguing with,
null,"<div style=""font-size:60px;"">+</div>",,html-keyboard-response,196,1199177,0.0-15.0-0.17,96250,List1A,white,man,,,,null,,,,
null,"<img src=""stim_listA/meet3.gif""</stim_listA>",,html-keyboard-response,197,1201187,0.0-15.0-1.17,96250,List1A,white,man,,,,null,,,,
null,is meeting,,html-keyboard-response,198,1203203,0.0-15.0-2.17,96250,List1A,white,man,,,,null,,,,
15081,,,survey-text,199,1218292,0.0-15.0-3.17,96250,List1A,white,man,,,,,"{""Q0"":""jane is meeting dave""}","<img src=""stim_listA/meet3.gif""</stim_listA>",is meeting,
null,"<div style=""font-size:60px;"">+</div>",,html-keyboard-response,200,1218807,0.0-15.0-0.18,96250,List1A,white,man,,,,null,,,,
null,"<img src=""stim_listA/touch4.gif""</stim_listA>",,html-keyboard-response,201,1220825,0.0-15.0-1.18,96250,List1A,white,man,,,,null,,,,
null,are touching each other,,html-keyboard-response,202,1222843,0.0-15.0-2.18,96250,List1A,white,man,,,,null,,,,
18081,,,survey-text,203,1240928,0.0-15.0-3.18,96250,List1A,white,man,,,,,"{""Q0"":""ruth and mike are touching one another""}","<img src=""stim_listA/touch4.gif""</stim_listA>",are touching each other,
null,"<div style=""font-size:60px;"">+</div>",,html-keyboard-response,204,1241447,0.0-15.0-0.19,96250,List1A,white,man,,,,null,,,,
null,"<img src=""stim_listA/dance1.gif""</stim_listA>",,html-keyboard-response,205,1243466,0.0-15.0-1.19,96250,List1A,white,man,,,,null,,,,
null,is dancing with,,html-keyboard-response,206,1245478,0.0-15.0-2.19,96250,List1A,white,man,,,,null,,,,
13530,,,survey-text,207,1259011,0.0-15.0-3.19,96250,List1A,white,man,,,,,"{""Q0"":""kate and fred are dancing together""}","<img src=""stim_listA/dance1.gif""</stim_listA>",is dancing with,
10529,"<img src='img/portrait_matrix_list1.JPG' style='width:900px;height:500px;''></img><p>If you have memorised all the portraits and names and are ready to start, press Continue.</p><p><strong>Please note: Your memory of these faces will be tested 4 times during this experiment.</strong></p>",0,html-button-response,208,1269546,0.0-16.0-0.0,96250,List1A,white,man,,,,,,,,
3149,"<img src=""portrait/WW2.jpg""style=""width:400px;height:400px;""></img>",3,html-button-response,209,1273719,0.0-16.0-1.0,96250,List1A,white,man,,TRUE,3,,,,,
null,CORRECT,,html-keyboard-response,210,1275247,0.0-16.0-2.0-0.0,96250,List1A,white,man,,,,null,,,,
3092,"<img src=""portrait/BW1.jpg""style=""width:400px;height:400px;""></img>",0,html-button-response,211,1278347,0.0-16.0-4.0,96250,List1A,white,man,,TRUE,0,,,,,
null,CORRECT,,html-keyboard-response,212,1279878,0.0-16.0-5.0-0.0,96250,List1A,white,man,,,,null,,,,
4233,"<img src=""portrait/BM1.jpg""style=""width:400px;height:400px;""></img>",4,html-button-response,213,1284117,0.0-16.0-7.0,96250,List1A,white,man,,TRUE,4,,,,,
null,CORRECT,,html-keyboard-response,214,1285656,0.0-16.0-8.0-0.0,96250,List1A,white,man,,,,null,,,,
2428,"<img src=""portrait/BM2.jpg""style=""width:400px;height:400px;""></img>",5,html-button-response,215,1288095,0.0-16.0-10.0,96250,List1A,white,man,,TRUE,5,,,,,
null,CORRECT,,html-keyboard-response,216,1289629,0.0-16.0-11.0-0.0,96250,List1A,white,man,,,,null,,,,
2959,"<img src=""portrait/WW1.jpg""style=""width:400px;height:400px;""></img>",1,html-button-response,217,1292594,0.0-16.0-13.0,96250,List1A,white,man,,TRUE,1,,,,,
null,CORRECT,,html-keyboard-response,218,1294115,0.0-16.0-14.0-0.0,96250,List1A,white,man,,,,null,,,,
2203,"<img src=""portrait/WM2.jpg""style=""width:400px;height:400px;""></img>",7,html-button-response,219,1296323,0.0-16.0-16.0,96250,List1A,white,man,,TRUE,7,,,,,
null,CORRECT,,html-keyboard-response,220,1297848,0.0-16.0-17.0-0.0,96250,List1A,white,man,,,,null,,,,
4902,"<img src=""portrait/BW2.jpg""style=""width:400px;height:400px;""></img>",2,html-button-response,221,1302758,0.0-16.0-19.0,96250,List1A,white,man,,TRUE,2,,,,,
null,CORRECT,,html-keyboard-response,222,1304286,0.0-16.0-20.0-0.0,96250,List1A,white,man,,,,null,,,,
2195,"<img src=""portrait/WM1.jpg""style=""width:400px;height:400px;""></img>",6,html-button-response,223,1306489,0.0-16.0-22.0,96250,List1A,white,man,,TRUE,6,,,,,
null,CORRECT,,html-keyboard-response,224,1308017,0.0-16.0-23.0-0.0,96250,List1A,white,man,,,,null,,,,
1741,<p>You got 8 out of 8 right first time. Press Continue.</p>,0,html-button-response,225,1309763,0.0-16.0-25.0,96250,List1A,white,man,,,,,,,,
null,"<div style=""font-size:60px;"">+</div>",,html-keyboard-response,226,1311285,0.0-17.0-0.0,96250,List1A,white,man,,,,null,,,,
null,"<img src=""stim_listA/dance7.gif""</stim_listA>",,html-keyboard-response,227,1313305,0.0-17.0-1.0,96250,List1A,white,man,,,,null,,,,
null,is dancing with,,html-keyboard-response,228,1315315,0.0-17.0-2.0,96250,List1A,white,man,,,,null,,,,
20998,,,survey-text,229,1336319,0.0-17.0-3.0,96250,List1A,white,man,,,,,"{""Q0"":""jane and beth are dancing together""}","<img src=""stim_listA/dance7.gif""</stim_listA>",is dancing with,
null,"<div style=""font-size:60px;"">+</div>",,html-keyboard-response,230,1336847,0.0-17.0-0.1,96250,List1A,white,man,,,,null,,,,
null,"<img src=""stim_listA/hug6.gif""</stim_listA>",,html-keyboard-response,231,1338865,0.0-17.0-1.1,96250,List1A,white,man,,,,null,,,,
null,are hugging each other,,html-keyboard-response,232,1340889,0.0-17.0-2.1,96250,List1A,white,man,,,,null,,,,
16235,,,survey-text,233,1357134,0.0-17.0-3.1,96250,List1A,white,man,,,,,"{""Q0"":""mike and dave are hugging one another""}","<img src=""stim_listA/hug6.gif""</stim_listA>",are hugging each other,
null,"<div style=""font-size:60px;"">+</div>",,html-keyboard-response,234,1357657,0.0-17.0-0.2,96250,List1A,white,man,,,,null,,,,
null,"<img src=""stim_listA/hug4.gif""</stim_listA>",,html-keyboard-response,235,1359677,0.0-17.0-1.2,96250,List1A,white,man,,,,null,,,,
null,are hugging each other,,html-keyboard-response,236,1361696,0.0-17.0-2.2,96250,List1A,white,man,,,,null,,,,
14541,,,survey-text,237,1376240,0.0-17.0-3.2,96250,List1A,white,man,,,,,"{""Q0"":""jane and dave are hugging one another""}","<img src=""stim_listA/hug4.gif""</stim_listA>",are hugging each other,
null,"<div style=""font-size:60px;"">+</div>",,html-keyboard-response,238,1376758,0.0-17.0-0.3,96250,List1A,white,man,,,,null,,,,
null,"<img src=""stim_listA/touch2.gif""</stim_listA>",,html-keyboard-response,239,1378770,0.0-17.0-1.3,96250,List1A,white,man,,,,null,,,,
null,are touching each other,,html-keyboard-response,240,1380782,0.0-17.0-2.3,96250,List1A,white,man,,,,null,,,,
14541,,,survey-text,241,1395338,0.0-17.0-3.3,96250,List1A,white,man,,,,,"{""Q0"":""beth and fred are touching one another""}","<img src=""stim_listA/touch2.gif""</stim_listA>",are touching each other,
null,"<div style=""font-size:60px;"">+</div>",,html-keyboard-response,242,1395856,0.0-17.0-0.4,96250,List1A,white,man,,,,null,,,,
null,"<img src=""stim_listA/touch5.gif""</stim_listA>",,html-keyboard-response,243,1397874,0.0-17.0-1.4,96250,List1A,white,man,,,,null,,,,
null,is touching,,html-keyboard-response,244,1399896,0.0-17.0-2.4,96250,List1A,white,man,,,,null,,,,
13130,,,survey-text,245,1413034,0.0-17.0-3.4,96250,List1A,white,man,,,,,"{""Q0"":""mike and dave are touching""}","<img src=""stim_listA/touch5.gif""</stim_listA>",is touching,
null,"<div style=""font-size:60px;"">+</div>",,html-keyboard-response,246,1413546,0.0-17.0-0.5,96250,List1A,white,man,,,,null,,,,
null,"<img src=""stim_listA/meet5.gif""</stim_listA>",,html-keyboard-response,247,1415565,0.0-17.0-1.5,96250,List1A,white,man,,,,null,,,,
null,is meeting,,html-keyboard-response,248,1417588,0.0-17.0-2.5,96250,List1A,white,man,,,,null,,,,
11195,,,survey-text,249,1428791,0.0-17.0-3.5,96250,List1A,white,man,,,,,"{""Q0"":""dave is meeting mike""}","<img src=""stim_listA/meet5.gif""</stim_listA>",is meeting,
null,"<div style=""font-size:60px;"">+</div>",,html-keyboard-response,250,1429320,0.0-17.0-0.6,96250,List1A,white,man,,,,null,,,,
null,"<img src=""stim_listA/meet6.gif""</stim_listA>",,html-keyboard-response,251,1431336,0.0-17.0-1.6,96250,List1A,white,man,,,,null,,,,
null,are meeting each other,,html-keyboard-response,252,1433358,0.0-17.0-2.6,96250,List1A,white,man,,,,null,,,,
13342,,,survey-text,253,1446705,0.0-17.0-3.6,96250,List1A,white,man,,,,,"{""Q0"":""luke and fred are meeting each other""}","<img src=""stim_listA/meet6.gif""</stim_listA>",are meeting each other,
null,"<div style=""font-size:60px;"">+</div>",,html-keyboard-response,254,1447219,0.0-17.0-0.7,96250,List1A,white,man,,,,null,,,,
null,"<img src=""stim_listA/marry7.gif""</stim_listA>",,html-keyboard-response,255,1449237,0.0-17.0-1.7,96250,List1A,white,man,,,,null,,,,
null,is marrying,,html-keyboard-response,256,1451245,0.0-17.0-2.7,96250,List1A,white,man,,,,null,,,,
13128,,,survey-text,257,1464384,0.0-17.0-3.7,96250,List1A,white,man,,,,,"{""Q0"":""kate is getting married to ruth""}","<img src=""stim_listA/marry7.gif""</stim_listA>",is marrying,
null,"<div style=""font-size:60px;"">+</div>",,html-keyboard-response,258,1464895,0.0-17.0-0.8,96250,List1A,white,man,,,,null,,,,
null,"<img src=""stim_listA/shout7.gif""</stim_listA>",,html-keyboard-response,259,1466905,0.0-17.0-1.8,96250,List1A,white,man,,,,null,,,,
null,is shouting at,,html-keyboard-response,260,1468925,0.0-17.0-2.8,96250,List1A,white,man,,,,null,,,,
14672,,,survey-text,261,1483603,0.0-17.0-3.8,96250,List1A,white,man,,,,,"{""Q0"":""ruthis shouting at beth""}","<img src=""stim_listA/shout7.gif""</stim_listA>",is shouting at,
null,"<div style=""font-size:60px;"">+</div>",,html-keyboard-response,262,1484130,0.0-17.0-0.9,96250,List1A,white,man,,,,null,,,,
null,"<img src=""stim_listA/fight8.gif""</stim_listA>",,html-keyboard-response,263,1486150,0.0-17.0-1.9,96250,List1A,white,man,,,,null,,,,
null,are fighting each other,,html-keyboard-response,264,1488169,0.0-17.0-2.9,96250,List1A,white,man,,,,null,,,,
20170,,,survey-text,265,1508342,0.0-17.0-3.9,96250,List1A,white,man,,,,,"{""Q0"":""ruth and beth are fighting one another""}","<img src=""stim_listA/fight8.gif""</stim_listA>",are fighting each other,
null,"<div style=""font-size:60px;"">+</div>",,html-keyboard-response,266,1508870,0.0-17.0-0.10,96250,List1A,white,man,,,,null,,,,
null,"<img src=""stim_listA/marry6.gif""</stim_listA>",,html-keyboard-response,267,1510890,0.0-17.0-1.10,96250,List1A,white,man,,,,null,,,,
null,are marrying each other,,html-keyboard-response,268,1512896,0.0-17.0-2.10,96250,List1A,white,man,,,,null,,,,
13872,,,survey-text,269,1526773,0.0-17.0-3.10,96250,List1A,white,man,,,,,"{""Q0"":""fred is getting married to dave""}","<img src=""stim_listA/marry6.gif""</stim_listA>",are marrying each other,
null,"<div style=""font-size:60px;"">+</div>",,html-keyboard-response,270,1527286,0.0-17.0-0.11,96250,List1A,white,man,,,,null,,,,
null,"<img src=""stim_listA/kiss7.gif""</stim_listA>",,html-keyboard-response,271,1529307,0.0-17.0-1.11,96250,List1A,white,man,,,,null,,,,
null,is kissing,,html-keyboard-response,272,1531325,0.0-17.0-2.11,96250,List1A,white,man,,,,null,,,,
10220,,,survey-text,273,1541548,0.0-17.0-3.11,96250,List1A,white,man,,,,,"{""Q0"":""ruth and beth are kissing""}","<img src=""stim_listA/kiss7.gif""</stim_listA>",is kissing,
null,"<div style=""font-size:60px;"">+</div>",,html-keyboard-response,274,1542056,0.0-17.0-0.12,96250,List1A,white,man,,,,null,,,,
null,"<img src=""stim_listA/talk5.gif""</stim_listA>",,html-keyboard-response,275,1544066,0.0-17.0-1.12,96250,List1A,white,man,,,,null,,,,
null,is talking to,,html-keyboard-response,276,1546091,0.0-17.0-2.12,96250,List1A,white,man,,,,null,,,,
10941,,,survey-text,277,1557035,0.0-17.0-3.12,96250,List1A,white,man,,,,,"{""Q0"":""fred is talking with dave""}","<img src=""stim_listA/talk5.gif""</stim_listA>",is talking to,
null,"<div style=""font-size:60px;"">+</div>",,html-keyboard-response,278,1557545,0.0-17.0-0.13,96250,List1A,white,man,,,,null,,,,
null,"<img src=""stim_listA/shout8.gif""</stim_listA>",,html-keyboard-response,279,1559556,0.0-17.0-1.13,96250,List1A,white,man,,,,null,,,,
null,are shouting at each other,,html-keyboard-response,280,1561575,0.0-17.0-2.13,96250,List1A,white,man,,,,null,,,,
19590,,,survey-text,281,1581173,0.0-17.0-3.13,96250,List1A,white,man,,,,,"{""Q0"":""jane and kate are shouting at each other""}","<img src=""stim_listA/shout8.gif""</stim_listA>",are shouting at each other,
null,"<div style=""font-size:60px;"">+</div>",,html-keyboard-response,282,1581686,0.0-17.0-0.14,96250,List1A,white,man,,,,null,,,,
null,"<img src=""stim_listA/kiss2.gif""</stim_listA>",,html-keyboard-response,283,1583704,0.0-17.0-1.14,96250,List1A,white,man,,,,null,,,,
null,are kissing each other,,html-keyboard-response,284,1585716,0.0-17.0-2.14,96250,List1A,white,man,,,,null,,,,
11922,,,survey-text,285,1597642,0.0-17.0-3.14,96250,List1A,white,man,,,,,"{""Q0"":""mike is kissing with kate""}","<img src=""stim_listA/kiss2.gif""</stim_listA>",are kissing each other,
null,"<div style=""font-size:60px;"">+</div>",,html-keyboard-response,286,1598159,0.0-17.0-0.15,96250,List1A,white,man,,,,null,,,,
null,"<img src=""stim_listA/meet1.gif""</stim_listA>",,html-keyboard-response,287,1600177,0.0-17.0-1.15,96250,List1A,white,man,,,,null,,,,
null,is meeting,,html-keyboard-response,288,1602197,0.0-17.0-2.15,96250,List1A,white,man,,,,null,,,,
11691,,,survey-text,289,1613892,0.0-17.0-3.15,96250,List1A,white,man,,,,,"{""Q0"":""mike and kate are metting""}","<img src=""stim_listA/meet1.gif""</stim_listA>",is meeting,
null,"<div style=""font-size:60px;"">+</div>",,html-keyboard-response,290,1614418,0.0-17.0-0.16,96250,List1A,white,man,,,,null,,,,
null,"<img src=""stim_listA/dance3.gif""</stim_listA>",,html-keyboard-response,291,1616437,0.0-17.0-1.16,96250,List1A,white,man,,,,null,,,,
null,is dancing with,,html-keyboard-response,292,1618456,0.0-17.0-2.16,96250,List1A,white,man,,,,null,,,,
14256,,,survey-text,293,1632721,0.0-17.0-3.16,96250,List1A,white,man,,,,,"{""Q0"":""jane is dancing with luke""}","<img src=""stim_listA/dance3.gif""</stim_listA>",is dancing with,
null,"<div style=""font-size:60px;"">+</div>",,html-keyboard-response,294,1633238,0.0-17.0-0.17,96250,List1A,white,man,,,,null,,,,
null,"<img src=""stim_listA/kiss6.gif""</stim_listA>",,html-keyboard-response,295,1635258,0.0-17.0-1.17,96250,List1A,white,man,,,,null,,,,
null,are kissing each other,,html-keyboard-response,296,1637276,0.0-17.0-2.17,96250,List1A,white,man,,,,null,,,,
15921,,,survey-text,297,1653203,0.0-17.0-3.17,96250,List1A,white,man,,,,,"{""Q0"":""mike and dave are kissing each other""}","<img src=""stim_listA/kiss6.gif""</stim_listA>",are kissing each other,
null,"<div style=""font-size:60px;"">+</div>",,html-keyboard-response,298,1653716,0.0-17.0-0.18,96250,List1A,white,man,,,,null,,,,
null,"<img src=""stim_listA/marry5.gif""</stim_listA>",,html-keyboard-response,299,1655736,0.0-17.0-1.18,96250,List1A,white,man,,,,null,,,,
null,is marrying,,html-keyboard-response,300,1657746,0.0-17.0-2.18,96250,List1A,white,man,,,,null,,,,
14129,,,survey-text,301,1671883,0.0-17.0-3.18,96250,List1A,white,man,,,,,"{""Q0"":""mike is marrying luke""}","<img src=""stim_listA/marry5.gif""</stim_listA>",is marrying,
null,"<div style=""font-size:60px;"">+</div>",,html-keyboard-response,302,1672396,0.0-17.0-0.19,96250,List1A,white,man,,,,null,,,,
null,"<img src=""stim_listA/shout1.gif""</stim_listA>",,html-keyboard-response,303,1674417,0.0-17.0-1.19,96250,List1A,white,man,,,,null,,,,
null,is shouting at,,html-keyboard-response,304,1676436,0.0-17.0-2.19,96250,List1A,white,man,,,,null,,,,
20867,,,survey-text,305,1697312,0.0-17.0-3.19,96250,List1A,white,man,,,,,"{""Q0"":""fred and beth are shouting at each other""}","<img src=""stim_listA/shout1.gif""</stim_listA>",is shouting at,
5561,"<img src='img/portrait_matrix_list1.JPG' style='width:900px;height:500px;''></img><p>If you have memorised all the portraits and names and are ready to start, press Continue.</p><p><strong>Please note: Your memory of these faces will be tested 4 times during this experiment.</strong></p>",0,html-button-response,306,1702881,0.0-18.0-0.0,96250,List1A,white,man,,,,,,,,
2006,"<img src=""portrait/BM1.jpg""style=""width:400px;height:400px;""></img>",4,html-button-response,307,1705908,0.0-18.0-1.0,96250,List1A,white,man,,TRUE,4,,,,,
null,CORRECT,,html-keyboard-response,308,1707440,0.0-18.0-2.0-0.0,96250,List1A,white,man,,,,null,,,,
2474,"<img src=""portrait/WM2.jpg""style=""width:400px;height:400px;""></img>",7,html-button-response,309,1709928,0.0-18.0-4.0,96250,List1A,white,man,,TRUE,7,,,,,
null,CORRECT,,html-keyboard-response,310,1711460,0.0-18.0-5.0-0.0,96250,List1A,white,man,,,,null,,,,
2524,"<img src=""portrait/WW2.jpg""style=""width:400px;height:400px;""></img>",3,html-button-response,311,1713995,0.0-18.0-7.0,96250,List1A,white,man,,TRUE,3,,,,,
null,CORRECT,,html-keyboard-response,312,1715527,0.0-18.0-8.0-0.0,96250,List1A,white,man,,,,null,,,,
2421,"<img src=""portrait/WW1.jpg""style=""width:400px;height:400px;""></img>",1,html-button-response,313,1717952,0.0-18.0-10.0,96250,List1A,white,man,,TRUE,1,,,,,
null,CORRECT,,html-keyboard-response,314,1719486,0.0-18.0-11.0-0.0,96250,List1A,white,man,,,,null,,,,
1268,"<img src=""portrait/BW1.jpg""style=""width:400px;height:400px;""></img>",0,html-button-response,315,1720758,0.0-18.0-13.0,96250,List1A,white,man,,TRUE,0,,,,,
null,CORRECT,,html-keyboard-response,316,1722286,0.0-18.0-14.0-0.0,96250,List1A,white,man,,,,null,,,,
2563,"<img src=""portrait/BW2.jpg""style=""width:400px;height:400px;""></img>",2,html-button-response,317,1724855,0.0-18.0-16.0,96250,List1A,white,man,,TRUE,2,,,,,
null,CORRECT,,html-keyboard-response,318,1726389,0.0-18.0-17.0-0.0,96250,List1A,white,man,,,,null,,,,
1559,"<img src=""portrait/WM1.jpg""style=""width:400px;height:400px;""></img>",6,html-button-response,319,1727956,0.0-18.0-19.0,96250,List1A,white,man,,TRUE,6,,,,,
null,CORRECT,,html-keyboard-response,320,1729486,0.0-18.0-20.0-0.0,96250,List1A,white,man,,,,null,,,,
1548,"<img src=""portrait/BM2.jpg""style=""width:400px;height:400px;""></img>",5,html-button-response,321,1731038,0.0-18.0-22.0,96250,List1A,white,man,,TRUE,5,,,,,
null,CORRECT,,html-keyboard-response,322,1732568,0.0-18.0-23.0-0.0,96250,List1A,white,man,,,,null,,,,
2108,<p>You got 8 out of 8 right first time. Press Continue.</p>,0,html-button-response,323,1734690,0.0-18.0-25.0,96250,List1A,white,man,,,,,,,,
null,"<div style=""font-size:60px;"">+</div>",,html-keyboard-response,324,1736216,0.0-19.0-0.0,96250,List1A,white,man,,,,null,,,,
null,"<img src=""stim_listA/fight7.gif""</stim_listA>",,html-keyboard-response,325,1738236,0.0-19.0-1.0,96250,List1A,white,man,,,,null,,,,
null,is fighting,,html-keyboard-response,326,1740249,0.0-19.0-2.0,96250,List1A,white,man,,,,null,,,,
19942,,,survey-text,327,1760199,0.0-19.0-3.0,96250,List1A,white,man,,,,,"{""Q0"":""kate and jane are fghting one another""}","<img src=""stim_listA/fight7.gif""</stim_listA>",is fighting,
null,"<div style=""font-size:60px;"">+</div>",,html-keyboard-response,328,1760714,0.0-19.0-0.1,96250,List1A,white,man,,,,null,,,,
null,"<img src=""stim_listA/talk1.gif""</stim_listA>",,html-keyboard-response,329,1762737,0.0-19.0-1.1,96250,List1A,white,man,,,,null,,,,
null,is talking to,,html-keyboard-response,330,1764756,0.0-19.0-2.1,96250,List1A,white,man,,,,null,,,,
9461,,,survey-text,331,1774223,0.0-19.0-3.1,96250,List1A,white,man,,,,,"{""Q0"":""fred is talking to kate""}","<img src=""stim_listA/talk1.gif""</stim_listA>",is talking to,
null,"<div style=""font-size:60px;"">+</div>",,html-keyboard-response,332,1774739,0.0-19.0-0.2,96250,List1A,white,man,,,,null,,,,
null,"<img src=""stim_listA/hug2.gif""</stim_listA>",,html-keyboard-response,333,1776755,0.0-19.0-1.2,96250,List1A,white,man,,,,null,,,,
null,are hugging each other,,html-keyboard-response,334,1778777,0.0-19.0-2.2,96250,List1A,white,man,,,,null,,,,
12806,,,survey-text,335,1791589,0.0-19.0-3.2,96250,List1A,white,man,,,,,"{""Q0"":""kate and mike are hugging each other""}","<img src=""stim_listA/hug2.gif""</stim_listA>",are hugging each other,
null,"<div style=""font-size:60px;"">+</div>",,html-keyboard-response,336,1792099,0.0-19.0-0.3,96250,List1A,white,man,,,,null,,,,
null,"<img src=""stim_listA/touch6.gif""</stim_listA>",,html-keyboard-response,337,1794120,0.0-19.0-1.3,96250,List1A,white,man,,,,null,,,,
null,are touching each other,,html-keyboard-response,338,1796138,0.0-19.0-2.3,96250,List1A,white,man,,,,null,,,,
13755,,,survey-text,339,1809903,0.0-19.0-3.3,96250,List1A,white,man,,,,,"{""Q0"":""fred and luke are touching""}","<img src=""stim_listA/touch6.gif""</stim_listA>",are touching each other,
null,"<div style=""font-size:60px;"">+</div>",,html-keyboard-response,340,1810425,0.0-19.0-0.4,96250,List1A,white,man,,,,null,,,,
null,"<img src=""stim_listA/shout3.gif""</stim_listA>",,html-keyboard-response,341,1812450,0.0-19.0-1.4,96250,List1A,white,man,,,,null,,,,
null,is shouting at,,html-keyboard-response,342,1814457,0.0-19.0-2.4,96250,List1A,white,man,,,,null,,,,
15511,,,survey-text,343,1829974,0.0-19.0-3.4,96250,List1A,white,man,,,,,"{""Q0"":""ruth and luke are shouting at each other""}","<img src=""stim_listA/shout3.gif""</stim_listA>",is shouting at,
null,"<div style=""font-size:60px;"">+</div>",,html-keyboard-response,344,1830500,0.0-19.0-0.5,96250,List1A,white,man,,,,null,,,,
null,"<img src=""stim_listA/fight2.gif""</stim_listA>",,html-keyboard-response,345,1832527,0.0-19.0-1.5,96250,List1A,white,man,,,,null,,,,
null,are fighting each other,,html-keyboard-response,346,1834537,0.0-19.0-2.5,96250,List1A,white,man,,,,null,,,,
10109,,,survey-text,347,1844652,0.0-19.0-3.5,96250,List1A,white,man,,,,,"{""Q0"":""fred is fighting with beth""}","<img src=""stim_listA/fight2.gif""</stim_listA>",are fighting each other,
null,"<div style=""font-size:60px;"">+</div>",,html-keyboard-response,348,1845177,0.0-19.0-0.6,96250,List1A,white,man,,,,null,,,,
null,"<img src=""stim_listA/fight6.gif""</stim_listA>",,html-keyboard-response,349,1847195,0.0-19.0-1.6,96250,List1A,white,man,,,,null,,,,
null,are fighting each other,,html-keyboard-response,350,1849218,0.0-19.0-2.6,96250,List1A,white,man,,,,null,,,,
12599,,,survey-text,351,1861821,0.0-19.0-3.6,96250,List1A,white,man,,,,,"{""Q0"":""fred and luke are fighting one another""}","<img src=""stim_listA/fight6.gif""</stim_listA>",are fighting each other,
null,"<div style=""font-size:60px;"">+</div>",,html-keyboard-response,352,1862347,0.0-19.0-0.7,96250,List1A,white,man,,,,null,,,,
null,"<img src=""stim_listA/talk3.gif""</stim_listA>",,html-keyboard-response,353,1864356,0.0-19.0-1.7,96250,List1A,white,man,,,,null,,,,
null,is talking to,,html-keyboard-response,354,1866376,0.0-19.0-2.7,96250,List1A,white,man,,,,null,,,,
10427,,,survey-text,355,1876805,0.0-19.0-3.7,96250,List1A,white,man,,,,,"{""Q0"":""luke is talking with jane""}","<img src=""stim_listA/talk3.gif""</stim_listA>",is talking to,
null,"<div style=""font-size:60px;"">+</div>",,html-keyboard-response,356,1877326,0.0-19.0-0.8,96250,List1A,white,man,,,,null,,,,
null,"<img src=""stim_listA/argue8.gif""</stim_listA>",,html-keyboard-response,357,1879336,0.0-19.0-1.8,96250,List1A,white,man,,,,null,,,,
null,are arguing with each other,,html-keyboard-response,358,1881357,0.0-19.0-2.8,96250,List1A,white,man,,,,null,,,,
14091,,,survey-text,359,1895452,0.0-19.0-3.8,96250,List1A,white,man,,,,,"{""Q0"":""jane and beth are having an argument""}","<img src=""stim_listA/argue8.gif""</stim_listA>",are arguing with each other,
null,"<div style=""font-size:60px;"">+</div>",,html-keyboard-response,360,1895966,0.0-19.0-0.9,96250,List1A,white,man,,,,null,,,,
null,"<img src=""stim_listA/talk8.gif""</stim_listA>",,html-keyboard-response,361,1897987,0.0-19.0-1.9,96250,List1A,white,man,,,,null,,,,
null,are talking to each other,,html-keyboard-response,362,1900006,0.0-19.0-2.9,96250,List1A,white,man,,,,null,,,,
11139,,,survey-text,363,1911150,0.0-19.0-3.9,96250,List1A,white,man,,,,,"{""Q0"":""kate and ryth are arguing""}","<img src=""stim_listA/talk8.gif""</stim_listA>",are talking to each other,
null,"<div style=""font-size:60px;"">+</div>",,html-keyboard-response,364,1911671,0.0-19.0-0.10,96250,List1A,white,man,,,,null,,,,
null,"<img src=""stim_listA/talk2.gif""</stim_listA>",,html-keyboard-response,365,1913688,0.0-19.0-1.10,96250,List1A,white,man,,,,null,,,,
null,are talking to each other,,html-keyboard-response,366,1915702,0.0-19.0-2.10,96250,List1A,white,man,,,,null,,,,
10302,,,survey-text,367,1926007,0.0-19.0-3.10,96250,List1A,white,man,,,,,"{""Q0"":""mike is talking with beth""}","<img src=""stim_listA/talk2.gif""</stim_listA>",are talking to each other,
null,"<div style=""font-size:60px;"">+</div>",,html-keyboard-response,368,1926527,0.0-19.0-0.11,96250,List1A,white,man,,,,null,,,,
null,"<img src=""stim_listA/marry3.gif""</stim_listA>",,html-keyboard-response,369,1928546,0.0-19.0-1.11,96250,List1A,white,man,,,,null,,,,
null,is marrying,,html-keyboard-response,370,1930555,0.0-19.0-2.11,96250,List1A,white,man,,,,null,,,,
14798,,,survey-text,371,1945357,0.0-19.0-3.11,96250,List1A,white,man,,,,,"{""Q0"":""ruth and dave are getting married""}","<img src=""stim_listA/marry3.gif""</stim_listA>",is marrying,
null,"<div style=""font-size:60px;"">+</div>",,html-keyboard-response,372,1945871,0.0-19.0-0.12,96250,List1A,white,man,,,,null,,,,
null,"<img src=""stim_listA/dance6.gif""</stim_listA>",,html-keyboard-response,373,1947895,0.0-19.0-1.12,96250,List1A,white,man,,,,null,,,,
null,are dancing with each other,,html-keyboard-response,374,1949923,0.0-19.0-2.12,96250,List1A,white,man,,,,null,,,,
15092,,,survey-text,375,1965035,0.0-19.0-3.12,96250,List1A,white,man,,,,,"{""Q0"":""mike and luke are dancing with each other""}","<img src=""stim_listA/dance6.gif""</stim_listA>",are dancing with each other,
null,"<div style=""font-size:60px;"">+</div>",,html-keyboard-response,376,1965560,0.0-19.0-0.13,96250,List1A,white,man,,,,null,,,,
null,"<img src=""stim_listA/meet2.gif""</stim_listA>",,html-keyboard-response,377,1967576,0.0-19.0-1.13,96250,List1A,white,man,,,,null,,,,
null,are meeting each other,,html-keyboard-response,378,1969596,0.0-19.0-2.13,96250,List1A,white,man,,,,null,,,,
11005,,,survey-text,379,1980608,0.0-19.0-3.13,96250,List1A,white,man,,,,,"{""Q0"":""fred and beth are meeting each other""}","<img src=""stim_listA/meet2.gif""</stim_listA>",are meeting each other,
null,"<div style=""font-size:60px;"">+</div>",,html-keyboard-response,380,1981119,0.0-19.0-0.14,96250,List1A,white,man,,,,null,,,,
null,"<img src=""stim_listA/fight3.gif""</stim_listA>",,html-keyboard-response,381,1983136,0.0-19.0-1.14,96250,List1A,white,man,,,,null,,,,
null,is fighting,,html-keyboard-response,382,1985157,0.0-19.0-2.14,96250,List1A,white,man,,,,null,,,,
10223,,,survey-text,383,1995387,0.0-19.0-3.14,96250,List1A,white,man,,,,,"{""Q0"":""dave is fighting jane""}","<img src=""stim_listA/fight3.gif""</stim_listA>",is fighting,
null,"<div style=""font-size:60px;"">+</div>",,html-keyboard-response,384,1995896,0.0-19.0-0.15,96250,List1A,white,man,,,,null,,,,
null,"<img src=""stim_listA/talk6.gif""</stim_listA>",,html-keyboard-response,385,1997917,0.0-19.0-1.15,96250,List1A,white,man,,,,null,,,,
null,are talking to each other,,html-keyboard-response,386,1999926,0.0-19.0-2.15,96250,List1A,white,man,,,,null,,,,
16283,,,survey-text,387,2016215,0.0-19.0-3.15,96250,List1A,white,man,,,,,"{""Q0"":""mike and luke are talking to each other""}","<img src=""stim_listA/talk6.gif""</stim_listA>",are talking to each other,
null,"<div style=""font-size:60px;"">+</div>",,html-keyboard-response,388,2016741,0.0-19.0-0.16,96250,List1A,white,man,,,,null,,,,
null,"<img src=""stim_listA/shout2.gif""</stim_listA>",,html-keyboard-response,389,2018762,0.0-19.0-1.16,96250,List1A,white,man,,,,null,,,,
null,are shouting at each other,,html-keyboard-response,390,2020777,0.0-19.0-2.16,96250,List1A,white,man,,,,null,,,,
13471,,,survey-text,391,2034253,0.0-19.0-3.16,96250,List1A,white,man,,,,,"{""Q0"":""mike and kate are shouting at each other""}","<img src=""stim_listA/shout2.gif""</stim_listA>",are shouting at each other,
null,"<div style=""font-size:60px;"">+</div>",,html-keyboard-response,392,2034762,0.0-19.0-0.17,96250,List1A,white,man,,,,null,,,,
null,"<img src=""stim_listA/meet8.gif""</stim_listA>",,html-keyboard-response,393,2036777,0.0-19.0-1.17,96250,List1A,white,man,,,,null,,,,
null,are meeting each other,,html-keyboard-response,394,2038790,0.0-19.0-2.17,96250,List1A,white,man,,,,null,,,,
18299,,,survey-text,395,2057093,0.0-19.0-3.17,96250,List1A,white,man,,,,,"{""Q0"":""ruth and beth are meeting each other""}","<img src=""stim_listA/meet8.gif""</stim_listA>",are meeting each other,
null,"<div style=""font-size:60px;"">+</div>",,html-keyboard-response,396,2057608,0.0-19.0-0.18,96250,List1A,white,man,,,,null,,,,
null,"<img src=""stim_listA/dance8.gif""</stim_listA>",,html-keyboard-response,397,2059628,0.0-19.0-1.18,96250,List1A,white,man,,,,null,,,,
null,are dancing with each other,,html-keyboard-response,398,2061647,0.0-19.0-2.18,96250,List1A,white,man,,,,null,,,,
21169,,,survey-text,399,2082826,0.0-19.0-3.18,96250,List1A,white,man,,,,,"{""Q0"":""ruth is dancing with kate""}","<img src=""stim_listA/dance8.gif""</stim_listA>",are dancing with each other,
null,"<div style=""font-size:60px;"">+</div>",,html-keyboard-response,400,2083338,0.0-19.0-0.19,96250,List1A,white,man,,,,null,,,,
null,"<img src=""stim_listA/argue2.gif""</stim_listA>",,html-keyboard-response,401,2085346,0.0-19.0-1.19,96250,List1A,white,man,,,,null,,,,
null,are arguing with each other,,html-keyboard-response,402,2087360,0.0-19.0-2.19,96250,List1A,white,man,,,,null,,,,
13658,,,survey-text,403,2101021,0.0-19.0-3.19,96250,List1A,white,man,,,,,"{""Q0"":""fred is arguing with kate""}","<img src=""stim_listA/argue2.gif""</stim_listA>",are arguing with each other,
2866,<p>Thank you for completing that task.</p><p>The final part of this session is a short questionnaire.</p><p>Press Continue.</p>,0,html-button-response,404,2103895,0.0-20.0,96250,List1A,white,man,,,,,,,,
41450,,,survey-text,405,2146372,0.0-21.0,96250,List1A,white,man,,,,,"{""Q0"":""66"",""Q1"":""english"",""Q2"":""english"",""Q3"":""UK"",""Q4"":""White british"",""Q5"":""male""}",,,demographics
68571,,,survey-likert,406,2214970,0.0-22.0,96250,List1A,white,man,,,,,"{""Q0"":3,""Q1"":3,""Q2"":6,""Q3"":3,""Q4"":5,""Q5"":3,""Q6"":3,""Q7"":1,""Q8"":3,""Q9"":3,""Q10"":3,""Q11"":3,""Q12"":3,""Q13"":3}",,,likert_race
58265,,,survey-likert,407,2273259,0.0-23.0,96250,List1A,white,man,,,,,"{""Q0"":4,""Q1"":4,""Q2"":3,""Q3"":5,""Q4"":3,""Q5"":4,""Q6"":4,""Q7"":2,""Q8"":3,""Q9"":4,""Q10"":3,""Q11"":3,""Q12"":5,""Q13"":3}",,,likert_gender
11966,,,survey-text,408,2285236,0.0-24.0,96250,List1A,white,man,,,,,"{""Q0"":""ccc""}",,,worker_id
4540,,,external-html,409,2289946,0.0-25.0,96250,List1A,white,man,debrief.html,,,,,,,
