rt,stimulus,button_pressed,trial_type,trial_index,time_elapsed,internal_node_id,subject,list,ppt_race,ppt_gender,url,first_guess,correct,key_press,responses,image_type,phrase_type,test_part
2034,Welcome to the experiment. Press Continue to begin.,0,html-button-response,0,2040,0.0-0.0,96359,List2A,white,man,,,,,,,,
102038,,,external-html,1,105138,0.0-1.0,96359,List2A,white,man,consent.html,,,,,,,
18067,"<p>On the next page, you will see portraits of 8 people and their names.</p><p>Your first task is to take a few minutes to memorise the names of these people.</p><p>You will have to recall their names during the rest of the experiment, so it is</p><p>essential that you try to memorise these people and their names as best as you can.</p><br><p><strong>You will then be tested on your memory of these names and portraits.</strong></p><br><p>The experiment will start after you have completed this memory test.</p><br><p>Ready?</p>",0,html-button-response,2,123209,0.0-2.0,96359,List2A,white,man,,,,,,,,
72239,"<img src='img/portrait_matrix_list2.JPG' style='width:900px;height:500px;''></img><p>If you have memorised all the portraits and names and are ready to start, press Continue.</p><p><strong>Please note: Your memory of these faces will be tested 4 times during this experiment.</strong></p>",0,html-button-response,3,196451,0.0-3.0-0.0,96359,List2A,white,man,,,,,,,,
3973,"<img src=""portrait/WW1.jpg""style=""width:400px;height:400px;""></img>",1,html-button-response,4,201427,0.0-3.0-1.0,96359,List2A,white,man,,TRUE,1,,,,,
null,CORRECT,,html-keyboard-response,5,202932,0.0-3.0-2.0-0.0,96359,List2A,white,man,,,,null,,,,
6388,"<img src=""portrait/BW2.jpg""style=""width:400px;height:400px;""></img>",2,html-button-response,6,209322,0.0-3.0-4.0,96359,List2A,white,man,,TRUE,2,,,,,
null,CORRECT,,html-keyboard-response,7,210832,0.0-3.0-5.0-0.0,96359,List2A,white,man,,,,null,,,,
2522,"<img src=""portrait/BM2.jpg""style=""width:400px;height:400px;""></img>",5,html-button-response,8,213356,0.0-3.0-7.0,96359,List2A,white,man,,TRUE,5,,,,,
null,CORRECT,,html-keyboard-response,9,214858,0.0-3.0-8.0-0.0,96359,List2A,white,man,,,,null,,,,
3295,"<img src=""portrait/BW1.jpg""style=""width:400px;height:400px;""></img>",0,html-button-response,10,218155,0.0-3.0-10.0,96359,List2A,white,man,,TRUE,0,,,,,
null,CORRECT,,html-keyboard-response,11,219713,0.0-3.0-11.0-0.0,96359,List2A,white,man,,,,null,,,,
4468,"<img src=""portrait/WM1.jpg""style=""width:400px;height:400px;""></img>",6,html-button-response,12,224183,0.0-3.0-13.0,96359,List2A,white,man,,TRUE,6,,,,,
null,CORRECT,,html-keyboard-response,13,225689,0.0-3.0-14.0-0.0,96359,List2A,white,man,,,,null,,,,
2075,"<img src=""portrait/WM2.jpg""style=""width:400px;height:400px;""></img>",7,html-button-response,14,227766,0.0-3.0-16.0,96359,List2A,white,man,,TRUE,7,,,,,
null,CORRECT,,html-keyboard-response,15,229271,0.0-3.0-17.0-0.0,96359,List2A,white,man,,,,null,,,,
4409,"<img src=""portrait/BM1.jpg""style=""width:400px;height:400px;""></img>",4,html-button-response,16,233683,0.0-3.0-19.0,96359,List2A,white,man,,TRUE,4,,,,,
null,CORRECT,,html-keyboard-response,17,235186,0.0-3.0-20.0-0.0,96359,List2A,white,man,,,,null,,,,
4471,"<img src=""portrait/WW2.jpg""style=""width:400px;height:400px;""></img>",3,html-button-response,18,239660,0.0-3.0-22.0,96359,List2A,white,man,,TRUE,3,,,,,
null,CORRECT,,html-keyboard-response,19,241161,0.0-3.0-23.0-0.0,96359,List2A,white,man,,,,null,,,,
1965,<p>You got 8 out of 8 right first time. Press Continue.</p>,0,html-button-response,20,243129,0.0-3.0-25.0,96359,List2A,white,man,,,,,,,,
23698,"<p>In this experiment, you will view photographs of the people from the memory game interacting.</p><p>By using the <strong>exact</strong> phrase given <i>after</i> the photograph appears and recalling the correct names of the people in the photographs, form a sentence describing the interaction. You do not need to capitalise names.</p><p>Type your answer in the space provided. Please complete every sentence before moving onto the next trial.</p><p>You will only have a few seconds to memorise each given photograph and phrase before you can respond, so try your best to focus.</p><p>An example is given below. Press 'Continue' when you are ready.</p><img src='img/speaking_example_v2.jpg' style='width:800px;height:460px;''></img>",0,html-button-response,21,267830,0.0-4.0,96359,List2A,white,man,,,,,,,,
2596,"<p>Before the experiment starts, you will watch two example trials. Press 'Continue'.</p>",0,html-button-response,22,271428,0.0-5.0,96359,List2A,white,man,,,,,,,,
null,<img src='img/speaking_WW.gif'></img>,,html-keyboard-response,23,274431,0.0-6.0,96359,List2A,white,man,,,,null,,,,
null,<p>is speaking to</p>,,html-keyboard-response,24,276432,0.0-7.0,96359,List2A,white,man,,,,null,,,,
4329,<p><b>Answer:</b> jane is speaking to ruth</p>,0,html-button-response,25,280763,0.0-8.0,96359,List2A,white,man,,,,,,,,
null,<img src='img/pointing_BM.gif'></img>,,html-keyboard-response,26,283765,0.0-9.0,96359,List2A,white,man,,,,null,,,,
null,<p>are pointing at each other</p>,,html-keyboard-response,27,285766,0.0-10.0,96359,List2A,white,man,,,,null,,,,
3406,<p><b>Answer:</b> fred and mike are pointing at each other</p>,0,html-button-response,28,289174,0.0-11.0,96359,List2A,white,man,,,,,,,,
8659,"<p>Ready to start the experiment?</p><br><p><strong>Remember to describe the picture using a full sentence,</strong></p><p><strong>that combines the names of the people with the given phrase.</strong></p><p><strong>If you do not do this correctly you will not be paid.</strong></p><p><strong> You do not need to capitalise names or use punctuation.</strong></p><br><p>Press 'Continue' to begin.</p>",0,html-button-response,29,298835,0.0-12.0,96359,List2A,white,man,,,,,,,,
null,"<div style=""font-size:60px;"">+</div>",,html-keyboard-response,30,300338,0.0-13.0-0.0,96359,List2A,white,man,,,,null,,,,
null,"<img src=""stim_listA/meet8.gif""</stim_listA>",,html-keyboard-response,31,302339,0.0-13.0-1.0,96359,List2A,white,man,,,,null,,,,
null,are meeting each other,,html-keyboard-response,32,304340,0.0-13.0-2.0,96359,List2A,white,man,,,,null,,,,
20101,,,survey-text,33,324443,0.0-13.0-3.0,96359,List2A,white,man,,,,,"{""Q0"":""ruth and beth are meeting each other""}","<img src=""stim_listA/meet8.gif""</stim_listA>",are meeting each other,
null,"<div style=""font-size:60px;"">+</div>",,html-keyboard-response,34,324946,0.0-13.0-0.1,96359,List2A,white,man,,,,null,,,,
null,"<img src=""stim_listA/talk8.gif""</stim_listA>",,html-keyboard-response,35,326947,0.0-13.0-1.1,96359,List2A,white,man,,,,null,,,,
null,are talking to each other,,html-keyboard-response,36,328949,0.0-13.0-2.1,96359,List2A,white,man,,,,null,,,,
19138,,,survey-text,37,348089,0.0-13.0-3.1,96359,List2A,white,man,,,,,"{""Q0"":""jane and kate are speaking to each other""}","<img src=""stim_listA/talk8.gif""</stim_listA>",are talking to each other,
null,"<div style=""font-size:60px;"">+</div>",,html-keyboard-response,38,348589,0.0-13.0-0.2,96359,List2A,white,man,,,,null,,,,
null,"<img src=""stim_listA/kiss8.gif""</stim_listA>",,html-keyboard-response,39,350591,0.0-13.0-1.2,96359,List2A,white,man,,,,null,,,,
null,are kissing each other,,html-keyboard-response,40,352592,0.0-13.0-2.2,96359,List2A,white,man,,,,null,,,,
10940,,,survey-text,41,363535,0.0-13.0-3.2,96359,List2A,white,man,,,,,"{""Q0"":""jane and beth are kissing each other""}","<img src=""stim_listA/kiss8.gif""</stim_listA>",are kissing each other,
null,"<div style=""font-size:60px;"">+</div>",,html-keyboard-response,42,364037,0.0-13.0-0.3,96359,List2A,white,man,,,,null,,,,
null,"<img src=""stim_listA/dance2.gif""</stim_listA>",,html-keyboard-response,43,366038,0.0-13.0-1.3,96359,List2A,white,man,,,,null,,,,
null,are dancing with each other,,html-keyboard-response,44,368039,0.0-13.0-2.3,96359,List2A,white,man,,,,null,,,,
14586,,,survey-text,45,382627,0.0-13.0-3.3,96359,List2A,white,man,,,,,"{""Q0"":""dave and ruth are dancing with each other""}","<img src=""stim_listA/dance2.gif""</stim_listA>",are dancing with each other,
null,"<div style=""font-size:60px;"">+</div>",,html-keyboard-response,46,383128,0.0-13.0-0.4,96359,List2A,white,man,,,,null,,,,
null,"<img src=""stim_listA/marry7.gif""</stim_listA>",,html-keyboard-response,47,385129,0.0-13.0-1.4,96359,List2A,white,man,,,,null,,,,
null,is marrying,,html-keyboard-response,48,387130,0.0-13.0-2.4,96359,List2A,white,man,,,,null,,,,
14149,,,survey-text,49,401281,0.0-13.0-3.4,96359,List2A,white,man,,,,,"{""Q0"":""beth is marrying jane""}","<img src=""stim_listA/marry7.gif""</stim_listA>",is marrying,
null,"<div style=""font-size:60px;"">+</div>",,html-keyboard-response,50,401783,0.0-13.0-0.5,96359,List2A,white,man,,,,null,,,,
null,"<img src=""stim_listA/touch3.gif""</stim_listA>",,html-keyboard-response,51,403785,0.0-13.0-1.5,96359,List2A,white,man,,,,null,,,,
null,is touching,,html-keyboard-response,52,405786,0.0-13.0-2.5,96359,List2A,white,man,,,,null,,,,
11571,,,survey-text,53,417359,0.0-13.0-3.5,96359,List2A,white,man,,,,,"{""Q0"":""fred is touching beth""}","<img src=""stim_listA/touch3.gif""</stim_listA>",is touching,
null,"<div style=""font-size:60px;"">+</div>",,html-keyboard-response,54,417862,0.0-13.0-0.6,96359,List2A,white,man,,,,null,,,,
null,"<img src=""stim_listA/talk1.gif""</stim_listA>",,html-keyboard-response,55,419864,0.0-13.0-1.6,96359,List2A,white,man,,,,null,,,,
null,is talking to,,html-keyboard-response,56,421865,0.0-13.0-2.6,96359,List2A,white,man,,,,null,,,,
8750,,,survey-text,57,430617,0.0-13.0-3.6,96359,List2A,white,man,,,,,"{""Q0"":""dave is talking to jane""}","<img src=""stim_listA/talk1.gif""</stim_listA>",is talking to,
null,"<div style=""font-size:60px;"">+</div>",,html-keyboard-response,58,431119,0.0-13.0-0.7,96359,List2A,white,man,,,,null,,,,
null,"<img src=""stim_listA/hug6.gif""</stim_listA>",,html-keyboard-response,59,433121,0.0-13.0-1.7,96359,List2A,white,man,,,,null,,,,
null,are hugging each other,,html-keyboard-response,60,435122,0.0-13.0-2.7,96359,List2A,white,man,,,,null,,,,
10937,,,survey-text,61,446061,0.0-13.0-3.7,96359,List2A,white,man,,,,,"{""Q0"":""fred and dave are hugging each other""}","<img src=""stim_listA/hug6.gif""</stim_listA>",are hugging each other,
null,"<div style=""font-size:60px;"">+</div>",,html-keyboard-response,62,446563,0.0-13.0-0.8,96359,List2A,white,man,,,,null,,,,
null,"<img src=""stim_listA/marry5.gif""</stim_listA>",,html-keyboard-response,63,448564,0.0-13.0-1.8,96359,List2A,white,man,,,,null,,,,
null,is marrying,,html-keyboard-response,64,450565,0.0-13.0-2.8,96359,List2A,white,man,,,,null,,,,
9545,,,survey-text,65,460112,0.0-13.0-3.8,96359,List2A,white,man,,,,,"{""Q0"":""fred is marrying mike""}","<img src=""stim_listA/marry5.gif""</stim_listA>",is marrying,
null,"<div style=""font-size:60px;"">+</div>",,html-keyboard-response,66,460617,0.0-13.0-0.9,96359,List2A,white,man,,,,null,,,,
null,"<img src=""stim_listA/hug5.gif""</stim_listA>",,html-keyboard-response,67,462619,0.0-13.0-1.9,96359,List2A,white,man,,,,null,,,,
null,is hugging,,html-keyboard-response,68,464620,0.0-13.0-2.9,96359,List2A,white,man,,,,null,,,,
11861,,,survey-text,69,476481,0.0-13.0-3.9,96359,List2A,white,man,,,,,"{""Q0"":""luke is hugging fred""}","<img src=""stim_listA/hug5.gif""</stim_listA>",is hugging,
null,"<div style=""font-size:60px;"">+</div>",,html-keyboard-response,70,476983,0.0-13.0-0.10,96359,List2A,white,man,,,,null,,,,
null,"<img src=""stim_listA/hug1.gif""</stim_listA>",,html-keyboard-response,71,478984,0.0-13.0-1.10,96359,List2A,white,man,,,,null,,,,
null,is hugging,,html-keyboard-response,72,480985,0.0-13.0-2.10,96359,List2A,white,man,,,,null,,,,
12317,,,survey-text,73,493304,0.0-13.0-3.10,96359,List2A,white,man,,,,,"{""Q0"":""luke is hugging ruth""}","<img src=""stim_listA/hug1.gif""</stim_listA>",is hugging,
null,"<div style=""font-size:60px;"">+</div>",,html-keyboard-response,74,493805,0.0-13.0-0.11,96359,List2A,white,man,,,,null,,,,
null,"<img src=""stim_listA/shout4.gif""</stim_listA>",,html-keyboard-response,75,495808,0.0-13.0-1.11,96359,List2A,white,man,,,,null,,,,
null,are shouting at each other,,html-keyboard-response,76,497809,0.0-13.0-2.11,96359,List2A,white,man,,,,null,,,,
11248,,,survey-text,77,509058,0.0-13.0-3.11,96359,List2A,white,man,,,,,"{""Q0"":""mike and beth are shouting at each other""}","<img src=""stim_listA/shout4.gif""</stim_listA>",are shouting at each other,
null,"<div style=""font-size:60px;"">+</div>",,html-keyboard-response,78,509559,0.0-13.0-0.12,96359,List2A,white,man,,,,null,,,,
null,"<img src=""stim_listA/meet2.gif""</stim_listA>",,html-keyboard-response,79,511561,0.0-13.0-1.12,96359,List2A,white,man,,,,null,,,,
null,are meeting each other,,html-keyboard-response,80,513562,0.0-13.0-2.12,96359,List2A,white,man,,,,null,,,,
9660,,,survey-text,81,523224,0.0-13.0-3.12,96359,List2A,white,man,,,,,"{""Q0"":""luke and ruth are meeting each other""}","<img src=""stim_listA/meet2.gif""</stim_listA>",are meeting each other,
null,"<div style=""font-size:60px;"">+</div>",,html-keyboard-response,82,523724,0.0-13.0-0.13,96359,List2A,white,man,,,,null,,,,
null,"<img src=""stim_listA/marry3.gif""</stim_listA>",,html-keyboard-response,83,525726,0.0-13.0-1.13,96359,List2A,white,man,,,,null,,,,
null,is marrying,,html-keyboard-response,84,527727,0.0-13.0-2.13,96359,List2A,white,man,,,,null,,,,
9854,,,survey-text,85,537583,0.0-13.0-3.13,96359,List2A,white,man,,,,,"{""Q0"":""beth is marrying mike""}","<img src=""stim_listA/marry3.gif""</stim_listA>",is marrying,
null,"<div style=""font-size:60px;"">+</div>",,html-keyboard-response,86,538085,0.0-13.0-0.14,96359,List2A,white,man,,,,null,,,,
null,"<img src=""stim_listA/argue3.gif""</stim_listA>",,html-keyboard-response,87,540086,0.0-13.0-1.14,96359,List2A,white,man,,,,null,,,,
null,is arguing with,,html-keyboard-response,88,542087,0.0-13.0-2.14,96359,List2A,white,man,,,,null,,,,
10793,,,survey-text,89,552882,0.0-13.0-3.14,96359,List2A,white,man,,,,,"{""Q0"":""beth is arguing with mike""}","<img src=""stim_listA/argue3.gif""</stim_listA>",is arguing with,
null,"<div style=""font-size:60px;"">+</div>",,html-keyboard-response,90,553383,0.0-13.0-0.15,96359,List2A,white,man,,,,null,,,,
null,"<img src=""stim_listA/shout1.gif""</stim_listA>",,html-keyboard-response,91,555384,0.0-13.0-1.15,96359,List2A,white,man,,,,null,,,,
null,is shouting at,,html-keyboard-response,92,557385,0.0-13.0-2.15,96359,List2A,white,man,,,,null,,,,
7732,,,survey-text,93,565117,0.0-13.0-3.15,96359,List2A,white,man,,,,,"{""Q0"":""luke is shouting at ruth""}","<img src=""stim_listA/shout1.gif""</stim_listA>",is shouting at,
null,"<div style=""font-size:60px;"">+</div>",,html-keyboard-response,94,565619,0.0-13.0-0.16,96359,List2A,white,man,,,,null,,,,
null,"<img src=""stim_listA/fight8.gif""</stim_listA>",,html-keyboard-response,95,567623,0.0-13.0-1.16,96359,List2A,white,man,,,,null,,,,
null,are fighting each other,,html-keyboard-response,96,569624,0.0-13.0-2.16,96359,List2A,white,man,,,,null,,,,
10208,,,survey-text,97,579834,0.0-13.0-3.16,96359,List2A,white,man,,,,,"{""Q0"":""ruth and kate are fighting""}","<img src=""stim_listA/fight8.gif""</stim_listA>",are fighting each other,
null,"<div style=""font-size:60px;"">+</div>",,html-keyboard-response,98,580336,0.0-13.0-0.17,96359,List2A,white,man,,,,null,,,,
null,"<img src=""stim_listA/meet4.gif""</stim_listA>",,html-keyboard-response,99,582338,0.0-13.0-1.17,96359,List2A,white,man,,,,null,,,,
null,are meeting each other,,html-keyboard-response,100,584339,0.0-13.0-2.17,96359,List2A,white,man,,,,null,,,,
14147,,,survey-text,101,598487,0.0-13.0-3.17,96359,List2A,white,man,,,,,"{""Q0"":""fred and kate are meeting each other""}","<img src=""stim_listA/meet4.gif""</stim_listA>",are meeting each other,
null,"<div style=""font-size:60px;"">+</div>",,html-keyboard-response,102,598988,0.0-13.0-0.18,96359,List2A,white,man,,,,null,,,,
null,"<img src=""stim_listA/meet5.gif""</stim_listA>",,html-keyboard-response,103,600990,0.0-13.0-1.18,96359,List2A,white,man,,,,null,,,,
null,is meeting,,html-keyboard-response,104,602992,0.0-13.0-2.18,96359,List2A,white,man,,,,null,,,,
8023,,,survey-text,105,611016,0.0-13.0-3.18,96359,List2A,white,man,,,,,"{""Q0"":""mike is meeting dave""}","<img src=""stim_listA/meet5.gif""</stim_listA>",is meeting,
null,"<div style=""font-size:60px;"">+</div>",,html-keyboard-response,106,611517,0.0-13.0-0.19,96359,List2A,white,man,,,,null,,,,
null,"<img src=""stim_listA/shout5.gif""</stim_listA>",,html-keyboard-response,107,613519,0.0-13.0-1.19,96359,List2A,white,man,,,,null,,,,
null,is shouting at,,html-keyboard-response,108,615520,0.0-13.0-2.19,96359,List2A,white,man,,,,null,,,,
12658,,,survey-text,109,628179,0.0-13.0-3.19,96359,List2A,white,man,,,,,"{""Q0"":""luke is shouting at mike""}","<img src=""stim_listA/shout5.gif""</stim_listA>",is shouting at,
48374,"<img src='img/portrait_matrix_list2.JPG' style='width:900px;height:500px;''></img><p>If you have memorised all the portraits and names and are ready to start, press Continue.</p><p><strong>Please note: Your memory of these faces will be tested 4 times during this experiment.</strong></p>",0,html-button-response,110,676556,0.0-14.0-0.0,96359,List2A,white,man,,,,,,,,
2613,"<img src=""portrait/WM2.jpg""style=""width:400px;height:400px;""></img>",7,html-button-response,111,680171,0.0-14.0-1.0,96359,List2A,white,man,,TRUE,7,,,,,
null,CORRECT,,html-keyboard-response,112,681672,0.0-14.0-2.0-0.0,96359,List2A,white,man,,,,null,,,,
2953,"<img src=""portrait/BW2.jpg""style=""width:400px;height:400px;""></img>",2,html-button-response,113,684627,0.0-14.0-4.0,96359,List2A,white,man,,TRUE,2,,,,,
null,CORRECT,,html-keyboard-response,114,686129,0.0-14.0-5.0-0.0,96359,List2A,white,man,,,,null,,,,
2068,"<img src=""portrait/BM2.jpg""style=""width:400px;height:400px;""></img>",5,html-button-response,115,688199,0.0-14.0-7.0,96359,List2A,white,man,,TRUE,5,,,,,
null,CORRECT,,html-keyboard-response,116,689700,0.0-14.0-8.0-0.0,96359,List2A,white,man,,,,null,,,,
1667,"<img src=""portrait/WM1.jpg""style=""width:400px;height:400px;""></img>",6,html-button-response,117,691369,0.0-14.0-10.0,96359,List2A,white,man,,TRUE,6,,,,,
null,CORRECT,,html-keyboard-response,118,692872,0.0-14.0-11.0-0.0,96359,List2A,white,man,,,,null,,,,
2401,"<img src=""portrait/WW1.jpg""style=""width:400px;height:400px;""></img>",1,html-button-response,119,695275,0.0-14.0-13.0,96359,List2A,white,man,,TRUE,1,,,,,
null,CORRECT,,html-keyboard-response,120,696776,0.0-14.0-14.0-0.0,96359,List2A,white,man,,,,null,,,,
3420,"<img src=""portrait/BW1.jpg""style=""width:400px;height:400px;""></img>",0,html-button-response,121,700201,0.0-14.0-16.0,96359,List2A,white,man,,TRUE,0,,,,,
null,CORRECT,,html-keyboard-response,122,701703,0.0-14.0-17.0-0.0,96359,List2A,white,man,,,,null,,,,
3505,"<img src=""portrait/BM1.jpg""style=""width:400px;height:400px;""></img>",4,html-button-response,123,705211,0.0-14.0-19.0,96359,List2A,white,man,,TRUE,4,,,,,
null,CORRECT,,html-keyboard-response,124,706714,0.0-14.0-20.0-0.0,96359,List2A,white,man,,,,null,,,,
3193,"<img src=""portrait/WW2.jpg""style=""width:400px;height:400px;""></img>",3,html-button-response,125,709910,0.0-14.0-22.0,96359,List2A,white,man,,TRUE,3,,,,,
null,CORRECT,,html-keyboard-response,126,711413,0.0-14.0-23.0-0.0,96359,List2A,white,man,,,,null,,,,
2400,<p>You got 8 out of 8 right first time. Press Continue.</p>,0,html-button-response,127,713815,0.0-14.0-25.0,96359,List2A,white,man,,,,,,,,
null,"<div style=""font-size:60px;"">+</div>",,html-keyboard-response,128,715320,0.0-15.0-0.0,96359,List2A,white,man,,,,null,,,,
null,"<img src=""stim_listA/touch8.gif""</stim_listA>",,html-keyboard-response,129,717322,0.0-15.0-1.0,96359,List2A,white,man,,,,null,,,,
null,are touching each other,,html-keyboard-response,130,719324,0.0-15.0-2.0,96359,List2A,white,man,,,,null,,,,
11069,,,survey-text,131,730395,0.0-15.0-3.0,96359,List2A,white,man,,,,,"{""Q0"":""ruth and beth are touching each other""}","<img src=""stim_listA/touch8.gif""</stim_listA>",are touching each other,
null,"<div style=""font-size:60px;"">+</div>",,html-keyboard-response,132,730899,0.0-15.0-0.1,96359,List2A,white,man,,,,null,,,,
null,"<img src=""stim_listA/touch4.gif""</stim_listA>",,html-keyboard-response,133,732901,0.0-15.0-1.1,96359,List2A,white,man,,,,null,,,,
null,are touching each other,,html-keyboard-response,134,734903,0.0-15.0-2.1,96359,List2A,white,man,,,,null,,,,
10968,,,survey-text,135,745873,0.0-15.0-3.1,96359,List2A,white,man,,,,,"{""Q0"":""beth and fred are touching each other""}","<img src=""stim_listA/touch4.gif""</stim_listA>",are touching each other,
null,"<div style=""font-size:60px;"">+</div>",,html-keyboard-response,136,746374,0.0-15.0-0.2,96359,List2A,white,man,,,,null,,,,
null,"<img src=""stim_listA/kiss4.gif""</stim_listA>",,html-keyboard-response,137,748375,0.0-15.0-1.2,96359,List2A,white,man,,,,null,,,,
null,are kissing each other,,html-keyboard-response,138,750377,0.0-15.0-2.2,96359,List2A,white,man,,,,null,,,,
9335,,,survey-text,139,759713,0.0-15.0-3.2,96359,List2A,white,man,,,,,"{""Q0"":""mike and kate are kissing each other""}","<img src=""stim_listA/kiss4.gif""</stim_listA>",are kissing each other,
null,"<div style=""font-size:60px;"">+</div>",,html-keyboard-response,140,760215,0.0-15.0-0.3,96359,List2A,white,man,,,,null,,,,
null,"<img src=""stim_listA/argue4.gif""</stim_listA>",,html-keyboard-response,141,762217,0.0-15.0-1.3,96359,List2A,white,man,,,,null,,,,
null,are arguing with each other,,html-keyboard-response,142,764219,0.0-15.0-2.3,96359,List2A,white,man,,,,null,,,,
12752,,,survey-text,143,776973,0.0-15.0-3.3,96359,List2A,white,man,,,,,"{""Q0"":""fred and kate are arguing with each other""}","<img src=""stim_listA/argue4.gif""</stim_listA>",are arguing with each other,
null,"<div style=""font-size:60px;"">+</div>",,html-keyboard-response,144,777474,0.0-15.0-0.4,96359,List2A,white,man,,,,null,,,,
null,"<img src=""stim_listA/hug2.gif""</stim_listA>",,html-keyboard-response,145,779475,0.0-15.0-1.4,96359,List2A,white,man,,,,null,,,,
null,are hugging each other,,html-keyboard-response,146,781476,0.0-15.0-2.4,96359,List2A,white,man,,,,null,,,,
14409,,,survey-text,147,795886,0.0-15.0-3.4,96359,List2A,white,man,,,,,"{""Q0"":""dave and jane are hugging each other""}","<img src=""stim_listA/hug2.gif""</stim_listA>",are hugging each other,
null,"<div style=""font-size:60px;"">+</div>",,html-keyboard-response,148,796387,0.0-15.0-0.5,96359,List2A,white,man,,,,null,,,,
null,"<img src=""stim_listA/dance7.gif""</stim_listA>",,html-keyboard-response,149,798389,0.0-15.0-1.5,96359,List2A,white,man,,,,null,,,,
null,is dancing with,,html-keyboard-response,150,800390,0.0-15.0-2.5,96359,List2A,white,man,,,,null,,,,
7439,,,survey-text,151,807830,0.0-15.0-3.5,96359,List2A,white,man,,,,,"{""Q0"":""kate is dancing with ruth""}","<img src=""stim_listA/dance7.gif""</stim_listA>",is dancing with,
null,"<div style=""font-size:60px;"">+</div>",,html-keyboard-response,152,808331,0.0-15.0-0.6,96359,List2A,white,man,,,,null,,,,
null,"<img src=""stim_listA/fight7.gif""</stim_listA>",,html-keyboard-response,153,810333,0.0-15.0-1.6,96359,List2A,white,man,,,,null,,,,
null,is fighting,,html-keyboard-response,154,812334,0.0-15.0-2.6,96359,List2A,white,man,,,,null,,,,
6758,,,survey-text,155,819094,0.0-15.0-3.6,96359,List2A,white,man,,,,,"{""Q0"":""kate is fighting jane""}","<img src=""stim_listA/fight7.gif""</stim_listA>",is fighting,
null,"<div style=""font-size:60px;"">+</div>",,html-keyboard-response,156,819596,0.0-15.0-0.7,96359,List2A,white,man,,,,null,,,,
null,"<img src=""stim_listA/hug3.gif""</stim_listA>",,html-keyboard-response,157,821598,0.0-15.0-1.7,96359,List2A,white,man,,,,null,,,,
null,is hugging,,html-keyboard-response,158,823599,0.0-15.0-2.7,96359,List2A,white,man,,,,null,,,,
7553,,,survey-text,159,831154,0.0-15.0-3.7,96359,List2A,white,man,,,,,"{""Q0"":""fred is hugging beth""}","<img src=""stim_listA/hug3.gif""</stim_listA>",is hugging,
null,"<div style=""font-size:60px;"">+</div>",,html-keyboard-response,160,831655,0.0-15.0-0.8,96359,List2A,white,man,,,,null,,,,
null,"<img src=""stim_listA/shout3.gif""</stim_listA>",,html-keyboard-response,161,833656,0.0-15.0-1.8,96359,List2A,white,man,,,,null,,,,
null,is shouting at,,html-keyboard-response,162,835657,0.0-15.0-2.8,96359,List2A,white,man,,,,null,,,,
6983,,,survey-text,163,842642,0.0-15.0-3.8,96359,List2A,white,man,,,,,"{""Q0"":""fred is shouting at beth""}","<img src=""stim_listA/shout3.gif""</stim_listA>",is shouting at,
null,"<div style=""font-size:60px;"">+</div>",,html-keyboard-response,164,843149,0.0-15.0-0.9,96359,List2A,white,man,,,,null,,,,
null,"<img src=""stim_listA/argue5.gif""</stim_listA>",,html-keyboard-response,165,845150,0.0-15.0-1.9,96359,List2A,white,man,,,,null,,,,
null,is arguing with,,html-keyboard-response,166,847151,0.0-15.0-2.9,96359,List2A,white,man,,,,null,,,,
7760,,,survey-text,167,854912,0.0-15.0-3.9,96359,List2A,white,man,,,,,"{""Q0"":""fred is arguing with dave""}","<img src=""stim_listA/argue5.gif""</stim_listA>",is arguing with,
null,"<div style=""font-size:60px;"">+</div>",,html-keyboard-response,168,855414,0.0-15.0-0.10,96359,List2A,white,man,,,,null,,,,
null,"<img src=""stim_listA/dance6.gif""</stim_listA>",,html-keyboard-response,169,857416,0.0-15.0-1.10,96359,List2A,white,man,,,,null,,,,
null,are dancing with each other,,html-keyboard-response,170,859418,0.0-15.0-2.10,96359,List2A,white,man,,,,null,,,,
10319,,,survey-text,171,869738,0.0-15.0-3.10,96359,List2A,white,man,,,,,"{""Q0"":""fred and dave are dancing with each other""}","<img src=""stim_listA/dance6.gif""</stim_listA>",are dancing with each other,
null,"<div style=""font-size:60px;"">+</div>",,html-keyboard-response,172,870239,0.0-15.0-0.11,96359,List2A,white,man,,,,null,,,,
null,"<img src=""stim_listA/marry4.gif""</stim_listA>",,html-keyboard-response,173,872241,0.0-15.0-1.11,96359,List2A,white,man,,,,null,,,,
null,are marrying each other,,html-keyboard-response,174,874243,0.0-15.0-2.11,96359,List2A,white,man,,,,null,,,,
12511,,,survey-text,175,886755,0.0-15.0-3.11,96359,List2A,white,man,,,,,"{""Q0"":""fred and kate are marrying each other""}","<img src=""stim_listA/marry4.gif""</stim_listA>",are marrying each other,
null,"<div style=""font-size:60px;"">+</div>",,html-keyboard-response,176,887256,0.0-15.0-0.12,96359,List2A,white,man,,,,null,,,,
null,"<img src=""stim_listA/talk2.gif""</stim_listA>",,html-keyboard-response,177,889259,0.0-15.0-1.12,96359,List2A,white,man,,,,null,,,,
null,are talking to each other,,html-keyboard-response,178,891259,0.0-15.0-2.12,96359,List2A,white,man,,,,null,,,,
12269,,,survey-text,179,903529,0.0-15.0-3.12,96359,List2A,white,man,,,,,"{""Q0"":""dave and ruth are talking to each other""}","<img src=""stim_listA/talk2.gif""</stim_listA>",are talking to each other,
null,"<div style=""font-size:60px;"">+</div>",,html-keyboard-response,180,904031,0.0-15.0-0.13,96359,List2A,white,man,,,,null,,,,
null,"<img src=""stim_listA/hug7.gif""</stim_listA>",,html-keyboard-response,181,906033,0.0-15.0-1.13,96359,List2A,white,man,,,,null,,,,
null,is hugging,,html-keyboard-response,182,908034,0.0-15.0-2.13,96359,List2A,white,man,,,,null,,,,
10192,,,survey-text,183,918228,0.0-15.0-3.13,96359,List2A,white,man,,,,,"{""Q0"":""ruth is hugging beth""}","<img src=""stim_listA/hug7.gif""</stim_listA>",is hugging,
null,"<div style=""font-size:60px;"">+</div>",,html-keyboard-response,184,918729,0.0-15.0-0.14,96359,List2A,white,man,,,,null,,,,
null,"<img src=""stim_listA/fight6.gif""</stim_listA>",,html-keyboard-response,185,920731,0.0-15.0-1.14,96359,List2A,white,man,,,,null,,,,
null,are fighting each other,,html-keyboard-response,186,922733,0.0-15.0-2.14,96359,List2A,white,man,,,,null,,,,
9967,,,survey-text,187,932701,0.0-15.0-3.14,96359,List2A,white,man,,,,,"{""Q0"":""fred and luke are fighting with each other""}","<img src=""stim_listA/fight6.gif""</stim_listA>",are fighting each other,
null,"<div style=""font-size:60px;"">+</div>",,html-keyboard-response,188,933203,0.0-15.0-0.15,96359,List2A,white,man,,,,null,,,,
null,"<img src=""stim_listA/kiss2.gif""</stim_listA>",,html-keyboard-response,189,935204,0.0-15.0-1.15,96359,List2A,white,man,,,,null,,,,
null,are kissing each other,,html-keyboard-response,190,937205,0.0-15.0-2.15,96359,List2A,white,man,,,,null,,,,
9450,,,survey-text,191,946656,0.0-15.0-3.15,96359,List2A,white,man,,,,,"{""Q0"":""dave and jane are kissing each other""}","<img src=""stim_listA/kiss2.gif""</stim_listA>",are kissing each other,
null,"<div style=""font-size:60px;"">+</div>",,html-keyboard-response,192,947157,0.0-15.0-0.16,96359,List2A,white,man,,,,null,,,,
null,"<img src=""stim_listA/argue7.gif""</stim_listA>",,html-keyboard-response,193,949159,0.0-15.0-1.16,96359,List2A,white,man,,,,null,,,,
null,is arguing with,,html-keyboard-response,194,951160,0.0-15.0-2.16,96359,List2A,white,man,,,,null,,,,
8507,,,survey-text,195,959669,0.0-15.0-3.16,96359,List2A,white,man,,,,,"{""Q0"":""beth is arguing with jane""}","<img src=""stim_listA/argue7.gif""</stim_listA>",is arguing with,
null,"<div style=""font-size:60px;"">+</div>",,html-keyboard-response,196,960170,0.0-15.0-0.17,96359,List2A,white,man,,,,null,,,,
null,"<img src=""stim_listA/dance5.gif""</stim_listA>",,html-keyboard-response,197,962171,0.0-15.0-1.17,96359,List2A,white,man,,,,null,,,,
null,is dancing with,,html-keyboard-response,198,964172,0.0-15.0-2.17,96359,List2A,white,man,,,,null,,,,
7407,,,survey-text,199,971581,0.0-15.0-3.17,96359,List2A,white,man,,,,,"{""Q0"":""mike is dancing with luke""}","<img src=""stim_listA/dance5.gif""</stim_listA>",is dancing with,
null,"<div style=""font-size:60px;"">+</div>",,html-keyboard-response,200,972082,0.0-15.0-0.18,96359,List2A,white,man,,,,null,,,,
null,"<img src=""stim_listA/hug8.gif""</stim_listA>",,html-keyboard-response,201,974084,0.0-15.0-1.18,96359,List2A,white,man,,,,null,,,,
null,are hugging each other,,html-keyboard-response,202,976085,0.0-15.0-2.18,96359,List2A,white,man,,,,null,,,,
13239,,,survey-text,203,989326,0.0-15.0-3.18,96359,List2A,white,man,,,,,"{""Q0"":""kate and jane are hugging each other""}","<img src=""stim_listA/hug8.gif""</stim_listA>",are hugging each other,
null,"<div style=""font-size:60px;"">+</div>",,html-keyboard-response,204,989828,0.0-15.0-0.19,96359,List2A,white,man,,,,null,,,,
null,"<img src=""stim_listA/marry8.gif""</stim_listA>",,html-keyboard-response,205,991830,0.0-15.0-1.19,96359,List2A,white,man,,,,null,,,,
null,are marrying each other,,html-keyboard-response,206,993831,0.0-15.0-2.19,96359,List2A,white,man,,,,null,,,,
9463,,,survey-text,207,1003295,0.0-15.0-3.19,96359,List2A,white,man,,,,,"{""Q0"":""ruth and kate are marrying each other""}","<img src=""stim_listA/marry8.gif""</stim_listA>",are marrying each other,
17387,"<img src='img/portrait_matrix_list2.JPG' style='width:900px;height:500px;''></img><p>If you have memorised all the portraits and names and are ready to start, press Continue.</p><p><strong>Please note: Your memory of these faces will be tested 4 times during this experiment.</strong></p>",0,html-button-response,208,1020685,0.0-16.0-0.0,96359,List2A,white,man,,,,,,,,
2044,"<img src=""portrait/BW1.jpg""style=""width:400px;height:400px;""></img>",0,html-button-response,209,1023732,0.0-16.0-1.0,96359,List2A,white,man,,TRUE,0,,,,,
null,CORRECT,,html-keyboard-response,210,1025233,0.0-16.0-2.0-0.0,96359,List2A,white,man,,,,null,,,,
2273,"<img src=""portrait/WM1.jpg""style=""width:400px;height:400px;""></img>",6,html-button-response,211,1027509,0.0-16.0-4.0,96359,List2A,white,man,,TRUE,6,,,,,
null,CORRECT,,html-keyboard-response,212,1029011,0.0-16.0-5.0-0.0,96359,List2A,white,man,,,,null,,,,
2303,"<img src=""portrait/WW1.jpg""style=""width:400px;height:400px;""></img>",1,html-button-response,213,1031316,0.0-16.0-7.0,96359,List2A,white,man,,TRUE,1,,,,,
null,CORRECT,,html-keyboard-response,214,1032817,0.0-16.0-8.0-0.0,96359,List2A,white,man,,,,null,,,,
5420,"<img src=""portrait/BM1.jpg""style=""width:400px;height:400px;""></img>",4,html-button-response,215,1038239,0.0-16.0-10.0,96359,List2A,white,man,,TRUE,4,,,,,
null,CORRECT,,html-keyboard-response,216,1039739,0.0-16.0-11.0-0.0,96359,List2A,white,man,,,,null,,,,
2126,"<img src=""portrait/WW2.jpg""style=""width:400px;height:400px;""></img>",3,html-button-response,217,1041867,0.0-16.0-13.0,96359,List2A,white,man,,TRUE,3,,,,,
null,CORRECT,,html-keyboard-response,218,1043369,0.0-16.0-14.0-0.0,96359,List2A,white,man,,,,null,,,,
1740,"<img src=""portrait/BM2.jpg""style=""width:400px;height:400px;""></img>",5,html-button-response,219,1045111,0.0-16.0-16.0,96359,List2A,white,man,,TRUE,5,,,,,
null,CORRECT,,html-keyboard-response,220,1046613,0.0-16.0-17.0-0.0,96359,List2A,white,man,,,,null,,,,
2756,"<img src=""portrait/BW2.jpg""style=""width:400px;height:400px;""></img>",2,html-button-response,221,1049372,0.0-16.0-19.0,96359,List2A,white,man,,TRUE,2,,,,,
null,CORRECT,,html-keyboard-response,222,1050876,0.0-16.0-20.0-0.0,96359,List2A,white,man,,,,null,,,,
2189,"<img src=""portrait/WM2.jpg""style=""width:400px;height:400px;""></img>",7,html-button-response,223,1053067,0.0-16.0-22.0,96359,List2A,white,man,,TRUE,7,,,,,
null,CORRECT,,html-keyboard-response,224,1054567,0.0-16.0-23.0-0.0,96359,List2A,white,man,,,,null,,,,
1804,<p>You got 8 out of 8 right first time. Press Continue.</p>,0,html-button-response,225,1056373,0.0-16.0-25.0,96359,List2A,white,man,,,,,,,,
null,"<div style=""font-size:60px;"">+</div>",,html-keyboard-response,226,1057874,0.0-17.0-0.0,96359,List2A,white,man,,,,null,,,,
null,"<img src=""stim_listA/shout2.gif""</stim_listA>",,html-keyboard-response,227,1059876,0.0-17.0-1.0,96359,List2A,white,man,,,,null,,,,
null,are shouting at each other,,html-keyboard-response,228,1061877,0.0-17.0-2.0,96359,List2A,white,man,,,,null,,,,
9777,,,survey-text,229,1071657,0.0-17.0-3.0,96359,List2A,white,man,,,,,"{""Q0"":""dave and jane are shouting at each other""}","<img src=""stim_listA/shout2.gif""</stim_listA>",are shouting at each other,
null,"<div style=""font-size:60px;"">+</div>",,html-keyboard-response,230,1072161,0.0-17.0-0.1,96359,List2A,white,man,,,,null,,,,
null,"<img src=""stim_listA/hug4.gif""</stim_listA>",,html-keyboard-response,231,1074164,0.0-17.0-1.1,96359,List2A,white,man,,,,null,,,,
null,are hugging each other,,html-keyboard-response,232,1076165,0.0-17.0-2.1,96359,List2A,white,man,,,,null,,,,
9094,,,survey-text,233,1085260,0.0-17.0-3.1,96359,List2A,white,man,,,,,"{""Q0"":""mike and kate are hugging each other""}","<img src=""stim_listA/hug4.gif""</stim_listA>",are hugging each other,
null,"<div style=""font-size:60px;"">+</div>",,html-keyboard-response,234,1085763,0.0-17.0-0.2,96359,List2A,white,man,,,,null,,,,
null,"<img src=""stim_listA/talk7.gif""</stim_listA>",,html-keyboard-response,235,1087764,0.0-17.0-1.2,96359,List2A,white,man,,,,null,,,,
null,is talking to,,html-keyboard-response,236,1089765,0.0-17.0-2.2,96359,List2A,white,man,,,,null,,,,
7997,,,survey-text,237,1097763,0.0-17.0-3.2,96359,List2A,white,man,,,,,"{""Q0"":""ruth is talking to kate""}","<img src=""stim_listA/talk7.gif""</stim_listA>",is talking to,
null,"<div style=""font-size:60px;"">+</div>",,html-keyboard-response,238,1098264,0.0-17.0-0.3,96359,List2A,white,man,,,,null,,,,
null,"<img src=""stim_listA/fight4.gif""</stim_listA>",,html-keyboard-response,239,1100265,0.0-17.0-1.3,96359,List2A,white,man,,,,null,,,,
null,are fighting each other,,html-keyboard-response,240,1102266,0.0-17.0-2.3,96359,List2A,white,man,,,,null,,,,
11475,,,survey-text,241,1113743,0.0-17.0-3.3,96359,List2A,white,man,,,,,"{""Q0"":""fred and beth are fighting with each other""}","<img src=""stim_listA/fight4.gif""</stim_listA>",are fighting each other,
null,"<div style=""font-size:60px;"">+</div>",,html-keyboard-response,242,1114243,0.0-17.0-0.4,96359,List2A,white,man,,,,null,,,,
null,"<img src=""stim_listA/shout8.gif""</stim_listA>",,html-keyboard-response,243,1116244,0.0-17.0-1.4,96359,List2A,white,man,,,,null,,,,
null,are shouting at each other,,html-keyboard-response,244,1118246,0.0-17.0-2.4,96359,List2A,white,man,,,,null,,,,
9837,,,survey-text,245,1128085,0.0-17.0-3.4,96359,List2A,white,man,,,,,"{""Q0"":""kate and jane are shouting at each other""}","<img src=""stim_listA/shout8.gif""</stim_listA>",are shouting at each other,
null,"<div style=""font-size:60px;"">+</div>",,html-keyboard-response,246,1128587,0.0-17.0-0.5,96359,List2A,white,man,,,,null,,,,
null,"<img src=""stim_listA/kiss7.gif""</stim_listA>",,html-keyboard-response,247,1130589,0.0-17.0-1.5,96359,List2A,white,man,,,,null,,,,
null,is kissing,,html-keyboard-response,248,1132591,0.0-17.0-2.5,96359,List2A,white,man,,,,null,,,,
6238,,,survey-text,249,1138829,0.0-17.0-3.5,96359,List2A,white,man,,,,,"{""Q0"":""ruth is kissing beth""}","<img src=""stim_listA/kiss7.gif""</stim_listA>",is kissing,
null,"<div style=""font-size:60px;"">+</div>",,html-keyboard-response,250,1139331,0.0-17.0-0.6,96359,List2A,white,man,,,,null,,,,
null,"<img src=""stim_listA/talk5.gif""</stim_listA>",,html-keyboard-response,251,1141334,0.0-17.0-1.6,96359,List2A,white,man,,,,null,,,,
null,is talking to,,html-keyboard-response,252,1143336,0.0-17.0-2.6,96359,List2A,white,man,,,,null,,,,
7048,,,survey-text,253,1150385,0.0-17.0-3.6,96359,List2A,white,man,,,,,"{""Q0"":""luke is talking to mike""}","<img src=""stim_listA/talk5.gif""</stim_listA>",is talking to,
null,"<div style=""font-size:60px;"">+</div>",,html-keyboard-response,254,1150886,0.0-17.0-0.7,96359,List2A,white,man,,,,null,,,,
null,"<img src=""stim_listA/touch5.gif""</stim_listA>",,html-keyboard-response,255,1152888,0.0-17.0-1.7,96359,List2A,white,man,,,,null,,,,
null,is touching,,html-keyboard-response,256,1154890,0.0-17.0-2.7,96359,List2A,white,man,,,,null,,,,
6564,,,survey-text,257,1161455,0.0-17.0-3.7,96359,List2A,white,man,,,,,"{""Q0"":""mike is touching dave""}","<img src=""stim_listA/touch5.gif""</stim_listA>",is touching,
null,"<div style=""font-size:60px;"">+</div>",,html-keyboard-response,258,1161956,0.0-17.0-0.8,96359,List2A,white,man,,,,null,,,,
null,"<img src=""stim_listA/talk3.gif""</stim_listA>",,html-keyboard-response,259,1163959,0.0-17.0-1.8,96359,List2A,white,man,,,,null,,,,
null,is talking to,,html-keyboard-response,260,1165960,0.0-17.0-2.8,96359,List2A,white,man,,,,null,,,,
6382,,,survey-text,261,1172345,0.0-17.0-3.8,96359,List2A,white,man,,,,,"{""Q0"":""fred is talking to kate""}","<img src=""stim_listA/talk3.gif""</stim_listA>",is talking to,
null,"<div style=""font-size:60px;"">+</div>",,html-keyboard-response,262,1172847,0.0-17.0-0.9,96359,List2A,white,man,,,,null,,,,
null,"<img src=""stim_listA/fight1.gif""</stim_listA>",,html-keyboard-response,263,1174849,0.0-17.0-1.9,96359,List2A,white,man,,,,null,,,,
null,is fighting,,html-keyboard-response,264,1176850,0.0-17.0-2.9,96359,List2A,white,man,,,,null,,,,
7405,,,survey-text,265,1184256,0.0-17.0-3.9,96359,List2A,white,man,,,,,"{""Q0"":""jane is fighting dave""}","<img src=""stim_listA/fight1.gif""</stim_listA>",is fighting,
null,"<div style=""font-size:60px;"">+</div>",,html-keyboard-response,266,1184758,0.0-17.0-0.10,96359,List2A,white,man,,,,null,,,,
null,"<img src=""stim_listA/touch6.gif""</stim_listA>",,html-keyboard-response,267,1186760,0.0-17.0-1.10,96359,List2A,white,man,,,,null,,,,
null,are touching each other,,html-keyboard-response,268,1188762,0.0-17.0-2.10,96359,List2A,white,man,,,,null,,,,
10435,,,survey-text,269,1199198,0.0-17.0-3.10,96359,List2A,white,man,,,,,"{""Q0"":""mike and luke are touching each other""}","<img src=""stim_listA/touch6.gif""</stim_listA>",are touching each other,
null,"<div style=""font-size:60px;"">+</div>",,html-keyboard-response,270,1199700,0.0-17.0-0.11,96359,List2A,white,man,,,,null,,,,
null,"<img src=""stim_listA/talk6.gif""</stim_listA>",,html-keyboard-response,271,1201702,0.0-17.0-1.11,96359,List2A,white,man,,,,null,,,,
null,are talking to each other,,html-keyboard-response,272,1203703,0.0-17.0-2.11,96359,List2A,white,man,,,,null,,,,
14568,,,survey-text,273,1218273,0.0-17.0-3.11,96359,List2A,white,man,,,,,"{""Q0"":""fred and dave are talking with each other""}","<img src=""stim_listA/talk6.gif""</stim_listA>",are talking to each other,
null,"<div style=""font-size:60px;"">+</div>",,html-keyboard-response,274,1218775,0.0-17.0-0.12,96359,List2A,white,man,,,,null,,,,
null,"<img src=""stim_listA/kiss5.gif""</stim_listA>",,html-keyboard-response,275,1220776,0.0-17.0-1.12,96359,List2A,white,man,,,,null,,,,
null,is kissing,,html-keyboard-response,276,1222778,0.0-17.0-2.12,96359,List2A,white,man,,,,null,,,,
7599,,,survey-text,277,1230379,0.0-17.0-3.12,96359,List2A,white,man,,,,,"{""Q0"":""fred is kissing luke""}","<img src=""stim_listA/kiss5.gif""</stim_listA>",is kissing,
null,"<div style=""font-size:60px;"">+</div>",,html-keyboard-response,278,1230880,0.0-17.0-0.13,96359,List2A,white,man,,,,null,,,,
null,"<img src=""stim_listA/talk4.gif""</stim_listA>",,html-keyboard-response,279,1232881,0.0-17.0-1.13,96359,List2A,white,man,,,,null,,,,
null,are talking to each other,,html-keyboard-response,280,1234881,0.0-17.0-2.13,96359,List2A,white,man,,,,null,,,,
12124,,,survey-text,281,1247007,0.0-17.0-3.13,96359,List2A,white,man,,,,,"{""Q0"":""mike and beth are talking to each other""}","<img src=""stim_listA/talk4.gif""</stim_listA>",are talking to each other,
null,"<div style=""font-size:60px;"">+</div>",,html-keyboard-response,282,1247508,0.0-17.0-0.14,96359,List2A,white,man,,,,null,,,,
null,"<img src=""stim_listA/shout7.gif""</stim_listA>",,html-keyboard-response,283,1249511,0.0-17.0-1.14,96359,List2A,white,man,,,,null,,,,
null,is shouting at,,html-keyboard-response,284,1251512,0.0-17.0-2.14,96359,List2A,white,man,,,,null,,,,
9868,,,survey-text,285,1261382,0.0-17.0-3.14,96359,List2A,white,man,,,,,"{""Q0"":""ruth is shouting at beth""}","<img src=""stim_listA/shout7.gif""</stim_listA>",is shouting at,
null,"<div style=""font-size:60px;"">+</div>",,html-keyboard-response,286,1261884,0.0-17.0-0.15,96359,List2A,white,man,,,,null,,,,
null,"<img src=""stim_listA/dance3.gif""</stim_listA>",,html-keyboard-response,287,1263886,0.0-17.0-1.15,96359,List2A,white,man,,,,null,,,,
null,is dancing with,,html-keyboard-response,288,1265888,0.0-17.0-2.15,96359,List2A,white,man,,,,null,,,,
7713,,,survey-text,289,1273601,0.0-17.0-3.15,96359,List2A,white,man,,,,,"{""Q0"":""mike is dancing with kate""}","<img src=""stim_listA/dance3.gif""</stim_listA>",is dancing with,
null,"<div style=""font-size:60px;"">+</div>",,html-keyboard-response,290,1274102,0.0-17.0-0.16,96359,List2A,white,man,,,,null,,,,
null,"<img src=""stim_listA/marry1.gif""</stim_listA>",,html-keyboard-response,291,1276104,0.0-17.0-1.16,96359,List2A,white,man,,,,null,,,,
null,is marrying,,html-keyboard-response,292,1278105,0.0-17.0-2.16,96359,List2A,white,man,,,,null,,,,
9302,,,survey-text,293,1287409,0.0-17.0-3.16,96359,List2A,white,man,,,,,"{""Q0"":""dave is marrying ruth""}","<img src=""stim_listA/marry1.gif""</stim_listA>",is marrying,
null,"<div style=""font-size:60px;"">+</div>",,html-keyboard-response,294,1287910,0.0-17.0-0.17,96359,List2A,white,man,,,,null,,,,
null,"<img src=""stim_listA/touch7.gif""</stim_listA>",,html-keyboard-response,295,1289912,0.0-17.0-1.17,96359,List2A,white,man,,,,null,,,,
null,is touching,,html-keyboard-response,296,1291914,0.0-17.0-2.17,96359,List2A,white,man,,,,null,,,,
5833,,,survey-text,297,1297748,0.0-17.0-3.17,96359,List2A,white,man,,,,,"{""Q0"":""kate is touching jane""}","<img src=""stim_listA/touch7.gif""</stim_listA>",is touching,
null,"<div style=""font-size:60px;"">+</div>",,html-keyboard-response,298,1298250,0.0-17.0-0.18,96359,List2A,white,man,,,,null,,,,
null,"<img src=""stim_listA/fight2.gif""</stim_listA>",,html-keyboard-response,299,1300251,0.0-17.0-1.18,96359,List2A,white,man,,,,null,,,,
null,are fighting each other,,html-keyboard-response,300,1302252,0.0-17.0-2.18,96359,List2A,white,man,,,,null,,,,
9999,,,survey-text,301,1312252,0.0-17.0-3.18,96359,List2A,white,man,,,,,"{""Q0"":""luke and ruth are fighting each other""}","<img src=""stim_listA/fight2.gif""</stim_listA>",are fighting each other,
null,"<div style=""font-size:60px;"">+</div>",,html-keyboard-response,302,1312755,0.0-17.0-0.19,96359,List2A,white,man,,,,null,,,,
null,"<img src=""stim_listA/meet7.gif""</stim_listA>",,html-keyboard-response,303,1314757,0.0-17.0-1.19,96359,List2A,white,man,,,,null,,,,
null,is meeting,,html-keyboard-response,304,1316759,0.0-17.0-2.19,96359,List2A,white,man,,,,null,,,,
6934,,,survey-text,305,1323695,0.0-17.0-3.19,96359,List2A,white,man,,,,,"{""Q0"":""kate is meeting jane""}","<img src=""stim_listA/meet7.gif""</stim_listA>",is meeting,
7031,"<img src='img/portrait_matrix_list2.JPG' style='width:900px;height:500px;''></img><p>If you have memorised all the portraits and names and are ready to start, press Continue.</p><p><strong>Please note: Your memory of these faces will be tested 4 times during this experiment.</strong></p>",0,html-button-response,306,1330728,0.0-18.0-0.0,96359,List2A,white,man,,,,,,,,
2286,"<img src=""portrait/WW1.jpg""style=""width:400px;height:400px;""></img>",1,html-button-response,307,1334018,0.0-18.0-1.0,96359,List2A,white,man,,TRUE,1,,,,,
null,CORRECT,,html-keyboard-response,308,1335519,0.0-18.0-2.0-0.0,96359,List2A,white,man,,,,null,,,,
2322,"<img src=""portrait/BM1.jpg""style=""width:400px;height:400px;""></img>",4,html-button-response,309,1337843,0.0-18.0-4.0,96359,List2A,white,man,,TRUE,4,,,,,
null,CORRECT,,html-keyboard-response,310,1339343,0.0-18.0-5.0-0.0,96359,List2A,white,man,,,,null,,,,
1611,"<img src=""portrait/WW2.jpg""style=""width:400px;height:400px;""></img>",3,html-button-response,311,1340956,0.0-18.0-7.0,96359,List2A,white,man,,TRUE,3,,,,,
null,CORRECT,,html-keyboard-response,312,1342457,0.0-18.0-8.0-0.0,96359,List2A,white,man,,,,null,,,,
1933,"<img src=""portrait/BM2.jpg""style=""width:400px;height:400px;""></img>",5,html-button-response,313,1344392,0.0-18.0-10.0,96359,List2A,white,man,,TRUE,5,,,,,
null,CORRECT,,html-keyboard-response,314,1345892,0.0-18.0-11.0-0.0,96359,List2A,white,man,,,,null,,,,
2646,"<img src=""portrait/BW2.jpg""style=""width:400px;height:400px;""></img>",2,html-button-response,315,1348540,0.0-18.0-13.0,96359,List2A,white,man,,TRUE,2,,,,,
null,CORRECT,,html-keyboard-response,316,1350041,0.0-18.0-14.0-0.0,96359,List2A,white,man,,,,null,,,,
2060,"<img src=""portrait/WM1.jpg""style=""width:400px;height:400px;""></img>",6,html-button-response,317,1352104,0.0-18.0-16.0,96359,List2A,white,man,,TRUE,6,,,,,
null,CORRECT,,html-keyboard-response,318,1353606,0.0-18.0-17.0-0.0,96359,List2A,white,man,,,,null,,,,
3100,"<img src=""portrait/BW1.jpg""style=""width:400px;height:400px;""></img>",0,html-button-response,319,1356708,0.0-18.0-19.0,96359,List2A,white,man,,TRUE,0,,,,,
null,CORRECT,,html-keyboard-response,320,1358208,0.0-18.0-20.0-0.0,96359,List2A,white,man,,,,null,,,,
1931,"<img src=""portrait/WM2.jpg""style=""width:400px;height:400px;""></img>",7,html-button-response,321,1360141,0.0-18.0-22.0,96359,List2A,white,man,,TRUE,7,,,,,
null,CORRECT,,html-keyboard-response,322,1361643,0.0-18.0-23.0-0.0,96359,List2A,white,man,,,,null,,,,
1106,<p>You got 8 out of 8 right first time. Press Continue.</p>,0,html-button-response,323,1362751,0.0-18.0-25.0,96359,List2A,white,man,,,,,,,,
null,"<div style=""font-size:60px;"">+</div>",,html-keyboard-response,324,1364253,0.0-19.0-0.0,96359,List2A,white,man,,,,null,,,,
null,"<img src=""stim_listA/marry2.gif""</stim_listA>",,html-keyboard-response,325,1366255,0.0-19.0-1.0,96359,List2A,white,man,,,,null,,,,
null,are marrying each other,,html-keyboard-response,326,1368256,0.0-19.0-2.0,96359,List2A,white,man,,,,null,,,,
9484,,,survey-text,327,1377741,0.0-19.0-3.0,96359,List2A,white,man,,,,,"{""Q0"":""luke and jane are marrying each other""}","<img src=""stim_listA/marry2.gif""</stim_listA>",are marrying each other,
null,"<div style=""font-size:60px;"">+</div>",,html-keyboard-response,328,1378243,0.0-19.0-0.1,96359,List2A,white,man,,,,null,,,,
null,"<img src=""stim_listA/meet1.gif""</stim_listA>",,html-keyboard-response,329,1380245,0.0-19.0-1.1,96359,List2A,white,man,,,,null,,,,
null,is meeting,,html-keyboard-response,330,1382247,0.0-19.0-2.1,96359,List2A,white,man,,,,null,,,,
5104,,,survey-text,331,1387353,0.0-19.0-3.1,96359,List2A,white,man,,,,,"{""Q0"":""dave is meeting jane""}","<img src=""stim_listA/meet1.gif""</stim_listA>",is meeting,
null,"<div style=""font-size:60px;"">+</div>",,html-keyboard-response,332,1387858,0.0-19.0-0.2,96359,List2A,white,man,,,,null,,,,
null,"<img src=""stim_listA/dance4.gif""</stim_listA>",,html-keyboard-response,333,1389860,0.0-19.0-1.2,96359,List2A,white,man,,,,null,,,,
null,are dancing with each other,,html-keyboard-response,334,1391861,0.0-19.0-2.2,96359,List2A,white,man,,,,null,,,,
10139,,,survey-text,335,1402001,0.0-19.0-3.2,96359,List2A,white,man,,,,,"{""Q0"":""mike and beth are dancing with each other""}","<img src=""stim_listA/dance4.gif""</stim_listA>",are dancing with each other,
null,"<div style=""font-size:60px;"">+</div>",,html-keyboard-response,336,1402516,0.0-19.0-0.3,96359,List2A,white,man,,,,null,,,,
null,"<img src=""stim_listA/kiss3.gif""</stim_listA>",,html-keyboard-response,337,1404518,0.0-19.0-1.3,96359,List2A,white,man,,,,null,,,,
null,is kissing,,html-keyboard-response,338,1406519,0.0-19.0-2.3,96359,List2A,white,man,,,,null,,,,
5514,,,survey-text,339,1412035,0.0-19.0-3.3,96359,List2A,white,man,,,,,"{""Q0"":""fred is kissing beth""}","<img src=""stim_listA/kiss3.gif""</stim_listA>",is kissing,
null,"<div style=""font-size:60px;"">+</div>",,html-keyboard-response,340,1412536,0.0-19.0-0.4,96359,List2A,white,man,,,,null,,,,
null,"<img src=""stim_listA/shout6.gif""</stim_listA>",,html-keyboard-response,341,1414538,0.0-19.0-1.4,96359,List2A,white,man,,,,null,,,,
null,are shouting at each other,,html-keyboard-response,342,1416540,0.0-19.0-2.4,96359,List2A,white,man,,,,null,,,,
11034,,,survey-text,343,1427576,0.0-19.0-3.4,96359,List2A,white,man,,,,,"{""Q0"":""mike and dave are shouting at each other""}","<img src=""stim_listA/shout6.gif""</stim_listA>",are shouting at each other,
null,"<div style=""font-size:60px;"">+</div>",,html-keyboard-response,344,1428078,0.0-19.0-0.5,96359,List2A,white,man,,,,null,,,,
null,"<img src=""stim_listA/argue6.gif""</stim_listA>",,html-keyboard-response,345,1430080,0.0-19.0-1.5,96359,List2A,white,man,,,,null,,,,
null,are arguing with each other,,html-keyboard-response,346,1432081,0.0-19.0-2.5,96359,List2A,white,man,,,,null,,,,
19641,,,survey-text,347,1451723,0.0-19.0-3.5,96359,List2A,white,man,,,,,"{""Q0"":""mike and luke are arguing with each other""}","<img src=""stim_listA/argue6.gif""</stim_listA>",are arguing with each other,
null,"<div style=""font-size:60px;"">+</div>",,html-keyboard-response,348,1452224,0.0-19.0-0.6,96359,List2A,white,man,,,,null,,,,
null,"<img src=""stim_listA/argue2.gif""</stim_listA>",,html-keyboard-response,349,1454226,0.0-19.0-1.6,96359,List2A,white,man,,,,null,,,,
null,are arguing with each other,,html-keyboard-response,350,1456228,0.0-19.0-2.6,96359,List2A,white,man,,,,null,,,,
12366,,,survey-text,351,1468595,0.0-19.0-3.6,96359,List2A,white,man,,,,,"{""Q0"":""luke and jane are arguing with each other""}","<img src=""stim_listA/argue2.gif""</stim_listA>",are arguing with each other,
null,"<div style=""font-size:60px;"">+</div>",,html-keyboard-response,352,1469096,0.0-19.0-0.7,96359,List2A,white,man,,,,null,,,,
null,"<img src=""stim_listA/meet6.gif""</stim_listA>",,html-keyboard-response,353,1471098,0.0-19.0-1.7,96359,List2A,white,man,,,,null,,,,
null,are meeting each other,,html-keyboard-response,354,1473099,0.0-19.0-2.7,96359,List2A,white,man,,,,null,,,,
11019,,,survey-text,355,1484120,0.0-19.0-3.7,96359,List2A,white,man,,,,,"{""Q0"":""luke and fred are meeting each other""}","<img src=""stim_listA/meet6.gif""</stim_listA>",are meeting each other,
null,"<div style=""font-size:60px;"">+</div>",,html-keyboard-response,356,1484622,0.0-19.0-0.8,96359,List2A,white,man,,,,null,,,,
null,"<img src=""stim_listA/dance8.gif""</stim_listA>",,html-keyboard-response,357,1486625,0.0-19.0-1.8,96359,List2A,white,man,,,,null,,,,
null,are dancing with each other,,html-keyboard-response,358,1488625,0.0-19.0-2.8,96359,List2A,white,man,,,,null,,,,
12947,,,survey-text,359,1501574,0.0-19.0-3.8,96359,List2A,white,man,,,,,"{""Q0"":""beth and jane are dancing with each other""}","<img src=""stim_listA/dance8.gif""</stim_listA>",are dancing with each other,
null,"<div style=""font-size:60px;"">+</div>",,html-keyboard-response,360,1502075,0.0-19.0-0.9,96359,List2A,white,man,,,,null,,,,
null,"<img src=""stim_listA/touch2.gif""</stim_listA>",,html-keyboard-response,361,1504077,0.0-19.0-1.9,96359,List2A,white,man,,,,null,,,,
null,are touching each other,,html-keyboard-response,362,1506078,0.0-19.0-2.9,96359,List2A,white,man,,,,null,,,,
12041,,,survey-text,363,1518120,0.0-19.0-3.9,96359,List2A,white,man,,,,,"{""Q0"":""luke and ruth are touching each other""}","<img src=""stim_listA/touch2.gif""</stim_listA>",are touching each other,
null,"<div style=""font-size:60px;"">+</div>",,html-keyboard-response,364,1518622,0.0-19.0-0.10,96359,List2A,white,man,,,,null,,,,
null,"<img src=""stim_listA/meet3.gif""</stim_listA>",,html-keyboard-response,365,1520625,0.0-19.0-1.10,96359,List2A,white,man,,,,null,,,,
null,is meeting,,html-keyboard-response,366,1522625,0.0-19.0-2.10,96359,List2A,white,man,,,,null,,,,
6223,,,survey-text,367,1528849,0.0-19.0-3.10,96359,List2A,white,man,,,,,"{""Q0"":""mike is meeting kate""}","<img src=""stim_listA/meet3.gif""</stim_listA>",is meeting,
null,"<div style=""font-size:60px;"">+</div>",,html-keyboard-response,368,1529350,0.0-19.0-0.11,96359,List2A,white,man,,,,null,,,,
null,"<img src=""stim_listA/fight5.gif""</stim_listA>",,html-keyboard-response,369,1531353,0.0-19.0-1.11,96359,List2A,white,man,,,,null,,,,
null,is fighting,,html-keyboard-response,370,1533354,0.0-19.0-2.11,96359,List2A,white,man,,,,null,,,,
6433,,,survey-text,371,1539789,0.0-19.0-3.11,96359,List2A,white,man,,,,,"{""Q0"":""mike is fighting dave""}","<img src=""stim_listA/fight5.gif""</stim_listA>",is fighting,
null,"<div style=""font-size:60px;"">+</div>",,html-keyboard-response,372,1540289,0.0-19.0-0.12,96359,List2A,white,man,,,,null,,,,
null,"<img src=""stim_listA/kiss1.gif""</stim_listA>",,html-keyboard-response,373,1542291,0.0-19.0-1.12,96359,List2A,white,man,,,,null,,,,
null,is kissing,,html-keyboard-response,374,1544292,0.0-19.0-2.12,96359,List2A,white,man,,,,null,,,,
6338,,,survey-text,375,1550630,0.0-19.0-3.12,96359,List2A,white,man,,,,,"{""Q0"":""ruth is kissing luke""}","<img src=""stim_listA/kiss1.gif""</stim_listA>",is kissing,
null,"<div style=""font-size:60px;"">+</div>",,html-keyboard-response,376,1551131,0.0-19.0-0.13,96359,List2A,white,man,,,,null,,,,
null,"<img src=""stim_listA/fight3.gif""</stim_listA>",,html-keyboard-response,377,1553134,0.0-19.0-1.13,96359,List2A,white,man,,,,null,,,,
null,is fighting,,html-keyboard-response,378,1555135,0.0-19.0-2.13,96359,List2A,white,man,,,,null,,,,
5963,,,survey-text,379,1561100,0.0-19.0-3.13,96359,List2A,white,man,,,,,"{""Q0"":""mike is fighting kate""}","<img src=""stim_listA/fight3.gif""</stim_listA>",is fighting,
null,"<div style=""font-size:60px;"">+</div>",,html-keyboard-response,380,1561602,0.0-19.0-0.14,96359,List2A,white,man,,,,null,,,,
null,"<img src=""stim_listA/marry6.gif""</stim_listA>",,html-keyboard-response,381,1563603,0.0-19.0-1.14,96359,List2A,white,man,,,,null,,,,
null,are marrying each other,,html-keyboard-response,382,1565604,0.0-19.0-2.14,96359,List2A,white,man,,,,null,,,,
8751,,,survey-text,383,1574357,0.0-19.0-3.14,96359,List2A,white,man,,,,,"{""Q0"":""mike and luke are marrying each other""}","<img src=""stim_listA/marry6.gif""</stim_listA>",are marrying each other,
null,"<div style=""font-size:60px;"">+</div>",,html-keyboard-response,384,1574858,0.0-19.0-0.15,96359,List2A,white,man,,,,null,,,,
null,"<img src=""stim_listA/argue1.gif""</stim_listA>",,html-keyboard-response,385,1576860,0.0-19.0-1.15,96359,List2A,white,man,,,,null,,,,
null,is arguing with,,html-keyboard-response,386,1578862,0.0-19.0-2.15,96359,List2A,white,man,,,,null,,,,
7810,,,survey-text,387,1586672,0.0-19.0-3.15,96359,List2A,white,man,,,,,"{""Q0"":""dave is arguing with ruth""}","<img src=""stim_listA/argue1.gif""</stim_listA>",is arguing with,
null,"<div style=""font-size:60px;"">+</div>",,html-keyboard-response,388,1587173,0.0-19.0-0.16,96359,List2A,white,man,,,,null,,,,
null,"<img src=""stim_listA/kiss6.gif""</stim_listA>",,html-keyboard-response,389,1589174,0.0-19.0-1.16,96359,List2A,white,man,,,,null,,,,
null,are kissing each other,,html-keyboard-response,390,1591175,0.0-19.0-2.16,96359,List2A,white,man,,,,null,,,,
9336,,,survey-text,391,1600512,0.0-19.0-3.16,96359,List2A,white,man,,,,,"{""Q0"":""dave and mike are kissing each other""}","<img src=""stim_listA/kiss6.gif""</stim_listA>",are kissing each other,
null,"<div style=""font-size:60px;"">+</div>",,html-keyboard-response,392,1601013,0.0-19.0-0.17,96359,List2A,white,man,,,,null,,,,
null,"<img src=""stim_listA/dance1.gif""</stim_listA>",,html-keyboard-response,393,1603015,0.0-19.0-1.17,96359,List2A,white,man,,,,null,,,,
null,is dancing with,,html-keyboard-response,394,1605016,0.0-19.0-2.17,96359,List2A,white,man,,,,null,,,,
8330,,,survey-text,395,1613348,0.0-19.0-3.17,96359,List2A,white,man,,,,,"{""Q0"":""luke is dancing with jane""}","<img src=""stim_listA/dance1.gif""</stim_listA>",is dancing with,
null,"<div style=""font-size:60px;"">+</div>",,html-keyboard-response,396,1613851,0.0-19.0-0.18,96359,List2A,white,man,,,,null,,,,
null,"<img src=""stim_listA/argue8.gif""</stim_listA>",,html-keyboard-response,397,1615853,0.0-19.0-1.18,96359,List2A,white,man,,,,null,,,,
null,are arguing with each other,,html-keyboard-response,398,1617856,0.0-19.0-2.18,96359,List2A,white,man,,,,null,,,,
12621,,,survey-text,399,1630478,0.0-19.0-3.18,96359,List2A,white,man,,,,,"{""Q0"":""kate and ruth are arguing with each other""}","<img src=""stim_listA/argue8.gif""</stim_listA>",are arguing with each other,
null,"<div style=""font-size:60px;"">+</div>",,html-keyboard-response,400,1630980,0.0-19.0-0.19,96359,List2A,white,man,,,,null,,,,
null,"<img src=""stim_listA/touch1.gif""</stim_listA>",,html-keyboard-response,401,1632982,0.0-19.0-1.19,96359,List2A,white,man,,,,null,,,,
null,is touching,,html-keyboard-response,402,1634982,0.0-19.0-2.19,96359,List2A,white,man,,,,null,,,,
11848,,,survey-text,403,1646832,0.0-19.0-3.19,96359,List2A,white,man,,,,,"{""Q0"":""dave is touching jane""}","<img src=""stim_listA/touch1.gif""</stim_listA>",is touching,
2784,<p>Thank you for completing that task.</p><p>The final part of this session is a short questionnaire.</p><p>Press Continue.</p>,0,html-button-response,404,1649617,0.0-20.0,96359,List2A,white,man,,,,,,,,
72559,,,survey-text,405,1723178,0.0-21.0,96359,List2A,white,man,,,,,"{""Q0"":""18"",""Q1"":""english"",""Q2"":""english"",""Q3"":""uk"",""Q4"":""white"",""Q5"":""male""}",,,demographics
114007,,,survey-likert,406,1837196,0.0-22.0,96359,List2A,white,man,,,,,"{""Q0"":3,""Q1"":3,""Q2"":3,""Q3"":4,""Q4"":4,""Q5"":4,""Q6"":3,""Q7"":1,""Q8"":1,""Q9"":0,""Q10"":2,""Q11"":2,""Q12"":1,""Q13"":0}",,,likert_race
94635,,,survey-likert,407,1931842,0.0-23.0,96359,List2A,white,man,,,,,"{""Q0"":3,""Q1"":3,""Q2"":3,""Q3"":4,""Q4"":2,""Q5"":4,""Q6"":4,""Q7"":1,""Q8"":4,""Q9"":4,""Q10"":3,""Q11"":2,""Q12"":1,""Q13"":1}",,,likert_gender
13779,,,survey-text,408,1945625,0.0-24.0,96359,List2A,white,man,,,,,"{""Q0"":""ccc""}",,,worker_id
50313,,,external-html,409,1996025,0.0-25.0,96359,List2A,white,man,debrief.html,,,,,,,
