rt,stimulus,button_pressed,trial_type,trial_index,time_elapsed,internal_node_id,subject,list,ppt_race,ppt_gender,url,first_guess,correct,key_press,responses,image_type,phrase_type,test_part
3158,Welcome to the experiment. Press Continue to begin.,0,html-button-response,0,3164,0.0-0.0,96469,List1A,white,woman,,,,,,,,
12688,,,external-html,1,16908,0.0-1.0,96469,List1A,white,woman,consent.html,,,,,,,
2163,"<p>On the next page, you will see portraits of 8 people and their names.</p><p>Your first task is to take a few minutes to memorise the names of these people.</p><p>You will have to recall their names during the rest of the experiment, so it is</p><p>essential that you try to memorise these people and their names as best as you can.</p><br><p><strong>You will then be tested on your memory of these names and portraits.</strong></p><br><p>The experiment will start after you have completed this memory test.</p><br><p>Ready?</p>",0,html-button-response,2,19074,0.0-2.0,96469,List1A,white,woman,,,,,,,,
73133,"<img src='img/portrait_matrix_list1.JPG' style='width:900px;height:500px;''></img><p>If you have memorised all the portraits and names and are ready to start, press Continue.</p><p><strong>Please note: Your memory of these faces will be tested 4 times during this experiment.</strong></p>",0,html-button-response,3,93212,0.0-3.0-0.0,96469,List1A,white,woman,,,,,,,,
4246,"<img src=""portrait/BW2.jpg""style=""width:400px;height:400px;""></img>",2,html-button-response,4,98463,0.0-3.0-1.0,96469,List1A,white,woman,,TRUE,2,,,,,
null,CORRECT,,html-keyboard-response,5,99972,0.0-3.0-2.0-0.0,96469,List1A,white,woman,,,,null,,,,
9311,"<img src=""portrait/BM1.jpg""style=""width:400px;height:400px;""></img>",5,html-button-response,6,109288,0.0-3.0-4.0,96469,List1A,white,woman,,TRUE,4,,,,,
3211,"<img src=""portrait/BM1.jpg""style=""width:400px;height:400px;""></img>",4,html-button-response,7,113505,0.0-3.0-6.0-0.0,96469,List1A,white,woman,,FALSE,4,,,,,
null,CORRECT,,html-keyboard-response,8,115011,0.0-3.0-6.0-1.0-0.0,96469,List1A,white,woman,,,,null,,,,
2014,"<img src=""portrait/WW1.jpg""style=""width:400px;height:400px;""></img>",3,html-button-response,9,117030,0.0-3.0-7.0,96469,List1A,white,woman,,TRUE,1,,,,,
2393,"<img src=""portrait/WW1.jpg""style=""width:400px;height:400px;""></img>",1,html-button-response,10,120430,0.0-3.0-9.0-0.0,96469,List1A,white,woman,,FALSE,1,,,,,
null,CORRECT,,html-keyboard-response,11,121936,0.0-3.0-9.0-1.0-0.0,96469,List1A,white,woman,,,,null,,,,
2505,"<img src=""portrait/WW2.jpg""style=""width:400px;height:400px;""></img>",3,html-button-response,12,124447,0.0-3.0-10.0,96469,List1A,white,woman,,TRUE,3,,,,,
null,CORRECT,,html-keyboard-response,13,125952,0.0-3.0-11.0-0.0,96469,List1A,white,woman,,,,null,,,,
3456,"<img src=""portrait/BM2.jpg""style=""width:400px;height:400px;""></img>",7,html-button-response,14,129413,0.0-3.0-13.0,96469,List1A,white,woman,,TRUE,5,,,,,
1326,"<img src=""portrait/BM2.jpg""style=""width:400px;height:400px;""></img>",5,html-button-response,15,131753,0.0-3.0-15.0-0.0,96469,List1A,white,woman,,FALSE,5,,,,,
null,CORRECT,,html-keyboard-response,16,133258,0.0-3.0-15.0-1.0-0.0,96469,List1A,white,woman,,,,null,,,,
4575,"<img src=""portrait/WM2.jpg""style=""width:400px;height:400px;""></img>",7,html-button-response,17,137837,0.0-3.0-16.0,96469,List1A,white,woman,,TRUE,7,,,,,
null,CORRECT,,html-keyboard-response,18,139342,0.0-3.0-17.0-0.0,96469,List1A,white,woman,,,,null,,,,
4297,"<img src=""portrait/BW1.jpg""style=""width:400px;height:400px;""></img>",0,html-button-response,19,143644,0.0-3.0-19.0,96469,List1A,white,woman,,TRUE,0,,,,,
null,CORRECT,,html-keyboard-response,20,145149,0.0-3.0-20.0-0.0,96469,List1A,white,woman,,,,null,,,,
3442,"<img src=""portrait/WM1.jpg""style=""width:400px;height:400px;""></img>",6,html-button-response,21,148596,0.0-3.0-22.0,96469,List1A,white,woman,,TRUE,6,,,,,
null,CORRECT,,html-keyboard-response,22,150101,0.0-3.0-23.0-0.0,96469,List1A,white,woman,,,,null,,,,
2105,<p>You got 5 out of 8 right first time. Press Continue.</p>,0,html-button-response,23,152210,0.0-3.0-25.0,96469,List1A,white,woman,,,,,,,,
4078,"As you did not score 100%, the memory game will repeat. Press Continue.",0,html-button-response,24,157292,0.0-3.0-26.0-0.0,96469,List1A,white,woman,,,,,,,,
55719,"<img src='img/portrait_matrix_list1.JPG' style='width:900px;height:500px;''></img><p>If you have memorised all the portraits and names and are ready to start, press Continue.</p><p><strong>Please note: Your memory of these faces will be tested 4 times during this experiment.</strong></p>",0,html-button-response,25,214017,0.0-3.1-0.1,96469,List1A,white,woman,,,,,,,,
4001,"<img src=""portrait/BW2.jpg""style=""width:400px;height:400px;""></img>",2,html-button-response,26,219025,0.0-3.1-1.1,96469,List1A,white,woman,,TRUE,2,,,,,
null,CORRECT,,html-keyboard-response,27,220529,0.0-3.1-2.1-0.1,96469,List1A,white,woman,,,,null,,,,
4906,"<img src=""portrait/BM1.jpg""style=""width:400px;height:400px;""></img>",4,html-button-response,28,225440,0.0-3.1-4.1,96469,List1A,white,woman,,TRUE,4,,,,,
null,CORRECT,,html-keyboard-response,29,226944,0.0-3.1-5.1-0.1,96469,List1A,white,woman,,,,null,,,,
4585,"<img src=""portrait/WW1.jpg""style=""width:400px;height:400px;""></img>",1,html-button-response,30,231535,0.0-3.1-7.1,96469,List1A,white,woman,,TRUE,1,,,,,
null,CORRECT,,html-keyboard-response,31,233039,0.0-3.1-8.1-0.1,96469,List1A,white,woman,,,,null,,,,
5470,"<img src=""portrait/WW2.jpg""style=""width:400px;height:400px;""></img>",3,html-button-response,32,238516,0.0-3.1-10.1,96469,List1A,white,woman,,TRUE,3,,,,,
null,CORRECT,,html-keyboard-response,33,240020,0.0-3.1-11.1-0.1,96469,List1A,white,woman,,,,null,,,,
4572,"<img src=""portrait/BM2.jpg""style=""width:400px;height:400px;""></img>",5,html-button-response,34,244596,0.0-3.1-13.1,96469,List1A,white,woman,,TRUE,5,,,,,
null,CORRECT,,html-keyboard-response,35,246101,0.0-3.1-14.1-0.1,96469,List1A,white,woman,,,,null,,,,
3151,"<img src=""portrait/WM2.jpg""style=""width:400px;height:400px;""></img>",7,html-button-response,36,249256,0.0-3.1-16.1,96469,List1A,white,woman,,TRUE,7,,,,,
null,CORRECT,,html-keyboard-response,37,250761,0.0-3.1-17.1-0.1,96469,List1A,white,woman,,,,null,,,,
3725,"<img src=""portrait/BW1.jpg""style=""width:400px;height:400px;""></img>",0,html-button-response,38,254490,0.0-3.1-19.1,96469,List1A,white,woman,,TRUE,0,,,,,
null,CORRECT,,html-keyboard-response,39,255994,0.0-3.1-20.1-0.1,96469,List1A,white,woman,,,,null,,,,
2281,"<img src=""portrait/WM1.jpg""style=""width:400px;height:400px;""></img>",6,html-button-response,40,258279,0.0-3.1-22.1,96469,List1A,white,woman,,TRUE,6,,,,,
null,CORRECT,,html-keyboard-response,41,259783,0.0-3.1-23.1-0.1,96469,List1A,white,woman,,,,null,,,,
1611,<p>You got 8 out of 8 right first time. Press Continue.</p>,0,html-button-response,42,261397,0.0-3.1-25.1,96469,List1A,white,woman,,,,,,,,
22468,"<p>In this experiment, you will view photographs of the people from the memory game interacting.</p><p>By using the <strong>exact</strong> phrase given <i>after</i> the photograph appears and recalling the correct names of the people in the photographs, form a sentence describing the interaction. You do not need to capitalise names.</p><p>Type your answer in the space provided. Please complete every sentence before moving onto the next trial.</p><p>You will only have a few seconds to memorise each given photograph and phrase before you can respond, so try your best to focus.</p><p>An example is given below. Press 'Continue' when you are ready.</p><img src='img/speaking_example_v2.jpg' style='width:800px;height:460px;''></img>",0,html-button-response,43,284871,0.0-4.0,96469,List1A,white,woman,,,,,,,,
2604,"<p>Before the experiment starts, you will watch two example trials. Press 'Continue'.</p>",0,html-button-response,44,288478,0.0-5.0,96469,List1A,white,woman,,,,,,,,
null,<img src='img/speaking_WW.gif'></img>,,html-keyboard-response,45,291483,0.0-6.0,96469,List1A,white,woman,,,,null,,,,
null,<p>is speaking to</p>,,html-keyboard-response,46,293486,0.0-7.0,96469,List1A,white,woman,,,,null,,,,
2305,<p><b>Answer:</b> kate is speaking to beth</p>,0,html-button-response,47,295794,0.0-8.0,96469,List1A,white,woman,,,,,,,,
null,<img src='img/pointing_BM.gif'></img>,,html-keyboard-response,48,298798,0.0-9.0,96469,List1A,white,woman,,,,null,,,,
null,<p>are pointing at each other</p>,,html-keyboard-response,49,300802,0.0-10.0,96469,List1A,white,woman,,,,null,,,,
2814,<p><b>Answer:</b> luke and dave are pointing at each other</p>,0,html-button-response,50,303619,0.0-11.0,96469,List1A,white,woman,,,,,,,,
2603,"<p>Ready to start the experiment?</p><br><p><strong>Remember to describe the picture using a full sentence,</strong></p><p><strong> that combines the names of the people with the given phrase.</strong></p><p><strong> You do not need to capitalise names or use punctuation.</strong></p><br><p>Press 'Continue' to begin.</p>",0,html-button-response,51,307225,0.0-12.0,96469,List1A,white,woman,,,,,,,,
null,"<div style=""font-size:60px;"">+</div>",,html-keyboard-response,52,308729,0.0-13.0-0.0,96469,List1A,white,woman,,,,null,,,,
null,"<img src=""stim_listA/talk5.gif""</stim_listA>",,html-keyboard-response,53,310736,0.0-13.0-1.0,96469,List1A,white,woman,,,,null,,,,
null,is talking to,,html-keyboard-response,54,312739,0.0-13.0-2.0,96469,List1A,white,woman,,,,null,,,,
9025,,,survey-text,55,321771,0.0-13.0-3.0,96469,List1A,white,woman,,,,,"{""Q0"":""Fred is talking to dave""}","<img src=""stim_listA/talk5.gif""</stim_listA>",is talking to,
null,"<div style=""font-size:60px;"">+</div>",,html-keyboard-response,56,322275,0.0-13.0-0.1,96469,List1A,white,woman,,,,null,,,,
null,"<img src=""stim_listA/hug3.gif""</stim_listA>",,html-keyboard-response,57,324280,0.0-13.0-1.1,96469,List1A,white,woman,,,,null,,,,
null,is hugging,,html-keyboard-response,58,326284,0.0-13.0-2.1,96469,List1A,white,woman,,,,null,,,,
9205,,,survey-text,59,335493,0.0-13.0-3.1,96469,List1A,white,woman,,,,,"{""Q0"":""Ruth is hugging luke""}","<img src=""stim_listA/hug3.gif""</stim_listA>",is hugging,
null,"<div style=""font-size:60px;"">+</div>",,html-keyboard-response,60,335997,0.0-13.0-0.2,96469,List1A,white,woman,,,,null,,,,
null,"<img src=""stim_listA/fight8.gif""</stim_listA>",,html-keyboard-response,61,338002,0.0-13.0-1.2,96469,List1A,white,woman,,,,null,,,,
null,are fighting each other,,html-keyboard-response,62,340006,0.0-13.0-2.2,96469,List1A,white,woman,,,,null,,,,
16792,,,survey-text,63,356802,0.0-13.0-3.2,96469,List1A,white,woman,,,,,"{""Q0"":""Ruth is fighting with beth""}","<img src=""stim_listA/fight8.gif""</stim_listA>",are fighting each other,
null,"<div style=""font-size:60px;"">+</div>",,html-keyboard-response,64,357306,0.0-13.0-0.3,96469,List1A,white,woman,,,,null,,,,
null,"<img src=""stim_listA/meet2.gif""</stim_listA>",,html-keyboard-response,65,359310,0.0-13.0-1.3,96469,List1A,white,woman,,,,null,,,,
null,are meeting each other,,html-keyboard-response,66,361314,0.0-13.0-2.3,96469,List1A,white,woman,,,,null,,,,
13551,,,survey-text,67,374869,0.0-13.0-3.3,96469,List1A,white,woman,,,,,"{""Q0"":""Fred and Beth are meeting eachother""}","<img src=""stim_listA/meet2.gif""</stim_listA>",are meeting each other,
null,"<div style=""font-size:60px;"">+</div>",,html-keyboard-response,68,375373,0.0-13.0-0.4,96469,List1A,white,woman,,,,null,,,,
null,"<img src=""stim_listA/argue3.gif""</stim_listA>",,html-keyboard-response,69,377378,0.0-13.0-1.4,96469,List1A,white,woman,,,,null,,,,
null,is arguing with,,html-keyboard-response,70,379382,0.0-13.0-2.4,96469,List1A,white,woman,,,,null,,,,
6558,,,survey-text,71,385944,0.0-13.0-3.4,96469,List1A,white,woman,,,,,"{""Q0"":""Ruth is arguing with dave""}","<img src=""stim_listA/argue3.gif""</stim_listA>",is arguing with,
null,"<div style=""font-size:60px;"">+</div>",,html-keyboard-response,72,386448,0.0-13.0-0.5,96469,List1A,white,woman,,,,null,,,,
null,"<img src=""stim_listA/fight3.gif""</stim_listA>",,html-keyboard-response,73,388452,0.0-13.0-1.5,96469,List1A,white,woman,,,,null,,,,
null,is fighting,,html-keyboard-response,74,390457,0.0-13.0-2.5,96469,List1A,white,woman,,,,null,,,,
11365,,,survey-text,75,401825,0.0-13.0-3.5,96469,List1A,white,woman,,,,,"{""Q0"":""Jane is fighting with Dave ""}","<img src=""stim_listA/fight3.gif""</stim_listA>",is fighting,
null,"<div style=""font-size:60px;"">+</div>",,html-keyboard-response,76,402328,0.0-13.0-0.6,96469,List1A,white,woman,,,,null,,,,
null,"<img src=""stim_listA/hug5.gif""</stim_listA>",,html-keyboard-response,77,404333,0.0-13.0-1.6,96469,List1A,white,woman,,,,null,,,,
null,is hugging,,html-keyboard-response,78,406337,0.0-13.0-2.6,96469,List1A,white,woman,,,,null,,,,
7493,,,survey-text,79,413833,0.0-13.0-3.6,96469,List1A,white,woman,,,,,"{""Q0"":""""}","<img src=""stim_listA/hug5.gif""</stim_listA>",is hugging,
null,"<div style=""font-size:60px;"">+</div>",,html-keyboard-response,80,414336,0.0-13.0-0.7,96469,List1A,white,woman,,,,null,,,,
null,"<img src=""stim_listA/kiss8.gif""</stim_listA>",,html-keyboard-response,81,416340,0.0-13.0-1.7,96469,List1A,white,woman,,,,null,,,,
null,are kissing each other,,html-keyboard-response,82,418345,0.0-13.0-2.7,96469,List1A,white,woman,,,,null,,,,
14359,,,survey-text,83,432707,0.0-13.0-3.7,96469,List1A,white,woman,,,,,"{""Q0"":""Jane and Kate are kissing eachother""}","<img src=""stim_listA/kiss8.gif""</stim_listA>",are kissing each other,
null,"<div style=""font-size:60px;"">+</div>",,html-keyboard-response,84,433210,0.0-13.0-0.8,96469,List1A,white,woman,,,,null,,,,
null,"<img src=""stim_listA/talk7.gif""</stim_listA>",,html-keyboard-response,85,435215,0.0-13.0-1.8,96469,List1A,white,woman,,,,null,,,,
null,is talking to,,html-keyboard-response,86,437218,0.0-13.0-2.8,96469,List1A,white,woman,,,,null,,,,
8335,,,survey-text,87,445556,0.0-13.0-3.8,96469,List1A,white,woman,,,,,"{""Q0"":""Beth is talking to Jane""}","<img src=""stim_listA/talk7.gif""</stim_listA>",is talking to,
null,"<div style=""font-size:60px;"">+</div>",,html-keyboard-response,88,446060,0.0-13.0-0.9,96469,List1A,white,woman,,,,null,,,,
null,"<img src=""stim_listA/touch7.gif""</stim_listA>",,html-keyboard-response,89,448065,0.0-13.0-1.9,96469,List1A,white,woman,,,,null,,,,
null,is touching,,html-keyboard-response,90,450069,0.0-13.0-2.9,96469,List1A,white,woman,,,,null,,,,
6042,,,survey-text,91,456114,0.0-13.0-3.9,96469,List1A,white,woman,,,,,"{""Q0"":""Kate is touching Jane ""}","<img src=""stim_listA/touch7.gif""</stim_listA>",is touching,
null,"<div style=""font-size:60px;"">+</div>",,html-keyboard-response,92,456617,0.0-13.0-0.10,96469,List1A,white,woman,,,,null,,,,
null,"<img src=""stim_listA/marry5.gif""</stim_listA>",,html-keyboard-response,93,458622,0.0-13.0-1.10,96469,List1A,white,woman,,,,null,,,,
null,is marrying,,html-keyboard-response,94,460626,0.0-13.0-2.10,96469,List1A,white,woman,,,,null,,,,
9091,,,survey-text,95,469720,0.0-13.0-3.10,96469,List1A,white,woman,,,,,"{""Q0"":""Luke is marrying mike""}","<img src=""stim_listA/marry5.gif""</stim_listA>",is marrying,
null,"<div style=""font-size:60px;"">+</div>",,html-keyboard-response,96,470222,0.0-13.0-0.11,96469,List1A,white,woman,,,,null,,,,
null,"<img src=""stim_listA/fight4.gif""</stim_listA>",,html-keyboard-response,97,472227,0.0-13.0-1.11,96469,List1A,white,woman,,,,null,,,,
null,are fighting each other,,html-keyboard-response,98,474231,0.0-13.0-2.11,96469,List1A,white,woman,,,,null,,,,
14179,,,survey-text,99,488414,0.0-13.0-3.11,96469,List1A,white,woman,,,,,"{""Q0"":""Ruth and luke are fighting eachother ""}","<img src=""stim_listA/fight4.gif""</stim_listA>",are fighting each other,
null,"<div style=""font-size:60px;"">+</div>",,html-keyboard-response,100,488917,0.0-13.0-0.12,96469,List1A,white,woman,,,,null,,,,
null,"<img src=""stim_listA/talk6.gif""</stim_listA>",,html-keyboard-response,101,490922,0.0-13.0-1.12,96469,List1A,white,woman,,,,null,,,,
null,are talking to each other,,html-keyboard-response,102,492926,0.0-13.0-2.12,96469,List1A,white,woman,,,,null,,,,
8080,,,survey-text,103,501011,0.0-13.0-3.12,96469,List1A,white,woman,,,,,"{""Q0"":""Luke and mike are talking to eachother""}","<img src=""stim_listA/talk6.gif""</stim_listA>",are talking to each other,
null,"<div style=""font-size:60px;"">+</div>",,html-keyboard-response,104,501513,0.0-13.0-0.13,96469,List1A,white,woman,,,,null,,,,
null,"<img src=""stim_listA/talk2.gif""</stim_listA>",,html-keyboard-response,105,503518,0.0-13.0-1.13,96469,List1A,white,woman,,,,null,,,,
null,are talking to each other,,html-keyboard-response,106,505522,0.0-13.0-2.13,96469,List1A,white,woman,,,,null,,,,
8303,,,survey-text,107,513828,0.0-13.0-3.13,96469,List1A,white,woman,,,,,"{""Q0"":""Beth and mike are talking together""}","<img src=""stim_listA/talk2.gif""</stim_listA>",are talking to each other,
null,"<div style=""font-size:60px;"">+</div>",,html-keyboard-response,108,514332,0.0-13.0-0.14,96469,List1A,white,woman,,,,null,,,,
null,"<img src=""stim_listA/shout8.gif""</stim_listA>",,html-keyboard-response,109,516336,0.0-13.0-1.14,96469,List1A,white,woman,,,,null,,,,
null,are shouting at each other,,html-keyboard-response,110,518340,0.0-13.0-2.14,96469,List1A,white,woman,,,,null,,,,
10733,,,survey-text,111,529077,0.0-13.0-3.14,96469,List1A,white,woman,,,,,"{""Q0"":""Jane and Kate are shouting at eachother""}","<img src=""stim_listA/shout8.gif""</stim_listA>",are shouting at each other,
null,"<div style=""font-size:60px;"">+</div>",,html-keyboard-response,112,529582,0.0-13.0-0.15,96469,List1A,white,woman,,,,null,,,,
null,"<img src=""stim_listA/meet6.gif""</stim_listA>",,html-keyboard-response,113,531587,0.0-13.0-1.15,96469,List1A,white,woman,,,,null,,,,
null,are meeting each other,,html-keyboard-response,114,533592,0.0-13.0-2.15,96469,List1A,white,woman,,,,null,,,,
10307,,,survey-text,115,543902,0.0-13.0-3.15,96469,List1A,white,woman,,,,,"{""Q0"":""Fred and Luke are meeting""}","<img src=""stim_listA/meet6.gif""</stim_listA>",are meeting each other,
null,"<div style=""font-size:60px;"">+</div>",,html-keyboard-response,116,544405,0.0-13.0-0.16,96469,List1A,white,woman,,,,null,,,,
null,"<img src=""stim_listA/kiss3.gif""</stim_listA>",,html-keyboard-response,117,546411,0.0-13.0-1.16,96469,List1A,white,woman,,,,null,,,,
null,is kissing,,html-keyboard-response,118,548415,0.0-13.0-2.16,96469,List1A,white,woman,,,,null,,,,
8108,,,survey-text,119,556525,0.0-13.0-3.16,96469,List1A,white,woman,,,,,"{""Q0"":""Ruth and Luke are kissing""}","<img src=""stim_listA/kiss3.gif""</stim_listA>",is kissing,
null,"<div style=""font-size:60px;"">+</div>",,html-keyboard-response,120,557028,0.0-13.0-0.17,96469,List1A,white,woman,,,,null,,,,
null,"<img src=""stim_listA/argue1.gif""</stim_listA>",,html-keyboard-response,121,559033,0.0-13.0-1.17,96469,List1A,white,woman,,,,null,,,,
null,is arguing with,,html-keyboard-response,122,561037,0.0-13.0-2.17,96469,List1A,white,woman,,,,null,,,,
11551,,,survey-text,123,572591,0.0-13.0-3.17,96469,List1A,white,woman,,,,,"{""Q0"":""Mike is arguing with beth""}","<img src=""stim_listA/argue1.gif""</stim_listA>",is arguing with,
null,"<div style=""font-size:60px;"">+</div>",,html-keyboard-response,124,573094,0.0-13.0-0.18,96469,List1A,white,woman,,,,null,,,,
null,"<img src=""stim_listA/fight5.gif""</stim_listA>",,html-keyboard-response,125,575099,0.0-13.0-1.18,96469,List1A,white,woman,,,,null,,,,
null,is fighting,,html-keyboard-response,126,577103,0.0-13.0-2.18,96469,List1A,white,woman,,,,null,,,,
5369,,,survey-text,127,582476,0.0-13.0-3.18,96469,List1A,white,woman,,,,,"{""Q0"":""Mike is fighting Dave ""}","<img src=""stim_listA/fight5.gif""</stim_listA>",is fighting,
null,"<div style=""font-size:60px;"">+</div>",,html-keyboard-response,128,582979,0.0-13.0-0.19,96469,List1A,white,woman,,,,null,,,,
null,"<img src=""stim_listA/touch6.gif""</stim_listA>",,html-keyboard-response,129,584983,0.0-13.0-1.19,96469,List1A,white,woman,,,,null,,,,
null,are touching each other,,html-keyboard-response,130,586987,0.0-13.0-2.19,96469,List1A,white,woman,,,,null,,,,
9167,,,survey-text,131,596157,0.0-13.0-3.19,96469,List1A,white,woman,,,,,"{""Q0"":""Luke and Fred are touching eachother""}","<img src=""stim_listA/touch6.gif""</stim_listA>",are touching each other,
6692,"<img src='img/portrait_matrix_list1.JPG' style='width:900px;height:500px;''></img><p>If you have memorised all the portraits and names and are ready to start, press Continue.</p><p><strong>Please note: Your memory of these faces will be tested 4 times during this experiment.</strong></p>",0,html-button-response,132,602855,0.0-14.0-0.0,96469,List1A,white,woman,,,,,,,,
5959,"<img src=""portrait/WM1.jpg""style=""width:400px;height:400px;""></img>",6,html-button-response,133,609820,0.0-14.0-1.0,96469,List1A,white,woman,,TRUE,6,,,,,
null,CORRECT,,html-keyboard-response,134,611324,0.0-14.0-2.0-0.0,96469,List1A,white,woman,,,,null,,,,
7607,"<img src=""portrait/BM1.jpg""style=""width:400px;height:400px;""></img>",4,html-button-response,135,618938,0.0-14.0-4.0,96469,List1A,white,woman,,TRUE,4,,,,,
null,CORRECT,,html-keyboard-response,136,620442,0.0-14.0-5.0-0.0,96469,List1A,white,woman,,,,null,,,,
2856,"<img src=""portrait/WW2.jpg""style=""width:400px;height:400px;""></img>",3,html-button-response,137,623305,0.0-14.0-7.0,96469,List1A,white,woman,,TRUE,3,,,,,
null,CORRECT,,html-keyboard-response,138,624809,0.0-14.0-8.0-0.0,96469,List1A,white,woman,,,,null,,,,
3322,"<img src=""portrait/BM2.jpg""style=""width:400px;height:400px;""></img>",5,html-button-response,139,628138,0.0-14.0-10.0,96469,List1A,white,woman,,TRUE,5,,,,,
null,CORRECT,,html-keyboard-response,140,629642,0.0-14.0-11.0-0.0,96469,List1A,white,woman,,,,null,,,,
2140,"<img src=""portrait/WM2.jpg""style=""width:400px;height:400px;""></img>",7,html-button-response,141,631788,0.0-14.0-13.0,96469,List1A,white,woman,,TRUE,7,,,,,
null,CORRECT,,html-keyboard-response,142,633293,0.0-14.0-14.0-0.0,96469,List1A,white,woman,,,,null,,,,
3930,"<img src=""portrait/BW2.jpg""style=""width:400px;height:400px;""></img>",2,html-button-response,143,637229,0.0-14.0-16.0,96469,List1A,white,woman,,TRUE,2,,,,,
null,CORRECT,,html-keyboard-response,144,638733,0.0-14.0-17.0-0.0,96469,List1A,white,woman,,,,null,,,,
3722,"<img src=""portrait/BW1.jpg""style=""width:400px;height:400px;""></img>",0,html-button-response,145,642462,0.0-14.0-19.0,96469,List1A,white,woman,,TRUE,0,,,,,
null,CORRECT,,html-keyboard-response,146,643967,0.0-14.0-20.0-0.0,96469,List1A,white,woman,,,,null,,,,
5197,"<img src=""portrait/WW1.jpg""style=""width:400px;height:400px;""></img>",1,html-button-response,147,649171,0.0-14.0-22.0,96469,List1A,white,woman,,TRUE,1,,,,,
null,CORRECT,,html-keyboard-response,148,650676,0.0-14.0-23.0-0.0,96469,List1A,white,woman,,,,null,,,,
1448,<p>You got 8 out of 8 right first time. Press Continue.</p>,0,html-button-response,149,652128,0.0-14.0-25.0,96469,List1A,white,woman,,,,,,,,
null,"<div style=""font-size:60px;"">+</div>",,html-keyboard-response,150,653634,0.0-15.0-0.0,96469,List1A,white,woman,,,,null,,,,
null,"<img src=""stim_listA/touch4.gif""</stim_listA>",,html-keyboard-response,151,655640,0.0-15.0-1.0,96469,List1A,white,woman,,,,null,,,,
null,are touching each other,,html-keyboard-response,152,657644,0.0-15.0-2.0,96469,List1A,white,woman,,,,null,,,,
13995,,,survey-text,153,671644,0.0-15.0-3.0,96469,List1A,white,woman,,,,,"{""Q0"":""Ruth and Luke are touching eachother""}","<img src=""stim_listA/touch4.gif""</stim_listA>",are touching each other,
null,"<div style=""font-size:60px;"">+</div>",,html-keyboard-response,154,672147,0.0-15.0-0.1,96469,List1A,white,woman,,,,null,,,,
null,"<img src=""stim_listA/dance6.gif""</stim_listA>",,html-keyboard-response,155,674152,0.0-15.0-1.1,96469,List1A,white,woman,,,,null,,,,
null,are dancing with each other,,html-keyboard-response,156,676156,0.0-15.0-2.1,96469,List1A,white,woman,,,,null,,,,
8387,,,survey-text,157,684545,0.0-15.0-3.1,96469,List1A,white,woman,,,,,"{""Q0"":""Luke and mike are dancing together ""}","<img src=""stim_listA/dance6.gif""</stim_listA>",are dancing with each other,
null,"<div style=""font-size:60px;"">+</div>",,html-keyboard-response,158,685049,0.0-15.0-0.2,96469,List1A,white,woman,,,,null,,,,
null,"<img src=""stim_listA/marry7.gif""</stim_listA>",,html-keyboard-response,159,687053,0.0-15.0-1.2,96469,List1A,white,woman,,,,null,,,,
null,is marrying,,html-keyboard-response,160,689058,0.0-15.0-2.2,96469,List1A,white,woman,,,,null,,,,
6525,,,survey-text,161,695586,0.0-15.0-3.2,96469,List1A,white,woman,,,,,"{""Q0"":""Ruth is marrying kate""}","<img src=""stim_listA/marry7.gif""</stim_listA>",is marrying,
null,"<div style=""font-size:60px;"">+</div>",,html-keyboard-response,162,696090,0.0-15.0-0.3,96469,List1A,white,woman,,,,null,,,,
null,"<img src=""stim_listA/argue4.gif""</stim_listA>",,html-keyboard-response,163,698094,0.0-15.0-1.3,96469,List1A,white,woman,,,,null,,,,
null,are arguing with each other,,html-keyboard-response,164,700098,0.0-15.0-2.3,96469,List1A,white,woman,,,,null,,,,
8959,,,survey-text,165,709060,0.0-15.0-3.3,96469,List1A,white,woman,,,,,"{""Q0"":""Luke and Jane are arguing with eachother""}","<img src=""stim_listA/argue4.gif""</stim_listA>",are arguing with each other,
null,"<div style=""font-size:60px;"">+</div>",,html-keyboard-response,166,709563,0.0-15.0-0.4,96469,List1A,white,woman,,,,null,,,,
null,"<img src=""stim_listA/hug6.gif""</stim_listA>",,html-keyboard-response,167,711568,0.0-15.0-1.4,96469,List1A,white,woman,,,,null,,,,
null,are hugging each other,,html-keyboard-response,168,713573,0.0-15.0-2.4,96469,List1A,white,woman,,,,null,,,,
7709,,,survey-text,169,721286,0.0-15.0-3.4,96469,List1A,white,woman,,,,,"{""Q0"":""Dave and mike are hugging eachother""}","<img src=""stim_listA/hug6.gif""</stim_listA>",are hugging each other,
null,"<div style=""font-size:60px;"">+</div>",,html-keyboard-response,170,721790,0.0-15.0-0.5,96469,List1A,white,woman,,,,null,,,,
null,"<img src=""stim_listA/marry4.gif""</stim_listA>",,html-keyboard-response,171,723794,0.0-15.0-1.5,96469,List1A,white,woman,,,,null,,,,
null,are marrying each other,,html-keyboard-response,172,725796,0.0-15.0-2.5,96469,List1A,white,woman,,,,null,,,,
6959,,,survey-text,173,732758,0.0-15.0-3.5,96469,List1A,white,woman,,,,,"{""Q0"":""Jane and Luke are marrying""}","<img src=""stim_listA/marry4.gif""</stim_listA>",are marrying each other,
null,"<div style=""font-size:60px;"">+</div>",,html-keyboard-response,174,733262,0.0-15.0-0.6,96469,List1A,white,woman,,,,null,,,,
null,"<img src=""stim_listA/dance2.gif""</stim_listA>",,html-keyboard-response,175,735267,0.0-15.0-1.6,96469,List1A,white,woman,,,,null,,,,
null,are dancing with each other,,html-keyboard-response,176,737271,0.0-15.0-2.6,96469,List1A,white,woman,,,,null,,,,
8475,,,survey-text,177,745749,0.0-15.0-3.6,96469,List1A,white,woman,,,,,"{""Q0"":""Beth and mike are dancing together""}","<img src=""stim_listA/dance2.gif""</stim_listA>",are dancing with each other,
null,"<div style=""font-size:60px;"">+</div>",,html-keyboard-response,178,746252,0.0-15.0-0.7,96469,List1A,white,woman,,,,null,,,,
null,"<img src=""stim_listA/hug1.gif""</stim_listA>",,html-keyboard-response,179,748257,0.0-15.0-1.7,96469,List1A,white,woman,,,,null,,,,
null,is hugging,,html-keyboard-response,180,750260,0.0-15.0-2.7,96469,List1A,white,woman,,,,null,,,,
7526,,,survey-text,181,757790,0.0-15.0-3.7,96469,List1A,white,woman,,,,,"{""Q0"":""Beth and Fred are hugging""}","<img src=""stim_listA/hug1.gif""</stim_listA>",is hugging,
null,"<div style=""font-size:60px;"">+</div>",,html-keyboard-response,182,758294,0.0-15.0-0.8,96469,List1A,white,woman,,,,null,,,,
null,"<img src=""stim_listA/kiss6.gif""</stim_listA>",,html-keyboard-response,183,760299,0.0-15.0-1.8,96469,List1A,white,woman,,,,null,,,,
null,are kissing each other,,html-keyboard-response,184,762303,0.0-15.0-2.8,96469,List1A,white,woman,,,,null,,,,
7243,,,survey-text,185,769550,0.0-15.0-3.8,96469,List1A,white,woman,,,,,"{""Q0"":""Dave and mike are kissing eachother""}","<img src=""stim_listA/kiss6.gif""</stim_listA>",are kissing each other,
null,"<div style=""font-size:60px;"">+</div>",,html-keyboard-response,186,770054,0.0-15.0-0.9,96469,List1A,white,woman,,,,null,,,,
null,"<img src=""stim_listA/argue5.gif""</stim_listA>",,html-keyboard-response,187,772058,0.0-15.0-1.9,96469,List1A,white,woman,,,,null,,,,
null,is arguing with,,html-keyboard-response,188,774063,0.0-15.0-2.9,96469,List1A,white,woman,,,,null,,,,
10506,,,survey-text,189,784572,0.0-15.0-3.9,96469,List1A,white,woman,,,,,"{""Q0"":""Mike and Luke are arguing""}","<img src=""stim_listA/argue5.gif""</stim_listA>",is arguing with,
null,"<div style=""font-size:60px;"">+</div>",,html-keyboard-response,190,785075,0.0-15.0-0.10,96469,List1A,white,woman,,,,null,,,,
null,"<img src=""stim_listA/meet5.gif""</stim_listA>",,html-keyboard-response,191,787080,0.0-15.0-1.10,96469,List1A,white,woman,,,,null,,,,
null,is meeting,,html-keyboard-response,192,789084,0.0-15.0-2.10,96469,List1A,white,woman,,,,null,,,,
5453,,,survey-text,193,794540,0.0-15.0-3.10,96469,List1A,white,woman,,,,,"{""Q0"":""Mike is meeting dave""}","<img src=""stim_listA/meet5.gif""</stim_listA>",is meeting,
null,"<div style=""font-size:60px;"">+</div>",,html-keyboard-response,194,795043,0.0-15.0-0.11,96469,List1A,white,woman,,,,null,,,,
null,"<img src=""stim_listA/dance4.gif""</stim_listA>",,html-keyboard-response,195,797048,0.0-15.0-1.11,96469,List1A,white,woman,,,,null,,,,
null,are dancing with each other,,html-keyboard-response,196,799052,0.0-15.0-2.11,96469,List1A,white,woman,,,,null,,,,
9225,,,survey-text,197,808280,0.0-15.0-3.11,96469,List1A,white,woman,,,,,"{""Q0"":""Dave and Ruth is dancing together""}","<img src=""stim_listA/dance4.gif""</stim_listA>",are dancing with each other,
null,"<div style=""font-size:60px;"">+</div>",,html-keyboard-response,198,808783,0.0-15.0-0.12,96469,List1A,white,woman,,,,null,,,,
null,"<img src=""stim_listA/fight6.gif""</stim_listA>",,html-keyboard-response,199,810787,0.0-15.0-1.12,96469,List1A,white,woman,,,,null,,,,
null,are fighting each other,,html-keyboard-response,200,812792,0.0-15.0-2.12,96469,List1A,white,woman,,,,null,,,,
9083,,,survey-text,201,821880,0.0-15.0-3.12,96469,List1A,white,woman,,,,,"{""Q0"":""Fred and Luke are fighting with eachother""}","<img src=""stim_listA/fight6.gif""</stim_listA>",are fighting each other,
null,"<div style=""font-size:60px;"">+</div>",,html-keyboard-response,202,822384,0.0-15.0-0.13,96469,List1A,white,woman,,,,null,,,,
null,"<img src=""stim_listA/fight1.gif""</stim_listA>",,html-keyboard-response,203,824389,0.0-15.0-1.13,96469,List1A,white,woman,,,,null,,,,
null,is fighting,,html-keyboard-response,204,826393,0.0-15.0-2.13,96469,List1A,white,woman,,,,null,,,,
14490,,,survey-text,205,840887,0.0-15.0-3.13,96469,List1A,white,woman,,,,,"{""Q0"":""Beth and mike are fighting""}","<img src=""stim_listA/fight1.gif""</stim_listA>",is fighting,
null,"<div style=""font-size:60px;"">+</div>",,html-keyboard-response,206,841391,0.0-15.0-0.14,96469,List1A,white,woman,,,,null,,,,
null,"<img src=""stim_listA/fight7.gif""</stim_listA>",,html-keyboard-response,207,843395,0.0-15.0-1.14,96469,List1A,white,woman,,,,null,,,,
null,is fighting,,html-keyboard-response,208,845400,0.0-15.0-2.14,96469,List1A,white,woman,,,,null,,,,
5909,,,survey-text,209,851312,0.0-15.0-3.14,96469,List1A,white,woman,,,,,"{""Q0"":""Kate is fighting jane""}","<img src=""stim_listA/fight7.gif""</stim_listA>",is fighting,
null,"<div style=""font-size:60px;"">+</div>",,html-keyboard-response,210,851816,0.0-15.0-0.15,96469,List1A,white,woman,,,,null,,,,
null,"<img src=""stim_listA/talk4.gif""</stim_listA>",,html-keyboard-response,211,853820,0.0-15.0-1.15,96469,List1A,white,woman,,,,null,,,,
null,are talking to each other,,html-keyboard-response,212,855825,0.0-15.0-2.15,96469,List1A,white,woman,,,,null,,,,
8115,,,survey-text,213,863943,0.0-15.0-3.15,96469,List1A,white,woman,,,,,"{""Q0"":""Dave and mike are speaking to eachother""}","<img src=""stim_listA/talk4.gif""</stim_listA>",are talking to each other,
null,"<div style=""font-size:60px;"">+</div>",,html-keyboard-response,214,864447,0.0-15.0-0.16,96469,List1A,white,woman,,,,null,,,,
null,"<img src=""stim_listA/hug4.gif""</stim_listA>",,html-keyboard-response,215,866451,0.0-15.0-1.16,96469,List1A,white,woman,,,,null,,,,
null,are hugging each other,,html-keyboard-response,216,868455,0.0-15.0-2.16,96469,List1A,white,woman,,,,null,,,,
7604,,,survey-text,217,876061,0.0-15.0-3.16,96469,List1A,white,woman,,,,,"{""Q0"":""Dave and Jane are hugging eachother""}","<img src=""stim_listA/hug4.gif""</stim_listA>",are hugging each other,
null,"<div style=""font-size:60px;"">+</div>",,html-keyboard-response,218,876564,0.0-15.0-0.17,96469,List1A,white,woman,,,,null,,,,
null,"<img src=""stim_listA/marry2.gif""</stim_listA>",,html-keyboard-response,219,878569,0.0-15.0-1.17,96469,List1A,white,woman,,,,null,,,,
null,are marrying each other,,html-keyboard-response,220,880573,0.0-15.0-2.17,96469,List1A,white,woman,,,,null,,,,
9542,,,survey-text,221,890119,0.0-15.0-3.17,96469,List1A,white,woman,,,,,"{""Q0"":""Fred and Kate are marrying eachother""}","<img src=""stim_listA/marry2.gif""</stim_listA>",are marrying each other,
null,"<div style=""font-size:60px;"">+</div>",,html-keyboard-response,222,890622,0.0-15.0-0.18,96469,List1A,white,woman,,,,null,,,,
null,"<img src=""stim_listA/hug2.gif""</stim_listA>",,html-keyboard-response,223,892628,0.0-15.0-1.18,96469,List1A,white,woman,,,,null,,,,
null,are hugging each other,,html-keyboard-response,224,894632,0.0-15.0-2.18,96469,List1A,white,woman,,,,null,,,,
7891,,,survey-text,225,902527,0.0-15.0-3.18,96469,List1A,white,woman,,,,,"{""Q0"":""Kate and mike are hugging eachother""}","<img src=""stim_listA/hug2.gif""</stim_listA>",are hugging each other,
null,"<div style=""font-size:60px;"">+</div>",,html-keyboard-response,226,903030,0.0-15.0-0.19,96469,List1A,white,woman,,,,null,,,,
null,"<img src=""stim_listA/dance5.gif""</stim_listA>",,html-keyboard-response,227,905035,0.0-15.0-1.19,96469,List1A,white,woman,,,,null,,,,
null,is dancing with,,html-keyboard-response,228,907039,0.0-15.0-2.19,96469,List1A,white,woman,,,,null,,,,
6953,,,survey-text,229,913995,0.0-15.0-3.19,96469,List1A,white,woman,,,,,"{""Q0"":""Dave is dancing with fred""}","<img src=""stim_listA/dance5.gif""</stim_listA>",is dancing with,
5756,"<img src='img/portrait_matrix_list1.JPG' style='width:900px;height:500px;''></img><p>If you have memorised all the portraits and names and are ready to start, press Continue.</p><p><strong>Please note: Your memory of these faces will be tested 4 times during this experiment.</strong></p>",0,html-button-response,230,919754,0.0-16.0-0.0,96469,List1A,white,woman,,,,,,,,
2527,"<img src=""portrait/WM2.jpg""style=""width:400px;height:400px;""></img>",7,html-button-response,231,923287,0.0-16.0-1.0,96469,List1A,white,woman,,TRUE,7,,,,,
null,CORRECT,,html-keyboard-response,232,924792,0.0-16.0-2.0-0.0,96469,List1A,white,woman,,,,null,,,,
1774,"<img src=""portrait/BW1.jpg""style=""width:400px;height:400px;""></img>",0,html-button-response,233,926570,0.0-16.0-4.0,96469,List1A,white,woman,,TRUE,0,,,,,
null,CORRECT,,html-keyboard-response,234,928075,0.0-16.0-5.0-0.0,96469,List1A,white,woman,,,,null,,,,
2374,"<img src=""portrait/WM1.jpg""style=""width:400px;height:400px;""></img>",6,html-button-response,235,930454,0.0-16.0-7.0,96469,List1A,white,woman,,TRUE,6,,,,,
null,CORRECT,,html-keyboard-response,236,931958,0.0-16.0-8.0-0.0,96469,List1A,white,woman,,,,null,,,,
3991,"<img src=""portrait/WW2.jpg""style=""width:400px;height:400px;""></img>",3,html-button-response,237,935954,0.0-16.0-10.0,96469,List1A,white,woman,,TRUE,3,,,,,
null,CORRECT,,html-keyboard-response,238,937458,0.0-16.0-11.0-0.0,96469,List1A,white,woman,,,,null,,,,
3483,"<img src=""portrait/WW1.jpg""style=""width:400px;height:400px;""></img>",1,html-button-response,239,940945,0.0-16.0-13.0,96469,List1A,white,woman,,TRUE,1,,,,,
null,CORRECT,,html-keyboard-response,240,942451,0.0-16.0-14.0-0.0,96469,List1A,white,woman,,,,null,,,,
2206,"<img src=""portrait/BM2.jpg""style=""width:400px;height:400px;""></img>",5,html-button-response,241,944661,0.0-16.0-16.0,96469,List1A,white,woman,,TRUE,5,,,,,
null,CORRECT,,html-keyboard-response,242,946166,0.0-16.0-17.0-0.0,96469,List1A,white,woman,,,,null,,,,
3483,"<img src=""portrait/BW2.jpg""style=""width:400px;height:400px;""></img>",2,html-button-response,243,949653,0.0-16.0-19.0,96469,List1A,white,woman,,TRUE,2,,,,,
null,CORRECT,,html-keyboard-response,244,951157,0.0-16.0-20.0-0.0,96469,List1A,white,woman,,,,null,,,,
2857,"<img src=""portrait/BM1.jpg""style=""width:400px;height:400px;""></img>",4,html-button-response,245,954019,0.0-16.0-22.0,96469,List1A,white,woman,,TRUE,4,,,,,
null,CORRECT,,html-keyboard-response,246,955524,0.0-16.0-23.0-0.0,96469,List1A,white,woman,,,,null,,,,
1224,<p>You got 8 out of 8 right first time. Press Continue.</p>,0,html-button-response,247,956752,0.0-16.0-25.0,96469,List1A,white,woman,,,,,,,,
null,"<div style=""font-size:60px;"">+</div>",,html-keyboard-response,248,958258,0.0-17.0-0.0,96469,List1A,white,woman,,,,null,,,,
null,"<img src=""stim_listA/talk3.gif""</stim_listA>",,html-keyboard-response,249,960264,0.0-17.0-1.0,96469,List1A,white,woman,,,,null,,,,
null,is talking to,,html-keyboard-response,250,962268,0.0-17.0-2.0,96469,List1A,white,woman,,,,null,,,,
11285,,,survey-text,251,973556,0.0-17.0-3.0,96469,List1A,white,woman,,,,,"{""Q0"":""Jane is talking to luke""}","<img src=""stim_listA/talk3.gif""</stim_listA>",is talking to,
null,"<div style=""font-size:60px;"">+</div>",,html-keyboard-response,252,974060,0.0-17.0-0.1,96469,List1A,white,woman,,,,null,,,,
null,"<img src=""stim_listA/marry6.gif""</stim_listA>",,html-keyboard-response,253,976064,0.0-17.0-1.1,96469,List1A,white,woman,,,,null,,,,
null,are marrying each other,,html-keyboard-response,254,978068,0.0-17.0-2.1,96469,List1A,white,woman,,,,null,,,,
8291,,,survey-text,255,986363,0.0-17.0-3.1,96469,List1A,white,woman,,,,,"{""Q0"":""Dave and Fred are marrying eachother""}","<img src=""stim_listA/marry6.gif""</stim_listA>",are marrying each other,
null,"<div style=""font-size:60px;"">+</div>",,html-keyboard-response,256,986867,0.0-17.0-0.2,96469,List1A,white,woman,,,,null,,,,
null,"<img src=""stim_listA/shout1.gif""</stim_listA>",,html-keyboard-response,257,988871,0.0-17.0-1.2,96469,List1A,white,woman,,,,null,,,,
null,is shouting at,,html-keyboard-response,258,990875,0.0-17.0-2.2,96469,List1A,white,woman,,,,null,,,,
6217,,,survey-text,259,997095,0.0-17.0-3.2,96469,List1A,white,woman,,,,,"{""Q0"":""Fred is shouting at beth""}","<img src=""stim_listA/shout1.gif""</stim_listA>",is shouting at,
null,"<div style=""font-size:60px;"">+</div>",,html-keyboard-response,260,997599,0.0-17.0-0.3,96469,List1A,white,woman,,,,null,,,,
null,"<img src=""stim_listA/touch2.gif""</stim_listA>",,html-keyboard-response,261,999603,0.0-17.0-1.3,96469,List1A,white,woman,,,,null,,,,
null,are touching each other,,html-keyboard-response,262,1001608,0.0-17.0-2.3,96469,List1A,white,woman,,,,null,,,,
8427,,,survey-text,263,1010038,0.0-17.0-3.3,96469,List1A,white,woman,,,,,"{""Q0"":""Fred and Beth are touching eachother""}","<img src=""stim_listA/touch2.gif""</stim_listA>",are touching each other,
null,"<div style=""font-size:60px;"">+</div>",,html-keyboard-response,264,1010542,0.0-17.0-0.4,96469,List1A,white,woman,,,,null,,,,
null,"<img src=""stim_listA/marry3.gif""</stim_listA>",,html-keyboard-response,265,1012547,0.0-17.0-1.4,96469,List1A,white,woman,,,,null,,,,
null,is marrying,,html-keyboard-response,266,1014552,0.0-17.0-2.4,96469,List1A,white,woman,,,,null,,,,
5681,,,survey-text,267,1020236,0.0-17.0-3.4,96469,List1A,white,woman,,,,,"{""Q0"":""Dave is marrying ruth""}","<img src=""stim_listA/marry3.gif""</stim_listA>",is marrying,
null,"<div style=""font-size:60px;"">+</div>",,html-keyboard-response,268,1020740,0.0-17.0-0.5,96469,List1A,white,woman,,,,null,,,,
null,"<img src=""stim_listA/hug7.gif""</stim_listA>",,html-keyboard-response,269,1022745,0.0-17.0-1.5,96469,List1A,white,woman,,,,null,,,,
null,is hugging,,html-keyboard-response,270,1024749,0.0-17.0-2.5,96469,List1A,white,woman,,,,null,,,,
5619,,,survey-text,271,1030370,0.0-17.0-3.5,96469,List1A,white,woman,,,,,"{""Q0"":""Ruth is hugging beth""}","<img src=""stim_listA/hug7.gif""</stim_listA>",is hugging,
null,"<div style=""font-size:60px;"">+</div>",,html-keyboard-response,272,1030874,0.0-17.0-0.6,96469,List1A,white,woman,,,,null,,,,
null,"<img src=""stim_listA/fight2.gif""</stim_listA>",,html-keyboard-response,273,1032879,0.0-17.0-1.6,96469,List1A,white,woman,,,,null,,,,
null,are fighting each other,,html-keyboard-response,274,1034883,0.0-17.0-2.6,96469,List1A,white,woman,,,,null,,,,
7373,,,survey-text,275,1042260,0.0-17.0-3.6,96469,List1A,white,woman,,,,,"{""Q0"":""Beth and Fred are fighting eachother""}","<img src=""stim_listA/fight2.gif""</stim_listA>",are fighting each other,
null,"<div style=""font-size:60px;"">+</div>",,html-keyboard-response,276,1042763,0.0-17.0-0.7,96469,List1A,white,woman,,,,null,,,,
null,"<img src=""stim_listA/touch8.gif""</stim_listA>",,html-keyboard-response,277,1044767,0.0-17.0-1.7,96469,List1A,white,woman,,,,null,,,,
null,are touching each other,,html-keyboard-response,278,1046771,0.0-17.0-2.7,96469,List1A,white,woman,,,,null,,,,
7101,,,survey-text,279,1053875,0.0-17.0-3.7,96469,List1A,white,woman,,,,,"{""Q0"":""Beth and Ruth are touching eachother""}","<img src=""stim_listA/touch8.gif""</stim_listA>",are touching each other,
null,"<div style=""font-size:60px;"">+</div>",,html-keyboard-response,280,1054379,0.0-17.0-0.8,96469,List1A,white,woman,,,,null,,,,
null,"<img src=""stim_listA/meet7.gif""</stim_listA>",,html-keyboard-response,281,1056384,0.0-17.0-1.8,96469,List1A,white,woman,,,,null,,,,
null,is meeting,,html-keyboard-response,282,1058388,0.0-17.0-2.8,96469,List1A,white,woman,,,,null,,,,
9601,,,survey-text,283,1067992,0.0-17.0-3.8,96469,List1A,white,woman,,,,,"{""Q0"":""Jane is meeting Kate ""}","<img src=""stim_listA/meet7.gif""</stim_listA>",is meeting,
null,"<div style=""font-size:60px;"">+</div>",,html-keyboard-response,284,1068496,0.0-17.0-0.9,96469,List1A,white,woman,,,,null,,,,
null,"<img src=""stim_listA/argue8.gif""</stim_listA>",,html-keyboard-response,285,1070500,0.0-17.0-1.9,96469,List1A,white,woman,,,,null,,,,
null,are arguing with each other,,html-keyboard-response,286,1072504,0.0-17.0-2.9,96469,List1A,white,woman,,,,null,,,,
7409,,,survey-text,287,1079916,0.0-17.0-3.9,96469,List1A,white,woman,,,,,"{""Q0"":""Jane and Beth are arguing with eachother""}","<img src=""stim_listA/argue8.gif""</stim_listA>",are arguing with each other,
null,"<div style=""font-size:60px;"">+</div>",,html-keyboard-response,288,1080419,0.0-17.0-0.10,96469,List1A,white,woman,,,,null,,,,
null,"<img src=""stim_listA/dance1.gif""</stim_listA>",,html-keyboard-response,289,1082424,0.0-17.0-1.10,96469,List1A,white,woman,,,,null,,,,
null,is dancing with,,html-keyboard-response,290,1084427,0.0-17.0-2.10,96469,List1A,white,woman,,,,null,,,,
6645,,,survey-text,291,1091075,0.0-17.0-3.10,96469,List1A,white,woman,,,,,"{""Q0"":""Kate is dancing with fred""}","<img src=""stim_listA/dance1.gif""</stim_listA>",is dancing with,
null,"<div style=""font-size:60px;"">+</div>",,html-keyboard-response,292,1091578,0.0-17.0-0.11,96469,List1A,white,woman,,,,null,,,,
null,"<img src=""stim_listA/marry8.gif""</stim_listA>",,html-keyboard-response,293,1093583,0.0-17.0-1.11,96469,List1A,white,woman,,,,null,,,,
null,are marrying each other,,html-keyboard-response,294,1095586,0.0-17.0-2.11,96469,List1A,white,woman,,,,null,,,,
6950,,,survey-text,295,1102540,0.0-17.0-3.11,96469,List1A,white,woman,,,,,"{""Q0"":""Jane and Beth are marrying eachother""}","<img src=""stim_listA/marry8.gif""</stim_listA>",are marrying each other,
null,"<div style=""font-size:60px;"">+</div>",,html-keyboard-response,296,1103043,0.0-17.0-0.12,96469,List1A,white,woman,,,,null,,,,
null,"<img src=""stim_listA/shout3.gif""</stim_listA>",,html-keyboard-response,297,1105046,0.0-17.0-1.12,96469,List1A,white,woman,,,,null,,,,
null,is shouting at,,html-keyboard-response,298,1107050,0.0-17.0-2.12,96469,List1A,white,woman,,,,null,,,,
6495,,,survey-text,299,1113549,0.0-17.0-3.12,96469,List1A,white,woman,,,,,"{""Q0"":""Ruth is shouting at Luke ""}","<img src=""stim_listA/shout3.gif""</stim_listA>",is shouting at,
null,"<div style=""font-size:60px;"">+</div>",,html-keyboard-response,300,1114053,0.0-17.0-0.13,96469,List1A,white,woman,,,,null,,,,
null,"<img src=""stim_listA/dance3.gif""</stim_listA>",,html-keyboard-response,301,1116057,0.0-17.0-1.13,96469,List1A,white,woman,,,,null,,,,
null,is dancing with,,html-keyboard-response,302,1118061,0.0-17.0-2.13,96469,List1A,white,woman,,,,null,,,,
5634,,,survey-text,303,1123699,0.0-17.0-3.13,96469,List1A,white,woman,,,,,"{""Q0"":""Jane is dancing with luke""}","<img src=""stim_listA/dance3.gif""</stim_listA>",is dancing with,
null,"<div style=""font-size:60px;"">+</div>",,html-keyboard-response,304,1124202,0.0-17.0-0.14,96469,List1A,white,woman,,,,null,,,,
null,"<img src=""stim_listA/kiss7.gif""</stim_listA>",,html-keyboard-response,305,1126206,0.0-17.0-1.14,96469,List1A,white,woman,,,,null,,,,
null,is kissing,,html-keyboard-response,306,1128210,0.0-17.0-2.14,96469,List1A,white,woman,,,,null,,,,
5251,,,survey-text,307,1133465,0.0-17.0-3.14,96469,List1A,white,woman,,,,,"{""Q0"":""Ruth is kissing beth""}","<img src=""stim_listA/kiss7.gif""</stim_listA>",is kissing,
null,"<div style=""font-size:60px;"">+</div>",,html-keyboard-response,308,1133968,0.0-17.0-0.15,96469,List1A,white,woman,,,,null,,,,
null,"<img src=""stim_listA/shout4.gif""</stim_listA>",,html-keyboard-response,309,1135973,0.0-17.0-1.15,96469,List1A,white,woman,,,,null,,,,
null,are shouting at each other,,html-keyboard-response,310,1137977,0.0-17.0-2.15,96469,List1A,white,woman,,,,null,,,,
7507,,,survey-text,311,1145487,0.0-17.0-3.15,96469,List1A,white,woman,,,,,"{""Q0"":""Jane and Dave are shouting at eachother""}","<img src=""stim_listA/shout4.gif""</stim_listA>",are shouting at each other,
null,"<div style=""font-size:60px;"">+</div>",,html-keyboard-response,312,1145991,0.0-17.0-0.16,96469,List1A,white,woman,,,,null,,,,
null,"<img src=""stim_listA/talk8.gif""</stim_listA>",,html-keyboard-response,313,1147996,0.0-17.0-1.16,96469,List1A,white,woman,,,,null,,,,
null,are talking to each other,,html-keyboard-response,314,1150000,0.0-17.0-2.16,96469,List1A,white,woman,,,,null,,,,
7203,,,survey-text,315,1157206,0.0-17.0-3.16,96469,List1A,white,woman,,,,,"{""Q0"":""Ruth and Kate are talking to eachother""}","<img src=""stim_listA/talk8.gif""</stim_listA>",are talking to each other,
null,"<div style=""font-size:60px;"">+</div>",,html-keyboard-response,316,1157709,0.0-17.0-0.17,96469,List1A,white,woman,,,,null,,,,
null,"<img src=""stim_listA/shout6.gif""</stim_listA>",,html-keyboard-response,317,1159714,0.0-17.0-1.17,96469,List1A,white,woman,,,,null,,,,
null,are shouting at each other,,html-keyboard-response,318,1161717,0.0-17.0-2.17,96469,List1A,white,woman,,,,null,,,,
7219,,,survey-text,319,1168940,0.0-17.0-3.17,96469,List1A,white,woman,,,,,"{""Q0"":""Dave and mike are shouting at eachother ""}","<img src=""stim_listA/shout6.gif""</stim_listA>",are shouting at each other,
null,"<div style=""font-size:60px;"">+</div>",,html-keyboard-response,320,1169444,0.0-17.0-0.18,96469,List1A,white,woman,,,,null,,,,
null,"<img src=""stim_listA/kiss1.gif""</stim_listA>",,html-keyboard-response,321,1171448,0.0-17.0-1.18,96469,List1A,white,woman,,,,null,,,,
null,is kissing,,html-keyboard-response,322,1173452,0.0-17.0-2.18,96469,List1A,white,woman,,,,null,,,,
4965,,,survey-text,323,1178421,0.0-17.0-3.18,96469,List1A,white,woman,,,,,"{""Q0"":""Fred is kissing beth""}","<img src=""stim_listA/kiss1.gif""</stim_listA>",is kissing,
null,"<div style=""font-size:60px;"">+</div>",,html-keyboard-response,324,1178925,0.0-17.0-0.19,96469,List1A,white,woman,,,,null,,,,
null,"<img src=""stim_listA/hug8.gif""</stim_listA>",,html-keyboard-response,325,1180930,0.0-17.0-1.19,96469,List1A,white,woman,,,,null,,,,
null,are hugging each other,,html-keyboard-response,326,1182934,0.0-17.0-2.19,96469,List1A,white,woman,,,,null,,,,
7977,,,survey-text,327,1190914,0.0-17.0-3.19,96469,List1A,white,woman,,,,,"{""Q0"":""Jane and Kate are hugging eachother""}","<img src=""stim_listA/hug8.gif""</stim_listA>",are hugging each other,
2817,"<img src='img/portrait_matrix_list1.JPG' style='width:900px;height:500px;''></img><p>If you have memorised all the portraits and names and are ready to start, press Continue.</p><p><strong>Please note: Your memory of these faces will be tested 4 times during this experiment.</strong></p>",0,html-button-response,328,1193734,0.0-18.0-0.0,96469,List1A,white,woman,,,,,,,,
3545,"<img src=""portrait/BM1.jpg""style=""width:400px;height:400px;""></img>",4,html-button-response,329,1198285,0.0-18.0-1.0,96469,List1A,white,woman,,TRUE,4,,,,,
null,CORRECT,,html-keyboard-response,330,1199789,0.0-18.0-2.0-0.0,96469,List1A,white,woman,,,,null,,,,
1957,"<img src=""portrait/BW2.jpg""style=""width:400px;height:400px;""></img>",2,html-button-response,331,1201751,0.0-18.0-4.0,96469,List1A,white,woman,,TRUE,2,,,,,
null,CORRECT,,html-keyboard-response,332,1203256,0.0-18.0-5.0-0.0,96469,List1A,white,woman,,,,null,,,,
3257,"<img src=""portrait/WW1.jpg""style=""width:400px;height:400px;""></img>",1,html-button-response,333,1206517,0.0-18.0-7.0,96469,List1A,white,woman,,TRUE,1,,,,,
null,CORRECT,,html-keyboard-response,334,1208021,0.0-18.0-8.0-0.0,96469,List1A,white,woman,,,,null,,,,
1942,"<img src=""portrait/BM2.jpg""style=""width:400px;height:400px;""></img>",5,html-button-response,335,1209967,0.0-18.0-10.0,96469,List1A,white,woman,,TRUE,5,,,,,
null,CORRECT,,html-keyboard-response,336,1211472,0.0-18.0-11.0-0.0,96469,List1A,white,woman,,,,null,,,,
1316,"<img src=""portrait/WM2.jpg""style=""width:400px;height:400px;""></img>",7,html-button-response,337,1212792,0.0-18.0-13.0,96469,List1A,white,woman,,TRUE,7,,,,,
null,CORRECT,,html-keyboard-response,338,1214297,0.0-18.0-14.0-0.0,96469,List1A,white,woman,,,,null,,,,
1650,"<img src=""portrait/WM1.jpg""style=""width:400px;height:400px;""></img>",6,html-button-response,339,1215950,0.0-18.0-16.0,96469,List1A,white,woman,,TRUE,6,,,,,
null,CORRECT,,html-keyboard-response,340,1217455,0.0-18.0-17.0-0.0,96469,List1A,white,woman,,,,null,,,,
2807,"<img src=""portrait/WW2.jpg""style=""width:400px;height:400px;""></img>",3,html-button-response,341,1220266,0.0-18.0-19.0,96469,List1A,white,woman,,TRUE,3,,,,,
null,CORRECT,,html-keyboard-response,342,1221772,0.0-18.0-20.0-0.0,96469,List1A,white,woman,,,,null,,,,
1757,"<img src=""portrait/BW1.jpg""style=""width:400px;height:400px;""></img>",0,html-button-response,343,1223533,0.0-18.0-22.0,96469,List1A,white,woman,,TRUE,0,,,,,
null,CORRECT,,html-keyboard-response,344,1225038,0.0-18.0-23.0-0.0,96469,List1A,white,woman,,,,null,,,,
1474,<p>You got 8 out of 8 right first time. Press Continue.</p>,0,html-button-response,345,1226516,0.0-18.0-25.0,96469,List1A,white,woman,,,,,,,,
null,"<div style=""font-size:60px;"">+</div>",,html-keyboard-response,346,1228022,0.0-19.0-0.0,96469,List1A,white,woman,,,,null,,,,
null,"<img src=""stim_listA/touch5.gif""</stim_listA>",,html-keyboard-response,347,1230027,0.0-19.0-1.0,96469,List1A,white,woman,,,,null,,,,
null,is touching,,html-keyboard-response,348,1232031,0.0-19.0-2.0,96469,List1A,white,woman,,,,null,,,,
5297,,,survey-text,349,1237332,0.0-19.0-3.0,96469,List1A,white,woman,,,,,"{""Q0"":""Dave is touching mike""}","<img src=""stim_listA/touch5.gif""</stim_listA>",is touching,
null,"<div style=""font-size:60px;"">+</div>",,html-keyboard-response,350,1237836,0.0-19.0-0.1,96469,List1A,white,woman,,,,null,,,,
null,"<img src=""stim_listA/dance7.gif""</stim_listA>",,html-keyboard-response,351,1239841,0.0-19.0-1.1,96469,List1A,white,woman,,,,null,,,,
null,is dancing with,,html-keyboard-response,352,1241844,0.0-19.0-2.1,96469,List1A,white,woman,,,,null,,,,
5387,,,survey-text,353,1247235,0.0-19.0-3.1,96469,List1A,white,woman,,,,,"{""Q0"":""Jane is dancing with beth""}","<img src=""stim_listA/dance7.gif""</stim_listA>",is dancing with,
null,"<div style=""font-size:60px;"">+</div>",,html-keyboard-response,354,1247738,0.0-19.0-0.2,96469,List1A,white,woman,,,,null,,,,
null,"<img src=""stim_listA/shout5.gif""</stim_listA>",,html-keyboard-response,355,1249743,0.0-19.0-1.2,96469,List1A,white,woman,,,,null,,,,
null,is shouting at,,html-keyboard-response,356,1251746,0.0-19.0-2.2,96469,List1A,white,woman,,,,null,,,,
5433,,,survey-text,357,1257183,0.0-19.0-3.2,96469,List1A,white,woman,,,,,"{""Q0"":""Fred is shouting at luke""}","<img src=""stim_listA/shout5.gif""</stim_listA>",is shouting at,
null,"<div style=""font-size:60px;"">+</div>",,html-keyboard-response,358,1257687,0.0-19.0-0.3,96469,List1A,white,woman,,,,null,,,,
null,"<img src=""stim_listA/meet4.gif""</stim_listA>",,html-keyboard-response,359,1259691,0.0-19.0-1.3,96469,List1A,white,woman,,,,null,,,,
null,are meeting each other,,html-keyboard-response,360,1261695,0.0-19.0-2.3,96469,List1A,white,woman,,,,null,,,,
7202,,,survey-text,361,1268901,0.0-19.0-3.3,96469,List1A,white,woman,,,,,"{""Q0"":""Ruth and Luke are meeting eachother""}","<img src=""stim_listA/meet4.gif""</stim_listA>",are meeting each other,
null,"<div style=""font-size:60px;"">+</div>",,html-keyboard-response,362,1269404,0.0-19.0-0.4,96469,List1A,white,woman,,,,null,,,,
null,"<img src=""stim_listA/meet8.gif""</stim_listA>",,html-keyboard-response,363,1271408,0.0-19.0-1.4,96469,List1A,white,woman,,,,null,,,,
null,are meeting each other,,html-keyboard-response,364,1273412,0.0-19.0-2.4,96469,List1A,white,woman,,,,null,,,,
7542,,,survey-text,365,1280958,0.0-19.0-3.4,96469,List1A,white,woman,,,,,"{""Q0"":""Ruth and Beth are meeting eachother""}","<img src=""stim_listA/meet8.gif""</stim_listA>",are meeting each other,
null,"<div style=""font-size:60px;"">+</div>",,html-keyboard-response,366,1281461,0.0-19.0-0.5,96469,List1A,white,woman,,,,null,,,,
null,"<img src=""stim_listA/argue2.gif""</stim_listA>",,html-keyboard-response,367,1283465,0.0-19.0-1.5,96469,List1A,white,woman,,,,null,,,,
null,are arguing with each other,,html-keyboard-response,368,1285469,0.0-19.0-2.5,96469,List1A,white,woman,,,,null,,,,
7860,,,survey-text,369,1293332,0.0-19.0-3.5,96469,List1A,white,woman,,,,,"{""Q0"":""Fred and Kate are arguing with eachother""}","<img src=""stim_listA/argue2.gif""</stim_listA>",are arguing with each other,
null,"<div style=""font-size:60px;"">+</div>",,html-keyboard-response,370,1293835,0.0-19.0-0.6,96469,List1A,white,woman,,,,null,,,,
null,"<img src=""stim_listA/argue6.gif""</stim_listA>",,html-keyboard-response,371,1295840,0.0-19.0-1.6,96469,List1A,white,woman,,,,null,,,,
null,are arguing with each other,,html-keyboard-response,372,1297844,0.0-19.0-2.6,96469,List1A,white,woman,,,,null,,,,
8343,,,survey-text,373,1306191,0.0-19.0-3.6,96469,List1A,white,woman,,,,,"{""Q0"":""Dave and Fred are arguing with eachother ""}","<img src=""stim_listA/argue6.gif""</stim_listA>",are arguing with each other,
null,"<div style=""font-size:60px;"">+</div>",,html-keyboard-response,374,1306694,0.0-19.0-0.7,96469,List1A,white,woman,,,,null,,,,
null,"<img src=""stim_listA/touch1.gif""</stim_listA>",,html-keyboard-response,375,1308699,0.0-19.0-1.7,96469,List1A,white,woman,,,,null,,,,
null,is touching,,html-keyboard-response,376,1310703,0.0-19.0-2.7,96469,List1A,white,woman,,,,null,,,,
5042,,,survey-text,377,1315748,0.0-19.0-3.7,96469,List1A,white,woman,,,,,"{""Q0"":""Kate is touching mike""}","<img src=""stim_listA/touch1.gif""</stim_listA>",is touching,
null,"<div style=""font-size:60px;"">+</div>",,html-keyboard-response,378,1316251,0.0-19.0-0.8,96469,List1A,white,woman,,,,null,,,,
null,"<img src=""stim_listA/marry1.gif""</stim_listA>",,html-keyboard-response,379,1318255,0.0-19.0-1.8,96469,List1A,white,woman,,,,null,,,,
null,is marrying,,html-keyboard-response,380,1320259,0.0-19.0-2.8,96469,List1A,white,woman,,,,null,,,,
4885,,,survey-text,381,1325148,0.0-19.0-3.8,96469,List1A,white,woman,,,,,"{""Q0"":""Mike is marrying beth""}","<img src=""stim_listA/marry1.gif""</stim_listA>",is marrying,
null,"<div style=""font-size:60px;"">+</div>",,html-keyboard-response,382,1325651,0.0-19.0-0.9,96469,List1A,white,woman,,,,null,,,,
null,"<img src=""stim_listA/shout7.gif""</stim_listA>",,html-keyboard-response,383,1327656,0.0-19.0-1.9,96469,List1A,white,woman,,,,null,,,,
null,is shouting at,,html-keyboard-response,384,1329660,0.0-19.0-2.9,96469,List1A,white,woman,,,,null,,,,
5017,,,survey-text,385,1334680,0.0-19.0-3.9,96469,List1A,white,woman,,,,,"{""Q0"":""Beth is shouting at ruth""}","<img src=""stim_listA/shout7.gif""</stim_listA>",is shouting at,
null,"<div style=""font-size:60px;"">+</div>",,html-keyboard-response,386,1335183,0.0-19.0-0.10,96469,List1A,white,woman,,,,null,,,,
null,"<img src=""stim_listA/meet1.gif""</stim_listA>",,html-keyboard-response,387,1337186,0.0-19.0-1.10,96469,List1A,white,woman,,,,null,,,,
null,is meeting,,html-keyboard-response,388,1339190,0.0-19.0-2.10,96469,List1A,white,woman,,,,null,,,,
5118,,,survey-text,389,1344312,0.0-19.0-3.10,96469,List1A,white,woman,,,,,"{""Q0"":""Kate is meeting mike""}","<img src=""stim_listA/meet1.gif""</stim_listA>",is meeting,
null,"<div style=""font-size:60px;"">+</div>",,html-keyboard-response,390,1344816,0.0-19.0-0.11,96469,List1A,white,woman,,,,null,,,,
null,"<img src=""stim_listA/argue7.gif""</stim_listA>",,html-keyboard-response,391,1346820,0.0-19.0-1.11,96469,List1A,white,woman,,,,null,,,,
null,is arguing with,,html-keyboard-response,392,1348824,0.0-19.0-2.11,96469,List1A,white,woman,,,,null,,,,
9496,,,survey-text,393,1358323,0.0-19.0-3.11,96469,List1A,white,woman,,,,,"{""Q0"":""Kate is arguing with ruth""}","<img src=""stim_listA/argue7.gif""</stim_listA>",is arguing with,
null,"<div style=""font-size:60px;"">+</div>",,html-keyboard-response,394,1358826,0.0-19.0-0.12,96469,List1A,white,woman,,,,null,,,,
null,"<img src=""stim_listA/kiss4.gif""</stim_listA>",,html-keyboard-response,395,1360830,0.0-19.0-1.12,96469,List1A,white,woman,,,,null,,,,
null,are kissing each other,,html-keyboard-response,396,1362835,0.0-19.0-2.12,96469,List1A,white,woman,,,,null,,,,
7839,,,survey-text,397,1370677,0.0-19.0-3.12,96469,List1A,white,woman,,,,,"{""Q0"":""Dave and Jane are kissing eachother ""}","<img src=""stim_listA/kiss4.gif""</stim_listA>",are kissing each other,
null,"<div style=""font-size:60px;"">+</div>",,html-keyboard-response,398,1371180,0.0-19.0-0.13,96469,List1A,white,woman,,,,null,,,,
null,"<img src=""stim_listA/kiss2.gif""</stim_listA>",,html-keyboard-response,399,1373185,0.0-19.0-1.13,96469,List1A,white,woman,,,,null,,,,
null,are kissing each other,,html-keyboard-response,400,1375189,0.0-19.0-2.13,96469,List1A,white,woman,,,,null,,,,
6693,,,survey-text,401,1381885,0.0-19.0-3.13,96469,List1A,white,woman,,,,,"{""Q0"":""Kate and mike are kissing eachother""}","<img src=""stim_listA/kiss2.gif""</stim_listA>",are kissing each other,
null,"<div style=""font-size:60px;"">+</div>",,html-keyboard-response,402,1382389,0.0-19.0-0.14,96469,List1A,white,woman,,,,null,,,,
null,"<img src=""stim_listA/touch3.gif""</stim_listA>",,html-keyboard-response,403,1384392,0.0-19.0-1.14,96469,List1A,white,woman,,,,null,,,,
null,is touching,,html-keyboard-response,404,1386396,0.0-19.0-2.14,96469,List1A,white,woman,,,,null,,,,
4986,,,survey-text,405,1391386,0.0-19.0-3.14,96469,List1A,white,woman,,,,,"{""Q0"":""Dave is touching jane""}","<img src=""stim_listA/touch3.gif""</stim_listA>",is touching,
null,"<div style=""font-size:60px;"">+</div>",,html-keyboard-response,406,1391889,0.0-19.0-0.15,96469,List1A,white,woman,,,,null,,,,
null,"<img src=""stim_listA/talk1.gif""</stim_listA>",,html-keyboard-response,407,1393894,0.0-19.0-1.15,96469,List1A,white,woman,,,,null,,,,
null,is talking to,,html-keyboard-response,408,1395897,0.0-19.0-2.15,96469,List1A,white,woman,,,,null,,,,
6959,,,survey-text,409,1402859,0.0-19.0-3.15,96469,List1A,white,woman,,,,,"{""Q0"":""Fred is talking to Kate ""}","<img src=""stim_listA/talk1.gif""</stim_listA>",is talking to,
null,"<div style=""font-size:60px;"">+</div>",,html-keyboard-response,410,1403363,0.0-19.0-0.16,96469,List1A,white,woman,,,,null,,,,
null,"<img src=""stim_listA/dance8.gif""</stim_listA>",,html-keyboard-response,411,1405367,0.0-19.0-1.16,96469,List1A,white,woman,,,,null,,,,
null,are dancing with each other,,html-keyboard-response,412,1407371,0.0-19.0-2.16,96469,List1A,white,woman,,,,null,,,,
9369,,,survey-text,413,1416743,0.0-19.0-3.16,96469,List1A,white,woman,,,,,"{""Q0"":""Kate and Ruth are dancing with eachother""}","<img src=""stim_listA/dance8.gif""</stim_listA>",are dancing with each other,
null,"<div style=""font-size:60px;"">+</div>",,html-keyboard-response,414,1417246,0.0-19.0-0.17,96469,List1A,white,woman,,,,null,,,,
null,"<img src=""stim_listA/meet3.gif""</stim_listA>",,html-keyboard-response,415,1419250,0.0-19.0-1.17,96469,List1A,white,woman,,,,null,,,,
null,is meeting,,html-keyboard-response,416,1421253,0.0-19.0-2.17,96469,List1A,white,woman,,,,null,,,,
4725,,,survey-text,417,1425982,0.0-19.0-3.17,96469,List1A,white,woman,,,,,"{""Q0"":""Dave is meeting jane""}","<img src=""stim_listA/meet3.gif""</stim_listA>",is meeting,
null,"<div style=""font-size:60px;"">+</div>",,html-keyboard-response,418,1426486,0.0-19.0-0.18,96469,List1A,white,woman,,,,null,,,,
null,"<img src=""stim_listA/shout2.gif""</stim_listA>",,html-keyboard-response,419,1428490,0.0-19.0-1.18,96469,List1A,white,woman,,,,null,,,,
null,are shouting at each other,,html-keyboard-response,420,1430494,0.0-19.0-2.18,96469,List1A,white,woman,,,,null,,,,
7069,,,survey-text,421,1437567,0.0-19.0-3.18,96469,List1A,white,woman,,,,,"{""Q0"":""Kate and mike are shouting at eachother""}","<img src=""stim_listA/shout2.gif""</stim_listA>",are shouting at each other,
null,"<div style=""font-size:60px;"">+</div>",,html-keyboard-response,422,1438071,0.0-19.0-0.19,96469,List1A,white,woman,,,,null,,,,
null,"<img src=""stim_listA/kiss5.gif""</stim_listA>",,html-keyboard-response,423,1440075,0.0-19.0-1.19,96469,List1A,white,woman,,,,null,,,,
null,is kissing,,html-keyboard-response,424,1442079,0.0-19.0-2.19,96469,List1A,white,woman,,,,null,,,,
5390,,,survey-text,425,1447473,0.0-19.0-3.19,96469,List1A,white,woman,,,,,"{""Q0"":""Fred is kissing Luke ""}","<img src=""stim_listA/kiss5.gif""</stim_listA>",is kissing,
1206,<p>Thank you for completing that task.</p><p>The final part of this session is a short questionnaire.</p><p>Press Continue.</p>,0,html-button-response,426,1448681,0.0-20.0,96469,List1A,white,woman,,,,,,,,
25930,,,survey-text,427,1475617,0.0-21.0,96469,List1A,white,woman,,,,,"{""Q0"":""25"",""Q1"":""English"",""Q2"":""english"",""Q3"":""United Kingdom"",""Q4"":""White british"",""Q5"":""Female""}",,,demographics
56233,,,survey-likert,428,1531863,0.0-22.0,96469,List1A,white,woman,,,,,"{""Q0"":2,""Q1"":3,""Q2"":4,""Q3"":5,""Q4"":4,""Q5"":3,""Q6"":3,""Q7"":0,""Q8"":0,""Q9"":0,""Q10"":0,""Q11"":0,""Q12"":0,""Q13"":1}",,,likert_race
42865,,,survey-likert,429,1574735,0.0-23.0,96469,List1A,white,woman,,,,,"{""Q0"":6,""Q1"":6,""Q2"":6,""Q3"":5,""Q4"":6,""Q5"":6,""Q6"":6,""Q7"":3,""Q8"":0,""Q9"":6,""Q10"":6,""Q11"":6,""Q12"":6,""Q13"":5}",,,likert_gender
4347,,,survey-text,430,1579086,0.0-24.0,96469,List1A,white,woman,,,,,"{""Q0"":""ccc""}",,,worker_id
8632,,,external-html,431,1587803,0.0-25.0,96469,List1A,white,woman,debrief.html,,,,,,,
