rt,stimulus,button_pressed,trial_type,trial_index,time_elapsed,internal_node_id,subject,list,ppt_race,ppt_gender,url,first_guess,correct,key_press,responses,image_type,phrase_type,test_part
3080,Welcome to the experiment. Press Continue to begin.,0,html-button-response,0,3094,0.0-0.0,97357,List1B,black,woman,,,,,,,,
34585,,,external-html,1,38871,0.0-1.0,97357,List1B,black,woman,consent.html,,,,,,,
11459,"<p>On the next page, you will see portraits of 8 people and their names.</p><p>Your first task is to take a few minutes to memorise the names of these people.</p><p>You will have to recall their names during the rest of the experiment, so it is</p><p>essential that you try to memorise these people and their names as best as you can.</p><br><p><strong>You will then be tested on your memory of these names and portraits.</strong></p><br><p>The experiment will start after you have completed this memory test.</p><br><p>Ready?</p>",0,html-button-response,2,50339,0.0-2.0,97357,List1B,black,woman,,,,,,,,
78925,"<img src='img/portrait_matrix_list1.JPG' style='width:900px;height:500px;''></img><p>If you have memorised all the portraits and names and are ready to start, press Continue.</p><p><strong>Please note: Your memory of these faces will be tested 4 times during this experiment.</strong></p>",0,html-button-response,3,130280,0.0-3.0-0.0,97357,List1B,black,woman,,,,,,,,
35142,"<img src=""portrait/BM1.jpg""style=""width:400px;height:400px;""></img>",5,html-button-response,4,166451,0.0-3.0-1.0,97357,List1B,black,woman,,TRUE,4,,,,,
4768,"<img src=""portrait/BM1.jpg""style=""width:400px;height:400px;""></img>",4,html-button-response,5,172250,0.0-3.0-3.0-0.0,97357,List1B,black,woman,,FALSE,4,,,,,
null,CORRECT,,html-keyboard-response,6,173771,0.0-3.0-3.0-1.0-0.0,97357,List1B,black,woman,,,,null,,,,
5246,"<img src=""portrait/WW2.jpg""style=""width:400px;height:400px;""></img>",3,html-button-response,7,179025,0.0-3.0-4.0,97357,List1B,black,woman,,TRUE,3,,,,,
null,CORRECT,,html-keyboard-response,8,180533,0.0-3.0-5.0-0.0,97357,List1B,black,woman,,,,null,,,,
3273,"<img src=""portrait/WM1.jpg""style=""width:400px;height:400px;""></img>",6,html-button-response,9,183811,0.0-3.0-7.0,97357,List1B,black,woman,,TRUE,6,,,,,
null,CORRECT,,html-keyboard-response,10,185318,0.0-3.0-8.0-0.0,97357,List1B,black,woman,,,,null,,,,
1807,"<img src=""portrait/WM2.jpg""style=""width:400px;height:400px;""></img>",7,html-button-response,11,187139,0.0-3.0-10.0,97357,List1B,black,woman,,TRUE,7,,,,,
null,CORRECT,,html-keyboard-response,12,188654,0.0-3.0-11.0-0.0,97357,List1B,black,woman,,,,null,,,,
2403,"<img src=""portrait/BW2.jpg""style=""width:400px;height:400px;""></img>",2,html-button-response,13,191075,0.0-3.0-13.0,97357,List1B,black,woman,,TRUE,2,,,,,
null,CORRECT,,html-keyboard-response,14,192595,0.0-3.0-14.0-0.0,97357,List1B,black,woman,,,,null,,,,
4442,"<img src=""portrait/BW1.jpg""style=""width:400px;height:400px;""></img>",0,html-button-response,15,197047,0.0-3.0-16.0,97357,List1B,black,woman,,TRUE,0,,,,,
null,CORRECT,,html-keyboard-response,16,198567,0.0-3.0-17.0-0.0,97357,List1B,black,woman,,,,null,,,,
3842,"<img src=""portrait/BM2.jpg""style=""width:400px;height:400px;""></img>",5,html-button-response,17,202428,0.0-3.0-19.0,97357,List1B,black,woman,,TRUE,5,,,,,
null,CORRECT,,html-keyboard-response,18,203939,0.0-3.0-20.0-0.0,97357,List1B,black,woman,,,,null,,,,
8914,"<img src=""portrait/WW1.jpg""style=""width:400px;height:400px;""></img>",1,html-button-response,19,212865,0.0-3.0-22.0,97357,List1B,black,woman,,TRUE,1,,,,,
null,CORRECT,,html-keyboard-response,20,214369,0.0-3.0-23.0-0.0,97357,List1B,black,woman,,,,null,,,,
1754,<p>You got 7 out of 8 right first time. Press Continue.</p>,0,html-button-response,21,216140,0.0-3.0-25.0,97357,List1B,black,woman,,,,,,,,
3539,"As you did not score 100%, the memory game will repeat. Press Continue.",0,html-button-response,22,220698,0.0-3.0-26.0-0.0,97357,List1B,black,woman,,,,,,,,
8375,"<img src='img/portrait_matrix_list1.JPG' style='width:900px;height:500px;''></img><p>If you have memorised all the portraits and names and are ready to start, press Continue.</p><p><strong>Please note: Your memory of these faces will be tested 4 times during this experiment.</strong></p>",0,html-button-response,23,230102,0.0-3.1-0.1,97357,List1B,black,woman,,,,,,,,
13479,"<img src=""portrait/BM1.jpg""style=""width:400px;height:400px;""></img>",4,html-button-response,24,244602,0.0-3.1-1.1,97357,List1B,black,woman,,TRUE,4,,,,,
null,CORRECT,,html-keyboard-response,25,246113,0.0-3.1-2.1-0.1,97357,List1B,black,woman,,,,null,,,,
7772,"<img src=""portrait/WW2.jpg""style=""width:400px;height:400px;""></img>",3,html-button-response,26,253906,0.0-3.1-4.1,97357,List1B,black,woman,,TRUE,3,,,,,
null,CORRECT,,html-keyboard-response,27,255419,0.0-3.1-5.1-0.1,97357,List1B,black,woman,,,,null,,,,
1972,"<img src=""portrait/WM1.jpg""style=""width:400px;height:400px;""></img>",6,html-button-response,28,257401,0.0-3.1-7.1,97357,List1B,black,woman,,TRUE,6,,,,,
null,CORRECT,,html-keyboard-response,29,258912,0.0-3.1-8.1-0.1,97357,List1B,black,woman,,,,null,,,,
1359,"<img src=""portrait/WM2.jpg""style=""width:400px;height:400px;""></img>",7,html-button-response,30,260279,0.0-3.1-10.1,97357,List1B,black,woman,,TRUE,7,,,,,
null,CORRECT,,html-keyboard-response,31,261799,0.0-3.1-11.1-0.1,97357,List1B,black,woman,,,,null,,,,
2476,"<img src=""portrait/BW2.jpg""style=""width:400px;height:400px;""></img>",0,html-button-response,32,264282,0.0-3.1-13.1,97357,List1B,black,woman,,TRUE,2,,,,,
2330,"<img src=""portrait/BW2.jpg""style=""width:400px;height:400px;""></img>",2,html-button-response,33,267634,0.0-3.1-15.1-0.1,97357,List1B,black,woman,,FALSE,2,,,,,
null,CORRECT,,html-keyboard-response,34,269153,0.0-3.1-15.1-1.1-0.1,97357,List1B,black,woman,,,,null,,,,
2565,"<img src=""portrait/BW1.jpg""style=""width:400px;height:400px;""></img>",0,html-button-response,35,271735,0.0-3.1-16.1,97357,List1B,black,woman,,TRUE,0,,,,,
null,CORRECT,,html-keyboard-response,36,273253,0.0-3.1-17.1-0.1,97357,List1B,black,woman,,,,null,,,,
5939,"<img src=""portrait/BM2.jpg""style=""width:400px;height:400px;""></img>",5,html-button-response,37,279210,0.0-3.1-19.1,97357,List1B,black,woman,,TRUE,5,,,,,
null,CORRECT,,html-keyboard-response,38,280724,0.0-3.1-20.1-0.1,97357,List1B,black,woman,,,,null,,,,
4286,"<img src=""portrait/WW1.jpg""style=""width:400px;height:400px;""></img>",1,html-button-response,39,285026,0.0-3.1-22.1,97357,List1B,black,woman,,TRUE,1,,,,,
null,CORRECT,,html-keyboard-response,40,286542,0.0-3.1-23.1-0.1,97357,List1B,black,woman,,,,null,,,,
1226,<p>You got 7 out of 8 right first time. Press Continue.</p>,0,html-button-response,41,287775,0.0-3.1-25.1,97357,List1B,black,woman,,,,,,,,
1330,"As you did not score 100%, the memory game will repeat. Press Continue.",0,html-button-response,42,290126,0.0-3.1-26.1-0.1,97357,List1B,black,woman,,,,,,,,
1319,"<img src='img/portrait_matrix_list1.JPG' style='width:900px;height:500px;''></img><p>If you have memorised all the portraits and names and are ready to start, press Continue.</p><p><strong>Please note: Your memory of these faces will be tested 4 times during this experiment.</strong></p>",0,html-button-response,43,292476,0.0-3.2-0.2,97357,List1B,black,woman,,,,,,,,
3654,"<img src=""portrait/BM1.jpg""style=""width:400px;height:400px;""></img>",4,html-button-response,44,297139,0.0-3.2-1.2,97357,List1B,black,woman,,TRUE,4,,,,,
null,CORRECT,,html-keyboard-response,45,298661,0.0-3.2-2.2-0.2,97357,List1B,black,woman,,,,null,,,,
8801,"<img src=""portrait/WW2.jpg""style=""width:400px;height:400px;""></img>",3,html-button-response,46,307478,0.0-3.2-4.2,97357,List1B,black,woman,,TRUE,3,,,,,
null,CORRECT,,html-keyboard-response,47,308993,0.0-3.2-5.2-0.2,97357,List1B,black,woman,,,,null,,,,
2012,"<img src=""portrait/WM1.jpg""style=""width:400px;height:400px;""></img>",6,html-button-response,48,311017,0.0-3.2-7.2,97357,List1B,black,woman,,TRUE,6,,,,,
null,CORRECT,,html-keyboard-response,49,312536,0.0-3.2-8.2-0.2,97357,List1B,black,woman,,,,null,,,,
1433,"<img src=""portrait/WM2.jpg""style=""width:400px;height:400px;""></img>",7,html-button-response,50,313982,0.0-3.2-10.2,97357,List1B,black,woman,,TRUE,7,,,,,
null,CORRECT,,html-keyboard-response,51,315506,0.0-3.2-11.2-0.2,97357,List1B,black,woman,,,,null,,,,
3455,"<img src=""portrait/BW2.jpg""style=""width:400px;height:400px;""></img>",2,html-button-response,52,318976,0.0-3.2-13.2,97357,List1B,black,woman,,TRUE,2,,,,,
null,CORRECT,,html-keyboard-response,53,320499,0.0-3.2-14.2-0.2,97357,List1B,black,woman,,,,null,,,,
1472,"<img src=""portrait/BW1.jpg""style=""width:400px;height:400px;""></img>",0,html-button-response,54,321995,0.0-3.2-16.2,97357,List1B,black,woman,,TRUE,0,,,,,
null,CORRECT,,html-keyboard-response,55,323509,0.0-3.2-17.2-0.2,97357,List1B,black,woman,,,,null,,,,
9482,"<img src=""portrait/BM2.jpg""style=""width:400px;height:400px;""></img>",4,html-button-response,56,333001,0.0-3.2-19.2,97357,List1B,black,woman,,TRUE,5,,,,,
1867,"<img src=""portrait/BM2.jpg""style=""width:400px;height:400px;""></img>",5,html-button-response,57,335888,0.0-3.2-21.2-0.2,97357,List1B,black,woman,,FALSE,5,,,,,
null,CORRECT,,html-keyboard-response,58,337411,0.0-3.2-21.2-1.2-0.2,97357,List1B,black,woman,,,,null,,,,
2067,"<img src=""portrait/WW1.jpg""style=""width:400px;height:400px;""></img>",1,html-button-response,59,339492,0.0-3.2-22.2,97357,List1B,black,woman,,TRUE,1,,,,,
null,CORRECT,,html-keyboard-response,60,341017,0.0-3.2-23.2-0.2,97357,List1B,black,woman,,,,null,,,,
1054,<p>You got 7 out of 8 right first time. Press Continue.</p>,0,html-button-response,61,342078,0.0-3.2-25.2,97357,List1B,black,woman,,,,,,,,
1393,"As you did not score 100%, the memory game will repeat. Press Continue.",0,html-button-response,62,344482,0.0-3.2-26.2-0.2,97357,List1B,black,woman,,,,,,,,
7351,"<img src='img/portrait_matrix_list1.JPG' style='width:900px;height:500px;''></img><p>If you have memorised all the portraits and names and are ready to start, press Continue.</p><p><strong>Please note: Your memory of these faces will be tested 4 times during this experiment.</strong></p>",0,html-button-response,63,352853,0.0-3.3-0.3,97357,List1B,black,woman,,,,,,,,
4061,"<img src=""portrait/BM1.jpg""style=""width:400px;height:400px;""></img>",4,html-button-response,64,357940,0.0-3.3-1.3,97357,List1B,black,woman,,TRUE,4,,,,,
null,CORRECT,,html-keyboard-response,65,359458,0.0-3.3-2.3-0.3,97357,List1B,black,woman,,,,null,,,,
4531,"<img src=""portrait/WW2.jpg""style=""width:400px;height:400px;""></img>",3,html-button-response,66,364001,0.0-3.3-4.3,97357,List1B,black,woman,,TRUE,3,,,,,
null,CORRECT,,html-keyboard-response,67,365519,0.0-3.3-5.3-0.3,97357,List1B,black,woman,,,,null,,,,
2006,"<img src=""portrait/WM1.jpg""style=""width:400px;height:400px;""></img>",6,html-button-response,68,367537,0.0-3.3-7.3,97357,List1B,black,woman,,TRUE,6,,,,,
null,CORRECT,,html-keyboard-response,69,369049,0.0-3.3-8.3-0.3,97357,List1B,black,woman,,,,null,,,,
1838,"<img src=""portrait/WM2.jpg""style=""width:400px;height:400px;""></img>",7,html-button-response,70,370902,0.0-3.3-10.3,97357,List1B,black,woman,,TRUE,7,,,,,
null,CORRECT,,html-keyboard-response,71,372438,0.0-3.3-11.3-0.3,97357,List1B,black,woman,,,,null,,,,
6892,"<img src=""portrait/BW2.jpg""style=""width:400px;height:400px;""></img>",2,html-button-response,72,379345,0.0-3.3-13.3,97357,List1B,black,woman,,TRUE,2,,,,,
null,CORRECT,,html-keyboard-response,73,380858,0.0-3.3-14.3-0.3,97357,List1B,black,woman,,,,null,,,,
1389,"<img src=""portrait/BW1.jpg""style=""width:400px;height:400px;""></img>",0,html-button-response,74,382262,0.0-3.3-16.3,97357,List1B,black,woman,,TRUE,0,,,,,
null,CORRECT,,html-keyboard-response,75,383777,0.0-3.3-17.3-0.3,97357,List1B,black,woman,,,,null,,,,
3771,"<img src=""portrait/BM2.jpg""style=""width:400px;height:400px;""></img>",5,html-button-response,76,387562,0.0-3.3-19.3,97357,List1B,black,woman,,TRUE,5,,,,,
null,CORRECT,,html-keyboard-response,77,389083,0.0-3.3-20.3-0.3,97357,List1B,black,woman,,,,null,,,,
6646,"<img src=""portrait/WW1.jpg""style=""width:400px;height:400px;""></img>",1,html-button-response,78,395743,0.0-3.3-22.3,97357,List1B,black,woman,,TRUE,1,,,,,
null,CORRECT,,html-keyboard-response,79,397255,0.0-3.3-23.3-0.3,97357,List1B,black,woman,,,,null,,,,
1284,<p>You got 8 out of 8 right first time. Press Continue.</p>,0,html-button-response,80,398553,0.0-3.3-25.3,97357,List1B,black,woman,,,,,,,,
20806,"<p>In this experiment, you will view photographs of the people from the memory game interacting.</p><p>By using the <strong>exact</strong> phrase given <i>after</i> the photograph appears and recalling the correct names of the people in the photographs, form a sentence describing the interaction. You do not need to capitalise names.</p><p>Type your answer in the space provided. Please complete every sentence before moving onto the next trial.</p><p>You will only have a few seconds to memorise each given photograph and phrase before you can respond, so try your best to focus.</p><p>An example is given below. Press 'Continue' when you are ready.</p><img src='img/speaking_example_v2.jpg' style='width:800px;height:460px;''></img>",0,html-button-response,81,420374,0.0-4.0,97357,List1B,black,woman,,,,,,,,
2446,"<p>Before the experiment starts, you will watch two example trials. Press 'Continue'.</p>",0,html-button-response,82,423840,0.0-5.0,97357,List1B,black,woman,,,,,,,,
null,<img src='img/speaking_WW.gif'></img>,,html-keyboard-response,83,426855,0.0-6.0,97357,List1B,black,woman,,,,null,,,,
null,<p>is speaking to</p>,,html-keyboard-response,84,428861,0.0-7.0,97357,List1B,black,woman,,,,null,,,,
1667,<p><b>Answer:</b> kate is speaking to beth</p>,0,html-button-response,85,430536,0.0-8.0,97357,List1B,black,woman,,,,,,,,
null,<img src='img/pointing_BM.gif'></img>,,html-keyboard-response,86,433544,0.0-9.0,97357,List1B,black,woman,,,,null,,,,
null,<p>are pointing at each other</p>,,html-keyboard-response,87,435550,0.0-10.0,97357,List1B,black,woman,,,,null,,,,
1528,<p><b>Answer:</b> luke and dave are pointing at each other</p>,0,html-button-response,88,437085,0.0-11.0,97357,List1B,black,woman,,,,,,,,
1855,"<p>Ready to start the experiment?</p><br><p><strong>Remember to describe the picture using a full sentence,</strong></p><p><strong>that combines the names of the people with the given phrase.</strong></p><p><strong>If you do not do this correctly you will not be paid.</strong></p><p><strong> You do not need to capitalise names or use punctuation.</strong></p><br><p>Press 'Continue' to begin.</p>",0,html-button-response,89,439953,0.0-12.0,97357,List1B,black,woman,,,,,,,,
null,"<div style=""font-size:60px;"">+</div>",,html-keyboard-response,90,441470,0.0-13.0-0.0,97357,List1B,black,woman,,,,null,,,,
null,"<img src=""stim_listB/dance8.gif""</stim_listB>",,html-keyboard-response,91,443494,0.0-13.0-1.0,97357,List1B,black,woman,,,,null,,,,
null,are dancing with each other,,html-keyboard-response,92,445501,0.0-13.0-2.0,97357,List1B,black,woman,,,,null,,,,
17267,,,survey-text,93,462788,0.0-13.0-3.0,97357,List1B,black,woman,,,,,"{""Q0"":""Ruth and Kate are dancing with each other""}","<img src=""stim_listB/dance8.gif""</stim_listB>",are dancing with each other,
null,"<div style=""font-size:60px;"">+</div>",,html-keyboard-response,94,463298,0.0-13.0-0.1,97357,List1B,black,woman,,,,null,,,,
null,"<img src=""stim_listB/shout8.gif""</stim_listB>",,html-keyboard-response,95,465304,0.0-13.0-1.1,97357,List1B,black,woman,,,,null,,,,
null,are shouting at each other,,html-keyboard-response,96,467319,0.0-13.0-2.1,97357,List1B,black,woman,,,,null,,,,
16318,,,survey-text,97,483648,0.0-13.0-3.1,97357,List1B,black,woman,,,,,"{""Q0"":""Jane and Kate are shouting at each other""}","<img src=""stim_listB/shout8.gif""</stim_listB>",are shouting at each other,
null,"<div style=""font-size:60px;"">+</div>",,html-keyboard-response,98,484152,0.0-13.0-0.2,97357,List1B,black,woman,,,,null,,,,
null,"<img src=""stim_listB/dance5.gif""</stim_listB>",,html-keyboard-response,99,486162,0.0-13.0-1.2,97357,List1B,black,woman,,,,null,,,,
null,is dancing with,,html-keyboard-response,100,488168,0.0-13.0-2.2,97357,List1B,black,woman,,,,null,,,,
9640,,,survey-text,101,497812,0.0-13.0-3.2,97357,List1B,black,woman,,,,,"{""Q0"":""Fred is dancing with Dave""}","<img src=""stim_listB/dance5.gif""</stim_listB>",is dancing with,
null,"<div style=""font-size:60px;"">+</div>",,html-keyboard-response,102,498318,0.0-13.0-0.3,97357,List1B,black,woman,,,,null,,,,
null,"<img src=""stim_listB/kiss3.gif""</stim_listB>",,html-keyboard-response,103,500333,0.0-13.0-1.3,97357,List1B,black,woman,,,,null,,,,
null,is kissing,,html-keyboard-response,104,502342,0.0-13.0-2.3,97357,List1B,black,woman,,,,null,,,,
14556,,,survey-text,105,516904,0.0-13.0-3.3,97357,List1B,black,woman,,,,,"{""Q0"":""Ruth is kissing Luke""}","<img src=""stim_listB/kiss3.gif""</stim_listB>",is kissing,
null,"<div style=""font-size:60px;"">+</div>",,html-keyboard-response,106,517410,0.0-13.0-0.4,97357,List1B,black,woman,,,,null,,,,
null,"<img src=""stim_listB/hug3.gif""</stim_listB>",,html-keyboard-response,107,519419,0.0-13.0-1.4,97357,List1B,black,woman,,,,null,,,,
null,is hugging,,html-keyboard-response,108,521429,0.0-13.0-2.4,97357,List1B,black,woman,,,,null,,,,
10520,,,survey-text,109,531957,0.0-13.0-3.4,97357,List1B,black,woman,,,,,"{""Q0"":""Luke is hugging Ruth""}","<img src=""stim_listB/hug3.gif""</stim_listB>",is hugging,
null,"<div style=""font-size:60px;"">+</div>",,html-keyboard-response,110,532462,0.0-13.0-0.5,97357,List1B,black,woman,,,,null,,,,
null,"<img src=""stim_listB/hug8.gif""</stim_listB>",,html-keyboard-response,111,534469,0.0-13.0-1.5,97357,List1B,black,woman,,,,null,,,,
null,are hugging each other,,html-keyboard-response,112,536479,0.0-13.0-2.5,97357,List1B,black,woman,,,,null,,,,
11040,,,survey-text,113,547536,0.0-13.0-3.5,97357,List1B,black,woman,,,,,"{""Q0"":""Jane and Kate are hugging each other""}","<img src=""stim_listB/hug8.gif""</stim_listB>",are hugging each other,
null,"<div style=""font-size:60px;"">+</div>",,html-keyboard-response,114,548041,0.0-13.0-0.6,97357,List1B,black,woman,,,,null,,,,
null,"<img src=""stim_listB/hug7.gif""</stim_listB>",,html-keyboard-response,115,550051,0.0-13.0-1.6,97357,List1B,black,woman,,,,null,,,,
null,is hugging,,html-keyboard-response,116,552059,0.0-13.0-2.6,97357,List1B,black,woman,,,,null,,,,
6485,,,survey-text,117,558556,0.0-13.0-3.6,97357,List1B,black,woman,,,,,"{""Q0"":""Ruth is hugging Beth""}","<img src=""stim_listB/hug7.gif""</stim_listB>",is hugging,
null,"<div style=""font-size:60px;"">+</div>",,html-keyboard-response,118,559062,0.0-13.0-0.7,97357,List1B,black,woman,,,,null,,,,
null,"<img src=""stim_listB/touch1.gif""</stim_listB>",,html-keyboard-response,119,561078,0.0-13.0-1.7,97357,List1B,black,woman,,,,null,,,,
null,is touching,,html-keyboard-response,120,563092,0.0-13.0-2.7,97357,List1B,black,woman,,,,null,,,,
8830,,,survey-text,121,571931,0.0-13.0-3.7,97357,List1B,black,woman,,,,,"{""Q0"":""Kate is touching Mike""}","<img src=""stim_listB/touch1.gif""</stim_listB>",is touching,
null,"<div style=""font-size:60px;"">+</div>",,html-keyboard-response,122,572438,0.0-13.0-0.8,97357,List1B,black,woman,,,,null,,,,
null,"<img src=""stim_listB/kiss5.gif""</stim_listB>",,html-keyboard-response,123,574452,0.0-13.0-1.8,97357,List1B,black,woman,,,,null,,,,
null,is kissing,,html-keyboard-response,124,576469,0.0-13.0-2.8,97357,List1B,black,woman,,,,null,,,,
8367,,,survey-text,125,584845,0.0-13.0-3.8,97357,List1B,black,woman,,,,,"{""Q0"":""Fred is kissing Luke""}","<img src=""stim_listB/kiss5.gif""</stim_listB>",is kissing,
null,"<div style=""font-size:60px;"">+</div>",,html-keyboard-response,126,585351,0.0-13.0-0.9,97357,List1B,black,woman,,,,null,,,,
null,"<img src=""stim_listB/dance1.gif""</stim_listB>",,html-keyboard-response,127,587372,0.0-13.0-1.9,97357,List1B,black,woman,,,,null,,,,
null,is dancing with,,html-keyboard-response,128,589382,0.0-13.0-2.9,97357,List1B,black,woman,,,,null,,,,
10904,,,survey-text,129,600293,0.0-13.0-3.9,97357,List1B,black,woman,,,,,"{""Q0"":""Kate is dancing with Fred""}","<img src=""stim_listB/dance1.gif""</stim_listB>",is dancing with,
null,"<div style=""font-size:60px;"">+</div>",,html-keyboard-response,130,600803,0.0-13.0-0.10,97357,List1B,black,woman,,,,null,,,,
null,"<img src=""stim_listB/fight4.gif""</stim_listB>",,html-keyboard-response,131,602815,0.0-13.0-1.10,97357,List1B,black,woman,,,,null,,,,
null,are fighting each other,,html-keyboard-response,132,604823,0.0-13.0-2.10,97357,List1B,black,woman,,,,null,,,,
13681,,,survey-text,133,618512,0.0-13.0-3.10,97357,List1B,black,woman,,,,,"{""Q0"":""Ruth and Fred are fighting each other""}","<img src=""stim_listB/fight4.gif""</stim_listB>",are fighting each other,
null,"<div style=""font-size:60px;"">+</div>",,html-keyboard-response,134,619018,0.0-13.0-0.11,97357,List1B,black,woman,,,,null,,,,
null,"<img src=""stim_listB/argue6.gif""</stim_listB>",,html-keyboard-response,135,621033,0.0-13.0-1.11,97357,List1B,black,woman,,,,null,,,,
null,are arguing with each other,,html-keyboard-response,136,623044,0.0-13.0-2.11,97357,List1B,black,woman,,,,null,,,,
14145,,,survey-text,137,637198,0.0-13.0-3.11,97357,List1B,black,woman,,,,,"{""Q0"":""Fred and Dave are arguing with each other""}","<img src=""stim_listB/argue6.gif""</stim_listB>",are arguing with each other,
null,"<div style=""font-size:60px;"">+</div>",,html-keyboard-response,138,637701,0.0-13.0-0.12,97357,List1B,black,woman,,,,null,,,,
null,"<img src=""stim_listB/fight2.gif""</stim_listB>",,html-keyboard-response,139,639707,0.0-13.0-1.12,97357,List1B,black,woman,,,,null,,,,
null,are fighting each other,,html-keyboard-response,140,641719,0.0-13.0-2.12,97357,List1B,black,woman,,,,null,,,,
10110,,,survey-text,141,651838,0.0-13.0-3.12,97357,List1B,black,woman,,,,,"{""Q0"":""Fred and Beth are fighting each other""}","<img src=""stim_listB/fight2.gif""</stim_listB>",are fighting each other,
null,"<div style=""font-size:60px;"">+</div>",,html-keyboard-response,142,652346,0.0-13.0-0.13,97357,List1B,black,woman,,,,null,,,,
null,"<img src=""stim_listB/touch6.gif""</stim_listB>",,html-keyboard-response,143,654358,0.0-13.0-1.13,97357,List1B,black,woman,,,,null,,,,
null,are touching each other,,html-keyboard-response,144,656381,0.0-13.0-2.13,97357,List1B,black,woman,,,,null,,,,
13086,,,survey-text,145,669479,0.0-13.0-3.13,97357,List1B,black,woman,,,,,"{""Q0"":""Luke and Fred are touching each other""}","<img src=""stim_listB/touch6.gif""</stim_listB>",are touching each other,
null,"<div style=""font-size:60px;"">+</div>",,html-keyboard-response,146,669989,0.0-13.0-0.14,97357,List1B,black,woman,,,,null,,,,
null,"<img src=""stim_listB/fight7.gif""</stim_listB>",,html-keyboard-response,147,672003,0.0-13.0-1.14,97357,List1B,black,woman,,,,null,,,,
null,is fighting,,html-keyboard-response,148,674016,0.0-13.0-2.14,97357,List1B,black,woman,,,,null,,,,
7010,,,survey-text,149,681036,0.0-13.0-3.14,97357,List1B,black,woman,,,,,"{""Q0"":""Jane is fighting Kate""}","<img src=""stim_listB/fight7.gif""</stim_listB>",is fighting,
null,"<div style=""font-size:60px;"">+</div>",,html-keyboard-response,150,681540,0.0-13.0-0.15,97357,List1B,black,woman,,,,null,,,,
null,"<img src=""stim_listB/marry5.gif""</stim_listB>",,html-keyboard-response,151,683547,0.0-13.0-1.15,97357,List1B,black,woman,,,,null,,,,
null,is marrying,,html-keyboard-response,152,685554,0.0-13.0-2.15,97357,List1B,black,woman,,,,null,,,,
6620,,,survey-text,153,692190,0.0-13.0-3.15,97357,List1B,black,woman,,,,,"{""Q0"":""Luke is marrying Mike""}","<img src=""stim_listB/marry5.gif""</stim_listB>",is marrying,
null,"<div style=""font-size:60px;"">+</div>",,html-keyboard-response,154,692702,0.0-13.0-0.16,97357,List1B,black,woman,,,,null,,,,
null,"<img src=""stim_listB/kiss7.gif""</stim_listB>",,html-keyboard-response,155,694715,0.0-13.0-1.16,97357,List1B,black,woman,,,,null,,,,
null,is kissing,,html-keyboard-response,156,696737,0.0-13.0-2.16,97357,List1B,black,woman,,,,null,,,,
7727,,,survey-text,157,704473,0.0-13.0-3.16,97357,List1B,black,woman,,,,,"{""Q0"":""Ruth is kissing Beth""}","<img src=""stim_listB/kiss7.gif""</stim_listB>",is kissing,
null,"<div style=""font-size:60px;"">+</div>",,html-keyboard-response,158,704978,0.0-13.0-0.17,97357,List1B,black,woman,,,,null,,,,
null,"<img src=""stim_listB/kiss4.gif""</stim_listB>",,html-keyboard-response,159,706987,0.0-13.0-1.17,97357,List1B,black,woman,,,,null,,,,
null,are kissing each other,,html-keyboard-response,160,708998,0.0-13.0-2.17,97357,List1B,black,woman,,,,null,,,,
11939,,,survey-text,161,720949,0.0-13.0-3.17,97357,List1B,black,woman,,,,,"{""Q0"":""Dave and Jane are kissing each other""}","<img src=""stim_listB/kiss4.gif""</stim_listB>",are kissing each other,
null,"<div style=""font-size:60px;"">+</div>",,html-keyboard-response,162,721456,0.0-13.0-0.18,97357,List1B,black,woman,,,,null,,,,
null,"<img src=""stim_listB/dance6.gif""</stim_listB>",,html-keyboard-response,163,723468,0.0-13.0-1.18,97357,List1B,black,woman,,,,null,,,,
null,are dancing with each other,,html-keyboard-response,164,725478,0.0-13.0-2.18,97357,List1B,black,woman,,,,null,,,,
11192,,,survey-text,165,736679,0.0-13.0-3.18,97357,List1B,black,woman,,,,,"{""Q0"":""Mike and Luke are dancing with each other""}","<img src=""stim_listB/dance6.gif""</stim_listB>",are dancing with each other,
null,"<div style=""font-size:60px;"">+</div>",,html-keyboard-response,166,737187,0.0-13.0-0.19,97357,List1B,black,woman,,,,null,,,,
null,"<img src=""stim_listB/dance3.gif""</stim_listB>",,html-keyboard-response,167,739209,0.0-13.0-1.19,97357,List1B,black,woman,,,,null,,,,
null,is dancing with,,html-keyboard-response,168,741220,0.0-13.0-2.19,97357,List1B,black,woman,,,,null,,,,
15412,,,survey-text,169,756641,0.0-13.0-3.19,97357,List1B,black,woman,,,,,"{""Q0"":""Jane is dancing with Luke""}","<img src=""stim_listB/dance3.gif""</stim_listB>",is dancing with,
10409,"<img src='img/portrait_matrix_list1.JPG' style='width:900px;height:500px;''></img><p>If you have memorised all the portraits and names and are ready to start, press Continue.</p><p><strong>Please note: Your memory of these faces will be tested 4 times during this experiment.</strong></p>",0,html-button-response,170,767056,0.0-14.0-0.0,97357,List1B,black,woman,,,,,,,,
2681,"<img src=""portrait/BM1.jpg""style=""width:400px;height:400px;""></img>",4,html-button-response,171,770761,0.0-14.0-1.0,97357,List1B,black,woman,,TRUE,4,,,,,
null,CORRECT,,html-keyboard-response,172,772285,0.0-14.0-2.0-0.0,97357,List1B,black,woman,,,,null,,,,
2396,"<img src=""portrait/BM2.jpg""style=""width:400px;height:400px;""></img>",5,html-button-response,173,774694,0.0-14.0-4.0,97357,List1B,black,woman,,TRUE,5,,,,,
null,CORRECT,,html-keyboard-response,174,776214,0.0-14.0-5.0-0.0,97357,List1B,black,woman,,,,null,,,,
2871,"<img src=""portrait/WM1.jpg""style=""width:400px;height:400px;""></img>",6,html-button-response,175,779095,0.0-14.0-7.0,97357,List1B,black,woman,,TRUE,6,,,,,
null,CORRECT,,html-keyboard-response,176,780600,0.0-14.0-8.0-0.0,97357,List1B,black,woman,,,,null,,,,
2604,"<img src=""portrait/WW1.jpg""style=""width:400px;height:400px;""></img>",1,html-button-response,177,783212,0.0-14.0-10.0,97357,List1B,black,woman,,TRUE,1,,,,,
null,CORRECT,,html-keyboard-response,178,784727,0.0-14.0-11.0-0.0,97357,List1B,black,woman,,,,null,,,,
1518,"<img src=""portrait/WM2.jpg""style=""width:400px;height:400px;""></img>",7,html-button-response,179,786266,0.0-14.0-13.0,97357,List1B,black,woman,,TRUE,7,,,,,
null,CORRECT,,html-keyboard-response,180,787795,0.0-14.0-14.0-0.0,97357,List1B,black,woman,,,,null,,,,
2684,"<img src=""portrait/BW1.jpg""style=""width:400px;height:400px;""></img>",0,html-button-response,181,790491,0.0-14.0-16.0,97357,List1B,black,woman,,TRUE,0,,,,,
null,CORRECT,,html-keyboard-response,182,792004,0.0-14.0-17.0-0.0,97357,List1B,black,woman,,,,null,,,,
1552,"<img src=""portrait/BW2.jpg""style=""width:400px;height:400px;""></img>",2,html-button-response,183,793569,0.0-14.0-19.0,97357,List1B,black,woman,,TRUE,2,,,,,
null,CORRECT,,html-keyboard-response,184,795089,0.0-14.0-20.0-0.0,97357,List1B,black,woman,,,,null,,,,
2967,"<img src=""portrait/WW2.jpg""style=""width:400px;height:400px;""></img>",3,html-button-response,185,798077,0.0-14.0-22.0,97357,List1B,black,woman,,TRUE,3,,,,,
null,CORRECT,,html-keyboard-response,186,799599,0.0-14.0-23.0-0.0,97357,List1B,black,woman,,,,null,,,,
1173,<p>You got 8 out of 8 right first time. Press Continue.</p>,0,html-button-response,187,800788,0.0-14.0-25.0,97357,List1B,black,woman,,,,,,,,
null,"<div style=""font-size:60px;"">+</div>",,html-keyboard-response,188,802313,0.0-15.0-0.0,97357,List1B,black,woman,,,,null,,,,
null,"<img src=""stim_listB/kiss8.gif""</stim_listB>",,html-keyboard-response,189,804325,0.0-15.0-1.0,97357,List1B,black,woman,,,,null,,,,
null,are kissing each other,,html-keyboard-response,190,806337,0.0-15.0-2.0,97357,List1B,black,woman,,,,null,,,,
10228,,,survey-text,191,816578,0.0-15.0-3.0,97357,List1B,black,woman,,,,,"{""Q0"":""Kate and Jane are kissing each other""}","<img src=""stim_listB/kiss8.gif""</stim_listB>",are kissing each other,
null,"<div style=""font-size:60px;"">+</div>",,html-keyboard-response,192,817083,0.0-15.0-0.1,97357,List1B,black,woman,,,,null,,,,
null,"<img src=""stim_listB/marry7.gif""</stim_listB>",,html-keyboard-response,193,819095,0.0-15.0-1.1,97357,List1B,black,woman,,,,null,,,,
null,is marrying,,html-keyboard-response,194,821105,0.0-15.0-2.1,97357,List1B,black,woman,,,,null,,,,
7063,,,survey-text,195,828177,0.0-15.0-3.1,97357,List1B,black,woman,,,,,"{""Q0"":""Ruth is marrying Kate""}","<img src=""stim_listB/marry7.gif""</stim_listB>",is marrying,
null,"<div style=""font-size:60px;"">+</div>",,html-keyboard-response,196,828683,0.0-15.0-0.2,97357,List1B,black,woman,,,,null,,,,
null,"<img src=""stim_listB/marry2.gif""</stim_listB>",,html-keyboard-response,197,830694,0.0-15.0-1.2,97357,List1B,black,woman,,,,null,,,,
null,are marrying each other,,html-keyboard-response,198,832702,0.0-15.0-2.2,97357,List1B,black,woman,,,,null,,,,
11792,,,survey-text,199,844505,0.0-15.0-3.2,97357,List1B,black,woman,,,,,"{""Q0"":""Fred and kate are marrying each other""}","<img src=""stim_listB/marry2.gif""</stim_listB>",are marrying each other,
null,"<div style=""font-size:60px;"">+</div>",,html-keyboard-response,200,845016,0.0-15.0-0.3,97357,List1B,black,woman,,,,null,,,,
null,"<img src=""stim_listB/meet2.gif""</stim_listB>",,html-keyboard-response,201,847029,0.0-15.0-1.3,97357,List1B,black,woman,,,,null,,,,
null,are meeting each other,,html-keyboard-response,202,849037,0.0-15.0-2.3,97357,List1B,black,woman,,,,null,,,,
12332,,,survey-text,203,861383,0.0-15.0-3.3,97357,List1B,black,woman,,,,,"{""Q0"":""Fred and beth are meeting each other""}","<img src=""stim_listB/meet2.gif""</stim_listB>",are meeting each other,
null,"<div style=""font-size:60px;"">+</div>",,html-keyboard-response,204,861889,0.0-15.0-0.4,97357,List1B,black,woman,,,,null,,,,
null,"<img src=""stim_listB/talk1.gif""</stim_listB>",,html-keyboard-response,205,863904,0.0-15.0-1.4,97357,List1B,black,woman,,,,null,,,,
null,is talking to,,html-keyboard-response,206,865913,0.0-15.0-2.4,97357,List1B,black,woman,,,,null,,,,
6834,,,survey-text,207,872754,0.0-15.0-3.4,97357,List1B,black,woman,,,,,"{""Q0"":""Kate is talking to Fred""}","<img src=""stim_listB/talk1.gif""</stim_listB>",is talking to,
null,"<div style=""font-size:60px;"">+</div>",,html-keyboard-response,208,873259,0.0-15.0-0.5,97357,List1B,black,woman,,,,null,,,,
null,"<img src=""stim_listB/meet6.gif""</stim_listB>",,html-keyboard-response,209,875267,0.0-15.0-1.5,97357,List1B,black,woman,,,,null,,,,
null,are meeting each other,,html-keyboard-response,210,877279,0.0-15.0-2.5,97357,List1B,black,woman,,,,null,,,,
11302,,,survey-text,211,888589,0.0-15.0-3.5,97357,List1B,black,woman,,,,,"{""Q0"":""Fred and luke are meeting each other""}","<img src=""stim_listB/meet6.gif""</stim_listB>",are meeting each other,
null,"<div style=""font-size:60px;"">+</div>",,html-keyboard-response,212,889096,0.0-15.0-0.6,97357,List1B,black,woman,,,,null,,,,
null,"<img src=""stim_listB/talk3.gif""</stim_listB>",,html-keyboard-response,213,891108,0.0-15.0-1.6,97357,List1B,black,woman,,,,null,,,,
null,is talking to,,html-keyboard-response,214,893117,0.0-15.0-2.6,97357,List1B,black,woman,,,,null,,,,
6388,,,survey-text,215,899522,0.0-15.0-3.6,97357,List1B,black,woman,,,,,"{""Q0"":""Jane is talking to Luke""}","<img src=""stim_listB/talk3.gif""</stim_listB>",is talking to,
null,"<div style=""font-size:60px;"">+</div>",,html-keyboard-response,216,900029,0.0-15.0-0.7,97357,List1B,black,woman,,,,null,,,,
null,"<img src=""stim_listB/kiss1.gif""</stim_listB>",,html-keyboard-response,217,902046,0.0-15.0-1.7,97357,List1B,black,woman,,,,null,,,,
null,is kissing,,html-keyboard-response,218,904055,0.0-15.0-2.7,97357,List1B,black,woman,,,,null,,,,
7084,,,survey-text,219,911149,0.0-15.0-3.7,97357,List1B,black,woman,,,,,"{""Q0"":""Beth is kissing Fred""}","<img src=""stim_listB/kiss1.gif""</stim_listB>",is kissing,
null,"<div style=""font-size:60px;"">+</div>",,html-keyboard-response,220,911657,0.0-15.0-0.8,97357,List1B,black,woman,,,,null,,,,
null,"<img src=""stim_listB/marry4.gif""</stim_listB>",,html-keyboard-response,221,913673,0.0-15.0-1.8,97357,List1B,black,woman,,,,null,,,,
null,are marrying each other,,html-keyboard-response,222,915684,0.0-15.0-2.8,97357,List1B,black,woman,,,,null,,,,
12897,,,survey-text,223,928589,0.0-15.0-3.8,97357,List1B,black,woman,,,,,"{""Q0"":""Jane and Luke are marrying each other""}","<img src=""stim_listB/marry4.gif""</stim_listB>",are marrying each other,
null,"<div style=""font-size:60px;"">+</div>",,html-keyboard-response,224,929096,0.0-15.0-0.9,97357,List1B,black,woman,,,,null,,,,
null,"<img src=""stim_listB/touch7.gif""</stim_listB>",,html-keyboard-response,225,931107,0.0-15.0-1.9,97357,List1B,black,woman,,,,null,,,,
null,is touching,,html-keyboard-response,226,933114,0.0-15.0-2.9,97357,List1B,black,woman,,,,null,,,,
6079,,,survey-text,227,939200,0.0-15.0-3.9,97357,List1B,black,woman,,,,,"{""Q0"":""Jane is touching Kate""}","<img src=""stim_listB/touch7.gif""</stim_listB>",is touching,
null,"<div style=""font-size:60px;"">+</div>",,html-keyboard-response,228,939706,0.0-15.0-0.10,97357,List1B,black,woman,,,,null,,,,
null,"<img src=""stim_listB/marry8.gif""</stim_listB>",,html-keyboard-response,229,941720,0.0-15.0-1.10,97357,List1B,black,woman,,,,null,,,,
null,are marrying each other,,html-keyboard-response,230,943730,0.0-15.0-2.10,97357,List1B,black,woman,,,,null,,,,
12238,,,survey-text,231,955982,0.0-15.0-3.10,97357,List1B,black,woman,,,,,"{""Q0"":""Jane and beth are marrying each other""}","<img src=""stim_listB/marry8.gif""</stim_listB>",are marrying each other,
null,"<div style=""font-size:60px;"">+</div>",,html-keyboard-response,232,956489,0.0-15.0-0.11,97357,List1B,black,woman,,,,null,,,,
null,"<img src=""stim_listB/hug6.gif""</stim_listB>",,html-keyboard-response,233,958505,0.0-15.0-1.11,97357,List1B,black,woman,,,,null,,,,
null,are hugging each other,,html-keyboard-response,234,960520,0.0-15.0-2.11,97357,List1B,black,woman,,,,null,,,,
10171,,,survey-text,235,970699,0.0-15.0-3.11,97357,List1B,black,woman,,,,,"{""Q0"":""Mike and dave are hugging each other""}","<img src=""stim_listB/hug6.gif""</stim_listB>",are hugging each other,
null,"<div style=""font-size:60px;"">+</div>",,html-keyboard-response,236,971205,0.0-15.0-0.12,97357,List1B,black,woman,,,,null,,,,
null,"<img src=""stim_listB/meet4.gif""</stim_listB>",,html-keyboard-response,237,973219,0.0-15.0-1.12,97357,List1B,black,woman,,,,null,,,,
null,are meeting each other,,html-keyboard-response,238,975235,0.0-15.0-2.12,97357,List1B,black,woman,,,,null,,,,
8548,,,survey-text,239,983793,0.0-15.0-3.12,97357,List1B,black,woman,,,,,"{""Q0"":""Ruth and luke are meeting each other""}","<img src=""stim_listB/meet4.gif""</stim_listB>",are meeting each other,
null,"<div style=""font-size:60px;"">+</div>",,html-keyboard-response,240,984301,0.0-15.0-0.13,97357,List1B,black,woman,,,,null,,,,
null,"<img src=""stim_listB/fight1.gif""</stim_listB>",,html-keyboard-response,241,986307,0.0-15.0-1.13,97357,List1B,black,woman,,,,null,,,,
null,is fighting,,html-keyboard-response,242,988316,0.0-15.0-2.13,97357,List1B,black,woman,,,,null,,,,
7893,,,survey-text,243,996218,0.0-15.0-3.13,97357,List1B,black,woman,,,,,"{""Q0"":""Kate is fighting mike""}","<img src=""stim_listB/fight1.gif""</stim_listB>",is fighting,
null,"<div style=""font-size:60px;"">+</div>",,html-keyboard-response,244,996729,0.0-15.0-0.14,97357,List1B,black,woman,,,,null,,,,
null,"<img src=""stim_listB/dance7.gif""</stim_listB>",,html-keyboard-response,245,998741,0.0-15.0-1.14,97357,List1B,black,woman,,,,null,,,,
null,is dancing with,,html-keyboard-response,246,1000751,0.0-15.0-2.14,97357,List1B,black,woman,,,,null,,,,
7807,,,survey-text,247,1008565,0.0-15.0-3.14,97357,List1B,black,woman,,,,,"{""Q0"":""Jane is dancing with beth""}","<img src=""stim_listB/dance7.gif""</stim_listB>",is dancing with,
null,"<div style=""font-size:60px;"">+</div>",,html-keyboard-response,248,1009071,0.0-15.0-0.15,97357,List1B,black,woman,,,,null,,,,
null,"<img src=""stim_listB/fight5.gif""</stim_listB>",,html-keyboard-response,249,1011088,0.0-15.0-1.15,97357,List1B,black,woman,,,,null,,,,
null,is fighting,,html-keyboard-response,250,1013105,0.0-15.0-2.15,97357,List1B,black,woman,,,,null,,,,
7721,,,survey-text,251,1020836,0.0-15.0-3.15,97357,List1B,black,woman,,,,,"{""Q0"":""Dave is fighting mike""}","<img src=""stim_listB/fight5.gif""</stim_listB>",is fighting,
null,"<div style=""font-size:60px;"">+</div>",,html-keyboard-response,252,1021341,0.0-15.0-0.16,97357,List1B,black,woman,,,,null,,,,
null,"<img src=""stim_listB/shout2.gif""</stim_listB>",,html-keyboard-response,253,1023350,0.0-15.0-1.16,97357,List1B,black,woman,,,,null,,,,
null,are shouting at each other,,html-keyboard-response,254,1025363,0.0-15.0-2.16,97357,List1B,black,woman,,,,null,,,,
10484,,,survey-text,255,1035856,0.0-15.0-3.16,97357,List1B,black,woman,,,,,"{""Q0"":""Mike and kate are shouting at each other""}","<img src=""stim_listB/shout2.gif""</stim_listB>",are shouting at each other,
null,"<div style=""font-size:60px;"">+</div>",,html-keyboard-response,256,1036363,0.0-15.0-0.17,97357,List1B,black,woman,,,,null,,,,
null,"<img src=""stim_listB/touch4.gif""</stim_listB>",,html-keyboard-response,257,1038370,0.0-15.0-1.17,97357,List1B,black,woman,,,,null,,,,
null,are touching each other,,html-keyboard-response,258,1040383,0.0-15.0-2.17,97357,List1B,black,woman,,,,null,,,,
9664,,,survey-text,259,1050060,0.0-15.0-3.17,97357,List1B,black,woman,,,,,"{""Q0"":""Luke and ruth are touching each other""}","<img src=""stim_listB/touch4.gif""</stim_listB>",are touching each other,
null,"<div style=""font-size:60px;"">+</div>",,html-keyboard-response,260,1050571,0.0-15.0-0.18,97357,List1B,black,woman,,,,null,,,,
null,"<img src=""stim_listB/fight3.gif""</stim_listB>",,html-keyboard-response,261,1052583,0.0-15.0-1.18,97357,List1B,black,woman,,,,null,,,,
null,is fighting,,html-keyboard-response,262,1054588,0.0-15.0-2.18,97357,List1B,black,woman,,,,null,,,,
9710,,,survey-text,263,1064309,0.0-15.0-3.18,97357,List1B,black,woman,,,,,"{""Q0"":""Jane is fighting dave""}","<img src=""stim_listB/fight3.gif""</stim_listB>",is fighting,
null,"<div style=""font-size:60px;"">+</div>",,html-keyboard-response,264,1064816,0.0-15.0-0.19,97357,List1B,black,woman,,,,null,,,,
null,"<img src=""stim_listB/marry3.gif""</stim_listB>",,html-keyboard-response,265,1066831,0.0-15.0-1.19,97357,List1B,black,woman,,,,null,,,,
null,is marrying,,html-keyboard-response,266,1068842,0.0-15.0-2.19,97357,List1B,black,woman,,,,null,,,,
7125,,,survey-text,267,1075976,0.0-15.0-3.19,97357,List1B,black,woman,,,,,"{""Q0"":""Ruth is marrying dave""}","<img src=""stim_listB/marry3.gif""</stim_listB>",is marrying,
9516,"<img src='img/portrait_matrix_list1.JPG' style='width:900px;height:500px;''></img><p>If you have memorised all the portraits and names and are ready to start, press Continue.</p><p><strong>Please note: Your memory of these faces will be tested 4 times during this experiment.</strong></p>",0,html-button-response,268,1085497,0.0-16.0-0.0,97357,List1B,black,woman,,,,,,,,
3475,"<img src=""portrait/WM1.jpg""style=""width:400px;height:400px;""></img>",6,html-button-response,269,1089987,0.0-16.0-1.0,97357,List1B,black,woman,,TRUE,6,,,,,
null,CORRECT,,html-keyboard-response,270,1091503,0.0-16.0-2.0-0.0,97357,List1B,black,woman,,,,null,,,,
1389,"<img src=""portrait/BW2.jpg""style=""width:400px;height:400px;""></img>",2,html-button-response,271,1092906,0.0-16.0-4.0,97357,List1B,black,woman,,TRUE,2,,,,,
null,CORRECT,,html-keyboard-response,272,1094418,0.0-16.0-5.0-0.0,97357,List1B,black,woman,,,,null,,,,
2341,"<img src=""portrait/BM1.jpg""style=""width:400px;height:400px;""></img>",4,html-button-response,273,1096778,0.0-16.0-7.0,97357,List1B,black,woman,,TRUE,4,,,,,
null,CORRECT,,html-keyboard-response,274,1098294,0.0-16.0-8.0-0.0,97357,List1B,black,woman,,,,null,,,,
2379,"<img src=""portrait/WW2.jpg""style=""width:400px;height:400px;""></img>",3,html-button-response,275,1100687,0.0-16.0-10.0,97357,List1B,black,woman,,TRUE,3,,,,,
null,CORRECT,,html-keyboard-response,276,1102195,0.0-16.0-11.0-0.0,97357,List1B,black,woman,,,,null,,,,
3195,"<img src=""portrait/BM2.jpg""style=""width:400px;height:400px;""></img>",5,html-button-response,277,1105402,0.0-16.0-13.0,97357,List1B,black,woman,,TRUE,5,,,,,
null,CORRECT,,html-keyboard-response,278,1106937,0.0-16.0-14.0-0.0,97357,List1B,black,woman,,,,null,,,,
1605,"<img src=""portrait/WW1.jpg""style=""width:400px;height:400px;""></img>",1,html-button-response,279,1108550,0.0-16.0-16.0,97357,List1B,black,woman,,TRUE,1,,,,,
null,CORRECT,,html-keyboard-response,280,1110075,0.0-16.0-17.0-0.0,97357,List1B,black,woman,,,,null,,,,
1185,"<img src=""portrait/BW1.jpg""style=""width:400px;height:400px;""></img>",0,html-button-response,281,1111274,0.0-16.0-19.0,97357,List1B,black,woman,,TRUE,0,,,,,
null,CORRECT,,html-keyboard-response,282,1112787,0.0-16.0-20.0-0.0,97357,List1B,black,woman,,,,null,,,,
2508,"<img src=""portrait/WM2.jpg""style=""width:400px;height:400px;""></img>",7,html-button-response,283,1115313,0.0-16.0-22.0,97357,List1B,black,woman,,TRUE,7,,,,,
null,CORRECT,,html-keyboard-response,284,1116832,0.0-16.0-23.0-0.0,97357,List1B,black,woman,,,,null,,,,
1184,<p>You got 8 out of 8 right first time. Press Continue.</p>,0,html-button-response,285,1118031,0.0-16.0-25.0,97357,List1B,black,woman,,,,,,,,
null,"<div style=""font-size:60px;"">+</div>",,html-keyboard-response,286,1119558,0.0-17.0-0.0,97357,List1B,black,woman,,,,null,,,,
null,"<img src=""stim_listB/dance4.gif""</stim_listB>",,html-keyboard-response,287,1121565,0.0-17.0-1.0,97357,List1B,black,woman,,,,null,,,,
null,are dancing with each other,,html-keyboard-response,288,1123569,0.0-17.0-2.0,97357,List1B,black,woman,,,,null,,,,
12538,,,survey-text,289,1136112,0.0-17.0-3.0,97357,List1B,black,woman,,,,,"{""Q0"":""Ruth and dave are dancing with each other""}","<img src=""stim_listB/dance4.gif""</stim_listB>",are dancing with each other,
null,"<div style=""font-size:60px;"">+</div>",,html-keyboard-response,290,1136618,0.0-17.0-0.1,97357,List1B,black,woman,,,,null,,,,
null,"<img src=""stim_listB/argue7.gif""</stim_listB>",,html-keyboard-response,291,1138634,0.0-17.0-1.1,97357,List1B,black,woman,,,,null,,,,
null,is arguing with,,html-keyboard-response,292,1140646,0.0-17.0-2.1,97357,List1B,black,woman,,,,null,,,,
9121,,,survey-text,293,1149779,0.0-17.0-3.1,97357,List1B,black,woman,,,,,"{""Q0"":""Ruth is arguing with kate""}","<img src=""stim_listB/argue7.gif""</stim_listB>",is arguing with,
null,"<div style=""font-size:60px;"">+</div>",,html-keyboard-response,294,1150285,0.0-17.0-0.2,97357,List1B,black,woman,,,,null,,,,
null,"<img src=""stim_listB/shout3.gif""</stim_listB>",,html-keyboard-response,295,1152294,0.0-17.0-1.2,97357,List1B,black,woman,,,,null,,,,
null,is shouting at,,html-keyboard-response,296,1154307,0.0-17.0-2.2,97357,List1B,black,woman,,,,null,,,,
6594,,,survey-text,297,1160912,0.0-17.0-3.2,97357,List1B,black,woman,,,,,"{""Q0"":""Ruth is shouting at Luke""}","<img src=""stim_listB/shout3.gif""</stim_listB>",is shouting at,
null,"<div style=""font-size:60px;"">+</div>",,html-keyboard-response,298,1161416,0.0-17.0-0.3,97357,List1B,black,woman,,,,null,,,,
null,"<img src=""stim_listB/argue1.gif""</stim_listB>",,html-keyboard-response,299,1163421,0.0-17.0-1.3,97357,List1B,black,woman,,,,null,,,,
null,is arguing with,,html-keyboard-response,300,1165426,0.0-17.0-2.3,97357,List1B,black,woman,,,,null,,,,
9240,,,survey-text,301,1174670,0.0-17.0-3.3,97357,List1B,black,woman,,,,,"{""Q0"":""Beth is arguing with mike""}","<img src=""stim_listB/argue1.gif""</stim_listB>",is arguing with,
null,"<div style=""font-size:60px;"">+</div>",,html-keyboard-response,302,1175182,0.0-17.0-0.4,97357,List1B,black,woman,,,,null,,,,
null,"<img src=""stim_listB/talk7.gif""</stim_listB>",,html-keyboard-response,303,1177198,0.0-17.0-1.4,97357,List1B,black,woman,,,,null,,,,
null,is talking to,,html-keyboard-response,304,1179212,0.0-17.0-2.4,97357,List1B,black,woman,,,,null,,,,
5990,,,survey-text,305,1185220,0.0-17.0-3.4,97357,List1B,black,woman,,,,,"{""Q0"":""Jane is talking to beth""}","<img src=""stim_listB/talk7.gif""</stim_listB>",is talking to,
null,"<div style=""font-size:60px;"">+</div>",,html-keyboard-response,306,1185725,0.0-17.0-0.5,97357,List1B,black,woman,,,,null,,,,
null,"<img src=""stim_listB/argue5.gif""</stim_listB>",,html-keyboard-response,307,1187731,0.0-17.0-1.5,97357,List1B,black,woman,,,,null,,,,
null,is arguing with,,html-keyboard-response,308,1189742,0.0-17.0-2.5,97357,List1B,black,woman,,,,null,,,,
8556,,,survey-text,309,1198310,0.0-17.0-3.5,97357,List1B,black,woman,,,,,"{""Q0"":""Luke is arguing with mike""}","<img src=""stim_listB/argue5.gif""</stim_listB>",is arguing with,
null,"<div style=""font-size:60px;"">+</div>",,html-keyboard-response,310,1198816,0.0-17.0-0.6,97357,List1B,black,woman,,,,null,,,,
null,"<img src=""stim_listB/touch3.gif""</stim_listB>",,html-keyboard-response,311,1200828,0.0-17.0-1.6,97357,List1B,black,woman,,,,null,,,,
null,is touching,,html-keyboard-response,312,1202847,0.0-17.0-2.6,97357,List1B,black,woman,,,,null,,,,
7518,,,survey-text,313,1210374,0.0-17.0-3.6,97357,List1B,black,woman,,,,,"{""Q0"":""Jane is touching dave""}","<img src=""stim_listB/touch3.gif""</stim_listB>",is touching,
null,"<div style=""font-size:60px;"">+</div>",,html-keyboard-response,314,1210880,0.0-17.0-0.7,97357,List1B,black,woman,,,,null,,,,
null,"<img src=""stim_listB/talk6.gif""</stim_listB>",,html-keyboard-response,315,1212895,0.0-17.0-1.7,97357,List1B,black,woman,,,,null,,,,
null,are talking to each other,,html-keyboard-response,316,1214903,0.0-17.0-2.7,97357,List1B,black,woman,,,,null,,,,
10848,,,survey-text,317,1225759,0.0-17.0-3.7,97357,List1B,black,woman,,,,,"{""Q0"":""Mike and luke are talking to each other""}","<img src=""stim_listB/talk6.gif""</stim_listB>",are talking to each other,
null,"<div style=""font-size:60px;"">+</div>",,html-keyboard-response,318,1226266,0.0-17.0-0.8,97357,List1B,black,woman,,,,null,,,,
null,"<img src=""stim_listB/talk5.gif""</stim_listB>",,html-keyboard-response,319,1228278,0.0-17.0-1.8,97357,List1B,black,woman,,,,null,,,,
null,is talking to,,html-keyboard-response,320,1230285,0.0-17.0-2.8,97357,List1B,black,woman,,,,null,,,,
8634,,,survey-text,321,1238935,0.0-17.0-3.8,97357,List1B,black,woman,,,,,"{""Q0"":""Fred is talking to dave""}","<img src=""stim_listB/talk5.gif""</stim_listB>",is talking to,
null,"<div style=""font-size:60px;"">+</div>",,html-keyboard-response,322,1239443,0.0-17.0-0.9,97357,List1B,black,woman,,,,null,,,,
null,"<img src=""stim_listB/kiss2.gif""</stim_listB>",,html-keyboard-response,323,1241449,0.0-17.0-1.9,97357,List1B,black,woman,,,,null,,,,
null,are kissing each other,,html-keyboard-response,324,1243461,0.0-17.0-2.9,97357,List1B,black,woman,,,,null,,,,
11182,,,survey-text,325,1254647,0.0-17.0-3.9,97357,List1B,black,woman,,,,,"{""Q0"":""Kate and Mike are kissing each other""}","<img src=""stim_listB/kiss2.gif""</stim_listB>",are kissing each other,
null,"<div style=""font-size:60px;"">+</div>",,html-keyboard-response,326,1255153,0.0-17.0-0.10,97357,List1B,black,woman,,,,null,,,,
null,"<img src=""stim_listB/shout7.gif""</stim_listB>",,html-keyboard-response,327,1257172,0.0-17.0-1.10,97357,List1B,black,woman,,,,null,,,,
null,is shouting at,,html-keyboard-response,328,1259182,0.0-17.0-2.10,97357,List1B,black,woman,,,,null,,,,
10320,,,survey-text,329,1269516,0.0-17.0-3.10,97357,List1B,black,woman,,,,,"{""Q0"":""Beth is shouting at ruth""}","<img src=""stim_listB/shout7.gif""</stim_listB>",is shouting at,
null,"<div style=""font-size:60px;"">+</div>",,html-keyboard-response,330,1270025,0.0-17.0-0.11,97357,List1B,black,woman,,,,null,,,,
null,"<img src=""stim_listB/talk8.gif""</stim_listB>",,html-keyboard-response,331,1272044,0.0-17.0-1.11,97357,List1B,black,woman,,,,null,,,,
null,are talking to each other,,html-keyboard-response,332,1274052,0.0-17.0-2.11,97357,List1B,black,woman,,,,null,,,,
10399,,,survey-text,333,1284455,0.0-17.0-3.11,97357,List1B,black,woman,,,,,"{""Q0"":""Kate and ruth are talking to each other""}","<img src=""stim_listB/talk8.gif""</stim_listB>",are talking to each other,
null,"<div style=""font-size:60px;"">+</div>",,html-keyboard-response,334,1284964,0.0-17.0-0.12,97357,List1B,black,woman,,,,null,,,,
null,"<img src=""stim_listB/meet3.gif""</stim_listB>",,html-keyboard-response,335,1286980,0.0-17.0-1.12,97357,List1B,black,woman,,,,null,,,,
null,is meeting,,html-keyboard-response,336,1288993,0.0-17.0-2.12,97357,List1B,black,woman,,,,null,,,,
5779,,,survey-text,337,1294780,0.0-17.0-3.12,97357,List1B,black,woman,,,,,"{""Q0"":""Jane is meeting dave""}","<img src=""stim_listB/meet3.gif""</stim_listB>",is meeting,
null,"<div style=""font-size:60px;"">+</div>",,html-keyboard-response,338,1295289,0.0-17.0-0.13,97357,List1B,black,woman,,,,null,,,,
null,"<img src=""stim_listB/shout1.gif""</stim_listB>",,html-keyboard-response,339,1297305,0.0-17.0-1.13,97357,List1B,black,woman,,,,null,,,,
null,is shouting at,,html-keyboard-response,340,1299318,0.0-17.0-2.13,97357,List1B,black,woman,,,,null,,,,
7292,,,survey-text,341,1306621,0.0-17.0-3.13,97357,List1B,black,woman,,,,,"{""Q0"":""Beth is shouting at Fred""}","<img src=""stim_listB/shout1.gif""</stim_listB>",is shouting at,
null,"<div style=""font-size:60px;"">+</div>",,html-keyboard-response,342,1307128,0.0-17.0-0.14,97357,List1B,black,woman,,,,null,,,,
null,"<img src=""stim_listB/marry1.gif""</stim_listB>",,html-keyboard-response,343,1309143,0.0-17.0-1.14,97357,List1B,black,woman,,,,null,,,,
null,is marrying,,html-keyboard-response,344,1311150,0.0-17.0-2.14,97357,List1B,black,woman,,,,null,,,,
6739,,,survey-text,345,1317902,0.0-17.0-3.14,97357,List1B,black,woman,,,,,"{""Q0"":""Beth is marrying mike""}","<img src=""stim_listB/marry1.gif""</stim_listB>",is marrying,
null,"<div style=""font-size:60px;"">+</div>",,html-keyboard-response,346,1318409,0.0-17.0-0.15,97357,List1B,black,woman,,,,null,,,,
null,"<img src=""stim_listB/meet1.gif""</stim_listB>",,html-keyboard-response,347,1320424,0.0-17.0-1.15,97357,List1B,black,woman,,,,null,,,,
null,is meeting,,html-keyboard-response,348,1322437,0.0-17.0-2.15,97357,List1B,black,woman,,,,null,,,,
5581,,,survey-text,349,1328028,0.0-17.0-3.15,97357,List1B,black,woman,,,,,"{""Q0"":""Kate is meeting mike""}","<img src=""stim_listB/meet1.gif""</stim_listB>",is meeting,
null,"<div style=""font-size:60px;"">+</div>",,html-keyboard-response,350,1328533,0.0-17.0-0.16,97357,List1B,black,woman,,,,null,,,,
null,"<img src=""stim_listB/touch8.gif""</stim_listB>",,html-keyboard-response,351,1330552,0.0-17.0-1.16,97357,List1B,black,woman,,,,null,,,,
null,are touching each other,,html-keyboard-response,352,1332563,0.0-17.0-2.16,97357,List1B,black,woman,,,,null,,,,
11226,,,survey-text,353,1343797,0.0-17.0-3.16,97357,List1B,black,woman,,,,,"{""Q0"":""Kate and ruth are touching each other""}","<img src=""stim_listB/touch8.gif""</stim_listB>",are touching each other,
null,"<div style=""font-size:60px;"">+</div>",,html-keyboard-response,354,1344303,0.0-17.0-0.17,97357,List1B,black,woman,,,,null,,,,
null,"<img src=""stim_listB/touch2.gif""</stim_listB>",,html-keyboard-response,355,1346317,0.0-17.0-1.17,97357,List1B,black,woman,,,,null,,,,
null,are touching each other,,html-keyboard-response,356,1348328,0.0-17.0-2.17,97357,List1B,black,woman,,,,null,,,,
12259,,,survey-text,357,1360599,0.0-17.0-3.17,97357,List1B,black,woman,,,,,"{""Q0"":""Beth and fred are touching each other""}","<img src=""stim_listB/touch2.gif""</stim_listB>",are touching each other,
null,"<div style=""font-size:60px;"">+</div>",,html-keyboard-response,358,1361106,0.0-17.0-0.18,97357,List1B,black,woman,,,,null,,,,
null,"<img src=""stim_listB/meet8.gif""</stim_listB>",,html-keyboard-response,359,1363124,0.0-17.0-1.18,97357,List1B,black,woman,,,,null,,,,
null,are meeting each other,,html-keyboard-response,360,1365133,0.0-17.0-2.18,97357,List1B,black,woman,,,,null,,,,
8604,,,survey-text,361,1373742,0.0-17.0-3.18,97357,List1B,black,woman,,,,,"{""Q0"":""Beth and ruth are meeting each other""}","<img src=""stim_listB/meet8.gif""</stim_listB>",are meeting each other,
null,"<div style=""font-size:60px;"">+</div>",,html-keyboard-response,362,1374249,0.0-17.0-0.19,97357,List1B,black,woman,,,,null,,,,
null,"<img src=""stim_listB/hug1.gif""</stim_listB>",,html-keyboard-response,363,1376264,0.0-17.0-1.19,97357,List1B,black,woman,,,,null,,,,
null,is hugging,,html-keyboard-response,364,1378278,0.0-17.0-2.19,97357,List1B,black,woman,,,,null,,,,
6012,,,survey-text,365,1384297,0.0-17.0-3.19,97357,List1B,black,woman,,,,,"{""Q0"":""Beth is hugging fred""}","<img src=""stim_listB/hug1.gif""</stim_listB>",is hugging,
5132,"<img src='img/portrait_matrix_list1.JPG' style='width:900px;height:500px;''></img><p>If you have memorised all the portraits and names and are ready to start, press Continue.</p><p><strong>Please note: Your memory of these faces will be tested 4 times during this experiment.</strong></p>",0,html-button-response,366,1389435,0.0-18.0-0.0,97357,List1B,black,woman,,,,,,,,
2361,"<img src=""portrait/BW2.jpg""style=""width:400px;height:400px;""></img>",2,html-button-response,367,1392820,0.0-18.0-1.0,97357,List1B,black,woman,,TRUE,2,,,,,
null,CORRECT,,html-keyboard-response,368,1394338,0.0-18.0-2.0-0.0,97357,List1B,black,woman,,,,null,,,,
1825,"<img src=""portrait/WM1.jpg""style=""width:400px;height:400px;""></img>",6,html-button-response,369,1396181,0.0-18.0-4.0,97357,List1B,black,woman,,TRUE,6,,,,,
null,CORRECT,,html-keyboard-response,370,1397701,0.0-18.0-5.0-0.0,97357,List1B,black,woman,,,,null,,,,
1399,"<img src=""portrait/WM2.jpg""style=""width:400px;height:400px;""></img>",7,html-button-response,371,1399115,0.0-18.0-7.0,97357,List1B,black,woman,,TRUE,7,,,,,
null,CORRECT,,html-keyboard-response,372,1400634,0.0-18.0-8.0-0.0,97357,List1B,black,woman,,,,null,,,,
1920,"<img src=""portrait/BW1.jpg""style=""width:400px;height:400px;""></img>",0,html-button-response,373,1402562,0.0-18.0-10.0,97357,List1B,black,woman,,TRUE,0,,,,,
null,CORRECT,,html-keyboard-response,374,1404089,0.0-18.0-11.0-0.0,97357,List1B,black,woman,,,,null,,,,
1412,"<img src=""portrait/BM1.jpg""style=""width:400px;height:400px;""></img>",4,html-button-response,375,1405510,0.0-18.0-13.0,97357,List1B,black,woman,,TRUE,4,,,,,
null,CORRECT,,html-keyboard-response,376,1407038,0.0-18.0-14.0-0.0,97357,List1B,black,woman,,,,null,,,,
1127,"<img src=""portrait/BM2.jpg""style=""width:400px;height:400px;""></img>",5,html-button-response,377,1408190,0.0-18.0-16.0,97357,List1B,black,woman,,TRUE,5,,,,,
null,CORRECT,,html-keyboard-response,378,1409716,0.0-18.0-17.0-0.0,97357,List1B,black,woman,,,,null,,,,
1877,"<img src=""portrait/WW2.jpg""style=""width:400px;height:400px;""></img>",3,html-button-response,379,1411611,0.0-18.0-19.0,97357,List1B,black,woman,,TRUE,3,,,,,
null,CORRECT,,html-keyboard-response,380,1413132,0.0-18.0-20.0-0.0,97357,List1B,black,woman,,,,null,,,,
1470,"<img src=""portrait/WW1.jpg""style=""width:400px;height:400px;""></img>",1,html-button-response,381,1414619,0.0-18.0-22.0,97357,List1B,black,woman,,TRUE,1,,,,,
null,CORRECT,,html-keyboard-response,382,1416139,0.0-18.0-23.0-0.0,97357,List1B,black,woman,,,,null,,,,
1154,<p>You got 8 out of 8 right first time. Press Continue.</p>,0,html-button-response,383,1417307,0.0-18.0-25.0,97357,List1B,black,woman,,,,,,,,
null,"<div style=""font-size:60px;"">+</div>",,html-keyboard-response,384,1418813,0.0-19.0-0.0,97357,List1B,black,woman,,,,null,,,,
null,"<img src=""stim_listB/kiss6.gif""</stim_listB>",,html-keyboard-response,385,1420820,0.0-19.0-1.0,97357,List1B,black,woman,,,,null,,,,
null,are kissing each other,,html-keyboard-response,386,1422829,0.0-19.0-2.0,97357,List1B,black,woman,,,,null,,,,
10677,,,survey-text,387,1433518,0.0-19.0-3.0,97357,List1B,black,woman,,,,,"{""Q0"":""Mike and dave are kissing each other""}","<img src=""stim_listB/kiss6.gif""</stim_listB>",are kissing each other,
null,"<div style=""font-size:60px;"">+</div>",,html-keyboard-response,388,1434025,0.0-19.0-0.1,97357,List1B,black,woman,,,,null,,,,
null,"<img src=""stim_listB/hug4.gif""</stim_listB>",,html-keyboard-response,389,1436046,0.0-19.0-1.1,97357,List1B,black,woman,,,,null,,,,
null,are hugging each other,,html-keyboard-response,390,1438058,0.0-19.0-2.1,97357,List1B,black,woman,,,,null,,,,
8647,,,survey-text,391,1446715,0.0-19.0-3.1,97357,List1B,black,woman,,,,,"{""Q0"":""Jane and dave are hugging each other""}","<img src=""stim_listB/hug4.gif""</stim_listB>",are hugging each other,
null,"<div style=""font-size:60px;"">+</div>",,html-keyboard-response,392,1447221,0.0-19.0-0.2,97357,List1B,black,woman,,,,null,,,,
null,"<img src=""stim_listB/talk4.gif""</stim_listB>",,html-keyboard-response,393,1449231,0.0-19.0-1.2,97357,List1B,black,woman,,,,null,,,,
null,are talking to each other,,html-keyboard-response,394,1451236,0.0-19.0-2.2,97357,List1B,black,woman,,,,null,,,,
13007,,,survey-text,395,1464249,0.0-19.0-3.2,97357,List1B,black,woman,,,,,"{""Q0"":""Dave and ruth are talking to each other""}","<img src=""stim_listB/talk4.gif""</stim_listB>",are talking to each other,
null,"<div style=""font-size:60px;"">+</div>",,html-keyboard-response,396,1464754,0.0-19.0-0.3,97357,List1B,black,woman,,,,null,,,,
null,"<img src=""stim_listB/fight6.gif""</stim_listB>",,html-keyboard-response,397,1466761,0.0-19.0-1.3,97357,List1B,black,woman,,,,null,,,,
null,are fighting each other,,html-keyboard-response,398,1468766,0.0-19.0-2.3,97357,List1B,black,woman,,,,null,,,,
8890,,,survey-text,399,1477672,0.0-19.0-3.3,97357,List1B,black,woman,,,,,"{""Q0"":""Luke and fred are fighting each other""}","<img src=""stim_listB/fight6.gif""</stim_listB>",are fighting each other,
null,"<div style=""font-size:60px;"">+</div>",,html-keyboard-response,400,1478182,0.0-19.0-0.4,97357,List1B,black,woman,,,,null,,,,
null,"<img src=""stim_listB/meet5.gif""</stim_listB>",,html-keyboard-response,401,1480206,0.0-19.0-1.4,97357,List1B,black,woman,,,,null,,,,
null,is meeting,,html-keyboard-response,402,1482214,0.0-19.0-2.4,97357,List1B,black,woman,,,,null,,,,
6902,,,survey-text,403,1489125,0.0-19.0-3.4,97357,List1B,black,woman,,,,,"{""Q0"":""Dave is meeting mike""}","<img src=""stim_listB/meet5.gif""</stim_listB>",is meeting,
null,"<div style=""font-size:60px;"">+</div>",,html-keyboard-response,404,1489631,0.0-19.0-0.5,97357,List1B,black,woman,,,,null,,,,
null,"<img src=""stim_listB/hug2.gif""</stim_listB>",,html-keyboard-response,405,1491642,0.0-19.0-1.5,97357,List1B,black,woman,,,,null,,,,
null,are hugging each other,,html-keyboard-response,406,1493655,0.0-19.0-2.5,97357,List1B,black,woman,,,,null,,,,
13646,,,survey-text,407,1507314,0.0-19.0-3.5,97357,List1B,black,woman,,,,,"{""Q0"":""Mike and kate are hugging each other""}","<img src=""stim_listB/hug2.gif""</stim_listB>",are hugging each other,
null,"<div style=""font-size:60px;"">+</div>",,html-keyboard-response,408,1507821,0.0-19.0-0.6,97357,List1B,black,woman,,,,null,,,,
null,"<img src=""stim_listB/shout4.gif""</stim_listB>",,html-keyboard-response,409,1509835,0.0-19.0-1.6,97357,List1B,black,woman,,,,null,,,,
null,are shouting at each other,,html-keyboard-response,410,1511853,0.0-19.0-2.6,97357,List1B,black,woman,,,,null,,,,
11574,,,survey-text,411,1523436,0.0-19.0-3.6,97357,List1B,black,woman,,,,,"{""Q0"":""Jane and dave are shouting at each other""}","<img src=""stim_listB/shout4.gif""</stim_listB>",are shouting at each other,
null,"<div style=""font-size:60px;"">+</div>",,html-keyboard-response,412,1523940,0.0-19.0-0.7,97357,List1B,black,woman,,,,null,,,,
null,"<img src=""stim_listB/shout5.gif""</stim_listB>",,html-keyboard-response,413,1525947,0.0-19.0-1.7,97357,List1B,black,woman,,,,null,,,,
null,is shouting at,,html-keyboard-response,414,1527953,0.0-19.0-2.7,97357,List1B,black,woman,,,,null,,,,
6986,,,survey-text,415,1534952,0.0-19.0-3.7,97357,List1B,black,woman,,,,,"{""Q0"":""Luke is shouting at fred""}","<img src=""stim_listB/shout5.gif""</stim_listB>",is shouting at,
null,"<div style=""font-size:60px;"">+</div>",,html-keyboard-response,416,1535461,0.0-19.0-0.8,97357,List1B,black,woman,,,,null,,,,
null,"<img src=""stim_listB/fight8.gif""</stim_listB>",,html-keyboard-response,417,1537478,0.0-19.0-1.8,97357,List1B,black,woman,,,,null,,,,
null,are fighting each other,,html-keyboard-response,418,1539492,0.0-19.0-2.8,97357,List1B,black,woman,,,,null,,,,
13006,,,survey-text,419,1552507,0.0-19.0-3.8,97357,List1B,black,woman,,,,,"{""Q0"":""Beth and ruth are fighting each other""}","<img src=""stim_listB/fight8.gif""</stim_listB>",are fighting each other,
null,"<div style=""font-size:60px;"">+</div>",,html-keyboard-response,420,1553016,0.0-19.0-0.9,97357,List1B,black,woman,,,,null,,,,
null,"<img src=""stim_listB/argue3.gif""</stim_listB>",,html-keyboard-response,421,1555033,0.0-19.0-1.9,97357,List1B,black,woman,,,,null,,,,
null,is arguing with,,html-keyboard-response,422,1557044,0.0-19.0-2.9,97357,List1B,black,woman,,,,null,,,,
7433,,,survey-text,423,1564501,0.0-19.0-3.9,97357,List1B,black,woman,,,,,"{""Q0"":""Ruth is arguing with dave""}","<img src=""stim_listB/argue3.gif""</stim_listB>",is arguing with,
null,"<div style=""font-size:60px;"">+</div>",,html-keyboard-response,424,1565008,0.0-19.0-0.10,97357,List1B,black,woman,,,,null,,,,
null,"<img src=""stim_listB/meet7.gif""</stim_listB>",,html-keyboard-response,425,1567015,0.0-19.0-1.10,97357,List1B,black,woman,,,,null,,,,
null,is meeting,,html-keyboard-response,426,1569026,0.0-19.0-2.10,97357,List1B,black,woman,,,,null,,,,
5669,,,survey-text,427,1574702,0.0-19.0-3.10,97357,List1B,black,woman,,,,,"{""Q0"":""Jane is meeting kate""}","<img src=""stim_listB/meet7.gif""</stim_listB>",is meeting,
null,"<div style=""font-size:60px;"">+</div>",,html-keyboard-response,428,1575209,0.0-19.0-0.11,97357,List1B,black,woman,,,,null,,,,
null,"<img src=""stim_listB/argue8.gif""</stim_listB>",,html-keyboard-response,429,1577230,0.0-19.0-1.11,97357,List1B,black,woman,,,,null,,,,
null,are arguing with each other,,html-keyboard-response,430,1579241,0.0-19.0-2.11,97357,List1B,black,woman,,,,null,,,,
11601,,,survey-text,431,1590846,0.0-19.0-3.11,97357,List1B,black,woman,,,,,"{""Q0"":""Jane and beth are arguing with each other""}","<img src=""stim_listB/argue8.gif""</stim_listB>",are arguing with each other,
null,"<div style=""font-size:60px;"">+</div>",,html-keyboard-response,432,1591354,0.0-19.0-0.12,97357,List1B,black,woman,,,,null,,,,
null,"<img src=""stim_listB/argue2.gif""</stim_listB>",,html-keyboard-response,433,1593382,0.0-19.0-1.12,97357,List1B,black,woman,,,,null,,,,
null,are arguing with each other,,html-keyboard-response,434,1595423,0.0-19.0-2.12,97357,List1B,black,woman,,,,null,,,,
10387,,,survey-text,435,1605820,0.0-19.0-3.12,97357,List1B,black,woman,,,,,"{""Q0"":""Kate and fred are arguing with each other""}","<img src=""stim_listB/argue2.gif""</stim_listB>",are arguing with each other,
null,"<div style=""font-size:60px;"">+</div>",,html-keyboard-response,436,1606326,0.0-19.0-0.13,97357,List1B,black,woman,,,,null,,,,
null,"<img src=""stim_listB/marry6.gif""</stim_listB>",,html-keyboard-response,437,1608339,0.0-19.0-1.13,97357,List1B,black,woman,,,,null,,,,
null,are marrying each other,,html-keyboard-response,438,1610351,0.0-19.0-2.13,97357,List1B,black,woman,,,,null,,,,
10594,,,survey-text,439,1620955,0.0-19.0-3.13,97357,List1B,black,woman,,,,,"{""Q0"":""Dave and fred are marrying each other""}","<img src=""stim_listB/marry6.gif""</stim_listB>",are marrying each other,
null,"<div style=""font-size:60px;"">+</div>",,html-keyboard-response,440,1621462,0.0-19.0-0.14,97357,List1B,black,woman,,,,null,,,,
null,"<img src=""stim_listB/hug5.gif""</stim_listB>",,html-keyboard-response,441,1623479,0.0-19.0-1.14,97357,List1B,black,woman,,,,null,,,,
null,is hugging,,html-keyboard-response,442,1625500,0.0-19.0-2.14,97357,List1B,black,woman,,,,null,,,,
8214,,,survey-text,443,1633725,0.0-19.0-3.14,97357,List1B,black,woman,,,,,"{""Q0"":""Fred is hugging luke""}","<img src=""stim_listB/hug5.gif""</stim_listB>",is hugging,
null,"<div style=""font-size:60px;"">+</div>",,html-keyboard-response,444,1634230,0.0-19.0-0.15,97357,List1B,black,woman,,,,null,,,,
null,"<img src=""stim_listB/argue4.gif""</stim_listB>",,html-keyboard-response,445,1636240,0.0-19.0-1.15,97357,List1B,black,woman,,,,null,,,,
null,are arguing with each other,,html-keyboard-response,446,1638254,0.0-19.0-2.15,97357,List1B,black,woman,,,,null,,,,
10392,,,survey-text,447,1648654,0.0-19.0-3.15,97357,List1B,black,woman,,,,,"{""Q0"":""Luke and jane are arguing with each other""}","<img src=""stim_listB/argue4.gif""</stim_listB>",are arguing with each other,
null,"<div style=""font-size:60px;"">+</div>",,html-keyboard-response,448,1649162,0.0-19.0-0.16,97357,List1B,black,woman,,,,null,,,,
null,"<img src=""stim_listB/dance2.gif""</stim_listB>",,html-keyboard-response,449,1651176,0.0-19.0-1.16,97357,List1B,black,woman,,,,null,,,,
null,are dancing with each other,,html-keyboard-response,450,1653194,0.0-19.0-2.16,97357,List1B,black,woman,,,,null,,,,
8767,,,survey-text,451,1661968,0.0-19.0-3.16,97357,List1B,black,woman,,,,,"{""Q0"":""Mike and beth are dancing with each other""}","<img src=""stim_listB/dance2.gif""</stim_listB>",are dancing with each other,
null,"<div style=""font-size:60px;"">+</div>",,html-keyboard-response,452,1662476,0.0-19.0-0.17,97357,List1B,black,woman,,,,null,,,,
null,"<img src=""stim_listB/talk2.gif""</stim_listB>",,html-keyboard-response,453,1664489,0.0-19.0-1.17,97357,List1B,black,woman,,,,null,,,,
null,are talking to each other,,html-keyboard-response,454,1666496,0.0-19.0-2.17,97357,List1B,black,woman,,,,null,,,,
11068,,,survey-text,455,1677568,0.0-19.0-3.17,97357,List1B,black,woman,,,,,"{""Q0"":""Mike and beth are talking to each other""}","<img src=""stim_listB/talk2.gif""</stim_listB>",are talking to each other,
null,"<div style=""font-size:60px;"">+</div>",,html-keyboard-response,456,1678076,0.0-19.0-0.18,97357,List1B,black,woman,,,,null,,,,
null,"<img src=""stim_listB/shout6.gif""</stim_listB>",,html-keyboard-response,457,1680091,0.0-19.0-1.18,97357,List1B,black,woman,,,,null,,,,
null,are shouting at each other,,html-keyboard-response,458,1682097,0.0-19.0-2.18,97357,List1B,black,woman,,,,null,,,,
9046,,,survey-text,459,1691147,0.0-19.0-3.18,97357,List1B,black,woman,,,,,"{""Q0"":""Mike and dave are shouting at each other""}","<img src=""stim_listB/shout6.gif""</stim_listB>",are shouting at each other,
null,"<div style=""font-size:60px;"">+</div>",,html-keyboard-response,460,1691654,0.0-19.0-0.19,97357,List1B,black,woman,,,,null,,,,
null,"<img src=""stim_listB/touch5.gif""</stim_listB>",,html-keyboard-response,461,1693669,0.0-19.0-1.19,97357,List1B,black,woman,,,,null,,,,
null,is touching,,html-keyboard-response,462,1695679,0.0-19.0-2.19,97357,List1B,black,woman,,,,null,,,,
5769,,,survey-text,463,1701452,0.0-19.0-3.19,97357,List1B,black,woman,,,,,"{""Q0"":""Mike is touching dave""}","<img src=""stim_listB/touch5.gif""</stim_listB>",is touching,
3475,<p>Thank you for completing that task.</p><p>The final part of this session is a short questionnaire.</p><p>Press Continue.</p>,0,html-button-response,464,1704933,0.0-20.0,97357,List1B,black,woman,,,,,,,,
23699,,,survey-text,465,1729653,0.0-21.0,97357,List1B,black,woman,,,,,"{""Q0"":""29"",""Q1"":""English"",""Q2"":""English"",""Q3"":""United States"",""Q4"":""Black"",""Q5"":""Female""}",,,demographics
52256,,,survey-likert,466,1781943,0.0-22.0,97357,List1B,black,woman,,,,,"{""Q0"":"""",""Q1"":"""",""Q2"":6,""Q3"":6,""Q4"":6,""Q5"":4,""Q6"":5,""Q7"":5,""Q8"":6,""Q9"":6,""Q10"":5,""Q11"":4,""Q12"":6,""Q13"":4}",,,likert_race
52021,,,survey-likert,467,1833990,0.0-23.0,97357,List1B,black,woman,,,,,"{""Q0"":"""",""Q1"":"""",""Q2"":"""",""Q3"":"""",""Q4"":6,""Q5"":4,""Q6"":4,""Q7"":6,""Q8"":6,""Q9"":5,""Q10"":4,""Q11"":4,""Q12"":5,""Q13"":4}",,,likert_gender
19667,,,survey-text,468,1853671,0.0-24.0,97357,List1B,black,woman,,,,,"{""Q0"":""ccc""}",,,worker_id
18734,,,external-html,469,1872670,0.0-25.0,97357,List1B,black,woman,debrief.html,,,,,,,
