rt,stimulus,button_pressed,trial_type,trial_index,time_elapsed,internal_node_id,subject,list,ppt_race,ppt_gender,url,first_guess,correct,key_press,responses,image_type,phrase_type,test_part
1955,Welcome to the experiment. Press Continue to begin.,0,html-button-response,0,1964,0.0-0.0,98716,List2A,black,man,,,,,,,,
5946,,,external-html,1,8961,0.0-1.0,98716,List2A,black,man,consent.html,,,,,,,
1195,"<p>On the next page, you will see portraits of 8 people and their names.</p><p>Your first task is to take a few minutes to memorise the names of these people.</p><p>You will have to recall their names during the rest of the experiment, so it is</p><p>essential that you try to memorise these people and their names as best as you can.</p><br><p><strong>You will then be tested on your memory of these names and portraits.</strong></p><br><p>The experiment will start after you have completed this memory test.</p><br><p>Ready?</p>",0,html-button-response,2,10164,0.0-2.0,98716,List2A,black,man,,,,,,,,
7141,"<img src='img/portrait_matrix_list2.JPG' style='width:900px;height:500px;''></img><p>If you have memorised all the portraits and names and are ready to start, press Continue.</p><p><strong>Please note: Your memory of these faces will be tested 4 times during this experiment.</strong></p>",0,html-button-response,3,18320,0.0-3.0-0.0,98716,List2A,black,man,,,,,,,,
7769,"<img src=""portrait/WW2.jpg""style=""width:400px;height:400px;""></img>",3,html-button-response,4,27100,0.0-3.0-1.0,98716,List2A,black,man,,TRUE,3,,,,,
null,CORRECT,,html-keyboard-response,5,28612,0.0-3.0-2.0-0.0,98716,List2A,black,man,,,,null,,,,
6498,"<img src=""portrait/WW1.jpg""style=""width:400px;height:400px;""></img>",1,html-button-response,6,35123,0.0-3.0-4.0,98716,List2A,black,man,,TRUE,1,,,,,
null,CORRECT,,html-keyboard-response,7,36636,0.0-3.0-5.0-0.0,98716,List2A,black,man,,,,null,,,,
7353,"<img src=""portrait/WM1.jpg""style=""width:400px;height:400px;""></img>",6,html-button-response,8,43998,0.0-3.0-7.0,98716,List2A,black,man,,TRUE,6,,,,,
null,CORRECT,,html-keyboard-response,9,45510,0.0-3.0-8.0-0.0,98716,List2A,black,man,,,,null,,,,
7305,"<img src=""portrait/BW2.jpg""style=""width:400px;height:400px;""></img>",2,html-button-response,10,52822,0.0-3.0-10.0,98716,List2A,black,man,,TRUE,2,,,,,
null,CORRECT,,html-keyboard-response,11,54332,0.0-3.0-11.0-0.0,98716,List2A,black,man,,,,null,,,,
7251,"<img src=""portrait/BM2.jpg""style=""width:400px;height:400px;""></img>",5,html-button-response,12,61593,0.0-3.0-13.0,98716,List2A,black,man,,TRUE,5,,,,,
null,CORRECT,,html-keyboard-response,13,63109,0.0-3.0-14.0-0.0,98716,List2A,black,man,,,,null,,,,
5062,"<img src=""portrait/WM2.jpg""style=""width:400px;height:400px;""></img>",7,html-button-response,14,68183,0.0-3.0-16.0,98716,List2A,black,man,,TRUE,7,,,,,
null,CORRECT,,html-keyboard-response,15,69693,0.0-3.0-17.0-0.0,98716,List2A,black,man,,,,null,,,,
4652,"<img src=""portrait/BW1.jpg""style=""width:400px;height:400px;""></img>",0,html-button-response,16,74355,0.0-3.0-19.0,98716,List2A,black,man,,TRUE,0,,,,,
null,CORRECT,,html-keyboard-response,17,75875,0.0-3.0-20.0-0.0,98716,List2A,black,man,,,,null,,,,
5516,"<img src=""portrait/BM1.jpg""style=""width:400px;height:400px;""></img>",4,html-button-response,18,81402,0.0-3.0-22.0,98716,List2A,black,man,,TRUE,4,,,,,
null,CORRECT,,html-keyboard-response,19,82917,0.0-3.0-23.0-0.0,98716,List2A,black,man,,,,null,,,,
2167,<p>You got 8 out of 8 right first time. Press Continue.</p>,0,html-button-response,20,85096,0.0-3.0-25.0,98716,List2A,black,man,,,,,,,,
19077,"<p>In this experiment, you will view photographs of the people from the memory game interacting.</p><p>By using the <strong>exact</strong> phrase given <i>after</i> the photograph appears and recalling the correct names of the people in the photographs, form a sentence describing the interaction. You do not need to capitalise names.</p><p>Type your answer in the space provided. Please complete every sentence before moving onto the next trial.</p><p>You will only have a few seconds to memorise each given photograph and phrase before you can respond, so try your best to focus.</p><p>An example is given below. Press 'Continue' when you are ready.</p><img src='img/speaking_example_v2.jpg' style='width:800px;height:460px;''></img>",0,html-button-response,21,105183,0.0-4.0,98716,List2A,black,man,,,,,,,,
2430,"<p>Before the experiment starts, you will watch two example trials. Press 'Continue'.</p>",0,html-button-response,22,108622,0.0-5.0,98716,List2A,black,man,,,,,,,,
null,<img src='img/speaking_WW.gif'></img>,,html-keyboard-response,23,111639,0.0-6.0,98716,List2A,black,man,,,,null,,,,
null,<p>is speaking to</p>,,html-keyboard-response,24,113651,0.0-7.0,98716,List2A,black,man,,,,null,,,,
3045,<p><b>Answer:</b> jane is speaking to ruth</p>,0,html-button-response,25,116705,0.0-8.0,98716,List2A,black,man,,,,,,,,
null,<img src='img/pointing_BM.gif'></img>,,html-keyboard-response,26,119714,0.0-9.0,98716,List2A,black,man,,,,null,,,,
null,<p>are pointing at each other</p>,,html-keyboard-response,27,121725,0.0-10.0,98716,List2A,black,man,,,,null,,,,
1354,<p><b>Answer:</b> fred and mike are pointing at each other</p>,0,html-button-response,28,123086,0.0-11.0,98716,List2A,black,man,,,,,,,,
1662,"<p>Ready to start the experiment?</p><br><p><strong>Remember to describe the picture using a full sentence,</strong></p><p><strong>that combines the names of the people with the given phrase.</strong></p><p><strong>If you do not do this correctly you will not be paid.</strong></p><p><strong> You do not need to capitalise names or use punctuation.</strong></p><br><p>Press 'Continue' to begin.</p>",0,html-button-response,29,125759,0.0-12.0,98716,List2A,black,man,,,,,,,,
null,"<div style=""font-size:60px;"">+</div>",,html-keyboard-response,30,127280,0.0-13.0-0.0,98716,List2A,black,man,,,,null,,,,
null,"<img src=""stim_listA/fight6.gif""</stim_listA>",,html-keyboard-response,31,129290,0.0-13.0-1.0,98716,List2A,black,man,,,,null,,,,
null,are fighting each other,,html-keyboard-response,32,131951,0.0-13.0-2.0,98716,List2A,black,man,,,,null,,,,
6650,,,survey-text,33,138612,0.0-13.0-3.0,98716,List2A,black,man,,,,,"{""Q0"":""Luke ""}","<img src=""stim_listA/fight6.gif""</stim_listA>",are fighting each other,
null,"<div style=""font-size:60px;"">+</div>",,html-keyboard-response,34,139119,0.0-13.0-0.1,98716,List2A,black,man,,,,null,,,,
null,"<img src=""stim_listA/meet6.gif""</stim_listA>",,html-keyboard-response,35,141130,0.0-13.0-1.1,98716,List2A,black,man,,,,null,,,,
null,are meeting each other,,html-keyboard-response,36,143140,0.0-13.0-2.1,98716,List2A,black,man,,,,null,,,,
5777,,,survey-text,37,148927,0.0-13.0-3.1,98716,List2A,black,man,,,,,"{""Q0"":""Luke and fred""}","<img src=""stim_listA/meet6.gif""</stim_listA>",are meeting each other,
null,"<div style=""font-size:60px;"">+</div>",,html-keyboard-response,38,149436,0.0-13.0-0.2,98716,List2A,black,man,,,,null,,,,
null,"<img src=""stim_listA/hug2.gif""</stim_listA>",,html-keyboard-response,39,151442,0.0-13.0-1.2,98716,List2A,black,man,,,,null,,,,
null,are hugging each other,,html-keyboard-response,40,153912,0.0-13.0-2.2,98716,List2A,black,man,,,,null,,,,
8952,,,survey-text,41,162869,0.0-13.0-3.2,98716,List2A,black,man,,,,,"{""Q0"":""Jane and dave""}","<img src=""stim_listA/hug2.gif""</stim_listA>",are hugging each other,
null,"<div style=""font-size:60px;"">+</div>",,html-keyboard-response,42,163377,0.0-13.0-0.3,98716,List2A,black,man,,,,null,,,,
null,"<img src=""stim_listA/kiss8.gif""</stim_listA>",,html-keyboard-response,43,165939,0.0-13.0-1.3,98716,List2A,black,man,,,,null,,,,
null,are kissing each other,,html-keyboard-response,44,167948,0.0-13.0-2.3,98716,List2A,black,man,,,,null,,,,
4537,,,survey-text,45,172490,0.0-13.0-3.3,98716,List2A,black,man,,,,,"{""Q0"":""Kate and jane""}","<img src=""stim_listA/kiss8.gif""</stim_listA>",are kissing each other,
null,"<div style=""font-size:60px;"">+</div>",,html-keyboard-response,46,172997,0.0-13.0-0.4,98716,List2A,black,man,,,,null,,,,
null,"<img src=""stim_listA/kiss6.gif""</stim_listA>",,html-keyboard-response,47,175017,0.0-13.0-1.4,98716,List2A,black,man,,,,null,,,,
null,are kissing each other,,html-keyboard-response,48,177944,0.0-13.0-2.4,98716,List2A,black,man,,,,null,,,,
5584,,,survey-text,49,183532,0.0-13.0-3.4,98716,List2A,black,man,,,,,"{""Q0"":""Mike and dave""}","<img src=""stim_listA/kiss6.gif""</stim_listA>",are kissing each other,
null,"<div style=""font-size:60px;"">+</div>",,html-keyboard-response,50,184038,0.0-13.0-0.5,98716,List2A,black,man,,,,null,,,,
null,"<img src=""stim_listA/shout4.gif""</stim_listA>",,html-keyboard-response,51,186045,0.0-13.0-1.5,98716,List2A,black,man,,,,null,,,,
null,are shouting at each other,,html-keyboard-response,52,188769,0.0-13.0-2.5,98716,List2A,black,man,,,,null,,,,
6838,,,survey-text,53,195609,0.0-13.0-3.5,98716,List2A,black,man,,,,,"{""Q0"":""Mike and kate""}","<img src=""stim_listA/shout4.gif""</stim_listA>",are shouting at each other,
null,"<div style=""font-size:60px;"">+</div>",,html-keyboard-response,54,196115,0.0-13.0-0.6,98716,List2A,black,man,,,,null,,,,
null,"<img src=""stim_listA/fight4.gif""</stim_listA>",,html-keyboard-response,55,198124,0.0-13.0-1.6,98716,List2A,black,man,,,,null,,,,
null,are fighting each other,,html-keyboard-response,56,200129,0.0-13.0-2.6,98716,List2A,black,man,,,,null,,,,
14235,,,survey-text,57,214369,0.0-13.0-3.6,98716,List2A,black,man,,,,,"{""Q0"":""Ruth and beth""}","<img src=""stim_listA/fight4.gif""</stim_listA>",are fighting each other,
null,"<div style=""font-size:60px;"">+</div>",,html-keyboard-response,58,214875,0.0-13.0-0.7,98716,List2A,black,man,,,,null,,,,
null,"<img src=""stim_listA/hug4.gif""</stim_listA>",,html-keyboard-response,59,216949,0.0-13.0-1.7,98716,List2A,black,man,,,,null,,,,
null,are hugging each other,,html-keyboard-response,60,218994,0.0-13.0-2.7,98716,List2A,black,man,,,,null,,,,
3878,,,survey-text,61,222876,0.0-13.0-3.7,98716,List2A,black,man,,,,,"{""Q0"":""Mike and kate""}","<img src=""stim_listA/hug4.gif""</stim_listA>",are hugging each other,
null,"<div style=""font-size:60px;"">+</div>",,html-keyboard-response,62,223383,0.0-13.0-0.8,98716,List2A,black,man,,,,null,,,,
null,"<img src=""stim_listA/talk1.gif""</stim_listA>",,html-keyboard-response,63,225933,0.0-13.0-1.8,98716,List2A,black,man,,,,null,,,,
null,is talking to,,html-keyboard-response,64,227936,0.0-13.0-2.8,98716,List2A,black,man,,,,null,,,,
4252,,,survey-text,65,232191,0.0-13.0-3.8,98716,List2A,black,man,,,,,"{""Q0"":""Fred and luke""}","<img src=""stim_listA/talk1.gif""</stim_listA>",is talking to,
null,"<div style=""font-size:60px;"">+</div>",,html-keyboard-response,66,232709,0.0-13.0-0.9,98716,List2A,black,man,,,,null,,,,
null,"<img src=""stim_listA/touch3.gif""</stim_listA>",,html-keyboard-response,67,234717,0.0-13.0-1.9,98716,List2A,black,man,,,,null,,,,
null,is touching,,html-keyboard-response,68,236752,0.0-13.0-2.9,98716,List2A,black,man,,,,null,,,,
4848,,,survey-text,69,241603,0.0-13.0-3.9,98716,List2A,black,man,,,,,"{""Q0"":""Kate and mike""}","<img src=""stim_listA/touch3.gif""</stim_listA>",is touching,
null,"<div style=""font-size:60px;"">+</div>",,html-keyboard-response,70,242110,0.0-13.0-0.10,98716,List2A,black,man,,,,null,,,,
null,"<img src=""stim_listA/dance3.gif""</stim_listA>",,html-keyboard-response,71,244120,0.0-13.0-1.10,98716,List2A,black,man,,,,null,,,,
null,is dancing with,,html-keyboard-response,72,246939,0.0-13.0-2.10,98716,List2A,black,man,,,,null,,,,
5617,,,survey-text,73,252562,0.0-13.0-3.10,98716,List2A,black,man,,,,,"{""Q0"":""Kate and fred""}","<img src=""stim_listA/dance3.gif""</stim_listA>",is dancing with,
null,"<div style=""font-size:60px;"">+</div>",,html-keyboard-response,74,253068,0.0-13.0-0.11,98716,List2A,black,man,,,,null,,,,
null,"<img src=""stim_listA/marry4.gif""</stim_listA>",,html-keyboard-response,75,255074,0.0-13.0-1.11,98716,List2A,black,man,,,,null,,,,
null,are marrying each other,,html-keyboard-response,76,257082,0.0-13.0-2.11,98716,List2A,black,man,,,,null,,,,
5244,,,survey-text,77,262331,0.0-13.0-3.11,98716,List2A,black,man,,,,,"{""Q0"":""Kate and fred""}","<img src=""stim_listA/marry4.gif""</stim_listA>",are marrying each other,
null,"<div style=""font-size:60px;"">+</div>",,html-keyboard-response,78,262838,0.0-13.0-0.12,98716,List2A,black,man,,,,null,,,,
null,"<img src=""stim_listA/dance8.gif""</stim_listA>",,html-keyboard-response,79,264846,0.0-13.0-1.12,98716,List2A,black,man,,,,null,,,,
null,are dancing with each other,,html-keyboard-response,80,266909,0.0-13.0-2.12,98716,List2A,black,man,,,,null,,,,
5816,,,survey-text,81,272729,0.0-13.0-3.12,98716,List2A,black,man,,,,,"{""Q0"":""Jane and beth""}","<img src=""stim_listA/dance8.gif""</stim_listA>",are dancing with each other,
null,"<div style=""font-size:60px;"">+</div>",,html-keyboard-response,82,273236,0.0-13.0-0.13,98716,List2A,black,man,,,,null,,,,
null,"<img src=""stim_listA/touch2.gif""</stim_listA>",,html-keyboard-response,83,275242,0.0-13.0-1.13,98716,List2A,black,man,,,,null,,,,
null,are touching each other,,html-keyboard-response,84,277948,0.0-13.0-2.13,98716,List2A,black,man,,,,null,,,,
5891,,,survey-text,85,283842,0.0-13.0-3.13,98716,List2A,black,man,,,,,"{""Q0"":""Ruth and luke""}","<img src=""stim_listA/touch2.gif""</stim_listA>",are touching each other,
null,"<div style=""font-size:60px;"">+</div>",,html-keyboard-response,86,284347,0.0-13.0-0.14,98716,List2A,black,man,,,,null,,,,
null,"<img src=""stim_listA/shout2.gif""</stim_listA>",,html-keyboard-response,87,286355,0.0-13.0-1.14,98716,List2A,black,man,,,,null,,,,
null,are shouting at each other,,html-keyboard-response,88,288952,0.0-13.0-2.14,98716,List2A,black,man,,,,null,,,,
5919,,,survey-text,89,294877,0.0-13.0-3.14,98716,List2A,black,man,,,,,"{""Q0"":""Dave and jane""}","<img src=""stim_listA/shout2.gif""</stim_listA>",are shouting at each other,
null,"<div style=""font-size:60px;"">+</div>",,html-keyboard-response,90,295384,0.0-13.0-0.15,98716,List2A,black,man,,,,null,,,,
null,"<img src=""stim_listA/kiss4.gif""</stim_listA>",,html-keyboard-response,91,297394,0.0-13.0-1.15,98716,List2A,black,man,,,,null,,,,
null,are kissing each other,,html-keyboard-response,92,299929,0.0-13.0-2.15,98716,List2A,black,man,,,,null,,,,
6989,,,survey-text,93,306923,0.0-13.0-3.15,98716,List2A,black,man,,,,,"{""Q0"":""Kate and mike""}","<img src=""stim_listA/kiss4.gif""</stim_listA>",are kissing each other,
null,"<div style=""font-size:60px;"">+</div>",,html-keyboard-response,94,307432,0.0-13.0-0.16,98716,List2A,black,man,,,,null,,,,
null,"<img src=""stim_listA/shout7.gif""</stim_listA>",,html-keyboard-response,95,309441,0.0-13.0-1.16,98716,List2A,black,man,,,,null,,,,
null,is shouting at,,html-keyboard-response,96,311919,0.0-13.0-2.16,98716,List2A,black,man,,,,null,,,,
6495,,,survey-text,97,318422,0.0-13.0-3.16,98716,List2A,black,man,,,,,"{""Q0"":""Ruth and jane""}","<img src=""stim_listA/shout7.gif""</stim_listA>",is shouting at,
null,"<div style=""font-size:60px;"">+</div>",,html-keyboard-response,98,318929,0.0-13.0-0.17,98716,List2A,black,man,,,,null,,,,
null,"<img src=""stim_listA/touch5.gif""</stim_listA>",,html-keyboard-response,99,320935,0.0-13.0-1.17,98716,List2A,black,man,,,,null,,,,
null,is touching,,html-keyboard-response,100,323929,0.0-13.0-2.17,98716,List2A,black,man,,,,null,,,,
4682,,,survey-text,101,328616,0.0-13.0-3.17,98716,List2A,black,man,,,,,"{""Q0"":""Dave and mike""}","<img src=""stim_listA/touch5.gif""</stim_listA>",is touching,
null,"<div style=""font-size:60px;"">+</div>",,html-keyboard-response,102,329119,0.0-13.0-0.18,98716,List2A,black,man,,,,null,,,,
null,"<img src=""stim_listA/argue1.gif""</stim_listA>",,html-keyboard-response,103,331912,0.0-13.0-1.18,98716,List2A,black,man,,,,null,,,,
null,is arguing with,,html-keyboard-response,104,334861,0.0-13.0-2.18,98716,List2A,black,man,,,,null,,,,
4180,,,survey-text,105,339045,0.0-13.0-3.18,98716,List2A,black,man,,,,,"{""Q0"":""Dave and ruth""}","<img src=""stim_listA/argue1.gif""</stim_listA>",is arguing with,
null,"<div style=""font-size:60px;"">+</div>",,html-keyboard-response,106,339550,0.0-13.0-0.19,98716,List2A,black,man,,,,null,,,,
null,"<img src=""stim_listA/argue3.gif""</stim_listA>",,html-keyboard-response,107,341567,0.0-13.0-1.19,98716,List2A,black,man,,,,null,,,,
null,is arguing with,,html-keyboard-response,108,343907,0.0-13.0-2.19,98716,List2A,black,man,,,,null,,,,
8358,,,survey-text,109,352272,0.0-13.0-3.19,98716,List2A,black,man,,,,,"{""Q0"":""Beth and mike""}","<img src=""stim_listA/argue3.gif""</stim_listA>",is arguing with,
4135,"<img src='img/portrait_matrix_list2.JPG' style='width:900px;height:500px;''></img><p>If you have memorised all the portraits and names and are ready to start, press Continue.</p><p><strong>Please note: Your memory of these faces will be tested 4 times during this experiment.</strong></p>",0,html-button-response,110,356415,0.0-14.0-0.0,98716,List2A,black,man,,,,,,,,
5335,"<img src=""portrait/WM1.jpg""style=""width:400px;height:400px;""></img>",6,html-button-response,111,362768,0.0-14.0-1.0,98716,List2A,black,man,,TRUE,6,,,,,
null,CORRECT,,html-keyboard-response,112,364292,0.0-14.0-2.0-0.0,98716,List2A,black,man,,,,null,,,,
4161,"<img src=""portrait/BM1.jpg""style=""width:400px;height:400px;""></img>",4,html-button-response,113,368462,0.0-14.0-4.0,98716,List2A,black,man,,TRUE,4,,,,,
null,CORRECT,,html-keyboard-response,114,369972,0.0-14.0-5.0-0.0,98716,List2A,black,man,,,,null,,,,
4045,"<img src=""portrait/BW1.jpg""style=""width:400px;height:400px;""></img>",0,html-button-response,115,374028,0.0-14.0-7.0,98716,List2A,black,man,,TRUE,0,,,,,
null,CORRECT,,html-keyboard-response,116,375545,0.0-14.0-8.0-0.0,98716,List2A,black,man,,,,null,,,,
3133,"<img src=""portrait/BW2.jpg""style=""width:400px;height:400px;""></img>",2,html-button-response,117,378688,0.0-14.0-10.0,98716,List2A,black,man,,TRUE,2,,,,,
null,CORRECT,,html-keyboard-response,118,380200,0.0-14.0-11.0-0.0,98716,List2A,black,man,,,,null,,,,
3306,"<img src=""portrait/WW2.jpg""style=""width:400px;height:400px;""></img>",3,html-button-response,119,383520,0.0-14.0-13.0,98716,List2A,black,man,,TRUE,3,,,,,
null,CORRECT,,html-keyboard-response,120,385038,0.0-14.0-14.0-0.0,98716,List2A,black,man,,,,null,,,,
3921,"<img src=""portrait/WW1.jpg""style=""width:400px;height:400px;""></img>",1,html-button-response,121,388968,0.0-14.0-16.0,98716,List2A,black,man,,TRUE,1,,,,,
null,CORRECT,,html-keyboard-response,122,390490,0.0-14.0-17.0-0.0,98716,List2A,black,man,,,,null,,,,
3657,"<img src=""portrait/WM2.jpg""style=""width:400px;height:400px;""></img>",7,html-button-response,123,394159,0.0-14.0-19.0,98716,List2A,black,man,,TRUE,7,,,,,
null,CORRECT,,html-keyboard-response,124,395668,0.0-14.0-20.0-0.0,98716,List2A,black,man,,,,null,,,,
3726,"<img src=""portrait/BM2.jpg""style=""width:400px;height:400px;""></img>",5,html-button-response,125,399405,0.0-14.0-22.0,98716,List2A,black,man,,TRUE,5,,,,,
null,CORRECT,,html-keyboard-response,126,400914,0.0-14.0-23.0-0.0,98716,List2A,black,man,,,,null,,,,
1615,<p>You got 8 out of 8 right first time. Press Continue.</p>,0,html-button-response,127,402541,0.0-14.0-25.0,98716,List2A,black,man,,,,,,,,
null,"<div style=""font-size:60px;"">+</div>",,html-keyboard-response,128,404057,0.0-15.0-0.0,98716,List2A,black,man,,,,null,,,,
null,"<img src=""stim_listA/marry5.gif""</stim_listA>",,html-keyboard-response,129,406064,0.0-15.0-1.0,98716,List2A,black,man,,,,null,,,,
null,is marrying,,html-keyboard-response,130,408914,0.0-15.0-2.0,98716,List2A,black,man,,,,null,,,,
7028,,,survey-text,131,415949,0.0-15.0-3.0,98716,List2A,black,man,,,,,"{""Q0"":""Dave and fred""}","<img src=""stim_listA/marry5.gif""</stim_listA>",is marrying,
null,"<div style=""font-size:60px;"">+</div>",,html-keyboard-response,132,416455,0.0-15.0-0.1,98716,List2A,black,man,,,,null,,,,
null,"<img src=""stim_listA/marry8.gif""</stim_listA>",,html-keyboard-response,133,418946,0.0-15.0-1.1,98716,List2A,black,man,,,,null,,,,
null,are marrying each other,,html-keyboard-response,134,420948,0.0-15.0-2.1,98716,List2A,black,man,,,,null,,,,
8461,,,survey-text,135,429412,0.0-15.0-3.1,98716,List2A,black,man,,,,,"{""Q0"":""Kate and ruth""}","<img src=""stim_listA/marry8.gif""</stim_listA>",are marrying each other,
null,"<div style=""font-size:60px;"">+</div>",,html-keyboard-response,136,429918,0.0-15.0-0.2,98716,List2A,black,man,,,,null,,,,
null,"<img src=""stim_listA/argue5.gif""</stim_listA>",,html-keyboard-response,137,431933,0.0-15.0-1.2,98716,List2A,black,man,,,,null,,,,
null,is arguing with,,html-keyboard-response,138,433952,0.0-15.0-2.2,98716,List2A,black,man,,,,null,,,,
5319,,,survey-text,139,439281,0.0-15.0-3.2,98716,List2A,black,man,,,,,"{""Q0"":""I did not get that""}","<img src=""stim_listA/argue5.gif""</stim_listA>",is arguing with,
null,"<div style=""font-size:60px;"">+</div>",,html-keyboard-response,140,439790,0.0-15.0-0.3,98716,List2A,black,man,,,,null,,,,
null,"<img src=""stim_listA/talk3.gif""</stim_listA>",,html-keyboard-response,141,441946,0.0-15.0-1.3,98716,List2A,black,man,,,,null,,,,
null,is talking to,,html-keyboard-response,142,444007,0.0-15.0-2.3,98716,List2A,black,man,,,,null,,,,
4957,,,survey-text,143,448966,0.0-15.0-3.3,98716,List2A,black,man,,,,,"{""Q0"":""Kate and fred""}","<img src=""stim_listA/talk3.gif""</stim_listA>",is talking to,
null,"<div style=""font-size:60px;"">+</div>",,html-keyboard-response,144,449472,0.0-15.0-0.4,98716,List2A,black,man,,,,null,,,,
null,"<img src=""stim_listA/meet8.gif""</stim_listA>",,html-keyboard-response,145,451930,0.0-15.0-1.4,98716,List2A,black,man,,,,null,,,,
null,are meeting each other,,html-keyboard-response,146,454942,0.0-15.0-2.4,98716,List2A,black,man,,,,null,,,,
3513,,,survey-text,147,458466,0.0-15.0-3.4,98716,List2A,black,man,,,,,"{""Q0"":""Beth ruth""}","<img src=""stim_listA/meet8.gif""</stim_listA>",are meeting each other,
null,"<div style=""font-size:60px;"">+</div>",,html-keyboard-response,148,458972,0.0-15.0-0.5,98716,List2A,black,man,,,,null,,,,
null,"<img src=""stim_listA/marry3.gif""</stim_listA>",,html-keyboard-response,149,461946,0.0-15.0-1.5,98716,List2A,black,man,,,,null,,,,
null,is marrying,,html-keyboard-response,150,464082,0.0-15.0-2.5,98716,List2A,black,man,,,,null,,,,
3893,,,survey-text,151,467979,0.0-15.0-3.5,98716,List2A,black,man,,,,,"{""Q0"":""Mike and beth""}","<img src=""stim_listA/marry3.gif""</stim_listA>",is marrying,
null,"<div style=""font-size:60px;"">+</div>",,html-keyboard-response,152,468486,0.0-15.0-0.6,98716,List2A,black,man,,,,null,,,,
null,"<img src=""stim_listA/fight5.gif""</stim_listA>",,html-keyboard-response,153,470908,0.0-15.0-1.6,98716,List2A,black,man,,,,null,,,,
null,is fighting,,html-keyboard-response,154,472910,0.0-15.0-2.6,98716,List2A,black,man,,,,null,,,,
3914,,,survey-text,155,476833,0.0-15.0-3.6,98716,List2A,black,man,,,,,"{""Q0"":""Dave and mike""}","<img src=""stim_listA/fight5.gif""</stim_listA>",is fighting,
null,"<div style=""font-size:60px;"">+</div>",,html-keyboard-response,156,477340,0.0-15.0-0.7,98716,List2A,black,man,,,,null,,,,
null,"<img src=""stim_listA/touch4.gif""</stim_listA>",,html-keyboard-response,157,479922,0.0-15.0-1.7,98716,List2A,black,man,,,,null,,,,
null,are touching each other,,html-keyboard-response,158,482036,0.0-15.0-2.7,98716,List2A,black,man,,,,null,,,,
5360,,,survey-text,159,487399,0.0-15.0-3.7,98716,List2A,black,man,,,,,"{""Q0"":""Beth fred""}","<img src=""stim_listA/touch4.gif""</stim_listA>",are touching each other,
null,"<div style=""font-size:60px;"">+</div>",,html-keyboard-response,160,487904,0.0-15.0-0.8,98716,List2A,black,man,,,,null,,,,
null,"<img src=""stim_listA/dance7.gif""</stim_listA>",,html-keyboard-response,161,490918,0.0-15.0-1.8,98716,List2A,black,man,,,,null,,,,
null,is dancing with,,html-keyboard-response,162,493946,0.0-15.0-2.8,98716,List2A,black,man,,,,null,,,,
4019,,,survey-text,163,497970,0.0-15.0-3.8,98716,List2A,black,man,,,,,"{""Q0"":""Kate and ruth""}","<img src=""stim_listA/dance7.gif""</stim_listA>",is dancing with,
null,"<div style=""font-size:60px;"">+</div>",,html-keyboard-response,164,498478,0.0-15.0-0.9,98716,List2A,black,man,,,,null,,,,
null,"<img src=""stim_listA/talk2.gif""</stim_listA>",,html-keyboard-response,165,500946,0.0-15.0-1.9,98716,List2A,black,man,,,,null,,,,
null,are talking to each other,,html-keyboard-response,166,503913,0.0-15.0-2.9,98716,List2A,black,man,,,,null,,,,
5721,,,survey-text,167,509641,0.0-15.0-3.9,98716,List2A,black,man,,,,,"{""Q0"":""Ruth and dave""}","<img src=""stim_listA/talk2.gif""</stim_listA>",are talking to each other,
null,"<div style=""font-size:60px;"">+</div>",,html-keyboard-response,168,510145,0.0-15.0-0.10,98716,List2A,black,man,,,,null,,,,
null,"<img src=""stim_listA/touch7.gif""</stim_listA>",,html-keyboard-response,169,512155,0.0-15.0-1.10,98716,List2A,black,man,,,,null,,,,
null,is touching,,html-keyboard-response,170,514906,0.0-15.0-2.10,98716,List2A,black,man,,,,null,,,,
5151,,,survey-text,171,520061,0.0-15.0-3.10,98716,List2A,black,man,,,,,"{""Q0"":""Kate and jane""}","<img src=""stim_listA/touch7.gif""</stim_listA>",is touching,
null,"<div style=""font-size:60px;"">+</div>",,html-keyboard-response,172,520570,0.0-15.0-0.11,98716,List2A,black,man,,,,null,,,,
null,"<img src=""stim_listA/shout5.gif""</stim_listA>",,html-keyboard-response,173,522579,0.0-15.0-1.11,98716,List2A,black,man,,,,null,,,,
null,is shouting at,,html-keyboard-response,174,524908,0.0-15.0-2.11,98716,List2A,black,man,,,,null,,,,
7811,,,survey-text,175,532727,0.0-15.0-3.11,98716,List2A,black,man,,,,,"{""Q0"":""Fred and dave""}","<img src=""stim_listA/shout5.gif""</stim_listA>",is shouting at,
null,"<div style=""font-size:60px;"">+</div>",,html-keyboard-response,176,533238,0.0-15.0-0.12,98716,List2A,black,man,,,,null,,,,
null,"<img src=""stim_listA/dance1.gif""</stim_listA>",,html-keyboard-response,177,535246,0.0-15.0-1.12,98716,List2A,black,man,,,,null,,,,
null,is dancing with,,html-keyboard-response,178,537946,0.0-15.0-2.12,98716,List2A,black,man,,,,null,,,,
6555,,,survey-text,179,544506,0.0-15.0-3.12,98716,List2A,black,man,,,,,"{""Q0"":""Beth and luke""}","<img src=""stim_listA/dance1.gif""</stim_listA>",is dancing with,
null,"<div style=""font-size:60px;"">+</div>",,html-keyboard-response,180,545012,0.0-15.0-0.13,98716,List2A,black,man,,,,null,,,,
null,"<img src=""stim_listA/dance2.gif""</stim_listA>",,html-keyboard-response,181,547942,0.0-15.0-1.13,98716,List2A,black,man,,,,null,,,,
null,are dancing with each other,,html-keyboard-response,182,550575,0.0-15.0-2.13,98716,List2A,black,man,,,,null,,,,
3503,,,survey-text,183,554081,0.0-15.0-3.13,98716,List2A,black,man,,,,,"{""Q0"":""Dave and ruth""}","<img src=""stim_listA/dance2.gif""</stim_listA>",are dancing with each other,
null,"<div style=""font-size:60px;"">+</div>",,html-keyboard-response,184,554588,0.0-15.0-0.14,98716,List2A,black,man,,,,null,,,,
null,"<img src=""stim_listA/fight8.gif""</stim_listA>",,html-keyboard-response,185,556946,0.0-15.0-1.14,98716,List2A,black,man,,,,null,,,,
null,are fighting each other,,html-keyboard-response,186,559936,0.0-15.0-2.14,98716,List2A,black,man,,,,null,,,,
5943,,,survey-text,187,565888,0.0-15.0-3.14,98716,List2A,black,man,,,,,"{""Q0"":""Beth ruth""}","<img src=""stim_listA/fight8.gif""</stim_listA>",are fighting each other,
null,"<div style=""font-size:60px;"">+</div>",,html-keyboard-response,188,566392,0.0-15.0-0.15,98716,List2A,black,man,,,,null,,,,
null,"<img src=""stim_listA/hug6.gif""</stim_listA>",,html-keyboard-response,189,568946,0.0-15.0-1.15,98716,List2A,black,man,,,,null,,,,
null,are hugging each other,,html-keyboard-response,190,571550,0.0-15.0-2.15,98716,List2A,black,man,,,,null,,,,
3471,,,survey-text,191,575023,0.0-15.0-3.15,98716,List2A,black,man,,,,,"{""Q0"":""Mike and dave""}","<img src=""stim_listA/hug6.gif""</stim_listA>",are hugging each other,
null,"<div style=""font-size:60px;"">+</div>",,html-keyboard-response,192,575531,0.0-15.0-0.16,98716,List2A,black,man,,,,null,,,,
null,"<img src=""stim_listA/argue4.gif""</stim_listA>",,html-keyboard-response,193,577911,0.0-15.0-1.16,98716,List2A,black,man,,,,null,,,,
null,are arguing with each other,,html-keyboard-response,194,579913,0.0-15.0-2.16,98716,List2A,black,man,,,,null,,,,
2892,,,survey-text,195,582809,0.0-15.0-3.16,98716,List2A,black,man,,,,,"{""Q0"":""Kate fred""}","<img src=""stim_listA/argue4.gif""</stim_listA>",are arguing with each other,
null,"<div style=""font-size:60px;"">+</div>",,html-keyboard-response,196,583316,0.0-15.0-0.17,98716,List2A,black,man,,,,null,,,,
null,"<img src=""stim_listA/marry7.gif""</stim_listA>",,html-keyboard-response,197,585328,0.0-15.0-1.17,98716,List2A,black,man,,,,null,,,,
null,is marrying,,html-keyboard-response,198,587334,0.0-15.0-2.17,98716,List2A,black,man,,,,null,,,,
5940,,,survey-text,199,593277,0.0-15.0-3.17,98716,List2A,black,man,,,,,"{""Q0"":""Jane beth""}","<img src=""stim_listA/marry7.gif""</stim_listA>",is marrying,
null,"<div style=""font-size:60px;"">+</div>",,html-keyboard-response,200,593785,0.0-15.0-0.18,98716,List2A,black,man,,,,null,,,,
null,"<img src=""stim_listA/kiss1.gif""</stim_listA>",,html-keyboard-response,201,595936,0.0-15.0-1.18,98716,List2A,black,man,,,,null,,,,
null,is kissing,,html-keyboard-response,202,598946,0.0-15.0-2.18,98716,List2A,black,man,,,,null,,,,
3542,,,survey-text,203,602493,0.0-15.0-3.18,98716,List2A,black,man,,,,,"{""Q0"":""Luke ruth""}","<img src=""stim_listA/kiss1.gif""</stim_listA>",is kissing,
null,"<div style=""font-size:60px;"">+</div>",,html-keyboard-response,204,603000,0.0-15.0-0.19,98716,List2A,black,man,,,,null,,,,
null,"<img src=""stim_listA/marry6.gif""</stim_listA>",,html-keyboard-response,205,605917,0.0-15.0-1.19,98716,List2A,black,man,,,,null,,,,
null,are marrying each other,,html-keyboard-response,206,608915,0.0-15.0-2.19,98716,List2A,black,man,,,,null,,,,
5113,,,survey-text,207,614032,0.0-15.0-3.19,98716,List2A,black,man,,,,,"{""Q0"":""Luke mike""}","<img src=""stim_listA/marry6.gif""</stim_listA>",are marrying each other,
3878,"<img src='img/portrait_matrix_list2.JPG' style='width:900px;height:500px;''></img><p>If you have memorised all the portraits and names and are ready to start, press Continue.</p><p><strong>Please note: Your memory of these faces will be tested 4 times during this experiment.</strong></p>",0,html-button-response,208,617917,0.0-16.0-0.0,98716,List2A,black,man,,,,,,,,
4237,"<img src=""portrait/WM1.jpg""style=""width:400px;height:400px;""></img>",6,html-button-response,209,623168,0.0-16.0-1.0,98716,List2A,black,man,,TRUE,6,,,,,
null,CORRECT,,html-keyboard-response,210,624674,0.0-16.0-2.0-0.0,98716,List2A,black,man,,,,null,,,,
3989,"<img src=""portrait/WM2.jpg""style=""width:400px;height:400px;""></img>",7,html-button-response,211,628673,0.0-16.0-4.0,98716,List2A,black,man,,TRUE,7,,,,,
null,CORRECT,,html-keyboard-response,212,630196,0.0-16.0-5.0-0.0,98716,List2A,black,man,,,,null,,,,
4404,"<img src=""portrait/BM1.jpg""style=""width:400px;height:400px;""></img>",4,html-button-response,213,634614,0.0-16.0-7.0,98716,List2A,black,man,,TRUE,4,,,,,
null,CORRECT,,html-keyboard-response,214,636137,0.0-16.0-8.0-0.0,98716,List2A,black,man,,,,null,,,,
3098,"<img src=""portrait/WW2.jpg""style=""width:400px;height:400px;""></img>",3,html-button-response,215,639248,0.0-16.0-10.0,98716,List2A,black,man,,TRUE,3,,,,,
null,CORRECT,,html-keyboard-response,216,640762,0.0-16.0-11.0-0.0,98716,List2A,black,man,,,,null,,,,
4310,"<img src=""portrait/WW1.jpg""style=""width:400px;height:400px;""></img>",1,html-button-response,217,645082,0.0-16.0-13.0,98716,List2A,black,man,,TRUE,1,,,,,
null,CORRECT,,html-keyboard-response,218,646603,0.0-16.0-14.0-0.0,98716,List2A,black,man,,,,null,,,,
5409,"<img src=""portrait/BW2.jpg""style=""width:400px;height:400px;""></img>",2,html-button-response,219,652025,0.0-16.0-16.0,98716,List2A,black,man,,TRUE,2,,,,,
null,CORRECT,,html-keyboard-response,220,653538,0.0-16.0-17.0-0.0,98716,List2A,black,man,,,,null,,,,
4473,"<img src=""portrait/BM2.jpg""style=""width:400px;height:400px;""></img>",5,html-button-response,221,658025,0.0-16.0-19.0,98716,List2A,black,man,,TRUE,5,,,,,
null,CORRECT,,html-keyboard-response,222,659537,0.0-16.0-20.0-0.0,98716,List2A,black,man,,,,null,,,,
4234,"<img src=""portrait/BW1.jpg""style=""width:400px;height:400px;""></img>",0,html-button-response,223,663780,0.0-16.0-22.0,98716,List2A,black,man,,TRUE,0,,,,,
null,CORRECT,,html-keyboard-response,224,665300,0.0-16.0-23.0-0.0,98716,List2A,black,man,,,,null,,,,
1332,<p>You got 8 out of 8 right first time. Press Continue.</p>,0,html-button-response,225,666644,0.0-16.0-25.0,98716,List2A,black,man,,,,,,,,
null,"<div style=""font-size:60px;"">+</div>",,html-keyboard-response,226,668162,0.0-17.0-0.0,98716,List2A,black,man,,,,null,,,,
null,"<img src=""stim_listA/meet1.gif""</stim_listA>",,html-keyboard-response,227,670908,0.0-17.0-1.0,98716,List2A,black,man,,,,null,,,,
null,is meeting,,html-keyboard-response,228,673800,0.0-17.0-2.0,98716,List2A,black,man,,,,null,,,,
3415,,,survey-text,229,677220,0.0-17.0-3.0,98716,List2A,black,man,,,,,"{""Q0"":""Dave ruth""}","<img src=""stim_listA/meet1.gif""</stim_listA>",is meeting,
null,"<div style=""font-size:60px;"">+</div>",,html-keyboard-response,230,677728,0.0-17.0-0.1,98716,List2A,black,man,,,,null,,,,
null,"<img src=""stim_listA/dance4.gif""</stim_listA>",,html-keyboard-response,231,679934,0.0-17.0-1.1,98716,List2A,black,man,,,,null,,,,
null,are dancing with each other,,html-keyboard-response,232,682573,0.0-17.0-2.1,98716,List2A,black,man,,,,null,,,,
3667,,,survey-text,233,686243,0.0-17.0-3.1,98716,List2A,black,man,,,,,"{""Q0"":""Beth and mike""}","<img src=""stim_listA/dance4.gif""</stim_listA>",are dancing with each other,
null,"<div style=""font-size:60px;"">+</div>",,html-keyboard-response,234,686748,0.0-17.0-0.2,98716,List2A,black,man,,,,null,,,,
null,"<img src=""stim_listA/hug3.gif""</stim_listA>",,html-keyboard-response,235,688756,0.0-17.0-1.2,98716,List2A,black,man,,,,null,,,,
null,is hugging,,html-keyboard-response,236,690909,0.0-17.0-2.2,98716,List2A,black,man,,,,null,,,,
5180,,,survey-text,237,696095,0.0-17.0-3.2,98716,List2A,black,man,,,,,"{""Q0"":""Beth fred""}","<img src=""stim_listA/hug3.gif""</stim_listA>",is hugging,
null,"<div style=""font-size:60px;"">+</div>",,html-keyboard-response,238,696603,0.0-17.0-0.3,98716,List2A,black,man,,,,null,,,,
null,"<img src=""stim_listA/talk6.gif""</stim_listA>",,html-keyboard-response,239,698930,0.0-17.0-1.3,98716,List2A,black,man,,,,null,,,,
null,are talking to each other,,html-keyboard-response,240,700936,0.0-17.0-2.3,98716,List2A,black,man,,,,null,,,,
3943,,,survey-text,241,704882,0.0-17.0-3.3,98716,List2A,black,man,,,,,"{""Q0"":""Fred and dave""}","<img src=""stim_listA/talk6.gif""</stim_listA>",are talking to each other,
null,"<div style=""font-size:60px;"">+</div>",,html-keyboard-response,242,705388,0.0-17.0-0.4,98716,List2A,black,man,,,,null,,,,
null,"<img src=""stim_listA/shout3.gif""</stim_listA>",,html-keyboard-response,243,707394,0.0-17.0-1.4,98716,List2A,black,man,,,,null,,,,
null,is shouting at,,html-keyboard-response,244,709940,0.0-17.0-2.4,98716,List2A,black,man,,,,null,,,,
3523,,,survey-text,245,713468,0.0-17.0-3.4,98716,List2A,black,man,,,,,"{""Q0"":""Beth fred""}","<img src=""stim_listA/shout3.gif""</stim_listA>",is shouting at,
null,"<div style=""font-size:60px;"">+</div>",,html-keyboard-response,246,713975,0.0-17.0-0.5,98716,List2A,black,man,,,,null,,,,
null,"<img src=""stim_listA/meet2.gif""</stim_listA>",,html-keyboard-response,247,715991,0.0-17.0-1.5,98716,List2A,black,man,,,,null,,,,
null,are meeting each other,,html-keyboard-response,248,718929,0.0-17.0-2.5,98716,List2A,black,man,,,,null,,,,
4824,,,survey-text,249,723758,0.0-17.0-3.5,98716,List2A,black,man,,,,,"{""Q0"":""Luke ruth""}","<img src=""stim_listA/meet2.gif""</stim_listA>",are meeting each other,
null,"<div style=""font-size:60px;"">+</div>",,html-keyboard-response,250,724266,0.0-17.0-0.6,98716,List2A,black,man,,,,null,,,,
null,"<img src=""stim_listA/fight2.gif""</stim_listA>",,html-keyboard-response,251,726921,0.0-17.0-1.6,98716,List2A,black,man,,,,null,,,,
null,are fighting each other,,html-keyboard-response,252,729908,0.0-17.0-2.6,98716,List2A,black,man,,,,null,,,,
3516,,,survey-text,253,733428,0.0-17.0-3.6,98716,List2A,black,man,,,,,"{""Q0"":""Luke ruth""}","<img src=""stim_listA/fight2.gif""</stim_listA>",are fighting each other,
null,"<div style=""font-size:60px;"">+</div>",,html-keyboard-response,254,733933,0.0-17.0-0.7,98716,List2A,black,man,,,,null,,,,
null,"<img src=""stim_listA/kiss5.gif""</stim_listA>",,html-keyboard-response,255,736928,0.0-17.0-1.7,98716,List2A,black,man,,,,null,,,,
null,is kissing,,html-keyboard-response,256,738934,0.0-17.0-2.7,98716,List2A,black,man,,,,null,,,,
3154,,,survey-text,257,742094,0.0-17.0-3.7,98716,List2A,black,man,,,,,"{""Q0"":""Luke fred""}","<img src=""stim_listA/kiss5.gif""</stim_listA>",is kissing,
null,"<div style=""font-size:60px;"">+</div>",,html-keyboard-response,258,742602,0.0-17.0-0.8,98716,List2A,black,man,,,,null,,,,
null,"<img src=""stim_listA/talk4.gif""</stim_listA>",,html-keyboard-response,259,744913,0.0-17.0-1.8,98716,List2A,black,man,,,,null,,,,
null,are talking to each other,,html-keyboard-response,260,747876,0.0-17.0-2.8,98716,List2A,black,man,,,,null,,,,
3655,,,survey-text,261,751534,0.0-17.0-3.8,98716,List2A,black,man,,,,,"{""Q0"":""Beth and mike""}","<img src=""stim_listA/talk4.gif""</stim_listA>",are talking to each other,
null,"<div style=""font-size:60px;"">+</div>",,html-keyboard-response,262,752042,0.0-17.0-0.9,98716,List2A,black,man,,,,null,,,,
null,"<img src=""stim_listA/fight3.gif""</stim_listA>",,html-keyboard-response,263,754050,0.0-17.0-1.9,98716,List2A,black,man,,,,null,,,,
null,is fighting,,html-keyboard-response,264,756946,0.0-17.0-2.9,98716,List2A,black,man,,,,null,,,,
3258,,,survey-text,265,760209,0.0-17.0-3.9,98716,List2A,black,man,,,,,"{""Q0"":""Mike kate""}","<img src=""stim_listA/fight3.gif""</stim_listA>",is fighting,
null,"<div style=""font-size:60px;"">+</div>",,html-keyboard-response,266,760720,0.0-17.0-0.10,98716,List2A,black,man,,,,null,,,,
null,"<img src=""stim_listA/hug7.gif""</stim_listA>",,html-keyboard-response,267,762938,0.0-17.0-1.10,98716,List2A,black,man,,,,null,,,,
null,is hugging,,html-keyboard-response,268,765913,0.0-17.0-2.10,98716,List2A,black,man,,,,null,,,,
4187,,,survey-text,269,770107,0.0-17.0-3.10,98716,List2A,black,man,,,,,"{""Q0"":""Beth and ruth""}","<img src=""stim_listA/hug7.gif""</stim_listA>",is hugging,
null,"<div style=""font-size:60px;"">+</div>",,html-keyboard-response,270,770613,0.0-17.0-0.11,98716,List2A,black,man,,,,null,,,,
null,"<img src=""stim_listA/meet3.gif""</stim_listA>",,html-keyboard-response,271,772946,0.0-17.0-1.11,98716,List2A,black,man,,,,null,,,,
null,is meeting,,html-keyboard-response,272,774949,0.0-17.0-2.11,98716,List2A,black,man,,,,null,,,,
3862,,,survey-text,273,778815,0.0-17.0-3.11,98716,List2A,black,man,,,,,"{""Q0"":""Kate and mike""}","<img src=""stim_listA/meet3.gif""</stim_listA>",is meeting,
null,"<div style=""font-size:60px;"">+</div>",,html-keyboard-response,274,779326,0.0-17.0-0.12,98716,List2A,black,man,,,,null,,,,
null,"<img src=""stim_listA/argue2.gif""</stim_listA>",,html-keyboard-response,275,781334,0.0-17.0-1.12,98716,List2A,black,man,,,,null,,,,
null,are arguing with each other,,html-keyboard-response,276,783946,0.0-17.0-2.12,98716,List2A,black,man,,,,null,,,,
6591,,,survey-text,277,790542,0.0-17.0-3.12,98716,List2A,black,man,,,,,"{""Q0"":""Jane.and luke""}","<img src=""stim_listA/argue2.gif""</stim_listA>",are arguing with each other,
null,"<div style=""font-size:60px;"">+</div>",,html-keyboard-response,278,791048,0.0-17.0-0.13,98716,List2A,black,man,,,,null,,,,
null,"<img src=""stim_listA/meet4.gif""</stim_listA>",,html-keyboard-response,279,793908,0.0-17.0-1.13,98716,List2A,black,man,,,,null,,,,
null,are meeting each other,,html-keyboard-response,280,795915,0.0-17.0-2.13,98716,List2A,black,man,,,,null,,,,
4171,,,survey-text,281,800091,0.0-17.0-3.13,98716,List2A,black,man,,,,,"{""Q0"":""Beth and fred""}","<img src=""stim_listA/meet4.gif""</stim_listA>",are meeting each other,
null,"<div style=""font-size:60px;"">+</div>",,html-keyboard-response,282,800595,0.0-17.0-0.14,98716,List2A,black,man,,,,null,,,,
null,"<img src=""stim_listA/marry2.gif""</stim_listA>",,html-keyboard-response,283,802599,0.0-17.0-1.14,98716,List2A,black,man,,,,null,,,,
null,are marrying each other,,html-keyboard-response,284,804907,0.0-17.0-2.14,98716,List2A,black,man,,,,null,,,,
8796,,,survey-text,285,813709,0.0-17.0-3.14,98716,List2A,black,man,,,,,"{""Q0"":""Jane and luke""}","<img src=""stim_listA/marry2.gif""</stim_listA>",are marrying each other,
null,"<div style=""font-size:60px;"">+</div>",,html-keyboard-response,286,814217,0.0-17.0-0.15,98716,List2A,black,man,,,,null,,,,
null,"<img src=""stim_listA/argue8.gif""</stim_listA>",,html-keyboard-response,287,816946,0.0-17.0-1.15,98716,List2A,black,man,,,,null,,,,
null,are arguing with each other,,html-keyboard-response,288,818949,0.0-17.0-2.15,98716,List2A,black,man,,,,null,,,,
3813,,,survey-text,289,822766,0.0-17.0-3.15,98716,List2A,black,man,,,,,"{""Q0"":""Kate and ruth""}","<img src=""stim_listA/argue8.gif""</stim_listA>",are arguing with each other,
null,"<div style=""font-size:60px;"">+</div>",,html-keyboard-response,290,823276,0.0-17.0-0.16,98716,List2A,black,man,,,,null,,,,
null,"<img src=""stim_listA/touch1.gif""</stim_listA>",,html-keyboard-response,291,825290,0.0-17.0-1.16,98716,List2A,black,man,,,,null,,,,
null,is touching,,html-keyboard-response,292,827946,0.0-17.0-2.16,98716,List2A,black,man,,,,null,,,,
5552,,,survey-text,293,833503,0.0-17.0-3.16,98716,List2A,black,man,,,,,"{""Q0"":""Dave and ruth""}","<img src=""stim_listA/touch1.gif""</stim_listA>",is touching,
null,"<div style=""font-size:60px;"">+</div>",,html-keyboard-response,294,834011,0.0-17.0-0.17,98716,List2A,black,man,,,,null,,,,
null,"<img src=""stim_listA/hug5.gif""</stim_listA>",,html-keyboard-response,295,836947,0.0-17.0-1.17,98716,List2A,black,man,,,,null,,,,
null,is hugging,,html-keyboard-response,296,839513,0.0-17.0-2.17,98716,List2A,black,man,,,,null,,,,
3764,,,survey-text,297,843282,0.0-17.0-3.17,98716,List2A,black,man,,,,,"{""Q0"":""Luke and fred""}","<img src=""stim_listA/hug5.gif""</stim_listA>",is hugging,
null,"<div style=""font-size:60px;"">+</div>",,html-keyboard-response,298,843789,0.0-17.0-0.18,98716,List2A,black,man,,,,null,,,,
null,"<img src=""stim_listA/touch6.gif""</stim_listA>",,html-keyboard-response,299,845921,0.0-17.0-1.18,98716,List2A,black,man,,,,null,,,,
null,are touching each other,,html-keyboard-response,300,847926,0.0-17.0-2.18,98716,List2A,black,man,,,,null,,,,
4005,,,survey-text,301,851940,0.0-17.0-3.18,98716,List2A,black,man,,,,,"{""Q0"":""Luke and fred""}","<img src=""stim_listA/touch6.gif""</stim_listA>",are touching each other,
null,"<div style=""font-size:60px;"">+</div>",,html-keyboard-response,302,852447,0.0-17.0-0.19,98716,List2A,black,man,,,,null,,,,
null,"<img src=""stim_listA/fight1.gif""</stim_listA>",,html-keyboard-response,303,854946,0.0-17.0-1.19,98716,List2A,black,man,,,,null,,,,
null,is fighting,,html-keyboard-response,304,857082,0.0-17.0-2.19,98716,List2A,black,man,,,,null,,,,
3404,,,survey-text,305,860489,0.0-17.0-3.19,98716,List2A,black,man,,,,,"{""Q0"":""Dave and jane""}","<img src=""stim_listA/fight1.gif""</stim_listA>",is fighting,
2194,"<img src='img/portrait_matrix_list2.JPG' style='width:900px;height:500px;''></img><p>If you have memorised all the portraits and names and are ready to start, press Continue.</p><p><strong>Please note: Your memory of these faces will be tested 4 times during this experiment.</strong></p>",0,html-button-response,306,862687,0.0-18.0-0.0,98716,List2A,black,man,,,,,,,,
4846,"<img src=""portrait/WM1.jpg""style=""width:400px;height:400px;""></img>",6,html-button-response,307,868557,0.0-18.0-1.0,98716,List2A,black,man,,TRUE,6,,,,,
null,CORRECT,,html-keyboard-response,308,870929,0.0-18.0-2.0-0.0,98716,List2A,black,man,,,,null,,,,
4384,"<img src=""portrait/WW2.jpg""style=""width:400px;height:400px;""></img>",3,html-button-response,309,875327,0.0-18.0-4.0,98716,List2A,black,man,,TRUE,3,,,,,
null,CORRECT,,html-keyboard-response,310,876837,0.0-18.0-5.0-0.0,98716,List2A,black,man,,,,null,,,,
5829,"<img src=""portrait/WW1.jpg""style=""width:400px;height:400px;""></img>",1,html-button-response,311,882683,0.0-18.0-7.0,98716,List2A,black,man,,TRUE,1,,,,,
null,CORRECT,,html-keyboard-response,312,884203,0.0-18.0-8.0-0.0,98716,List2A,black,man,,,,null,,,,
5468,"<img src=""portrait/BW2.jpg""style=""width:400px;height:400px;""></img>",2,html-button-response,313,889686,0.0-18.0-10.0,98716,List2A,black,man,,TRUE,2,,,,,
null,CORRECT,,html-keyboard-response,314,891197,0.0-18.0-11.0-0.0,98716,List2A,black,man,,,,null,,,,
5597,"<img src=""portrait/BW1.jpg""style=""width:400px;height:400px;""></img>",0,html-button-response,315,896807,0.0-18.0-13.0,98716,List2A,black,man,,TRUE,0,,,,,
null,CORRECT,,html-keyboard-response,316,898336,0.0-18.0-14.0-0.0,98716,List2A,black,man,,,,null,,,,
3981,"<img src=""portrait/WM2.jpg""style=""width:400px;height:400px;""></img>",7,html-button-response,317,902332,0.0-18.0-16.0,98716,List2A,black,man,,TRUE,7,,,,,
null,CORRECT,,html-keyboard-response,318,903849,0.0-18.0-17.0-0.0,98716,List2A,black,man,,,,null,,,,
4873,"<img src=""portrait/BM2.jpg""style=""width:400px;height:400px;""></img>",5,html-button-response,319,908740,0.0-18.0-19.0,98716,List2A,black,man,,TRUE,5,,,,,
null,CORRECT,,html-keyboard-response,320,910258,0.0-18.0-20.0-0.0,98716,List2A,black,man,,,,null,,,,
2336,"<img src=""portrait/BM1.jpg""style=""width:400px;height:400px;""></img>",4,html-button-response,321,912631,0.0-18.0-22.0,98716,List2A,black,man,,TRUE,4,,,,,
null,CORRECT,,html-keyboard-response,322,914149,0.0-18.0-23.0-0.0,98716,List2A,black,man,,,,null,,,,
1009,<p>You got 8 out of 8 right first time. Press Continue.</p>,0,html-button-response,323,915168,0.0-18.0-25.0,98716,List2A,black,man,,,,,,,,
null,"<div style=""font-size:60px;"">+</div>",,html-keyboard-response,324,916688,0.0-19.0-0.0,98716,List2A,black,man,,,,null,,,,
null,"<img src=""stim_listA/talk7.gif""</stim_listA>",,html-keyboard-response,325,918692,0.0-19.0-1.0,98716,List2A,black,man,,,,null,,,,
null,is talking to,,html-keyboard-response,326,920696,0.0-19.0-2.0,98716,List2A,black,man,,,,null,,,,
2574,,,survey-text,327,923277,0.0-19.0-3.0,98716,List2A,black,man,,,,,"{""Q0"":""?""}","<img src=""stim_listA/talk7.gif""</stim_listA>",is talking to,
null,"<div style=""font-size:60px;"">+</div>",,html-keyboard-response,328,923781,0.0-19.0-0.1,98716,List2A,black,man,,,,null,,,,
null,"<img src=""stim_listA/shout6.gif""</stim_listA>",,html-keyboard-response,329,925946,0.0-19.0-1.1,98716,List2A,black,man,,,,null,,,,
null,are shouting at each other,,html-keyboard-response,330,928741,0.0-19.0-2.1,98716,List2A,black,man,,,,null,,,,
3477,,,survey-text,331,932221,0.0-19.0-3.1,98716,List2A,black,man,,,,,"{""Q0"":""Mike and dave""}","<img src=""stim_listA/shout6.gif""</stim_listA>",are shouting at each other,
null,"<div style=""font-size:60px;"">+</div>",,html-keyboard-response,332,932724,0.0-19.0-0.2,98716,List2A,black,man,,,,null,,,,
null,"<img src=""stim_listA/marry1.gif""</stim_listA>",,html-keyboard-response,333,934940,0.0-19.0-1.2,98716,List2A,black,man,,,,null,,,,
null,is marrying,,html-keyboard-response,334,937915,0.0-19.0-2.2,98716,List2A,black,man,,,,null,,,,
4129,,,survey-text,335,942048,0.0-19.0-3.2,98716,List2A,black,man,,,,,"{""Q0"":""Dave and ruth""}","<img src=""stim_listA/marry1.gif""</stim_listA>",is marrying,
null,"<div style=""font-size:60px;"">+</div>",,html-keyboard-response,336,942554,0.0-19.0-0.3,98716,List2A,black,man,,,,null,,,,
null,"<img src=""stim_listA/talk5.gif""</stim_listA>",,html-keyboard-response,337,944927,0.0-19.0-1.3,98716,List2A,black,man,,,,null,,,,
null,is talking to,,html-keyboard-response,338,947387,0.0-19.0-2.3,98716,List2A,black,man,,,,null,,,,
3729,,,survey-text,339,951119,0.0-19.0-3.3,98716,List2A,black,man,,,,,"{""Q0"":""Mike and luke""}","<img src=""stim_listA/talk5.gif""</stim_listA>",is talking to,
null,"<div style=""font-size:60px;"">+</div>",,html-keyboard-response,340,951624,0.0-19.0-0.4,98716,List2A,black,man,,,,null,,,,
null,"<img src=""stim_listA/kiss7.gif""</stim_listA>",,html-keyboard-response,341,953917,0.0-19.0-1.4,98716,List2A,black,man,,,,null,,,,
null,is kissing,,html-keyboard-response,342,956334,0.0-19.0-2.4,98716,List2A,black,man,,,,null,,,,
3415,,,survey-text,343,959752,0.0-19.0-3.4,98716,List2A,black,man,,,,,"{""Q0"":""Ruth and beth""}","<img src=""stim_listA/kiss7.gif""</stim_listA>",is kissing,
null,"<div style=""font-size:60px;"">+</div>",,html-keyboard-response,344,960259,0.0-19.0-0.5,98716,List2A,black,man,,,,null,,,,
null,"<img src=""stim_listA/kiss2.gif""</stim_listA>",,html-keyboard-response,345,962906,0.0-19.0-1.5,98716,List2A,black,man,,,,null,,,,
null,are kissing each other,,html-keyboard-response,346,965910,0.0-19.0-2.5,98716,List2A,black,man,,,,null,,,,
4410,,,survey-text,347,970325,0.0-19.0-3.5,98716,List2A,black,man,,,,,"{""Q0"":""Dave and jane""}","<img src=""stim_listA/kiss2.gif""</stim_listA>",are kissing each other,
null,"<div style=""font-size:60px;"">+</div>",,html-keyboard-response,348,970830,0.0-19.0-0.6,98716,List2A,black,man,,,,null,,,,
null,"<img src=""stim_listA/meet5.gif""</stim_listA>",,html-keyboard-response,349,972846,0.0-19.0-1.6,98716,List2A,black,man,,,,null,,,,
null,is meeting,,html-keyboard-response,350,974908,0.0-19.0-2.6,98716,List2A,black,man,,,,null,,,,
5035,,,survey-text,351,979949,0.0-19.0-3.6,98716,List2A,black,man,,,,,"{""Q0"":""Mike and beth""}","<img src=""stim_listA/meet5.gif""</stim_listA>",is meeting,
null,"<div style=""font-size:60px;"">+</div>",,html-keyboard-response,352,980453,0.0-19.0-0.7,98716,List2A,black,man,,,,null,,,,
null,"<img src=""stim_listA/argue6.gif""</stim_listA>",,html-keyboard-response,353,982925,0.0-19.0-1.7,98716,List2A,black,man,,,,null,,,,
null,are arguing with each other,,html-keyboard-response,354,984929,0.0-19.0-2.7,98716,List2A,black,man,,,,null,,,,
3775,,,survey-text,355,988708,0.0-19.0-3.7,98716,List2A,black,man,,,,,"{""Q0"":""Mike and luke""}","<img src=""stim_listA/argue6.gif""</stim_listA>",are arguing with each other,
null,"<div style=""font-size:60px;"">+</div>",,html-keyboard-response,356,989214,0.0-19.0-0.8,98716,List2A,black,man,,,,null,,,,
null,"<img src=""stim_listA/hug8.gif""</stim_listA>",,html-keyboard-response,357,991914,0.0-19.0-1.8,98716,List2A,black,man,,,,null,,,,
null,are hugging each other,,html-keyboard-response,358,993917,0.0-19.0-2.8,98716,List2A,black,man,,,,null,,,,
3087,,,survey-text,359,997008,0.0-19.0-3.8,98716,List2A,black,man,,,,,"{""Q0"":""Jane kate""}","<img src=""stim_listA/hug8.gif""</stim_listA>",are hugging each other,
null,"<div style=""font-size:60px;"">+</div>",,html-keyboard-response,360,997516,0.0-19.0-0.9,98716,List2A,black,man,,,,null,,,,
null,"<img src=""stim_listA/argue7.gif""</stim_listA>",,html-keyboard-response,361,999524,0.0-19.0-1.9,98716,List2A,black,man,,,,null,,,,
null,is arguing with,,html-keyboard-response,362,1001933,0.0-19.0-2.9,98716,List2A,black,man,,,,null,,,,
32382,,,survey-text,363,1034328,0.0-19.0-3.9,98716,List2A,black,man,,,,,"{""Q0"":""Missed""}","<img src=""stim_listA/argue7.gif""</stim_listA>",is arguing with,
null,"<div style=""font-size:60px;"">+</div>",,html-keyboard-response,364,1034831,0.0-19.0-0.10,98716,List2A,black,man,,,,null,,,,
null,"<img src=""stim_listA/dance6.gif""</stim_listA>",,html-keyboard-response,365,1037291,0.0-19.0-1.10,98716,List2A,black,man,,,,null,,,,
null,are dancing with each other,,html-keyboard-response,366,1040273,0.0-19.0-2.10,98716,List2A,black,man,,,,null,,,,
5019,,,survey-text,367,1045296,0.0-19.0-3.10,98716,List2A,black,man,,,,,"{""Q0"":""Feed and dave""}","<img src=""stim_listA/dance6.gif""</stim_listA>",are dancing with each other,
null,"<div style=""font-size:60px;"">+</div>",,html-keyboard-response,368,1045806,0.0-19.0-0.11,98716,List2A,black,man,,,,null,,,,
null,"<img src=""stim_listA/kiss3.gif""</stim_listA>",,html-keyboard-response,369,1047818,0.0-19.0-1.11,98716,List2A,black,man,,,,null,,,,
null,is kissing,,html-keyboard-response,370,1049824,0.0-19.0-2.11,98716,List2A,black,man,,,,null,,,,
4604,,,survey-text,371,1054432,0.0-19.0-3.11,98716,List2A,black,man,,,,,"{""Q0"":""Fred""}","<img src=""stim_listA/kiss3.gif""</stim_listA>",is kissing,
null,"<div style=""font-size:60px;"">+</div>",,html-keyboard-response,372,1054937,0.0-19.0-0.12,98716,List2A,black,man,,,,null,,,,
null,"<img src=""stim_listA/shout1.gif""</stim_listA>",,html-keyboard-response,373,1057292,0.0-19.0-1.12,98716,List2A,black,man,,,,null,,,,
null,is shouting at,,html-keyboard-response,374,1059943,0.0-19.0-2.12,98716,List2A,black,man,,,,null,,,,
3357,,,survey-text,375,1063305,0.0-19.0-3.12,98716,List2A,black,man,,,,,"{""Q0"":""Ruth and luke""}","<img src=""stim_listA/shout1.gif""</stim_listA>",is shouting at,
null,"<div style=""font-size:60px;"">+</div>",,html-keyboard-response,376,1063814,0.0-19.0-0.13,98716,List2A,black,man,,,,null,,,,
null,"<img src=""stim_listA/fight7.gif""</stim_listA>",,html-keyboard-response,377,1066251,0.0-19.0-1.13,98716,List2A,black,man,,,,null,,,,
null,is fighting,,html-keyboard-response,378,1069186,0.0-19.0-2.13,98716,List2A,black,man,,,,null,,,,
2766,,,survey-text,379,1071955,0.0-19.0-3.13,98716,List2A,black,man,,,,,"{""Q0"":""Jane kate""}","<img src=""stim_listA/fight7.gif""</stim_listA>",is fighting,
null,"<div style=""font-size:60px;"">+</div>",,html-keyboard-response,380,1072463,0.0-19.0-0.14,98716,List2A,black,man,,,,null,,,,
null,"<img src=""stim_listA/dance5.gif""</stim_listA>",,html-keyboard-response,381,1075284,0.0-19.0-1.14,98716,List2A,black,man,,,,null,,,,
null,is dancing with,,html-keyboard-response,382,1077287,0.0-19.0-2.14,98716,List2A,black,man,,,,null,,,,
3186,,,survey-text,383,1080476,0.0-19.0-3.14,98716,List2A,black,man,,,,,"{""Q0"":""Luke and mike""}","<img src=""stim_listA/dance5.gif""</stim_listA>",is dancing with,
null,"<div style=""font-size:60px;"">+</div>",,html-keyboard-response,384,1080983,0.0-19.0-0.15,98716,List2A,black,man,,,,null,,,,
null,"<img src=""stim_listA/touch8.gif""</stim_listA>",,html-keyboard-response,385,1083291,0.0-19.0-1.15,98716,List2A,black,man,,,,null,,,,
null,are touching each other,,html-keyboard-response,386,1085891,0.0-19.0-2.15,98716,List2A,black,man,,,,null,,,,
2703,,,survey-text,387,1088598,0.0-19.0-3.15,98716,List2A,black,man,,,,,"{""Q0"":""Beth ruth""}","<img src=""stim_listA/touch8.gif""</stim_listA>",are touching each other,
null,"<div style=""font-size:60px;"">+</div>",,html-keyboard-response,388,1089105,0.0-19.0-0.16,98716,List2A,black,man,,,,null,,,,
null,"<img src=""stim_listA/shout8.gif""</stim_listA>",,html-keyboard-response,389,1091108,0.0-19.0-1.16,98716,List2A,black,man,,,,null,,,,
null,are shouting at each other,,html-keyboard-response,390,1093255,0.0-19.0-2.16,98716,List2A,black,man,,,,null,,,,
5778,,,survey-text,391,1099042,0.0-19.0-3.16,98716,List2A,black,man,,,,,"{""Q0"":""Kate jane""}","<img src=""stim_listA/shout8.gif""</stim_listA>",are shouting at each other,
null,"<div style=""font-size:60px;"">+</div>",,html-keyboard-response,392,1099551,0.0-19.0-0.17,98716,List2A,black,man,,,,null,,,,
null,"<img src=""stim_listA/meet7.gif""</stim_listA>",,html-keyboard-response,393,1101558,0.0-19.0-1.17,98716,List2A,black,man,,,,null,,,,
null,is meeting,,html-keyboard-response,394,1103559,0.0-19.0-2.17,98716,List2A,black,man,,,,null,,,,
3974,,,survey-text,395,1107537,0.0-19.0-3.17,98716,List2A,black,man,,,,,"{""Q0"":""Kate and jane""}","<img src=""stim_listA/meet7.gif""</stim_listA>",is meeting,
null,"<div style=""font-size:60px;"">+</div>",,html-keyboard-response,396,1108042,0.0-19.0-0.18,98716,List2A,black,man,,,,null,,,,
null,"<img src=""stim_listA/talk8.gif""</stim_listA>",,html-keyboard-response,397,1110254,0.0-19.0-1.18,98716,List2A,black,man,,,,null,,,,
null,are talking to each other,,html-keyboard-response,398,1113290,0.0-19.0-2.18,98716,List2A,black,man,,,,null,,,,
3964,,,survey-text,399,1117258,0.0-19.0-3.18,98716,List2A,black,man,,,,,"{""Q0"":""Beth and jane""}","<img src=""stim_listA/talk8.gif""</stim_listA>",are talking to each other,
null,"<div style=""font-size:60px;"">+</div>",,html-keyboard-response,400,1117765,0.0-19.0-0.19,98716,List2A,black,man,,,,null,,,,
null,"<img src=""stim_listA/hug1.gif""</stim_listA>",,html-keyboard-response,401,1120281,0.0-19.0-1.19,98716,List2A,black,man,,,,null,,,,
null,is hugging,,html-keyboard-response,402,1122703,0.0-19.0-2.19,98716,List2A,black,man,,,,null,,,,
2965,,,survey-text,403,1125671,0.0-19.0-3.19,98716,List2A,black,man,,,,,"{""Q0"":""Ruth luke""}","<img src=""stim_listA/hug1.gif""</stim_listA>",is hugging,
1490,<p>Thank you for completing that task.</p><p>The final part of this session is a short questionnaire.</p><p>Press Continue.</p>,0,html-button-response,404,1127169,0.0-20.0,98716,List2A,black,man,,,,,,,,
22869,,,survey-text,405,1151065,0.0-21.0,98716,List2A,black,man,,,,,"{""Q0"":""29"",""Q1"":""English"",""Q2"":""English"",""Q3"":""Canada"",""Q4"":""Nigerian canadian"",""Q5"":""Male""}",,,demographics
18188,,,survey-likert,406,1169291,0.0-22.0,98716,List2A,black,man,,,,,"{""Q0"":4,""Q1"":5,""Q2"":4,""Q3"":5,""Q4"":5,""Q5"":5,""Q6"":5,""Q7"":4,""Q8"":4,""Q9"":5,""Q10"":3,""Q11"":4,""Q12"":4,""Q13"":4}",,,likert_race
15219,,,survey-likert,407,1184546,0.0-23.0,98716,List2A,black,man,,,,,"{""Q0"":5,""Q1"":6,""Q2"":5,""Q3"":5,""Q4"":5,""Q5"":5,""Q6"":5,""Q7"":4,""Q8"":4,""Q9"":5,""Q10"":5,""Q11"":4,""Q12"":4,""Q13"":4}",,,likert_gender
4672,,,survey-text,408,1189227,0.0-24.0,98716,List2A,black,man,,,,,"{""Q0"":""ccc""}",,,worker_id
3035,,,external-html,409,1192652,0.0-25.0,98716,List2A,black,man,debrief.html,,,,,,,
