rt,stimulus,button_pressed,trial_type,trial_index,time_elapsed,internal_node_id,subject,list,ppt_race,ppt_gender,url,first_guess,correct,key_press,responses,image_type,phrase_type,test_part
2392,Welcome to the experiment. Press Continue to begin.,0,html-button-response,0,2397,0.0-0.0,99397,List1B,white,woman,,,,,,,,
123820,,,external-html,1,127437,0.0-1.0,99397,List1B,white,woman,consent.html,,,,,,,
16217,"<p>On the next page, you will see portraits of 8 people and their names.</p><p>Your first task is to take a few minutes to memorise the names of these people.</p><p>You will have to recall their names during the rest of the experiment, so it is</p><p>essential that you try to memorise these people and their names as best as you can.</p><br><p><strong>You will then be tested on your memory of these names and portraits.</strong></p><br><p>The experiment will start after you have completed this memory test.</p><br><p>Ready?</p>",0,html-button-response,2,143655,0.0-2.0,99397,List1B,white,woman,,,,,,,,
95451,"<img src='img/portrait_matrix_list1.JPG' style='width:900px;height:500px;''></img><p>If you have memorised all the portraits and names and are ready to start, press Continue.</p><p><strong>Please note: Your memory of these faces will be tested 4 times during this experiment.</strong></p>",0,html-button-response,3,240114,0.0-3.0-0.0,99397,List1B,white,woman,,,,,,,,
5975,"<img src=""portrait/BW2.jpg""style=""width:400px;height:400px;""></img>",2,html-button-response,4,247095,0.0-3.0-1.0,99397,List1B,white,woman,,TRUE,2,,,,,
null,CORRECT,,html-keyboard-response,5,248604,0.0-3.0-2.0-0.0,99397,List1B,white,woman,,,,null,,,,
3157,"<img src=""portrait/WM1.jpg""style=""width:400px;height:400px;""></img>",6,html-button-response,6,251766,0.0-3.0-4.0,99397,List1B,white,woman,,TRUE,6,,,,,
null,CORRECT,,html-keyboard-response,7,253271,0.0-3.0-5.0-0.0,99397,List1B,white,woman,,,,null,,,,
5420,"<img src=""portrait/WW1.jpg""style=""width:400px;height:400px;""></img>",3,html-button-response,8,258695,0.0-3.0-7.0,99397,List1B,white,woman,,TRUE,1,,,,,
5385,"<img src=""portrait/WW1.jpg""style=""width:400px;height:400px;""></img>",1,html-button-response,9,265085,0.0-3.0-9.0-0.0,99397,List1B,white,woman,,FALSE,1,,,,,
null,CORRECT,,html-keyboard-response,10,266590,0.0-3.0-9.0-1.0-0.0,99397,List1B,white,woman,,,,null,,,,
5908,"<img src=""portrait/BM1.jpg""style=""width:400px;height:400px;""></img>",4,html-button-response,11,272506,0.0-3.0-10.0,99397,List1B,white,woman,,TRUE,4,,,,,
null,CORRECT,,html-keyboard-response,12,274010,0.0-3.0-11.0-0.0,99397,List1B,white,woman,,,,null,,,,
2587,"<img src=""portrait/WM2.jpg""style=""width:400px;height:400px;""></img>",7,html-button-response,13,276603,0.0-3.0-13.0,99397,List1B,white,woman,,TRUE,7,,,,,
null,CORRECT,,html-keyboard-response,14,278108,0.0-3.0-14.0-0.0,99397,List1B,white,woman,,,,null,,,,
12775,"<img src=""portrait/WW2.jpg""style=""width:400px;height:400px;""></img>",3,html-button-response,15,290888,0.0-3.0-16.0,99397,List1B,white,woman,,TRUE,3,,,,,
null,CORRECT,,html-keyboard-response,16,292391,0.0-3.0-17.0-0.0,99397,List1B,white,woman,,,,null,,,,
3559,"<img src=""portrait/BW1.jpg""style=""width:400px;height:400px;""></img>",0,html-button-response,17,295956,0.0-3.0-19.0,99397,List1B,white,woman,,TRUE,0,,,,,
null,CORRECT,,html-keyboard-response,18,297460,0.0-3.0-20.0-0.0,99397,List1B,white,woman,,,,null,,,,
3257,"<img src=""portrait/BM2.jpg""style=""width:400px;height:400px;""></img>",5,html-button-response,19,300721,0.0-3.0-22.0,99397,List1B,white,woman,,TRUE,5,,,,,
null,CORRECT,,html-keyboard-response,20,302226,0.0-3.0-23.0-0.0,99397,List1B,white,woman,,,,null,,,,
2508,<p>You got 7 out of 8 right first time. Press Continue.</p>,0,html-button-response,21,304737,0.0-3.0-25.0,99397,List1B,white,woman,,,,,,,,
4102,"As you did not score 100%, the memory game will repeat. Press Continue.",0,html-button-response,22,309844,0.0-3.0-26.0-0.0,99397,List1B,white,woman,,,,,,,,
26305,"<img src='img/portrait_matrix_list1.JPG' style='width:900px;height:500px;''></img><p>If you have memorised all the portraits and names and are ready to start, press Continue.</p><p><strong>Please note: Your memory of these faces will be tested 4 times during this experiment.</strong></p>",0,html-button-response,23,337156,0.0-3.1-0.1,99397,List1B,white,woman,,,,,,,,
2746,"<img src=""portrait/BW2.jpg""style=""width:400px;height:400px;""></img>",2,html-button-response,24,340908,0.0-3.1-1.1,99397,List1B,white,woman,,TRUE,2,,,,,
null,CORRECT,,html-keyboard-response,25,342413,0.0-3.1-2.1-0.1,99397,List1B,white,woman,,,,null,,,,
6087,"<img src=""portrait/WM1.jpg""style=""width:400px;height:400px;""></img>",6,html-button-response,26,348507,0.0-3.1-4.1,99397,List1B,white,woman,,TRUE,6,,,,,
null,CORRECT,,html-keyboard-response,27,350012,0.0-3.1-5.1-0.1,99397,List1B,white,woman,,,,null,,,,
4797,"<img src=""portrait/WW1.jpg""style=""width:400px;height:400px;""></img>",1,html-button-response,28,354812,0.0-3.1-7.1,99397,List1B,white,woman,,TRUE,1,,,,,
null,CORRECT,,html-keyboard-response,29,356316,0.0-3.1-8.1-0.1,99397,List1B,white,woman,,,,null,,,,
6324,"<img src=""portrait/BM1.jpg""style=""width:400px;height:400px;""></img>",4,html-button-response,30,362644,0.0-3.1-10.1,99397,List1B,white,woman,,TRUE,4,,,,,
null,CORRECT,,html-keyboard-response,31,364148,0.0-3.1-11.1-0.1,99397,List1B,white,woman,,,,null,,,,
1973,"<img src=""portrait/WM2.jpg""style=""width:400px;height:400px;""></img>",7,html-button-response,32,366127,0.0-3.1-13.1,99397,List1B,white,woman,,TRUE,7,,,,,
null,CORRECT,,html-keyboard-response,33,367632,0.0-3.1-14.1-0.1,99397,List1B,white,woman,,,,null,,,,
1990,"<img src=""portrait/WW2.jpg""style=""width:400px;height:400px;""></img>",3,html-button-response,34,369629,0.0-3.1-16.1,99397,List1B,white,woman,,TRUE,3,,,,,
null,CORRECT,,html-keyboard-response,35,371134,0.0-3.1-17.1-0.1,99397,List1B,white,woman,,,,null,,,,
2948,"<img src=""portrait/BW1.jpg""style=""width:400px;height:400px;""></img>",0,html-button-response,36,374087,0.0-3.1-19.1,99397,List1B,white,woman,,TRUE,0,,,,,
null,CORRECT,,html-keyboard-response,37,375591,0.0-3.1-20.1-0.1,99397,List1B,white,woman,,,,null,,,,
2676,"<img src=""portrait/BM2.jpg""style=""width:400px;height:400px;""></img>",5,html-button-response,38,378272,0.0-3.1-22.1,99397,List1B,white,woman,,TRUE,5,,,,,
null,CORRECT,,html-keyboard-response,39,379778,0.0-3.1-23.1-0.1,99397,List1B,white,woman,,,,null,,,,
2962,<p>You got 8 out of 8 right first time. Press Continue.</p>,0,html-button-response,40,382743,0.0-3.1-25.1,99397,List1B,white,woman,,,,,,,,
50722,"<p>In this experiment, you will view photographs of the people from the memory game interacting.</p><p>By using the <strong>exact</strong> phrase given <i>after</i> the photograph appears and recalling the correct names of the people in the photographs, form a sentence describing the interaction. You do not need to capitalise names.</p><p>Type your answer in the space provided. Please complete every sentence before moving onto the next trial.</p><p>You will only have a few seconds to memorise each given photograph and phrase before you can respond, so try your best to focus.</p><p>An example is given below. Press 'Continue' when you are ready.</p><img src='img/speaking_example_v2.jpg' style='width:800px;height:460px;''></img>",0,html-button-response,41,434471,0.0-4.0,99397,List1B,white,woman,,,,,,,,
3913,"<p>Before the experiment starts, you will watch two example trials. Press 'Continue'.</p>",0,html-button-response,42,439389,0.0-5.0,99397,List1B,white,woman,,,,,,,,
null,<img src='img/speaking_WW.gif'></img>,,html-keyboard-response,43,442394,0.0-6.0,99397,List1B,white,woman,,,,null,,,,
null,<p>is speaking to</p>,,html-keyboard-response,44,444398,0.0-7.0,99397,List1B,white,woman,,,,null,,,,
5302,<p><b>Answer:</b> kate is speaking to beth</p>,0,html-button-response,45,449703,0.0-8.0,99397,List1B,white,woman,,,,,,,,
null,<img src='img/pointing_BM.gif'></img>,,html-keyboard-response,46,452708,0.0-9.0,99397,List1B,white,woman,,,,null,,,,
null,<p>are pointing at each other</p>,,html-keyboard-response,47,454711,0.0-10.0,99397,List1B,white,woman,,,,null,,,,
3282,<p><b>Answer:</b> luke and dave are pointing at each other</p>,0,html-button-response,48,457996,0.0-11.0,99397,List1B,white,woman,,,,,,,,
19317,"<p>Ready to start the experiment?</p><br><p><strong>Remember to describe the picture using a full sentence,</strong></p><p><strong>that combines the names of the people with the given phrase.</strong></p><p><strong>If you do not do this correctly you will not be paid.</strong></p><p><strong> You do not need to capitalise names or use punctuation.</strong></p><br><p>Press 'Continue' to begin.</p>",0,html-button-response,49,478316,0.0-12.0,99397,List1B,white,woman,,,,,,,,
null,"<div style=""font-size:60px;"">+</div>",,html-keyboard-response,50,479821,0.0-13.0-0.0,99397,List1B,white,woman,,,,null,,,,
null,"<img src=""stim_listB/hug5.gif""</stim_listB>",,html-keyboard-response,51,481828,0.0-13.0-1.0,99397,List1B,white,woman,,,,null,,,,
null,is hugging,,html-keyboard-response,52,483832,0.0-13.0-2.0,99397,List1B,white,woman,,,,null,,,,
14075,,,survey-text,53,497913,0.0-13.0-3.0,99397,List1B,white,woman,,,,,"{""Q0"":""Fred is hugging Luke""}","<img src=""stim_listB/hug5.gif""</stim_listB>",is hugging,
null,"<div style=""font-size:60px;"">+</div>",,html-keyboard-response,54,498417,0.0-13.0-0.1,99397,List1B,white,woman,,,,null,,,,
null,"<img src=""stim_listB/marry2.gif""</stim_listB>",,html-keyboard-response,55,500423,0.0-13.0-1.1,99397,List1B,white,woman,,,,null,,,,
null,are marrying each other,,html-keyboard-response,56,502426,0.0-13.0-2.1,99397,List1B,white,woman,,,,null,,,,
14510,,,survey-text,57,516940,0.0-13.0-3.1,99397,List1B,white,woman,,,,,"{""Q0"":""Fred and Kate are marrying each other""}","<img src=""stim_listB/marry2.gif""</stim_listB>",are marrying each other,
null,"<div style=""font-size:60px;"">+</div>",,html-keyboard-response,58,517444,0.0-13.0-0.2,99397,List1B,white,woman,,,,null,,,,
null,"<img src=""stim_listB/touch8.gif""</stim_listB>",,html-keyboard-response,59,519449,0.0-13.0-1.2,99397,List1B,white,woman,,,,null,,,,
null,are touching each other,,html-keyboard-response,60,521453,0.0-13.0-2.2,99397,List1B,white,woman,,,,null,,,,
13502,,,survey-text,61,534958,0.0-13.0-3.2,99397,List1B,white,woman,,,,,"{""Q0"":""Beth and Ruth are touching each other""}","<img src=""stim_listB/touch8.gif""</stim_listB>",are touching each other,
null,"<div style=""font-size:60px;"">+</div>",,html-keyboard-response,62,535461,0.0-13.0-0.3,99397,List1B,white,woman,,,,null,,,,
null,"<img src=""stim_listB/argue2.gif""</stim_listB>",,html-keyboard-response,63,537466,0.0-13.0-1.3,99397,List1B,white,woman,,,,null,,,,
null,are arguing with each other,,html-keyboard-response,64,539469,0.0-13.0-2.3,99397,List1B,white,woman,,,,null,,,,
19765,,,survey-text,65,559238,0.0-13.0-3.3,99397,List1B,white,woman,,,,,"{""Q0"":""Fred and Kate are arguing with each other ""}","<img src=""stim_listB/argue2.gif""</stim_listB>",are arguing with each other,
null,"<div style=""font-size:60px;"">+</div>",,html-keyboard-response,66,559741,0.0-13.0-0.4,99397,List1B,white,woman,,,,null,,,,
null,"<img src=""stim_listB/argue8.gif""</stim_listB>",,html-keyboard-response,67,561746,0.0-13.0-1.4,99397,List1B,white,woman,,,,null,,,,
null,are arguing with each other,,html-keyboard-response,68,563750,0.0-13.0-2.4,99397,List1B,white,woman,,,,null,,,,
16793,,,survey-text,69,580546,0.0-13.0-3.4,99397,List1B,white,woman,,,,,"{""Q0"":""Jane and beth are arguing with each other ""}","<img src=""stim_listB/argue8.gif""</stim_listB>",are arguing with each other,
null,"<div style=""font-size:60px;"">+</div>",,html-keyboard-response,70,581049,0.0-13.0-0.5,99397,List1B,white,woman,,,,null,,,,
null,"<img src=""stim_listB/touch4.gif""</stim_listB>",,html-keyboard-response,71,583054,0.0-13.0-1.5,99397,List1B,white,woman,,,,null,,,,
null,are touching each other,,html-keyboard-response,72,585058,0.0-13.0-2.5,99397,List1B,white,woman,,,,null,,,,
15532,,,survey-text,73,600593,0.0-13.0-3.5,99397,List1B,white,woman,,,,,"{""Q0"":""Luke and Ruth are touching each other ""}","<img src=""stim_listB/touch4.gif""</stim_listB>",are touching each other,
null,"<div style=""font-size:60px;"">+</div>",,html-keyboard-response,74,601097,0.0-13.0-0.6,99397,List1B,white,woman,,,,null,,,,
null,"<img src=""stim_listB/dance6.gif""</stim_listB>",,html-keyboard-response,75,603101,0.0-13.0-1.6,99397,List1B,white,woman,,,,null,,,,
null,are dancing with each other,,html-keyboard-response,76,605105,0.0-13.0-2.6,99397,List1B,white,woman,,,,null,,,,
13193,,,survey-text,77,618302,0.0-13.0-3.6,99397,List1B,white,woman,,,,,"{""Q0"":""Mike and Luke are dancing with each other ""}","<img src=""stim_listB/dance6.gif""</stim_listB>",are dancing with each other,
null,"<div style=""font-size:60px;"">+</div>",,html-keyboard-response,78,618805,0.0-13.0-0.7,99397,List1B,white,woman,,,,null,,,,
null,"<img src=""stim_listB/fight6.gif""</stim_listB>",,html-keyboard-response,79,620810,0.0-13.0-1.7,99397,List1B,white,woman,,,,null,,,,
null,are fighting each other,,html-keyboard-response,80,622814,0.0-13.0-2.7,99397,List1B,white,woman,,,,null,,,,
17898,,,survey-text,81,640715,0.0-13.0-3.7,99397,List1B,white,woman,,,,,"{""Q0"":""Fred and Luke are fighting each other ""}","<img src=""stim_listB/fight6.gif""</stim_listB>",are fighting each other,
null,"<div style=""font-size:60px;"">+</div>",,html-keyboard-response,82,641218,0.0-13.0-0.8,99397,List1B,white,woman,,,,null,,,,
null,"<img src=""stim_listB/touch7.gif""</stim_listB>",,html-keyboard-response,83,643223,0.0-13.0-1.8,99397,List1B,white,woman,,,,null,,,,
null,is touching,,html-keyboard-response,84,645226,0.0-13.0-2.8,99397,List1B,white,woman,,,,null,,,,
12865,,,survey-text,85,658093,0.0-13.0-3.8,99397,List1B,white,woman,,,,,"{""Q0"":""Kate and Jane is touching ""}","<img src=""stim_listB/touch7.gif""</stim_listB>",is touching,
null,"<div style=""font-size:60px;"">+</div>",,html-keyboard-response,86,658597,0.0-13.0-0.9,99397,List1B,white,woman,,,,null,,,,
null,"<img src=""stim_listB/shout1.gif""</stim_listB>",,html-keyboard-response,87,660601,0.0-13.0-1.9,99397,List1B,white,woman,,,,null,,,,
null,is shouting at,,html-keyboard-response,88,662604,0.0-13.0-2.9,99397,List1B,white,woman,,,,null,,,,
12263,,,survey-text,89,674871,0.0-13.0-3.9,99397,List1B,white,woman,,,,,"{""Q0"":""Fred is shouting at Beth""}","<img src=""stim_listB/shout1.gif""</stim_listB>",is shouting at,
null,"<div style=""font-size:60px;"">+</div>",,html-keyboard-response,90,675374,0.0-13.0-0.10,99397,List1B,white,woman,,,,null,,,,
null,"<img src=""stim_listB/marry8.gif""</stim_listB>",,html-keyboard-response,91,677379,0.0-13.0-1.10,99397,List1B,white,woman,,,,null,,,,
null,are marrying each other,,html-keyboard-response,92,679382,0.0-13.0-2.10,99397,List1B,white,woman,,,,null,,,,
14982,,,survey-text,93,694368,0.0-13.0-3.10,99397,List1B,white,woman,,,,,"{""Q0"":""Jane and Beth are marrying each other""}","<img src=""stim_listB/marry8.gif""</stim_listB>",are marrying each other,
null,"<div style=""font-size:60px;"">+</div>",,html-keyboard-response,94,694872,0.0-13.0-0.11,99397,List1B,white,woman,,,,null,,,,
null,"<img src=""stim_listB/meet1.gif""</stim_listB>",,html-keyboard-response,95,696876,0.0-13.0-1.11,99397,List1B,white,woman,,,,null,,,,
null,is meeting,,html-keyboard-response,96,698880,0.0-13.0-2.11,99397,List1B,white,woman,,,,null,,,,
10780,,,survey-text,97,709664,0.0-13.0-3.11,99397,List1B,white,woman,,,,,"{""Q0"":""Mike and Kate are meeting ""}","<img src=""stim_listB/meet1.gif""</stim_listB>",is meeting,
null,"<div style=""font-size:60px;"">+</div>",,html-keyboard-response,98,710167,0.0-13.0-0.12,99397,List1B,white,woman,,,,null,,,,
null,"<img src=""stim_listB/hug2.gif""</stim_listB>",,html-keyboard-response,99,712172,0.0-13.0-1.12,99397,List1B,white,woman,,,,null,,,,
null,are hugging each other,,html-keyboard-response,100,714176,0.0-13.0-2.12,99397,List1B,white,woman,,,,null,,,,
10640,,,survey-text,101,724819,0.0-13.0-3.12,99397,List1B,white,woman,,,,,"{""Q0"":""Kate and mike are hugging each other ""}","<img src=""stim_listB/hug2.gif""</stim_listB>",are hugging each other,
null,"<div style=""font-size:60px;"">+</div>",,html-keyboard-response,102,725323,0.0-13.0-0.13,99397,List1B,white,woman,,,,null,,,,
null,"<img src=""stim_listB/shout8.gif""</stim_listB>",,html-keyboard-response,103,727329,0.0-13.0-1.13,99397,List1B,white,woman,,,,null,,,,
null,are shouting at each other,,html-keyboard-response,104,729333,0.0-13.0-2.13,99397,List1B,white,woman,,,,null,,,,
19498,,,survey-text,105,748836,0.0-13.0-3.13,99397,List1B,white,woman,,,,,"{""Q0"":""Kate and Jane are shouting at each other ""}","<img src=""stim_listB/shout8.gif""</stim_listB>",are shouting at each other,
null,"<div style=""font-size:60px;"">+</div>",,html-keyboard-response,106,749339,0.0-13.0-0.14,99397,List1B,white,woman,,,,null,,,,
null,"<img src=""stim_listB/talk5.gif""</stim_listB>",,html-keyboard-response,107,751344,0.0-13.0-1.14,99397,List1B,white,woman,,,,null,,,,
null,is talking to,,html-keyboard-response,108,753348,0.0-13.0-2.14,99397,List1B,white,woman,,,,null,,,,
8095,,,survey-text,109,761446,0.0-13.0-3.14,99397,List1B,white,woman,,,,,"{""Q0"":""Dave is talking to Fred""}","<img src=""stim_listB/talk5.gif""</stim_listB>",is talking to,
null,"<div style=""font-size:60px;"">+</div>",,html-keyboard-response,110,761949,0.0-13.0-0.15,99397,List1B,white,woman,,,,null,,,,
null,"<img src=""stim_listB/hug8.gif""</stim_listB>",,html-keyboard-response,111,763954,0.0-13.0-1.15,99397,List1B,white,woman,,,,null,,,,
null,are hugging each other,,html-keyboard-response,112,765958,0.0-13.0-2.15,99397,List1B,white,woman,,,,null,,,,
11336,,,survey-text,113,777297,0.0-13.0-3.15,99397,List1B,white,woman,,,,,"{""Q0"":""Kate and Jane are hugging each other ""}","<img src=""stim_listB/hug8.gif""</stim_listB>",are hugging each other,
null,"<div style=""font-size:60px;"">+</div>",,html-keyboard-response,114,777800,0.0-13.0-0.16,99397,List1B,white,woman,,,,null,,,,
null,"<img src=""stim_listB/argue6.gif""</stim_listB>",,html-keyboard-response,115,779805,0.0-13.0-1.16,99397,List1B,white,woman,,,,null,,,,
null,are arguing with each other,,html-keyboard-response,116,781809,0.0-13.0-2.16,99397,List1B,white,woman,,,,null,,,,
17744,,,survey-text,117,799557,0.0-13.0-3.16,99397,List1B,white,woman,,,,,"{""Q0"":""Dave and Fred are arguing with each other""}","<img src=""stim_listB/argue6.gif""</stim_listB>",are arguing with each other,
null,"<div style=""font-size:60px;"">+</div>",,html-keyboard-response,118,800060,0.0-13.0-0.17,99397,List1B,white,woman,,,,null,,,,
null,"<img src=""stim_listB/hug7.gif""</stim_listB>",,html-keyboard-response,119,802065,0.0-13.0-1.17,99397,List1B,white,woman,,,,null,,,,
null,is hugging,,html-keyboard-response,120,804067,0.0-13.0-2.17,99397,List1B,white,woman,,,,null,,,,
8222,,,survey-text,121,812292,0.0-13.0-3.17,99397,List1B,white,woman,,,,,"{""Q0"":""Beth and Ruth is hugging ""}","<img src=""stim_listB/hug7.gif""</stim_listB>",is hugging,
null,"<div style=""font-size:60px;"">+</div>",,html-keyboard-response,122,812796,0.0-13.0-0.18,99397,List1B,white,woman,,,,null,,,,
null,"<img src=""stim_listB/marry6.gif""</stim_listB>",,html-keyboard-response,123,814801,0.0-13.0-1.18,99397,List1B,white,woman,,,,null,,,,
null,are marrying each other,,html-keyboard-response,124,816805,0.0-13.0-2.18,99397,List1B,white,woman,,,,null,,,,
10527,,,survey-text,125,827336,0.0-13.0-3.18,99397,List1B,white,woman,,,,,"{""Q0"":""Fred and Dave are marrying each other ""}","<img src=""stim_listB/marry6.gif""</stim_listB>",are marrying each other,
null,"<div style=""font-size:60px;"">+</div>",,html-keyboard-response,126,827840,0.0-13.0-0.19,99397,List1B,white,woman,,,,null,,,,
null,"<img src=""stim_listB/hug1.gif""</stim_listB>",,html-keyboard-response,127,829845,0.0-13.0-1.19,99397,List1B,white,woman,,,,null,,,,
null,is hugging,,html-keyboard-response,128,831849,0.0-13.0-2.19,99397,List1B,white,woman,,,,null,,,,
17496,,,survey-text,129,849349,0.0-13.0-3.19,99397,List1B,white,woman,,,,,"{""Q0"":""Fred is hugging Beth""}","<img src=""stim_listB/hug1.gif""</stim_listB>",is hugging,
6888,"<img src='img/portrait_matrix_list1.JPG' style='width:900px;height:500px;''></img><p>If you have memorised all the portraits and names and are ready to start, press Continue.</p><p><strong>Please note: Your memory of these faces will be tested 4 times during this experiment.</strong></p>",0,html-button-response,130,856242,0.0-14.0-0.0,99397,List1B,white,woman,,,,,,,,
3095,"<img src=""portrait/WM2.jpg""style=""width:400px;height:400px;""></img>",7,html-button-response,131,860344,0.0-14.0-1.0,99397,List1B,white,woman,,TRUE,7,,,,,
null,CORRECT,,html-keyboard-response,132,861849,0.0-14.0-2.0-0.0,99397,List1B,white,woman,,,,null,,,,
3526,"<img src=""portrait/BW1.jpg""style=""width:400px;height:400px;""></img>",0,html-button-response,133,865382,0.0-14.0-4.0,99397,List1B,white,woman,,TRUE,0,,,,,
null,CORRECT,,html-keyboard-response,134,866887,0.0-14.0-5.0-0.0,99397,List1B,white,woman,,,,null,,,,
2141,"<img src=""portrait/WW1.jpg""style=""width:400px;height:400px;""></img>",1,html-button-response,135,869035,0.0-14.0-7.0,99397,List1B,white,woman,,TRUE,1,,,,,
null,CORRECT,,html-keyboard-response,136,870540,0.0-14.0-8.0-0.0,99397,List1B,white,woman,,,,null,,,,
1789,"<img src=""portrait/WW2.jpg""style=""width:400px;height:400px;""></img>",3,html-button-response,137,872336,0.0-14.0-10.0,99397,List1B,white,woman,,TRUE,3,,,,,
null,CORRECT,,html-keyboard-response,138,873840,0.0-14.0-11.0-0.0,99397,List1B,white,woman,,,,null,,,,
2265,"<img src=""portrait/WM1.jpg""style=""width:400px;height:400px;""></img>",6,html-button-response,139,876112,0.0-14.0-13.0,99397,List1B,white,woman,,TRUE,6,,,,,
null,CORRECT,,html-keyboard-response,140,877617,0.0-14.0-14.0-0.0,99397,List1B,white,woman,,,,null,,,,
1692,"<img src=""portrait/BM2.jpg""style=""width:400px;height:400px;""></img>",4,html-button-response,141,879316,0.0-14.0-16.0,99397,List1B,white,woman,,TRUE,5,,,,,
4294,"<img src=""portrait/BM2.jpg""style=""width:400px;height:400px;""></img>",5,html-button-response,142,884614,0.0-14.0-18.0-0.0,99397,List1B,white,woman,,FALSE,5,,,,,
null,CORRECT,,html-keyboard-response,143,886119,0.0-14.0-18.0-1.0-0.0,99397,List1B,white,woman,,,,null,,,,
5121,"<img src=""portrait/BW2.jpg""style=""width:400px;height:400px;""></img>",2,html-button-response,144,891248,0.0-14.0-19.0,99397,List1B,white,woman,,TRUE,2,,,,,
null,CORRECT,,html-keyboard-response,145,892753,0.0-14.0-20.0-0.0,99397,List1B,white,woman,,,,null,,,,
2619,"<img src=""portrait/BM1.jpg""style=""width:400px;height:400px;""></img>",4,html-button-response,146,895379,0.0-14.0-22.0,99397,List1B,white,woman,,TRUE,4,,,,,
null,CORRECT,,html-keyboard-response,147,896883,0.0-14.0-23.0-0.0,99397,List1B,white,woman,,,,null,,,,
1500,<p>You got 7 out of 8 right first time. Press Continue.</p>,0,html-button-response,148,898387,0.0-14.0-25.0,99397,List1B,white,woman,,,,,,,,
2107,"As you did not score 100%, the memory game will repeat. Press Continue.",0,html-button-response,149,901499,0.0-14.0-26.0-0.0,99397,List1B,white,woman,,,,,,,,
1641,"<img src='img/portrait_matrix_list1.JPG' style='width:900px;height:500px;''></img><p>If you have memorised all the portraits and names and are ready to start, press Continue.</p><p><strong>Please note: Your memory of these faces will be tested 4 times during this experiment.</strong></p>",0,html-button-response,150,904148,0.0-14.1-0.1,99397,List1B,white,woman,,,,,,,,
1388,"<img src=""portrait/WM2.jpg""style=""width:400px;height:400px;""></img>",7,html-button-response,151,906542,0.0-14.1-1.1,99397,List1B,white,woman,,TRUE,7,,,,,
null,CORRECT,,html-keyboard-response,152,908046,0.0-14.1-2.1-0.1,99397,List1B,white,woman,,,,null,,,,
6738,"<img src=""portrait/BW1.jpg""style=""width:400px;height:400px;""></img>",0,html-button-response,153,914790,0.0-14.1-4.1,99397,List1B,white,woman,,TRUE,0,,,,,
null,CORRECT,,html-keyboard-response,154,916295,0.0-14.1-5.1-0.1,99397,List1B,white,woman,,,,null,,,,
3034,"<img src=""portrait/WW1.jpg""style=""width:400px;height:400px;""></img>",1,html-button-response,155,919333,0.0-14.1-7.1,99397,List1B,white,woman,,TRUE,1,,,,,
null,CORRECT,,html-keyboard-response,156,920838,0.0-14.1-8.1-0.1,99397,List1B,white,woman,,,,null,,,,
2114,"<img src=""portrait/WW2.jpg""style=""width:400px;height:400px;""></img>",3,html-button-response,157,922957,0.0-14.1-10.1,99397,List1B,white,woman,,TRUE,3,,,,,
null,CORRECT,,html-keyboard-response,158,924462,0.0-14.1-11.1-0.1,99397,List1B,white,woman,,,,null,,,,
1940,"<img src=""portrait/WM1.jpg""style=""width:400px;height:400px;""></img>",6,html-button-response,159,926406,0.0-14.1-13.1,99397,List1B,white,woman,,TRUE,6,,,,,
null,CORRECT,,html-keyboard-response,160,927911,0.0-14.1-14.1-0.1,99397,List1B,white,woman,,,,null,,,,
1569,"<img src=""portrait/BM2.jpg""style=""width:400px;height:400px;""></img>",5,html-button-response,161,929485,0.0-14.1-16.1,99397,List1B,white,woman,,TRUE,5,,,,,
null,CORRECT,,html-keyboard-response,162,930990,0.0-14.1-17.1-0.1,99397,List1B,white,woman,,,,null,,,,
2106,"<img src=""portrait/BW2.jpg""style=""width:400px;height:400px;""></img>",2,html-button-response,163,933100,0.0-14.1-19.1,99397,List1B,white,woman,,TRUE,2,,,,,
null,CORRECT,,html-keyboard-response,164,934605,0.0-14.1-20.1-0.1,99397,List1B,white,woman,,,,null,,,,
1692,"<img src=""portrait/BM1.jpg""style=""width:400px;height:400px;""></img>",4,html-button-response,165,936303,0.0-14.1-22.1,99397,List1B,white,woman,,TRUE,4,,,,,
null,CORRECT,,html-keyboard-response,166,937807,0.0-14.1-23.1-0.1,99397,List1B,white,woman,,,,null,,,,
1506,<p>You got 8 out of 8 right first time. Press Continue.</p>,0,html-button-response,167,939316,0.0-14.1-25.1,99397,List1B,white,woman,,,,,,,,
null,"<div style=""font-size:60px;"">+</div>",,html-keyboard-response,168,940822,0.0-15.0-0.0,99397,List1B,white,woman,,,,null,,,,
null,"<img src=""stim_listB/dance5.gif""</stim_listB>",,html-keyboard-response,169,942828,0.0-15.0-1.0,99397,List1B,white,woman,,,,null,,,,
null,is dancing with,,html-keyboard-response,170,944833,0.0-15.0-2.0,99397,List1B,white,woman,,,,null,,,,
11295,,,survey-text,171,956130,0.0-15.0-3.0,99397,List1B,white,woman,,,,,"{""Q0"":""Dave is dancing with Fred""}","<img src=""stim_listB/dance5.gif""</stim_listB>",is dancing with,
null,"<div style=""font-size:60px;"">+</div>",,html-keyboard-response,172,956635,0.0-15.0-0.1,99397,List1B,white,woman,,,,null,,,,
null,"<img src=""stim_listB/talk1.gif""</stim_listB>",,html-keyboard-response,173,958639,0.0-15.0-1.1,99397,List1B,white,woman,,,,null,,,,
null,is talking to,,html-keyboard-response,174,960643,0.0-15.0-2.1,99397,List1B,white,woman,,,,null,,,,
11509,,,survey-text,175,972156,0.0-15.0-3.1,99397,List1B,white,woman,,,,,"{""Q0"":""Kate is talking to Fred""}","<img src=""stim_listB/talk1.gif""</stim_listB>",is talking to,
null,"<div style=""font-size:60px;"">+</div>",,html-keyboard-response,176,972658,0.0-15.0-0.2,99397,List1B,white,woman,,,,null,,,,
null,"<img src=""stim_listB/fight8.gif""</stim_listB>",,html-keyboard-response,177,974663,0.0-15.0-1.2,99397,List1B,white,woman,,,,null,,,,
null,are fighting each other,,html-keyboard-response,178,976667,0.0-15.0-2.2,99397,List1B,white,woman,,,,null,,,,
11440,,,survey-text,179,988110,0.0-15.0-3.2,99397,List1B,white,woman,,,,,"{""Q0"":""Beth and Ruth are fighting each other""}","<img src=""stim_listB/fight8.gif""</stim_listB>",are fighting each other,
null,"<div style=""font-size:60px;"">+</div>",,html-keyboard-response,180,988613,0.0-15.0-0.3,99397,List1B,white,woman,,,,null,,,,
null,"<img src=""stim_listB/dance4.gif""</stim_listB>",,html-keyboard-response,181,990619,0.0-15.0-1.3,99397,List1B,white,woman,,,,null,,,,
null,are dancing with each other,,html-keyboard-response,182,992623,0.0-15.0-2.3,99397,List1B,white,woman,,,,null,,,,
14882,,,survey-text,183,1007509,0.0-15.0-3.3,99397,List1B,white,woman,,,,,"{""Q0"":""Ruth and Dave are dancing with each other""}","<img src=""stim_listB/dance4.gif""</stim_listB>",are dancing with each other,
null,"<div style=""font-size:60px;"">+</div>",,html-keyboard-response,184,1008013,0.0-15.0-0.4,99397,List1B,white,woman,,,,null,,,,
null,"<img src=""stim_listB/touch2.gif""</stim_listB>",,html-keyboard-response,185,1010018,0.0-15.0-1.4,99397,List1B,white,woman,,,,null,,,,
null,are touching each other,,html-keyboard-response,186,1012021,0.0-15.0-2.4,99397,List1B,white,woman,,,,null,,,,
18064,,,survey-text,187,1030088,0.0-15.0-3.4,99397,List1B,white,woman,,,,,"{""Q0"":""Fred and Beth are touching each other ""}","<img src=""stim_listB/touch2.gif""</stim_listB>",are touching each other,
null,"<div style=""font-size:60px;"">+</div>",,html-keyboard-response,188,1030592,0.0-15.0-0.5,99397,List1B,white,woman,,,,null,,,,
null,"<img src=""stim_listB/kiss3.gif""</stim_listB>",,html-keyboard-response,189,1032596,0.0-15.0-1.5,99397,List1B,white,woman,,,,null,,,,
null,is kissing,,html-keyboard-response,190,1034600,0.0-15.0-2.5,99397,List1B,white,woman,,,,null,,,,
13050,,,survey-text,191,1047655,0.0-15.0-3.5,99397,List1B,white,woman,,,,,"{""Q0"":""Luke is kissing Ruth""}","<img src=""stim_listB/kiss3.gif""</stim_listB>",is kissing,
null,"<div style=""font-size:60px;"">+</div>",,html-keyboard-response,192,1048158,0.0-15.0-0.6,99397,List1B,white,woman,,,,null,,,,
null,"<img src=""stim_listB/dance8.gif""</stim_listB>",,html-keyboard-response,193,1050163,0.0-15.0-1.6,99397,List1B,white,woman,,,,null,,,,
null,are dancing with each other,,html-keyboard-response,194,1052167,0.0-15.0-2.6,99397,List1B,white,woman,,,,null,,,,
15079,,,survey-text,195,1067249,0.0-15.0-3.6,99397,List1B,white,woman,,,,,"{""Q0"":""Kate and Ruth are dancing with each other""}","<img src=""stim_listB/dance8.gif""</stim_listB>",are dancing with each other,
null,"<div style=""font-size:60px;"">+</div>",,html-keyboard-response,196,1067752,0.0-15.0-0.7,99397,List1B,white,woman,,,,null,,,,
null,"<img src=""stim_listB/shout7.gif""</stim_listB>",,html-keyboard-response,197,1069757,0.0-15.0-1.7,99397,List1B,white,woman,,,,null,,,,
null,is shouting at,,html-keyboard-response,198,1071761,0.0-15.0-2.7,99397,List1B,white,woman,,,,null,,,,
15843,,,survey-text,199,1087608,0.0-15.0-3.7,99397,List1B,white,woman,,,,,"{""Q0"":""Beth is shouting at Ruth""}","<img src=""stim_listB/shout7.gif""</stim_listB>",is shouting at,
null,"<div style=""font-size:60px;"">+</div>",,html-keyboard-response,200,1088112,0.0-15.0-0.8,99397,List1B,white,woman,,,,null,,,,
null,"<img src=""stim_listB/talk8.gif""</stim_listB>",,html-keyboard-response,201,1090117,0.0-15.0-1.8,99397,List1B,white,woman,,,,null,,,,
null,are talking to each other,,html-keyboard-response,202,1092121,0.0-15.0-2.8,99397,List1B,white,woman,,,,null,,,,
12352,,,survey-text,203,1104477,0.0-15.0-3.8,99397,List1B,white,woman,,,,,"{""Q0"":""Ruth and Kate are talking to each other ""}","<img src=""stim_listB/talk8.gif""</stim_listB>",are talking to each other,
null,"<div style=""font-size:60px;"">+</div>",,html-keyboard-response,204,1104981,0.0-15.0-0.9,99397,List1B,white,woman,,,,null,,,,
null,"<img src=""stim_listB/kiss7.gif""</stim_listB>",,html-keyboard-response,205,1106985,0.0-15.0-1.9,99397,List1B,white,woman,,,,null,,,,
null,is kissing,,html-keyboard-response,206,1108988,0.0-15.0-2.9,99397,List1B,white,woman,,,,null,,,,
12415,,,survey-text,207,1121406,0.0-15.0-3.9,99397,List1B,white,woman,,,,,"{""Q0"":""Ruth is kissing Beth ""}","<img src=""stim_listB/kiss7.gif""</stim_listB>",is kissing,
null,"<div style=""font-size:60px;"">+</div>",,html-keyboard-response,208,1121910,0.0-15.0-0.10,99397,List1B,white,woman,,,,null,,,,
null,"<img src=""stim_listB/argue7.gif""</stim_listB>",,html-keyboard-response,209,1123915,0.0-15.0-1.10,99397,List1B,white,woman,,,,null,,,,
null,is arguing with,,html-keyboard-response,210,1125919,0.0-15.0-2.10,99397,List1B,white,woman,,,,null,,,,
21136,,,survey-text,211,1147058,0.0-15.0-3.10,99397,List1B,white,woman,,,,,"{""Q0"":""Kate is arguing with Ruth""}","<img src=""stim_listB/argue7.gif""</stim_listB>",is arguing with,
null,"<div style=""font-size:60px;"">+</div>",,html-keyboard-response,212,1147561,0.0-15.0-0.11,99397,List1B,white,woman,,,,null,,,,
null,"<img src=""stim_listB/touch5.gif""</stim_listB>",,html-keyboard-response,213,1149567,0.0-15.0-1.11,99397,List1B,white,woman,,,,null,,,,
null,is touching,,html-keyboard-response,214,1151571,0.0-15.0-2.11,99397,List1B,white,woman,,,,null,,,,
16344,,,survey-text,215,1167919,0.0-15.0-3.11,99397,List1B,white,woman,,,,,"{""Q0"":""Mike is touching Dave ""}","<img src=""stim_listB/touch5.gif""</stim_listB>",is touching,
null,"<div style=""font-size:60px;"">+</div>",,html-keyboard-response,216,1168422,0.0-15.0-0.12,99397,List1B,white,woman,,,,null,,,,
null,"<img src=""stim_listB/shout5.gif""</stim_listB>",,html-keyboard-response,217,1170426,0.0-15.0-1.12,99397,List1B,white,woman,,,,null,,,,
null,is shouting at,,html-keyboard-response,218,1172430,0.0-15.0-2.12,99397,List1B,white,woman,,,,null,,,,
16579,,,survey-text,219,1189013,0.0-15.0-3.12,99397,List1B,white,woman,,,,,"{""Q0"":""Fred is shouting at Luke""}","<img src=""stim_listB/shout5.gif""</stim_listB>",is shouting at,
null,"<div style=""font-size:60px;"">+</div>",,html-keyboard-response,220,1189517,0.0-15.0-0.13,99397,List1B,white,woman,,,,null,,,,
null,"<img src=""stim_listB/marry5.gif""</stim_listB>",,html-keyboard-response,221,1191522,0.0-15.0-1.13,99397,List1B,white,woman,,,,null,,,,
null,is marrying,,html-keyboard-response,222,1193526,0.0-15.0-2.13,99397,List1B,white,woman,,,,null,,,,
12049,,,survey-text,223,1205579,0.0-15.0-3.13,99397,List1B,white,woman,,,,,"{""Q0"":""Luke is marrying mike ""}","<img src=""stim_listB/marry5.gif""</stim_listB>",is marrying,
null,"<div style=""font-size:60px;"">+</div>",,html-keyboard-response,224,1206082,0.0-15.0-0.14,99397,List1B,white,woman,,,,null,,,,
null,"<img src=""stim_listB/shout3.gif""</stim_listB>",,html-keyboard-response,225,1208086,0.0-15.0-1.14,99397,List1B,white,woman,,,,null,,,,
null,is shouting at,,html-keyboard-response,226,1210090,0.0-15.0-2.14,99397,List1B,white,woman,,,,null,,,,
12196,,,survey-text,227,1222290,0.0-15.0-3.14,99397,List1B,white,woman,,,,,"{""Q0"":""Ruth is shouting at Luke ""}","<img src=""stim_listB/shout3.gif""</stim_listB>",is shouting at,
null,"<div style=""font-size:60px;"">+</div>",,html-keyboard-response,228,1222794,0.0-15.0-0.15,99397,List1B,white,woman,,,,null,,,,
null,"<img src=""stim_listB/touch6.gif""</stim_listB>",,html-keyboard-response,229,1224798,0.0-15.0-1.15,99397,List1B,white,woman,,,,null,,,,
null,are touching each other,,html-keyboard-response,230,1226802,0.0-15.0-2.15,99397,List1B,white,woman,,,,null,,,,
16151,,,survey-text,231,1242956,0.0-15.0-3.15,99397,List1B,white,woman,,,,,"{""Q0"":""Fred and Luke are touching each other""}","<img src=""stim_listB/touch6.gif""</stim_listB>",are touching each other,
null,"<div style=""font-size:60px;"">+</div>",,html-keyboard-response,232,1243460,0.0-15.0-0.16,99397,List1B,white,woman,,,,null,,,,
null,"<img src=""stim_listB/kiss1.gif""</stim_listB>",,html-keyboard-response,233,1245464,0.0-15.0-1.16,99397,List1B,white,woman,,,,null,,,,
null,is kissing,,html-keyboard-response,234,1247468,0.0-15.0-2.16,99397,List1B,white,woman,,,,null,,,,
8172,,,survey-text,235,1255642,0.0-15.0-3.16,99397,List1B,white,woman,,,,,"{""Q0"":""Beth is kissing Fred""}","<img src=""stim_listB/kiss1.gif""</stim_listB>",is kissing,
null,"<div style=""font-size:60px;"">+</div>",,html-keyboard-response,236,1256145,0.0-15.0-0.17,99397,List1B,white,woman,,,,null,,,,
null,"<img src=""stim_listB/touch3.gif""</stim_listB>",,html-keyboard-response,237,1258150,0.0-15.0-1.17,99397,List1B,white,woman,,,,null,,,,
null,is touching,,html-keyboard-response,238,1260153,0.0-15.0-2.17,99397,List1B,white,woman,,,,null,,,,
8637,,,survey-text,239,1268793,0.0-15.0-3.17,99397,List1B,white,woman,,,,,"{""Q0"":""Jane is touching Dave""}","<img src=""stim_listB/touch3.gif""</stim_listB>",is touching,
null,"<div style=""font-size:60px;"">+</div>",,html-keyboard-response,240,1269297,0.0-15.0-0.18,99397,List1B,white,woman,,,,null,,,,
null,"<img src=""stim_listB/talk6.gif""</stim_listB>",,html-keyboard-response,241,1271302,0.0-15.0-1.18,99397,List1B,white,woman,,,,null,,,,
null,are talking to each other,,html-keyboard-response,242,1273305,0.0-15.0-2.18,99397,List1B,white,woman,,,,null,,,,
13018,,,survey-text,243,1286327,0.0-15.0-3.18,99397,List1B,white,woman,,,,,"{""Q0"":""Mike and luke are talking to each other ""}","<img src=""stim_listB/talk6.gif""</stim_listB>",are talking to each other,
null,"<div style=""font-size:60px;"">+</div>",,html-keyboard-response,244,1286831,0.0-15.0-0.19,99397,List1B,white,woman,,,,null,,,,
null,"<img src=""stim_listB/kiss2.gif""</stim_listB>",,html-keyboard-response,245,1288835,0.0-15.0-1.19,99397,List1B,white,woman,,,,null,,,,
null,are kissing each other,,html-keyboard-response,246,1290839,0.0-15.0-2.19,99397,List1B,white,woman,,,,null,,,,
13104,,,survey-text,247,1303946,0.0-15.0-3.19,99397,List1B,white,woman,,,,,"{""Q0"":""Mike and Kate are kissing each other ""}","<img src=""stim_listB/kiss2.gif""</stim_listB>",are kissing each other,
6510,"<img src='img/portrait_matrix_list1.JPG' style='width:900px;height:500px;''></img><p>If you have memorised all the portraits and names and are ready to start, press Continue.</p><p><strong>Please note: Your memory of these faces will be tested 4 times during this experiment.</strong></p>",0,html-button-response,248,1310460,0.0-16.0-0.0,99397,List1B,white,woman,,,,,,,,
2622,"<img src=""portrait/WM2.jpg""style=""width:400px;height:400px;""></img>",7,html-button-response,249,1314087,0.0-16.0-1.0,99397,List1B,white,woman,,TRUE,7,,,,,
null,CORRECT,,html-keyboard-response,250,1315592,0.0-16.0-2.0-0.0,99397,List1B,white,woman,,,,null,,,,
1906,"<img src=""portrait/WW1.jpg""style=""width:400px;height:400px;""></img>",1,html-button-response,251,1317503,0.0-16.0-4.0,99397,List1B,white,woman,,TRUE,1,,,,,
null,CORRECT,,html-keyboard-response,252,1319008,0.0-16.0-5.0-0.0,99397,List1B,white,woman,,,,null,,,,
1566,"<img src=""portrait/BW2.jpg""style=""width:400px;height:400px;""></img>",2,html-button-response,253,1320578,0.0-16.0-7.0,99397,List1B,white,woman,,TRUE,2,,,,,
null,CORRECT,,html-keyboard-response,254,1322082,0.0-16.0-8.0-0.0,99397,List1B,white,woman,,,,null,,,,
2557,"<img src=""portrait/BM2.jpg""style=""width:400px;height:400px;""></img>",5,html-button-response,255,1324644,0.0-16.0-10.0,99397,List1B,white,woman,,TRUE,5,,,,,
null,CORRECT,,html-keyboard-response,256,1326149,0.0-16.0-11.0-0.0,99397,List1B,white,woman,,,,null,,,,
1872,"<img src=""portrait/WM1.jpg""style=""width:400px;height:400px;""></img>",6,html-button-response,257,1328025,0.0-16.0-13.0,99397,List1B,white,woman,,TRUE,6,,,,,
null,CORRECT,,html-keyboard-response,258,1329530,0.0-16.0-14.0-0.0,99397,List1B,white,woman,,,,null,,,,
1977,"<img src=""portrait/WW2.jpg""style=""width:400px;height:400px;""></img>",3,html-button-response,259,1331512,0.0-16.0-16.0,99397,List1B,white,woman,,TRUE,3,,,,,
null,CORRECT,,html-keyboard-response,260,1333017,0.0-16.0-17.0-0.0,99397,List1B,white,woman,,,,null,,,,
1982,"<img src=""portrait/BM1.jpg""style=""width:400px;height:400px;""></img>",4,html-button-response,261,1335004,0.0-16.0-19.0,99397,List1B,white,woman,,TRUE,4,,,,,
null,CORRECT,,html-keyboard-response,262,1336508,0.0-16.0-20.0-0.0,99397,List1B,white,woman,,,,null,,,,
2825,"<img src=""portrait/BW1.jpg""style=""width:400px;height:400px;""></img>",0,html-button-response,263,1339337,0.0-16.0-22.0,99397,List1B,white,woman,,TRUE,0,,,,,
null,CORRECT,,html-keyboard-response,264,1340842,0.0-16.0-23.0-0.0,99397,List1B,white,woman,,,,null,,,,
1452,<p>You got 8 out of 8 right first time. Press Continue.</p>,0,html-button-response,265,1342297,0.0-16.0-25.0,99397,List1B,white,woman,,,,,,,,
null,"<div style=""font-size:60px;"">+</div>",,html-keyboard-response,266,1343803,0.0-17.0-0.0,99397,List1B,white,woman,,,,null,,,,
null,"<img src=""stim_listB/shout4.gif""</stim_listB>",,html-keyboard-response,267,1345808,0.0-17.0-1.0,99397,List1B,white,woman,,,,null,,,,
null,are shouting at each other,,html-keyboard-response,268,1347812,0.0-17.0-2.0,99397,List1B,white,woman,,,,null,,,,
17201,,,survey-text,269,1365017,0.0-17.0-3.0,99397,List1B,white,woman,,,,,"{""Q0"":""Luke and Jane are shouting at each other ""}","<img src=""stim_listB/shout4.gif""</stim_listB>",are shouting at each other,
null,"<div style=""font-size:60px;"">+</div>",,html-keyboard-response,270,1365521,0.0-17.0-0.1,99397,List1B,white,woman,,,,null,,,,
null,"<img src=""stim_listB/fight3.gif""</stim_listB>",,html-keyboard-response,271,1367525,0.0-17.0-1.1,99397,List1B,white,woman,,,,null,,,,
null,is fighting,,html-keyboard-response,272,1369529,0.0-17.0-2.1,99397,List1B,white,woman,,,,null,,,,
14899,,,survey-text,273,1384432,0.0-17.0-3.1,99397,List1B,white,woman,,,,,"{""Q0"":""Jane and Dave are fighting each other ""}","<img src=""stim_listB/fight3.gif""</stim_listB>",is fighting,
null,"<div style=""font-size:60px;"">+</div>",,html-keyboard-response,274,1384936,0.0-17.0-0.2,99397,List1B,white,woman,,,,null,,,,
null,"<img src=""stim_listB/meet6.gif""</stim_listB>",,html-keyboard-response,275,1386941,0.0-17.0-1.2,99397,List1B,white,woman,,,,null,,,,
null,are meeting each other,,html-keyboard-response,276,1388944,0.0-17.0-2.2,99397,List1B,white,woman,,,,null,,,,
11801,,,survey-text,277,1400749,0.0-17.0-3.2,99397,List1B,white,woman,,,,,"{""Q0"":""Fred and Luke are meeting each other ""}","<img src=""stim_listB/meet6.gif""</stim_listB>",are meeting each other,
null,"<div style=""font-size:60px;"">+</div>",,html-keyboard-response,278,1401252,0.0-17.0-0.3,99397,List1B,white,woman,,,,null,,,,
null,"<img src=""stim_listB/dance1.gif""</stim_listB>",,html-keyboard-response,279,1403256,0.0-17.0-1.3,99397,List1B,white,woman,,,,null,,,,
null,is dancing with,,html-keyboard-response,280,1405260,0.0-17.0-2.3,99397,List1B,white,woman,,,,null,,,,
9153,,,survey-text,281,1414416,0.0-17.0-3.3,99397,List1B,white,woman,,,,,"{""Q0"":""Fred is dancing with Kate ""}","<img src=""stim_listB/dance1.gif""</stim_listB>",is dancing with,
null,"<div style=""font-size:60px;"">+</div>",,html-keyboard-response,282,1414919,0.0-17.0-0.4,99397,List1B,white,woman,,,,null,,,,
null,"<img src=""stim_listB/marry7.gif""</stim_listB>",,html-keyboard-response,283,1416924,0.0-17.0-1.4,99397,List1B,white,woman,,,,null,,,,
null,is marrying,,html-keyboard-response,284,1418928,0.0-17.0-2.4,99397,List1B,white,woman,,,,null,,,,
7759,,,survey-text,285,1426690,0.0-17.0-3.4,99397,List1B,white,woman,,,,,"{""Q0"":""Kate is marrying Ruth ""}","<img src=""stim_listB/marry7.gif""</stim_listB>",is marrying,
null,"<div style=""font-size:60px;"">+</div>",,html-keyboard-response,286,1427194,0.0-17.0-0.5,99397,List1B,white,woman,,,,null,,,,
null,"<img src=""stim_listB/kiss5.gif""</stim_listB>",,html-keyboard-response,287,1429199,0.0-17.0-1.5,99397,List1B,white,woman,,,,null,,,,
null,is kissing,,html-keyboard-response,288,1431202,0.0-17.0-2.5,99397,List1B,white,woman,,,,null,,,,
9497,,,survey-text,289,1440703,0.0-17.0-3.5,99397,List1B,white,woman,,,,,"{""Q0"":""Luke is kissing Fred ""}","<img src=""stim_listB/kiss5.gif""</stim_listB>",is kissing,
null,"<div style=""font-size:60px;"">+</div>",,html-keyboard-response,290,1441208,0.0-17.0-0.6,99397,List1B,white,woman,,,,null,,,,
null,"<img src=""stim_listB/shout2.gif""</stim_listB>",,html-keyboard-response,291,1443212,0.0-17.0-1.6,99397,List1B,white,woman,,,,null,,,,
null,are shouting at each other,,html-keyboard-response,292,1445216,0.0-17.0-2.6,99397,List1B,white,woman,,,,null,,,,
13524,,,survey-text,293,1458744,0.0-17.0-3.6,99397,List1B,white,woman,,,,,"{""Q0"":""Mike and Kate are shouting at each other ""}","<img src=""stim_listB/shout2.gif""</stim_listB>",are shouting at each other,
null,"<div style=""font-size:60px;"">+</div>",,html-keyboard-response,294,1459248,0.0-17.0-0.7,99397,List1B,white,woman,,,,null,,,,
null,"<img src=""stim_listB/meet5.gif""</stim_listB>",,html-keyboard-response,295,1461252,0.0-17.0-1.7,99397,List1B,white,woman,,,,null,,,,
null,is meeting,,html-keyboard-response,296,1463256,0.0-17.0-2.7,99397,List1B,white,woman,,,,null,,,,
8540,,,survey-text,297,1471799,0.0-17.0-3.7,99397,List1B,white,woman,,,,,"{""Q0"":""Dave is meeting mike ""}","<img src=""stim_listB/meet5.gif""</stim_listB>",is meeting,
null,"<div style=""font-size:60px;"">+</div>",,html-keyboard-response,298,1472302,0.0-17.0-0.8,99397,List1B,white,woman,,,,null,,,,
null,"<img src=""stim_listB/dance7.gif""</stim_listB>",,html-keyboard-response,299,1474307,0.0-17.0-1.8,99397,List1B,white,woman,,,,null,,,,
null,is dancing with,,html-keyboard-response,300,1476310,0.0-17.0-2.8,99397,List1B,white,woman,,,,null,,,,
8164,,,survey-text,301,1484479,0.0-17.0-3.8,99397,List1B,white,woman,,,,,"{""Q0"":""Jane is dancing with Beth ""}","<img src=""stim_listB/dance7.gif""</stim_listB>",is dancing with,
null,"<div style=""font-size:60px;"">+</div>",,html-keyboard-response,302,1484983,0.0-17.0-0.9,99397,List1B,white,woman,,,,null,,,,
null,"<img src=""stim_listB/argue3.gif""</stim_listB>",,html-keyboard-response,303,1486987,0.0-17.0-1.9,99397,List1B,white,woman,,,,null,,,,
null,is arguing with,,html-keyboard-response,304,1488991,0.0-17.0-2.9,99397,List1B,white,woman,,,,null,,,,
7984,,,survey-text,305,1496980,0.0-17.0-3.9,99397,List1B,white,woman,,,,,"{""Q0"":""Dave is arguing with Ruth ""}","<img src=""stim_listB/argue3.gif""</stim_listB>",is arguing with,
null,"<div style=""font-size:60px;"">+</div>",,html-keyboard-response,306,1497483,0.0-17.0-0.10,99397,List1B,white,woman,,,,null,,,,
null,"<img src=""stim_listB/meet2.gif""</stim_listB>",,html-keyboard-response,307,1499488,0.0-17.0-1.10,99397,List1B,white,woman,,,,null,,,,
null,are meeting each other,,html-keyboard-response,308,1501491,0.0-17.0-2.10,99397,List1B,white,woman,,,,null,,,,
10456,,,survey-text,309,1511950,0.0-17.0-3.10,99397,List1B,white,woman,,,,,"{""Q0"":""Fred and Beth are meeting each other ""}","<img src=""stim_listB/meet2.gif""</stim_listB>",are meeting each other,
null,"<div style=""font-size:60px;"">+</div>",,html-keyboard-response,310,1512454,0.0-17.0-0.11,99397,List1B,white,woman,,,,null,,,,
null,"<img src=""stim_listB/talk2.gif""</stim_listB>",,html-keyboard-response,311,1514458,0.0-17.0-1.11,99397,List1B,white,woman,,,,null,,,,
null,are talking to each other,,html-keyboard-response,312,1516462,0.0-17.0-2.11,99397,List1B,white,woman,,,,null,,,,
10579,,,survey-text,313,1527045,0.0-17.0-3.11,99397,List1B,white,woman,,,,,"{""Q0"":""Beth and mike are talking to each other ""}","<img src=""stim_listB/talk2.gif""</stim_listB>",are talking to each other,
null,"<div style=""font-size:60px;"">+</div>",,html-keyboard-response,314,1527549,0.0-17.0-0.12,99397,List1B,white,woman,,,,null,,,,
null,"<img src=""stim_listB/meet4.gif""</stim_listB>",,html-keyboard-response,315,1529553,0.0-17.0-1.12,99397,List1B,white,woman,,,,null,,,,
null,are meeting each other,,html-keyboard-response,316,1531556,0.0-17.0-2.12,99397,List1B,white,woman,,,,null,,,,
11225,,,survey-text,317,1542785,0.0-17.0-3.12,99397,List1B,white,woman,,,,,"{""Q0"":""Luke and Ruth are meeting each other ""}","<img src=""stim_listB/meet4.gif""</stim_listB>",are meeting each other,
null,"<div style=""font-size:60px;"">+</div>",,html-keyboard-response,318,1543289,0.0-17.0-0.13,99397,List1B,white,woman,,,,null,,,,
null,"<img src=""stim_listB/hug4.gif""</stim_listB>",,html-keyboard-response,319,1545293,0.0-17.0-1.13,99397,List1B,white,woman,,,,null,,,,
null,are hugging each other,,html-keyboard-response,320,1547296,0.0-17.0-2.13,99397,List1B,white,woman,,,,null,,,,
10797,,,survey-text,321,1558096,0.0-17.0-3.13,99397,List1B,white,woman,,,,,"{""Q0"":""Dave and Jane are hugging each other ""}","<img src=""stim_listB/hug4.gif""</stim_listB>",are hugging each other,
null,"<div style=""font-size:60px;"">+</div>",,html-keyboard-response,322,1558600,0.0-17.0-0.14,99397,List1B,white,woman,,,,null,,,,
null,"<img src=""stim_listB/meet7.gif""</stim_listB>",,html-keyboard-response,323,1560605,0.0-17.0-1.14,99397,List1B,white,woman,,,,null,,,,
null,is meeting,,html-keyboard-response,324,1562609,0.0-17.0-2.14,99397,List1B,white,woman,,,,null,,,,
7076,,,survey-text,325,1569687,0.0-17.0-3.14,99397,List1B,white,woman,,,,,"{""Q0"":""Jane is meeting Kate ""}","<img src=""stim_listB/meet7.gif""</stim_listB>",is meeting,
null,"<div style=""font-size:60px;"">+</div>",,html-keyboard-response,326,1570191,0.0-17.0-0.15,99397,List1B,white,woman,,,,null,,,,
null,"<img src=""stim_listB/hug3.gif""</stim_listB>",,html-keyboard-response,327,1572195,0.0-17.0-1.15,99397,List1B,white,woman,,,,null,,,,
null,is hugging,,html-keyboard-response,328,1574199,0.0-17.0-2.15,99397,List1B,white,woman,,,,null,,,,
7880,,,survey-text,329,1582083,0.0-17.0-3.15,99397,List1B,white,woman,,,,,"{""Q0"":""Luke is hugging Ruth ""}","<img src=""stim_listB/hug3.gif""</stim_listB>",is hugging,
null,"<div style=""font-size:60px;"">+</div>",,html-keyboard-response,330,1582586,0.0-17.0-0.16,99397,List1B,white,woman,,,,null,,,,
null,"<img src=""stim_listB/talk4.gif""</stim_listB>",,html-keyboard-response,331,1584591,0.0-17.0-1.16,99397,List1B,white,woman,,,,null,,,,
null,are talking to each other,,html-keyboard-response,332,1586596,0.0-17.0-2.16,99397,List1B,white,woman,,,,null,,,,
13092,,,survey-text,333,1599691,0.0-17.0-3.16,99397,List1B,white,woman,,,,,"{""Q0"":""Dave and Ruth are talking to each other ""}","<img src=""stim_listB/talk4.gif""</stim_listB>",are talking to each other,
null,"<div style=""font-size:60px;"">+</div>",,html-keyboard-response,334,1600195,0.0-17.0-0.17,99397,List1B,white,woman,,,,null,,,,
null,"<img src=""stim_listB/fight2.gif""</stim_listB>",,html-keyboard-response,335,1602198,0.0-17.0-1.17,99397,List1B,white,woman,,,,null,,,,
null,are fighting each other,,html-keyboard-response,336,1604202,0.0-17.0-2.17,99397,List1B,white,woman,,,,null,,,,
11446,,,survey-text,337,1615652,0.0-17.0-3.17,99397,List1B,white,woman,,,,,"{""Q0"":""Fred and Beth are fighting each other ""}","<img src=""stim_listB/fight2.gif""</stim_listB>",are fighting each other,
null,"<div style=""font-size:60px;"">+</div>",,html-keyboard-response,338,1616155,0.0-17.0-0.18,99397,List1B,white,woman,,,,null,,,,
null,"<img src=""stim_listB/meet3.gif""</stim_listB>",,html-keyboard-response,339,1618160,0.0-17.0-1.18,99397,List1B,white,woman,,,,null,,,,
null,is meeting,,html-keyboard-response,340,1620164,0.0-17.0-2.18,99397,List1B,white,woman,,,,null,,,,
11051,,,survey-text,341,1631219,0.0-17.0-3.18,99397,List1B,white,woman,,,,,"{""Q0"":""Jane is meeting Dave ""}","<img src=""stim_listB/meet3.gif""</stim_listB>",is meeting,
null,"<div style=""font-size:60px;"">+</div>",,html-keyboard-response,342,1631723,0.0-17.0-0.19,99397,List1B,white,woman,,,,null,,,,
null,"<img src=""stim_listB/fight5.gif""</stim_listB>",,html-keyboard-response,343,1633728,0.0-17.0-1.19,99397,List1B,white,woman,,,,null,,,,
null,is fighting,,html-keyboard-response,344,1635732,0.0-17.0-2.19,99397,List1B,white,woman,,,,null,,,,
7515,,,survey-text,345,1643251,0.0-17.0-3.19,99397,List1B,white,woman,,,,,"{""Q0"":""Mike is fighting Dave ""}","<img src=""stim_listB/fight5.gif""</stim_listB>",is fighting,
2554,"<img src='img/portrait_matrix_list1.JPG' style='width:900px;height:500px;''></img><p>If you have memorised all the portraits and names and are ready to start, press Continue.</p><p><strong>Please note: Your memory of these faces will be tested 4 times during this experiment.</strong></p>",0,html-button-response,346,1645808,0.0-18.0-0.0,99397,List1B,white,woman,,,,,,,,
2401,"<img src=""portrait/BM1.jpg""style=""width:400px;height:400px;""></img>",4,html-button-response,347,1649215,0.0-18.0-1.0,99397,List1B,white,woman,,TRUE,4,,,,,
null,CORRECT,,html-keyboard-response,348,1650718,0.0-18.0-2.0-0.0,99397,List1B,white,woman,,,,null,,,,
1813,"<img src=""portrait/WM1.jpg""style=""width:400px;height:400px;""></img>",6,html-button-response,349,1652535,0.0-18.0-4.0,99397,List1B,white,woman,,TRUE,6,,,,,
null,CORRECT,,html-keyboard-response,350,1654040,0.0-18.0-5.0-0.0,99397,List1B,white,woman,,,,null,,,,
1921,"<img src=""portrait/BW2.jpg""style=""width:400px;height:400px;""></img>",2,html-button-response,351,1655966,0.0-18.0-7.0,99397,List1B,white,woman,,TRUE,2,,,,,
null,CORRECT,,html-keyboard-response,352,1657470,0.0-18.0-8.0-0.0,99397,List1B,white,woman,,,,null,,,,
1911,"<img src=""portrait/BW1.jpg""style=""width:400px;height:400px;""></img>",0,html-button-response,353,1659385,0.0-18.0-10.0,99397,List1B,white,woman,,TRUE,0,,,,,
null,CORRECT,,html-keyboard-response,354,1660889,0.0-18.0-11.0-0.0,99397,List1B,white,woman,,,,null,,,,
1941,"<img src=""portrait/WM2.jpg""style=""width:400px;height:400px;""></img>",7,html-button-response,355,1662834,0.0-18.0-13.0,99397,List1B,white,woman,,TRUE,7,,,,,
null,CORRECT,,html-keyboard-response,356,1664339,0.0-18.0-14.0-0.0,99397,List1B,white,woman,,,,null,,,,
1899,"<img src=""portrait/WW2.jpg""style=""width:400px;height:400px;""></img>",3,html-button-response,357,1666242,0.0-18.0-16.0,99397,List1B,white,woman,,TRUE,3,,,,,
null,CORRECT,,html-keyboard-response,358,1667746,0.0-18.0-17.0-0.0,99397,List1B,white,woman,,,,null,,,,
1784,"<img src=""portrait/WW1.jpg""style=""width:400px;height:400px;""></img>",1,html-button-response,359,1669535,0.0-18.0-19.0,99397,List1B,white,woman,,TRUE,1,,,,,
null,CORRECT,,html-keyboard-response,360,1671040,0.0-18.0-20.0-0.0,99397,List1B,white,woman,,,,null,,,,
2317,"<img src=""portrait/BM2.jpg""style=""width:400px;height:400px;""></img>",5,html-button-response,361,1673361,0.0-18.0-22.0,99397,List1B,white,woman,,TRUE,5,,,,,
null,CORRECT,,html-keyboard-response,362,1674865,0.0-18.0-23.0-0.0,99397,List1B,white,woman,,,,null,,,,
1359,<p>You got 8 out of 8 right first time. Press Continue.</p>,0,html-button-response,363,1676227,0.0-18.0-25.0,99397,List1B,white,woman,,,,,,,,
null,"<div style=""font-size:60px;"">+</div>",,html-keyboard-response,364,1677733,0.0-19.0-0.0,99397,List1B,white,woman,,,,null,,,,
null,"<img src=""stim_listB/marry1.gif""</stim_listB>",,html-keyboard-response,365,1679738,0.0-19.0-1.0,99397,List1B,white,woman,,,,null,,,,
null,is marrying,,html-keyboard-response,366,1681742,0.0-19.0-2.0,99397,List1B,white,woman,,,,null,,,,
7835,,,survey-text,367,1689582,0.0-19.0-3.0,99397,List1B,white,woman,,,,,"{""Q0"":""Beth is marrying mike ""}","<img src=""stim_listB/marry1.gif""</stim_listB>",is marrying,
null,"<div style=""font-size:60px;"">+</div>",,html-keyboard-response,368,1690085,0.0-19.0-0.1,99397,List1B,white,woman,,,,null,,,,
null,"<img src=""stim_listB/argue1.gif""</stim_listB>",,html-keyboard-response,369,1692089,0.0-19.0-1.1,99397,List1B,white,woman,,,,null,,,,
null,is arguing with,,html-keyboard-response,370,1694093,0.0-19.0-2.1,99397,List1B,white,woman,,,,null,,,,
7948,,,survey-text,371,1702044,0.0-19.0-3.1,99397,List1B,white,woman,,,,,"{""Q0"":""Beth is arguing with mike ""}","<img src=""stim_listB/argue1.gif""</stim_listB>",is arguing with,
null,"<div style=""font-size:60px;"">+</div>",,html-keyboard-response,372,1702547,0.0-19.0-0.2,99397,List1B,white,woman,,,,null,,,,
null,"<img src=""stim_listB/talk7.gif""</stim_listB>",,html-keyboard-response,373,1704552,0.0-19.0-1.2,99397,List1B,white,woman,,,,null,,,,
null,is talking to,,html-keyboard-response,374,1706555,0.0-19.0-2.2,99397,List1B,white,woman,,,,null,,,,
14375,,,survey-text,375,1720935,0.0-19.0-3.2,99397,List1B,white,woman,,,,,"{""Q0"":""Jane is talking to Beth ""}","<img src=""stim_listB/talk7.gif""</stim_listB>",is talking to,
null,"<div style=""font-size:60px;"">+</div>",,html-keyboard-response,376,1721438,0.0-19.0-0.3,99397,List1B,white,woman,,,,null,,,,
null,"<img src=""stim_listB/argue4.gif""</stim_listB>",,html-keyboard-response,377,1723443,0.0-19.0-1.3,99397,List1B,white,woman,,,,null,,,,
null,are arguing with each other,,html-keyboard-response,378,1725447,0.0-19.0-2.3,99397,List1B,white,woman,,,,null,,,,
11546,,,survey-text,379,1736997,0.0-19.0-3.3,99397,List1B,white,woman,,,,,"{""Q0"":""Jane and Luke are arguing with each other ""}","<img src=""stim_listB/argue4.gif""</stim_listB>",are arguing with each other,
null,"<div style=""font-size:60px;"">+</div>",,html-keyboard-response,380,1737501,0.0-19.0-0.4,99397,List1B,white,woman,,,,null,,,,
null,"<img src=""stim_listB/marry4.gif""</stim_listB>",,html-keyboard-response,381,1739506,0.0-19.0-1.4,99397,List1B,white,woman,,,,null,,,,
null,are marrying each other,,html-keyboard-response,382,1741510,0.0-19.0-2.4,99397,List1B,white,woman,,,,null,,,,
13206,,,survey-text,383,1754721,0.0-19.0-3.4,99397,List1B,white,woman,,,,,"{""Q0"":""Luke and Jane are marrying each other ""}","<img src=""stim_listB/marry4.gif""</stim_listB>",are marrying each other,
null,"<div style=""font-size:60px;"">+</div>",,html-keyboard-response,384,1755224,0.0-19.0-0.5,99397,List1B,white,woman,,,,null,,,,
null,"<img src=""stim_listB/kiss8.gif""</stim_listB>",,html-keyboard-response,385,1757229,0.0-19.0-1.5,99397,List1B,white,woman,,,,null,,,,
null,are kissing each other,,html-keyboard-response,386,1759232,0.0-19.0-2.5,99397,List1B,white,woman,,,,null,,,,
16213,,,survey-text,387,1775448,0.0-19.0-3.5,99397,List1B,white,woman,,,,,"{""Q0"":""Jane and Kate are kissing each other ""}","<img src=""stim_listB/kiss8.gif""</stim_listB>",are kissing each other,
null,"<div style=""font-size:60px;"">+</div>",,html-keyboard-response,388,1775951,0.0-19.0-0.6,99397,List1B,white,woman,,,,null,,,,
null,"<img src=""stim_listB/dance3.gif""</stim_listB>",,html-keyboard-response,389,1777957,0.0-19.0-1.6,99397,List1B,white,woman,,,,null,,,,
null,is dancing with,,html-keyboard-response,390,1779961,0.0-19.0-2.6,99397,List1B,white,woman,,,,null,,,,
12208,,,survey-text,391,1792172,0.0-19.0-3.6,99397,List1B,white,woman,,,,,"{""Q0"":""Jane is dancing with Luke ""}","<img src=""stim_listB/dance3.gif""</stim_listB>",is dancing with,
null,"<div style=""font-size:60px;"">+</div>",,html-keyboard-response,392,1792675,0.0-19.0-0.7,99397,List1B,white,woman,,,,null,,,,
null,"<img src=""stim_listB/fight7.gif""</stim_listB>",,html-keyboard-response,393,1794680,0.0-19.0-1.7,99397,List1B,white,woman,,,,null,,,,
null,is fighting,,html-keyboard-response,394,1796684,0.0-19.0-2.7,99397,List1B,white,woman,,,,null,,,,
8273,,,survey-text,395,1804960,0.0-19.0-3.7,99397,List1B,white,woman,,,,,"{""Q0"":""Jane is fighting Kate ""}","<img src=""stim_listB/fight7.gif""</stim_listB>",is fighting,
null,"<div style=""font-size:60px;"">+</div>",,html-keyboard-response,396,1805464,0.0-19.0-0.8,99397,List1B,white,woman,,,,null,,,,
null,"<img src=""stim_listB/kiss6.gif""</stim_listB>",,html-keyboard-response,397,1807468,0.0-19.0-1.8,99397,List1B,white,woman,,,,null,,,,
null,are kissing each other,,html-keyboard-response,398,1809471,0.0-19.0-2.8,99397,List1B,white,woman,,,,null,,,,
10588,,,survey-text,399,1820062,0.0-19.0-3.8,99397,List1B,white,woman,,,,,"{""Q0"":""Dave and mike are kissing each other ""}","<img src=""stim_listB/kiss6.gif""</stim_listB>",are kissing each other,
null,"<div style=""font-size:60px;"">+</div>",,html-keyboard-response,400,1820565,0.0-19.0-0.9,99397,List1B,white,woman,,,,null,,,,
null,"<img src=""stim_listB/fight4.gif""</stim_listB>",,html-keyboard-response,401,1822570,0.0-19.0-1.9,99397,List1B,white,woman,,,,null,,,,
null,are fighting each other,,html-keyboard-response,402,1824573,0.0-19.0-2.9,99397,List1B,white,woman,,,,null,,,,
14498,,,survey-text,403,1839072,0.0-19.0-3.9,99397,List1B,white,woman,,,,,"{""Q0"":""Luke and Ruth are fighting each other ""}","<img src=""stim_listB/fight4.gif""</stim_listB>",are fighting each other,
null,"<div style=""font-size:60px;"">+</div>",,html-keyboard-response,404,1839575,0.0-19.0-0.10,99397,List1B,white,woman,,,,null,,,,
null,"<img src=""stim_listB/shout6.gif""</stim_listB>",,html-keyboard-response,405,1841579,0.0-19.0-1.10,99397,List1B,white,woman,,,,null,,,,
null,are shouting at each other,,html-keyboard-response,406,1843583,0.0-19.0-2.10,99397,List1B,white,woman,,,,null,,,,
12428,,,survey-text,407,1856015,0.0-19.0-3.10,99397,List1B,white,woman,,,,,"{""Q0"":""Dave and mike are shouting at each other ""}","<img src=""stim_listB/shout6.gif""</stim_listB>",are shouting at each other,
null,"<div style=""font-size:60px;"">+</div>",,html-keyboard-response,408,1856518,0.0-19.0-0.11,99397,List1B,white,woman,,,,null,,,,
null,"<img src=""stim_listB/kiss4.gif""</stim_listB>",,html-keyboard-response,409,1858522,0.0-19.0-1.11,99397,List1B,white,woman,,,,null,,,,
null,are kissing each other,,html-keyboard-response,410,1860526,0.0-19.0-2.11,99397,List1B,white,woman,,,,null,,,,
11491,,,survey-text,411,1872020,0.0-19.0-3.11,99397,List1B,white,woman,,,,,"{""Q0"":""Jane and Dave are kissing each other ""}","<img src=""stim_listB/kiss4.gif""</stim_listB>",are kissing each other,
null,"<div style=""font-size:60px;"">+</div>",,html-keyboard-response,412,1872523,0.0-19.0-0.12,99397,List1B,white,woman,,,,null,,,,
null,"<img src=""stim_listB/marry3.gif""</stim_listB>",,html-keyboard-response,413,1874528,0.0-19.0-1.12,99397,List1B,white,woman,,,,null,,,,
null,is marrying,,html-keyboard-response,414,1876532,0.0-19.0-2.12,99397,List1B,white,woman,,,,null,,,,
25897,,,survey-text,415,1902432,0.0-19.0-3.12,99397,List1B,white,woman,,,,,"{""Q0"":""Is marrying (blank screen)""}","<img src=""stim_listB/marry3.gif""</stim_listB>",is marrying,
null,"<div style=""font-size:60px;"">+</div>",,html-keyboard-response,416,1902935,0.0-19.0-0.13,99397,List1B,white,woman,,,,null,,,,
null,"<img src=""stim_listB/fight1.gif""</stim_listB>",,html-keyboard-response,417,1904940,0.0-19.0-1.13,99397,List1B,white,woman,,,,null,,,,
null,is fighting,,html-keyboard-response,418,1906943,0.0-19.0-2.13,99397,List1B,white,woman,,,,null,,,,
11350,,,survey-text,419,1918296,0.0-19.0-3.13,99397,List1B,white,woman,,,,,"{""Q0"":""Kate is fighting mike ""}","<img src=""stim_listB/fight1.gif""</stim_listB>",is fighting,
null,"<div style=""font-size:60px;"">+</div>",,html-keyboard-response,420,1918799,0.0-19.0-0.14,99397,List1B,white,woman,,,,null,,,,
null,"<img src=""stim_listB/meet8.gif""</stim_listB>",,html-keyboard-response,421,1920803,0.0-19.0-1.14,99397,List1B,white,woman,,,,null,,,,
null,are meeting each other,,html-keyboard-response,422,1922806,0.0-19.0-2.14,99397,List1B,white,woman,,,,null,,,,
12020,,,survey-text,423,1934830,0.0-19.0-3.14,99397,List1B,white,woman,,,,,"{""Q0"":""Beth and Ruth are meeting each other ""}","<img src=""stim_listB/meet8.gif""</stim_listB>",are meeting each other,
null,"<div style=""font-size:60px;"">+</div>",,html-keyboard-response,424,1935333,0.0-19.0-0.15,99397,List1B,white,woman,,,,null,,,,
null,"<img src=""stim_listB/hug6.gif""</stim_listB>",,html-keyboard-response,425,1937338,0.0-19.0-1.15,99397,List1B,white,woman,,,,null,,,,
null,are hugging each other,,html-keyboard-response,426,1939342,0.0-19.0-2.15,99397,List1B,white,woman,,,,null,,,,
11606,,,survey-text,427,1950951,0.0-19.0-3.15,99397,List1B,white,woman,,,,,"{""Q0"":""Dave and mike are hugging each other ""}","<img src=""stim_listB/hug6.gif""</stim_listB>",are hugging each other,
null,"<div style=""font-size:60px;"">+</div>",,html-keyboard-response,428,1951454,0.0-19.0-0.16,99397,List1B,white,woman,,,,null,,,,
null,"<img src=""stim_listB/dance2.gif""</stim_listB>",,html-keyboard-response,429,1953459,0.0-19.0-1.16,99397,List1B,white,woman,,,,null,,,,
null,are dancing with each other,,html-keyboard-response,430,1955463,0.0-19.0-2.16,99397,List1B,white,woman,,,,null,,,,
12198,,,survey-text,431,1967664,0.0-19.0-3.16,99397,List1B,white,woman,,,,,"{""Q0"":""Mike and Beth are dancing with each other ""}","<img src=""stim_listB/dance2.gif""</stim_listB>",are dancing with each other,
null,"<div style=""font-size:60px;"">+</div>",,html-keyboard-response,432,1968168,0.0-19.0-0.17,99397,List1B,white,woman,,,,null,,,,
null,"<img src=""stim_listB/touch1.gif""</stim_listB>",,html-keyboard-response,433,1970172,0.0-19.0-1.17,99397,List1B,white,woman,,,,null,,,,
null,is touching,,html-keyboard-response,434,1972176,0.0-19.0-2.17,99397,List1B,white,woman,,,,null,,,,
9594,,,survey-text,435,1981774,0.0-19.0-3.17,99397,List1B,white,woman,,,,,"{""Q0"":""Kate is touching mike ""}","<img src=""stim_listB/touch1.gif""</stim_listB>",is touching,
null,"<div style=""font-size:60px;"">+</div>",,html-keyboard-response,436,1982278,0.0-19.0-0.18,99397,List1B,white,woman,,,,null,,,,
null,"<img src=""stim_listB/talk3.gif""</stim_listB>",,html-keyboard-response,437,1984282,0.0-19.0-1.18,99397,List1B,white,woman,,,,null,,,,
null,is talking to,,html-keyboard-response,438,1986286,0.0-19.0-2.18,99397,List1B,white,woman,,,,null,,,,
11957,,,survey-text,439,1998246,0.0-19.0-3.18,99397,List1B,white,woman,,,,,"{""Q0"":""Jane is talking to Luke ""}","<img src=""stim_listB/talk3.gif""</stim_listB>",is talking to,
null,"<div style=""font-size:60px;"">+</div>",,html-keyboard-response,440,1998749,0.0-19.0-0.19,99397,List1B,white,woman,,,,null,,,,
null,"<img src=""stim_listB/argue5.gif""</stim_listB>",,html-keyboard-response,441,2000754,0.0-19.0-1.19,99397,List1B,white,woman,,,,null,,,,
null,is arguing with,,html-keyboard-response,442,2002757,0.0-19.0-2.19,99397,List1B,white,woman,,,,null,,,,
8504,,,survey-text,443,2011264,0.0-19.0-3.19,99397,List1B,white,woman,,,,,"{""Q0"":""Luke is arguing with mike ""}","<img src=""stim_listB/argue5.gif""</stim_listB>",is arguing with,
3387,<p>Thank you for completing that task.</p><p>The final part of this session is a short questionnaire.</p><p>Press Continue.</p>,0,html-button-response,444,2014654,0.0-20.0,99397,List1B,white,woman,,,,,,,,
24975,,,survey-text,445,2040634,0.0-21.0,99397,List1B,white,woman,,,,,"{""Q0"":""30"",""Q1"":""English "",""Q2"":""English "",""Q3"":""Usa "",""Q4"":""White"",""Q5"":""Female ""}",,,demographics
51323,,,survey-likert,446,2091971,0.0-22.0,99397,List1B,white,woman,,,,,"{""Q0"":3,""Q1"":3,""Q2"":3,""Q3"":3,""Q4"":3,""Q5"":3,""Q6"":3,""Q7"":0,""Q8"":0,""Q9"":0,""Q10"":3,""Q11"":3,""Q12"":3,""Q13"":3}",,,likert_race
55857,,,survey-likert,447,2147833,0.0-23.0,99397,List1B,white,woman,,,,,"{""Q0"":6,""Q1"":6,""Q2"":6,""Q3"":6,""Q4"":6,""Q5"":6,""Q6"":6,""Q7"":2,""Q8"":5,""Q9"":5,""Q10"":5,""Q11"":3,""Q12"":3,""Q13"":3}",,,likert_gender
11205,,,survey-text,448,2159044,0.0-24.0,99397,List1B,white,woman,,,,,"{""Q0"":""ccc""}",,,worker_id
32381,,,external-html,449,2191968,0.0-25.0,99397,List1B,white,woman,debrief.html,,,,,,,
