rt,stimulus,button_pressed,trial_type,trial_index,time_elapsed,internal_node_id,subject,list,ppt_race,ppt_gender,url,first_guess,correct,key_press,responses,image_type,phrase_type,test_part
2331,Welcome to the experiment. Press Continue to begin.,0,html-button-response,0,2334,0.0-0.0,99703,List2B,white,man,,,,,,,,
66201,,,external-html,1,69859,0.0-1.0,99703,List2B,white,man,consent.html,,,,,,,
16691,"<p>On the next page, you will see portraits of 8 people and their names.</p><p>Your first task is to take a few minutes to memorise the names of these people.</p><p>You will have to recall their names during the rest of the experiment, so it is</p><p>essential that you try to memorise these people and their names as best as you can.</p><br><p><strong>You will then be tested on your memory of these names and portraits.</strong></p><br><p>The experiment will start after you have completed this memory test.</p><br><p>Ready?</p>",0,html-button-response,2,86551,0.0-2.0,99703,List2B,white,man,,,,,,,,
59413,"<img src='img/portrait_matrix_list2.JPG' style='width:900px;height:500px;''></img><p>If you have memorised all the portraits and names and are ready to start, press Continue.</p><p><strong>Please note: Your memory of these faces will be tested 4 times during this experiment.</strong></p>",0,html-button-response,3,146967,0.0-3.0-0.0,99703,List2B,white,man,,,,,,,,
3344,"<img src=""portrait/WW2.jpg""style=""width:400px;height:400px;""></img>",3,html-button-response,4,151312,0.0-3.0-1.0,99703,List2B,white,man,,TRUE,3,,,,,
null,CORRECT,,html-keyboard-response,5,152815,0.0-3.0-2.0-0.0,99703,List2B,white,man,,,,null,,,,
3820,"<img src=""portrait/BW2.jpg""style=""width:400px;height:400px;""></img>",0,html-button-response,6,156636,0.0-3.0-4.0,99703,List2B,white,man,,TRUE,2,,,,,
7462,"<img src=""portrait/BW2.jpg""style=""width:400px;height:400px;""></img>",2,html-button-response,7,165100,0.0-3.0-6.0-0.0,99703,List2B,white,man,,FALSE,2,,,,,
null,CORRECT,,html-keyboard-response,8,166603,0.0-3.0-6.0-1.0-0.0,99703,List2B,white,man,,,,null,,,,
5894,"<img src=""portrait/BM1.jpg""style=""width:400px;height:400px;""></img>",4,html-button-response,9,172499,0.0-3.0-7.0,99703,List2B,white,man,,TRUE,4,,,,,
null,CORRECT,,html-keyboard-response,10,174001,0.0-3.0-8.0-0.0,99703,List2B,white,man,,,,null,,,,
3442,"<img src=""portrait/BW1.jpg""style=""width:400px;height:400px;""></img>",0,html-button-response,11,177445,0.0-3.0-10.0,99703,List2B,white,man,,TRUE,0,,,,,
null,CORRECT,,html-keyboard-response,12,178946,0.0-3.0-11.0-0.0,99703,List2B,white,man,,,,null,,,,
5500,"<img src=""portrait/WM1.jpg""style=""width:400px;height:400px;""></img>",6,html-button-response,13,184447,0.0-3.0-13.0,99703,List2B,white,man,,TRUE,6,,,,,
null,CORRECT,,html-keyboard-response,14,185948,0.0-3.0-14.0-0.0,99703,List2B,white,man,,,,null,,,,
3417,"<img src=""portrait/WM2.jpg""style=""width:400px;height:400px;""></img>",5,html-button-response,15,189366,0.0-3.0-16.0,99703,List2B,white,man,,TRUE,7,,,,,
2175,"<img src=""portrait/WM2.jpg""style=""width:400px;height:400px;""></img>",7,html-button-response,16,192544,0.0-3.0-18.0-0.0,99703,List2B,white,man,,FALSE,7,,,,,
null,CORRECT,,html-keyboard-response,17,194046,0.0-3.0-18.0-1.0-0.0,99703,List2B,white,man,,,,null,,,,
3357,"<img src=""portrait/BM2.jpg""style=""width:400px;height:400px;""></img>",5,html-button-response,18,197403,0.0-3.0-19.0,99703,List2B,white,man,,TRUE,5,,,,,
null,CORRECT,,html-keyboard-response,19,198905,0.0-3.0-20.0-0.0,99703,List2B,white,man,,,,null,,,,
2098,"<img src=""portrait/WW1.jpg""style=""width:400px;height:400px;""></img>",1,html-button-response,20,201005,0.0-3.0-22.0,99703,List2B,white,man,,TRUE,1,,,,,
null,CORRECT,,html-keyboard-response,21,202505,0.0-3.0-23.0-0.0,99703,List2B,white,man,,,,null,,,,
3042,<p>You got 6 out of 8 right first time. Press Continue.</p>,0,html-button-response,22,205548,0.0-3.0-25.0,99703,List2B,white,man,,,,,,,,
4362,"As you did not score 100%, the memory game will repeat. Press Continue.",0,html-button-response,23,210911,0.0-3.0-26.0-0.0,99703,List2B,white,man,,,,,,,,
2617,"<img src='img/portrait_matrix_list2.JPG' style='width:900px;height:500px;''></img><p>If you have memorised all the portraits and names and are ready to start, press Continue.</p><p><strong>Please note: Your memory of these faces will be tested 4 times during this experiment.</strong></p>",0,html-button-response,24,214530,0.0-3.1-0.1,99703,List2B,white,man,,,,,,,,
2757,"<img src=""portrait/WW2.jpg""style=""width:400px;height:400px;""></img>",3,html-button-response,25,218290,0.0-3.1-1.1,99703,List2B,white,man,,TRUE,3,,,,,
null,CORRECT,,html-keyboard-response,26,219792,0.0-3.1-2.1-0.1,99703,List2B,white,man,,,,null,,,,
1724,"<img src=""portrait/BW2.jpg""style=""width:400px;height:400px;""></img>",2,html-button-response,27,221517,0.0-3.1-4.1,99703,List2B,white,man,,TRUE,2,,,,,
null,CORRECT,,html-keyboard-response,28,223019,0.0-3.1-5.1-0.1,99703,List2B,white,man,,,,null,,,,
2786,"<img src=""portrait/BM1.jpg""style=""width:400px;height:400px;""></img>",4,html-button-response,29,225807,0.0-3.1-7.1,99703,List2B,white,man,,TRUE,4,,,,,
null,CORRECT,,html-keyboard-response,30,227308,0.0-3.1-8.1-0.1,99703,List2B,white,man,,,,null,,,,
2400,"<img src=""portrait/BW1.jpg""style=""width:400px;height:400px;""></img>",0,html-button-response,31,229715,0.0-3.1-10.1,99703,List2B,white,man,,TRUE,0,,,,,
null,CORRECT,,html-keyboard-response,32,231217,0.0-3.1-11.1-0.1,99703,List2B,white,man,,,,null,,,,
2035,"<img src=""portrait/WM1.jpg""style=""width:400px;height:400px;""></img>",6,html-button-response,33,233254,0.0-3.1-13.1,99703,List2B,white,man,,TRUE,6,,,,,
null,CORRECT,,html-keyboard-response,34,234755,0.0-3.1-14.1-0.1,99703,List2B,white,man,,,,null,,,,
3685,"<img src=""portrait/WM2.jpg""style=""width:400px;height:400px;""></img>",7,html-button-response,35,238441,0.0-3.1-16.1,99703,List2B,white,man,,TRUE,7,,,,,
null,CORRECT,,html-keyboard-response,36,239942,0.0-3.1-17.1-0.1,99703,List2B,white,man,,,,null,,,,
2127,"<img src=""portrait/BM2.jpg""style=""width:400px;height:400px;""></img>",5,html-button-response,37,242069,0.0-3.1-19.1,99703,List2B,white,man,,TRUE,5,,,,,
null,CORRECT,,html-keyboard-response,38,243572,0.0-3.1-20.1-0.1,99703,List2B,white,man,,,,null,,,,
2750,"<img src=""portrait/WW1.jpg""style=""width:400px;height:400px;""></img>",1,html-button-response,39,246323,0.0-3.1-22.1,99703,List2B,white,man,,TRUE,1,,,,,
null,CORRECT,,html-keyboard-response,40,247827,0.0-3.1-23.1-0.1,99703,List2B,white,man,,,,null,,,,
1176,<p>You got 8 out of 8 right first time. Press Continue.</p>,0,html-button-response,41,249004,0.0-3.1-25.1,99703,List2B,white,man,,,,,,,,
65698,"<p>In this experiment, you will view photographs of the people from the memory game interacting.</p><p>By using the <strong>exact</strong> phrase given <i>after</i> the photograph appears and recalling the correct names of the people in the photographs, form a sentence describing the interaction. You do not need to capitalise names.</p><p>Type your answer in the space provided. Please complete every sentence before moving onto the next trial.</p><p>You will only have a few seconds to memorise each given photograph and phrase before you can respond, so try your best to focus.</p><p>An example is given below. Press 'Continue' when you are ready.</p><img src='img/speaking_example_v2.jpg' style='width:800px;height:460px;''></img>",0,html-button-response,42,315704,0.0-4.0,99703,List2B,white,man,,,,,,,,
3076,"<p>Before the experiment starts, you will watch two example trials. Press 'Continue'.</p>",0,html-button-response,43,319781,0.0-5.0,99703,List2B,white,man,,,,,,,,
null,<img src='img/speaking_WW.gif'></img>,,html-keyboard-response,44,322785,0.0-6.0,99703,List2B,white,man,,,,null,,,,
null,<p>is speaking to</p>,,html-keyboard-response,45,324785,0.0-7.0,99703,List2B,white,man,,,,null,,,,
3930,<p><b>Answer:</b> jane is speaking to ruth</p>,0,html-button-response,46,328716,0.0-8.0,99703,List2B,white,man,,,,,,,,
null,<img src='img/pointing_BM.gif'></img>,,html-keyboard-response,47,331720,0.0-9.0,99703,List2B,white,man,,,,null,,,,
null,<p>are pointing at each other</p>,,html-keyboard-response,48,333720,0.0-10.0,99703,List2B,white,man,,,,null,,,,
8944,<p><b>Answer:</b> fred and mike are pointing at each other</p>,0,html-button-response,49,342665,0.0-11.0,99703,List2B,white,man,,,,,,,,
9785,"<p>Ready to start the experiment?</p><br><p><strong>Remember to describe the picture using a full sentence,</strong></p><p><strong> that combines the names of the people with the given phrase.</strong></p><p><strong> You do not need to capitalise names or use punctuation.</strong></p><br><p>Press 'Continue' to begin.</p>",0,html-button-response,50,353453,0.0-12.0,99703,List2B,white,man,,,,,,,,
null,"<div style=""font-size:60px;"">+</div>",,html-keyboard-response,51,354956,0.0-13.0-0.0,99703,List2B,white,man,,,,null,,,,
null,"<img src=""stim_listB/hug1.gif""</stim_listB>",,html-keyboard-response,52,356957,0.0-13.0-1.0,99703,List2B,white,man,,,,null,,,,
null,is hugging,,html-keyboard-response,53,358958,0.0-13.0-2.0,99703,List2B,white,man,,,,null,,,,
13309,,,survey-text,54,372268,0.0-13.0-3.0,99703,List2B,white,man,,,,,"{""Q0"":""luke and ruth is hugging""}","<img src=""stim_listB/hug1.gif""</stim_listB>",is hugging,
null,"<div style=""font-size:60px;"">+</div>",,html-keyboard-response,55,372769,0.0-13.0-0.1,99703,List2B,white,man,,,,null,,,,
null,"<img src=""stim_listB/kiss5.gif""</stim_listB>",,html-keyboard-response,56,374770,0.0-13.0-1.1,99703,List2B,white,man,,,,null,,,,
null,is kissing,,html-keyboard-response,57,376773,0.0-13.0-2.1,99703,List2B,white,man,,,,null,,,,
12273,,,survey-text,58,389046,0.0-13.0-3.1,99703,List2B,white,man,,,,,"{""Q0"":""luke and fred is kissing""}","<img src=""stim_listB/kiss5.gif""</stim_listB>",is kissing,
null,"<div style=""font-size:60px;"">+</div>",,html-keyboard-response,59,389549,0.0-13.0-0.2,99703,List2B,white,man,,,,null,,,,
null,"<img src=""stim_listB/fight3.gif""</stim_listB>",,html-keyboard-response,60,391549,0.0-13.0-1.2,99703,List2B,white,man,,,,null,,,,
null,is fighting,,html-keyboard-response,61,393551,0.0-13.0-2.2,99703,List2B,white,man,,,,null,,,,
16871,,,survey-text,62,410422,0.0-13.0-3.2,99703,List2B,white,man,,,,,"{""Q0"":""kate and mike are fighting""}","<img src=""stim_listB/fight3.gif""</stim_listB>",is fighting,
null,"<div style=""font-size:60px;"">+</div>",,html-keyboard-response,63,410923,0.0-13.0-0.3,99703,List2B,white,man,,,,null,,,,
null,"<img src=""stim_listB/marry3.gif""</stim_listB>",,html-keyboard-response,64,412926,0.0-13.0-1.3,99703,List2B,white,man,,,,null,,,,
null,is marrying,,html-keyboard-response,65,414926,0.0-13.0-2.3,99703,List2B,white,man,,,,null,,,,
13509,,,survey-text,66,428435,0.0-13.0-3.3,99703,List2B,white,man,,,,,"{""Q0"":""beth and mike are getting married""}","<img src=""stim_listB/marry3.gif""</stim_listB>",is marrying,
null,"<div style=""font-size:60px;"">+</div>",,html-keyboard-response,67,428936,0.0-13.0-0.4,99703,List2B,white,man,,,,null,,,,
null,"<img src=""stim_listB/marry8.gif""</stim_listB>",,html-keyboard-response,68,430939,0.0-13.0-1.4,99703,List2B,white,man,,,,null,,,,
null,are marrying each other,,html-keyboard-response,69,432941,0.0-13.0-2.4,99703,List2B,white,man,,,,null,,,,
11304,,,survey-text,70,444245,0.0-13.0-3.4,99703,List2B,white,man,,,,,"{""Q0"":""kate and jane are marrying each other""}","<img src=""stim_listB/marry8.gif""</stim_listB>",are marrying each other,
null,"<div style=""font-size:60px;"">+</div>",,html-keyboard-response,71,444747,0.0-13.0-0.5,99703,List2B,white,man,,,,null,,,,
null,"<img src=""stim_listB/marry7.gif""</stim_listB>",,html-keyboard-response,72,446748,0.0-13.0-1.5,99703,List2B,white,man,,,,null,,,,
null,is marrying,,html-keyboard-response,73,448748,0.0-13.0-2.5,99703,List2B,white,man,,,,null,,,,
13183,,,survey-text,74,461933,0.0-13.0-3.5,99703,List2B,white,man,,,,,"{""Q0"":""beth and jane are marrying""}","<img src=""stim_listB/marry7.gif""</stim_listB>",is marrying,
null,"<div style=""font-size:60px;"">+</div>",,html-keyboard-response,75,462433,0.0-13.0-0.6,99703,List2B,white,man,,,,null,,,,
null,"<img src=""stim_listB/shout7.gif""</stim_listB>",,html-keyboard-response,76,464435,0.0-13.0-1.6,99703,List2B,white,man,,,,null,,,,
null,is shouting at,,html-keyboard-response,77,466437,0.0-13.0-2.6,99703,List2B,white,man,,,,null,,,,
9672,,,survey-text,78,476109,0.0-13.0-3.6,99703,List2B,white,man,,,,,"{""Q0"":""beth is shouting at jane""}","<img src=""stim_listB/shout7.gif""</stim_listB>",is shouting at,
null,"<div style=""font-size:60px;"">+</div>",,html-keyboard-response,79,476611,0.0-13.0-0.7,99703,List2B,white,man,,,,null,,,,
null,"<img src=""stim_listB/kiss4.gif""</stim_listB>",,html-keyboard-response,80,478613,0.0-13.0-1.7,99703,List2B,white,man,,,,null,,,,
null,are kissing each other,,html-keyboard-response,81,480614,0.0-13.0-2.7,99703,List2B,white,man,,,,null,,,,
8836,,,survey-text,82,489450,0.0-13.0-3.7,99703,List2B,white,man,,,,,"{""Q0"":""kate and mike are kissing""}","<img src=""stim_listB/kiss4.gif""</stim_listB>",are kissing each other,
null,"<div style=""font-size:60px;"">+</div>",,html-keyboard-response,83,489952,0.0-13.0-0.8,99703,List2B,white,man,,,,null,,,,
null,"<img src=""stim_listB/dance7.gif""</stim_listB>",,html-keyboard-response,84,491954,0.0-13.0-1.8,99703,List2B,white,man,,,,null,,,,
null,is dancing with,,html-keyboard-response,85,493955,0.0-13.0-2.8,99703,List2B,white,man,,,,null,,,,
6779,,,survey-text,86,500735,0.0-13.0-3.8,99703,List2B,white,man,,,,,"{""Q0"":""kate is dancing with ruth""}","<img src=""stim_listB/dance7.gif""</stim_listB>",is dancing with,
null,"<div style=""font-size:60px;"">+</div>",,html-keyboard-response,87,501237,0.0-13.0-0.9,99703,List2B,white,man,,,,null,,,,
null,"<img src=""stim_listB/meet4.gif""</stim_listB>",,html-keyboard-response,88,503240,0.0-13.0-1.9,99703,List2B,white,man,,,,null,,,,
null,are meeting each other,,html-keyboard-response,89,505242,0.0-13.0-2.9,99703,List2B,white,man,,,,null,,,,
10531,,,survey-text,90,515773,0.0-13.0-3.9,99703,List2B,white,man,,,,,"{""Q0"":""fred and beth are meeting each other""}","<img src=""stim_listB/meet4.gif""</stim_listB>",are meeting each other,
null,"<div style=""font-size:60px;"">+</div>",,html-keyboard-response,91,516275,0.0-13.0-0.10,99703,List2B,white,man,,,,null,,,,
null,"<img src=""stim_listB/meet2.gif""</stim_listB>",,html-keyboard-response,92,518276,0.0-13.0-1.10,99703,List2B,white,man,,,,null,,,,
null,are meeting each other,,html-keyboard-response,93,520278,0.0-13.0-2.10,99703,List2B,white,man,,,,null,,,,
7966,,,survey-text,94,528245,0.0-13.0-3.10,99703,List2B,white,man,,,,,"{""Q0"":""luke and ruth are meeting eachother""}","<img src=""stim_listB/meet2.gif""</stim_listB>",are meeting each other,
null,"<div style=""font-size:60px;"">+</div>",,html-keyboard-response,95,528747,0.0-13.0-0.11,99703,List2B,white,man,,,,null,,,,
null,"<img src=""stim_listB/fight8.gif""</stim_listB>",,html-keyboard-response,96,530748,0.0-13.0-1.11,99703,List2B,white,man,,,,null,,,,
null,are fighting each other,,html-keyboard-response,97,532749,0.0-13.0-2.11,99703,List2B,white,man,,,,null,,,,
7752,,,survey-text,98,540502,0.0-13.0-3.11,99703,List2B,white,man,,,,,"{""Q0"":""ruth and beth are fighting eachother""}","<img src=""stim_listB/fight8.gif""</stim_listB>",are fighting each other,
null,"<div style=""font-size:60px;"">+</div>",,html-keyboard-response,99,541004,0.0-13.0-0.12,99703,List2B,white,man,,,,null,,,,
null,"<img src=""stim_listB/shout5.gif""</stim_listB>",,html-keyboard-response,100,543004,0.0-13.0-1.12,99703,List2B,white,man,,,,null,,,,
null,is shouting at,,html-keyboard-response,101,545006,0.0-13.0-2.12,99703,List2B,white,man,,,,null,,,,
7772,,,survey-text,102,552778,0.0-13.0-3.12,99703,List2B,white,man,,,,,"{""Q0"":""luke is shouting at fred""}","<img src=""stim_listB/shout5.gif""</stim_listB>",is shouting at,
null,"<div style=""font-size:60px;"">+</div>",,html-keyboard-response,103,553280,0.0-13.0-0.13,99703,List2B,white,man,,,,null,,,,
null,"<img src=""stim_listB/hug3.gif""</stim_listB>",,html-keyboard-response,104,555281,0.0-13.0-1.13,99703,List2B,white,man,,,,null,,,,
null,is hugging,,html-keyboard-response,105,557283,0.0-13.0-2.13,99703,List2B,white,man,,,,null,,,,
5627,,,survey-text,106,562910,0.0-13.0-3.13,99703,List2B,white,man,,,,,"{""Q0"":""luke is hugging beth""}","<img src=""stim_listB/hug3.gif""</stim_listB>",is hugging,
null,"<div style=""font-size:60px;"">+</div>",,html-keyboard-response,107,563412,0.0-13.0-0.14,99703,List2B,white,man,,,,null,,,,
null,"<img src=""stim_listB/argue6.gif""</stim_listB>",,html-keyboard-response,108,565415,0.0-13.0-1.14,99703,List2B,white,man,,,,null,,,,
null,are arguing with each other,,html-keyboard-response,109,567416,0.0-13.0-2.14,99703,List2B,white,man,,,,null,,,,
11913,,,survey-text,110,579329,0.0-13.0-3.14,99703,List2B,white,man,,,,,"{""Q0"":""luke and mike are arguing with eachother""}","<img src=""stim_listB/argue6.gif""</stim_listB>",are arguing with each other,
null,"<div style=""font-size:60px;"">+</div>",,html-keyboard-response,111,579830,0.0-13.0-0.15,99703,List2B,white,man,,,,null,,,,
null,"<img src=""stim_listB/shout3.gif""</stim_listB>",,html-keyboard-response,112,581831,0.0-13.0-1.15,99703,List2B,white,man,,,,null,,,,
null,is shouting at,,html-keyboard-response,113,583833,0.0-13.0-2.15,99703,List2B,white,man,,,,null,,,,
5677,,,survey-text,114,589510,0.0-13.0-3.15,99703,List2B,white,man,,,,,"{""Q0"":""fred is shouting at beth""}","<img src=""stim_listB/shout3.gif""</stim_listB>",is shouting at,
null,"<div style=""font-size:60px;"">+</div>",,html-keyboard-response,115,590012,0.0-13.0-0.16,99703,List2B,white,man,,,,null,,,,
null,"<img src=""stim_listB/shout4.gif""</stim_listB>",,html-keyboard-response,116,592014,0.0-13.0-1.16,99703,List2B,white,man,,,,null,,,,
null,are shouting at each other,,html-keyboard-response,117,594014,0.0-13.0-2.16,99703,List2B,white,man,,,,null,,,,
18447,,,survey-text,118,612463,0.0-13.0-3.16,99703,List2B,white,man,,,,,"{""Q0"":""mike is shouting at kate""}","<img src=""stim_listB/shout4.gif""</stim_listB>",are shouting at each other,
null,"<div style=""font-size:60px;"">+</div>",,html-keyboard-response,119,612964,0.0-13.0-0.17,99703,List2B,white,man,,,,null,,,,
null,"<img src=""stim_listB/marry1.gif""</stim_listB>",,html-keyboard-response,120,614966,0.0-13.0-1.17,99703,List2B,white,man,,,,null,,,,
null,is marrying,,html-keyboard-response,121,616967,0.0-13.0-2.17,99703,List2B,white,man,,,,null,,,,
11734,,,survey-text,122,628701,0.0-13.0-3.17,99703,List2B,white,man,,,,,"{""Q0"":""dave is marrying ruth""}","<img src=""stim_listB/marry1.gif""</stim_listB>",is marrying,
null,"<div style=""font-size:60px;"">+</div>",,html-keyboard-response,123,629202,0.0-13.0-0.18,99703,List2B,white,man,,,,null,,,,
null,"<img src=""stim_listB/dance6.gif""</stim_listB>",,html-keyboard-response,124,631204,0.0-13.0-1.18,99703,List2B,white,man,,,,null,,,,
null,are dancing with each other,,html-keyboard-response,125,633205,0.0-13.0-2.18,99703,List2B,white,man,,,,null,,,,
8136,,,survey-text,126,641342,0.0-13.0-3.18,99703,List2B,white,man,,,,,"{""Q0"":""dave and fred are dancing with eachother""}","<img src=""stim_listB/dance6.gif""</stim_listB>",are dancing with each other,
null,"<div style=""font-size:60px;"">+</div>",,html-keyboard-response,127,641842,0.0-13.0-0.19,99703,List2B,white,man,,,,null,,,,
null,"<img src=""stim_listB/meet7.gif""</stim_listB>",,html-keyboard-response,128,643844,0.0-13.0-1.19,99703,List2B,white,man,,,,null,,,,
null,is meeting,,html-keyboard-response,129,645845,0.0-13.0-2.19,99703,List2B,white,man,,,,null,,,,
6270,,,survey-text,130,652116,0.0-13.0-3.19,99703,List2B,white,man,,,,,"{""Q0"":""kate is meeting jane""}","<img src=""stim_listB/meet7.gif""</stim_listB>",is meeting,
5188,"<img src='img/portrait_matrix_list2.JPG' style='width:900px;height:500px;''></img><p>If you have memorised all the portraits and names and are ready to start, press Continue.</p><p><strong>Please note: Your memory of these faces will be tested 4 times during this experiment.</strong></p>",0,html-button-response,131,657305,0.0-14.0-0.0,99703,List2B,white,man,,,,,,,,
4314,"<img src=""portrait/BW1.jpg""style=""width:400px;height:400px;""></img>",0,html-button-response,132,662621,0.0-14.0-1.0,99703,List2B,white,man,,TRUE,0,,,,,
null,CORRECT,,html-keyboard-response,133,664124,0.0-14.0-2.0-0.0,99703,List2B,white,man,,,,null,,,,
3065,"<img src=""portrait/WM2.jpg""style=""width:400px;height:400px;""></img>",7,html-button-response,134,667191,0.0-14.0-4.0,99703,List2B,white,man,,TRUE,7,,,,,
null,CORRECT,,html-keyboard-response,135,668692,0.0-14.0-5.0-0.0,99703,List2B,white,man,,,,null,,,,
2784,"<img src=""portrait/WW1.jpg""style=""width:400px;height:400px;""></img>",1,html-button-response,136,671477,0.0-14.0-7.0,99703,List2B,white,man,,TRUE,1,,,,,
null,CORRECT,,html-keyboard-response,137,672977,0.0-14.0-8.0-0.0,99703,List2B,white,man,,,,null,,,,
2794,"<img src=""portrait/BM1.jpg""style=""width:400px;height:400px;""></img>",4,html-button-response,138,675772,0.0-14.0-10.0,99703,List2B,white,man,,TRUE,4,,,,,
null,CORRECT,,html-keyboard-response,139,677276,0.0-14.0-11.0-0.0,99703,List2B,white,man,,,,null,,,,
2639,"<img src=""portrait/BW2.jpg""style=""width:400px;height:400px;""></img>",2,html-button-response,140,679915,0.0-14.0-13.0,99703,List2B,white,man,,TRUE,2,,,,,
null,CORRECT,,html-keyboard-response,141,681417,0.0-14.0-14.0-0.0,99703,List2B,white,man,,,,null,,,,
2553,"<img src=""portrait/WM1.jpg""style=""width:400px;height:400px;""></img>",6,html-button-response,142,683972,0.0-14.0-16.0,99703,List2B,white,man,,TRUE,6,,,,,
null,CORRECT,,html-keyboard-response,143,685473,0.0-14.0-17.0-0.0,99703,List2B,white,man,,,,null,,,,
2434,"<img src=""portrait/WW2.jpg""style=""width:400px;height:400px;""></img>",3,html-button-response,144,687908,0.0-14.0-19.0,99703,List2B,white,man,,TRUE,3,,,,,
null,CORRECT,,html-keyboard-response,145,689410,0.0-14.0-20.0-0.0,99703,List2B,white,man,,,,null,,,,
3563,"<img src=""portrait/BM2.jpg""style=""width:400px;height:400px;""></img>",5,html-button-response,146,692975,0.0-14.0-22.0,99703,List2B,white,man,,TRUE,5,,,,,
null,CORRECT,,html-keyboard-response,147,694477,0.0-14.0-23.0-0.0,99703,List2B,white,man,,,,null,,,,
1042,<p>You got 8 out of 8 right first time. Press Continue.</p>,0,html-button-response,148,695520,0.0-14.0-25.0,99703,List2B,white,man,,,,,,,,
null,"<div style=""font-size:60px;"">+</div>",,html-keyboard-response,149,697022,0.0-15.0-0.0,99703,List2B,white,man,,,,null,,,,
null,"<img src=""stim_listB/argue3.gif""</stim_listB>",,html-keyboard-response,150,699023,0.0-15.0-1.0,99703,List2B,white,man,,,,null,,,,
null,is arguing with,,html-keyboard-response,151,701025,0.0-15.0-2.0,99703,List2B,white,man,,,,null,,,,
6791,,,survey-text,152,707816,0.0-15.0-3.0,99703,List2B,white,man,,,,,"{""Q0"":""mike is arguing with beth""}","<img src=""stim_listB/argue3.gif""</stim_listB>",is arguing with,
null,"<div style=""font-size:60px;"">+</div>",,html-keyboard-response,153,708318,0.0-15.0-0.1,99703,List2B,white,man,,,,null,,,,
null,"<img src=""stim_listB/touch4.gif""</stim_listB>",,html-keyboard-response,154,710320,0.0-15.0-1.1,99703,List2B,white,man,,,,null,,,,
null,are touching each other,,html-keyboard-response,155,712320,0.0-15.0-2.1,99703,List2B,white,man,,,,null,,,,
9788,,,survey-text,156,722109,0.0-15.0-3.1,99703,List2B,white,man,,,,,"{""Q0"":""beth and fred are touching eachother""}","<img src=""stim_listB/touch4.gif""</stim_listB>",are touching each other,
null,"<div style=""font-size:60px;"">+</div>",,html-keyboard-response,157,722611,0.0-15.0-0.2,99703,List2B,white,man,,,,null,,,,
null,"<img src=""stim_listB/dance3.gif""</stim_listB>",,html-keyboard-response,158,724612,0.0-15.0-1.2,99703,List2B,white,man,,,,null,,,,
null,is dancing with,,html-keyboard-response,159,726612,0.0-15.0-2.2,99703,List2B,white,man,,,,null,,,,
5401,,,survey-text,160,732014,0.0-15.0-3.2,99703,List2B,white,man,,,,,"{""Q0"":""fred is dancing with kate""}","<img src=""stim_listB/dance3.gif""</stim_listB>",is dancing with,
null,"<div style=""font-size:60px;"">+</div>",,html-keyboard-response,161,732516,0.0-15.0-0.3,99703,List2B,white,man,,,,null,,,,
null,"<img src=""stim_listB/fight4.gif""</stim_listB>",,html-keyboard-response,162,734517,0.0-15.0-1.3,99703,List2B,white,man,,,,null,,,,
null,are fighting each other,,html-keyboard-response,163,736519,0.0-15.0-2.3,99703,List2B,white,man,,,,null,,,,
6444,,,survey-text,164,742963,0.0-15.0-3.3,99703,List2B,white,man,,,,,"{""Q0"":""fred and beth are fighting eachother""}","<img src=""stim_listB/fight4.gif""</stim_listB>",are fighting each other,
null,"<div style=""font-size:60px;"">+</div>",,html-keyboard-response,165,743465,0.0-15.0-0.4,99703,List2B,white,man,,,,null,,,,
null,"<img src=""stim_listB/fight7.gif""</stim_listB>",,html-keyboard-response,166,745466,0.0-15.0-1.4,99703,List2B,white,man,,,,null,,,,
null,is fighting,,html-keyboard-response,167,747467,0.0-15.0-2.4,99703,List2B,white,man,,,,null,,,,
4087,,,survey-text,168,751555,0.0-15.0-3.4,99703,List2B,white,man,,,,,"{""Q0"":""jane is fighting kate""}","<img src=""stim_listB/fight7.gif""</stim_listB>",is fighting,
null,"<div style=""font-size:60px;"">+</div>",,html-keyboard-response,169,752057,0.0-15.0-0.5,99703,List2B,white,man,,,,null,,,,
null,"<img src=""stim_listB/touch2.gif""</stim_listB>",,html-keyboard-response,170,754058,0.0-15.0-1.5,99703,List2B,white,man,,,,null,,,,
null,are touching each other,,html-keyboard-response,171,756059,0.0-15.0-2.5,99703,List2B,white,man,,,,null,,,,
7754,,,survey-text,172,763814,0.0-15.0-3.5,99703,List2B,white,man,,,,,"{""Q0"":""luke and ruth are fighting eachother""}","<img src=""stim_listB/touch2.gif""</stim_listB>",are touching each other,
null,"<div style=""font-size:60px;"">+</div>",,html-keyboard-response,173,764315,0.0-15.0-0.6,99703,List2B,white,man,,,,null,,,,
null,"<img src=""stim_listB/meet6.gif""</stim_listB>",,html-keyboard-response,174,766316,0.0-15.0-1.6,99703,List2B,white,man,,,,null,,,,
null,are meeting each other,,html-keyboard-response,175,768318,0.0-15.0-2.6,99703,List2B,white,man,,,,null,,,,
7017,,,survey-text,176,775336,0.0-15.0-3.6,99703,List2B,white,man,,,,,"{""Q0"":""luke and fred are meeting eachother""}","<img src=""stim_listB/meet6.gif""</stim_listB>",are meeting each other,
null,"<div style=""font-size:60px;"">+</div>",,html-keyboard-response,177,775837,0.0-15.0-0.7,99703,List2B,white,man,,,,null,,,,
null,"<img src=""stim_listB/hug8.gif""</stim_listB>",,html-keyboard-response,178,777838,0.0-15.0-1.7,99703,List2B,white,man,,,,null,,,,
null,are hugging each other,,html-keyboard-response,179,779838,0.0-15.0-2.7,99703,List2B,white,man,,,,null,,,,
6670,,,survey-text,180,786508,0.0-15.0-3.7,99703,List2B,white,man,,,,,"{""Q0"":""jane and kate are hugging eachother""}","<img src=""stim_listB/hug8.gif""</stim_listB>",are hugging each other,
null,"<div style=""font-size:60px;"">+</div>",,html-keyboard-response,181,787009,0.0-15.0-0.8,99703,List2B,white,man,,,,null,,,,
null,"<img src=""stim_listB/fight1.gif""</stim_listB>",,html-keyboard-response,182,789011,0.0-15.0-1.8,99703,List2B,white,man,,,,null,,,,
null,is fighting,,html-keyboard-response,183,791013,0.0-15.0-2.8,99703,List2B,white,man,,,,null,,,,
5345,,,survey-text,184,796358,0.0-15.0-3.8,99703,List2B,white,man,,,,,"{""Q0"":""jane is fighting dave""}","<img src=""stim_listB/fight1.gif""</stim_listB>",is fighting,
null,"<div style=""font-size:60px;"">+</div>",,html-keyboard-response,185,796860,0.0-15.0-0.9,99703,List2B,white,man,,,,null,,,,
null,"<img src=""stim_listB/touch7.gif""</stim_listB>",,html-keyboard-response,186,798862,0.0-15.0-1.9,99703,List2B,white,man,,,,null,,,,
null,is touching,,html-keyboard-response,187,800863,0.0-15.0-2.9,99703,List2B,white,man,,,,null,,,,
11362,,,survey-text,188,812227,0.0-15.0-3.9,99703,List2B,white,man,,,,,"{""Q0"":""kate and jane are touching eachother""}","<img src=""stim_listB/touch7.gif""</stim_listB>",is touching,
null,"<div style=""font-size:60px;"">+</div>",,html-keyboard-response,189,812729,0.0-15.0-0.10,99703,List2B,white,man,,,,null,,,,
null,"<img src=""stim_listB/argue1.gif""</stim_listB>",,html-keyboard-response,190,814730,0.0-15.0-1.10,99703,List2B,white,man,,,,null,,,,
null,is arguing with,,html-keyboard-response,191,816731,0.0-15.0-2.10,99703,List2B,white,man,,,,null,,,,
5721,,,survey-text,192,822453,0.0-15.0-3.10,99703,List2B,white,man,,,,,"{""Q0"":""ruth is arguing with dave""}","<img src=""stim_listB/argue1.gif""</stim_listB>",is arguing with,
null,"<div style=""font-size:60px;"">+</div>",,html-keyboard-response,193,822955,0.0-15.0-0.11,99703,List2B,white,man,,,,null,,,,
null,"<img src=""stim_listB/talk5.gif""</stim_listB>",,html-keyboard-response,194,824957,0.0-15.0-1.11,99703,List2B,white,man,,,,null,,,,
null,is talking to,,html-keyboard-response,195,826958,0.0-15.0-2.11,99703,List2B,white,man,,,,null,,,,
5570,,,survey-text,196,832530,0.0-15.0-3.11,99703,List2B,white,man,,,,,"{""Q0"":""luke is talking to mike""}","<img src=""stim_listB/talk5.gif""</stim_listB>",is talking to,
null,"<div style=""font-size:60px;"">+</div>",,html-keyboard-response,197,833031,0.0-15.0-0.12,99703,List2B,white,man,,,,null,,,,
null,"<img src=""stim_listB/marry5.gif""</stim_listB>",,html-keyboard-response,198,835033,0.0-15.0-1.12,99703,List2B,white,man,,,,null,,,,
null,is marrying,,html-keyboard-response,199,837035,0.0-15.0-2.12,99703,List2B,white,man,,,,null,,,,
4792,,,survey-text,200,841827,0.0-15.0-3.12,99703,List2B,white,man,,,,,"{""Q0"":""fred is marrying dave""}","<img src=""stim_listB/marry5.gif""</stim_listB>",is marrying,
null,"<div style=""font-size:60px;"">+</div>",,html-keyboard-response,201,842329,0.0-15.0-0.13,99703,List2B,white,man,,,,null,,,,
null,"<img src=""stim_listB/dance5.gif""</stim_listB>",,html-keyboard-response,202,844329,0.0-15.0-1.13,99703,List2B,white,man,,,,null,,,,
null,is dancing with,,html-keyboard-response,203,846330,0.0-15.0-2.13,99703,List2B,white,man,,,,null,,,,
4839,,,survey-text,204,851169,0.0-15.0-3.13,99703,List2B,white,man,,,,,"{""Q0"":""luke is dancing with mike""}","<img src=""stim_listB/dance5.gif""</stim_listB>",is dancing with,
null,"<div style=""font-size:60px;"">+</div>",,html-keyboard-response,205,851670,0.0-15.0-0.14,99703,List2B,white,man,,,,null,,,,
null,"<img src=""stim_listB/fight5.gif""</stim_listB>",,html-keyboard-response,206,853672,0.0-15.0-1.14,99703,List2B,white,man,,,,null,,,,
null,is fighting,,html-keyboard-response,207,855672,0.0-15.0-2.14,99703,List2B,white,man,,,,null,,,,
6959,,,survey-text,208,862632,0.0-15.0-3.14,99703,List2B,white,man,,,,,"{""Q0"":""mike is fighting dave""}","<img src=""stim_listB/fight5.gif""</stim_listB>",is fighting,
null,"<div style=""font-size:60px;"">+</div>",,html-keyboard-response,209,863134,0.0-15.0-0.15,99703,List2B,white,man,,,,null,,,,
null,"<img src=""stim_listB/hug7.gif""</stim_listB>",,html-keyboard-response,210,865135,0.0-15.0-1.15,99703,List2B,white,man,,,,null,,,,
null,is hugging,,html-keyboard-response,211,867137,0.0-15.0-2.15,99703,List2B,white,man,,,,null,,,,
6817,,,survey-text,212,873954,0.0-15.0-3.15,99703,List2B,white,man,,,,,"{""Q0"":""ruth is hugging beth""}","<img src=""stim_listB/hug7.gif""</stim_listB>",is hugging,
null,"<div style=""font-size:60px;"">+</div>",,html-keyboard-response,213,874455,0.0-15.0-0.16,99703,List2B,white,man,,,,null,,,,
null,"<img src=""stim_listB/meet8.gif""</stim_listB>",,html-keyboard-response,214,876457,0.0-15.0-1.16,99703,List2B,white,man,,,,null,,,,
null,are meeting each other,,html-keyboard-response,215,878459,0.0-15.0-2.16,99703,List2B,white,man,,,,null,,,,
6189,,,survey-text,216,884649,0.0-15.0-3.16,99703,List2B,white,man,,,,,"{""Q0"":""ruth and beth are meeting eachother""}","<img src=""stim_listB/meet8.gif""</stim_listB>",are meeting each other,
null,"<div style=""font-size:60px;"">+</div>",,html-keyboard-response,217,885149,0.0-15.0-0.17,99703,List2B,white,man,,,,null,,,,
null,"<img src=""stim_listB/shout2.gif""</stim_listB>",,html-keyboard-response,218,887151,0.0-15.0-1.17,99703,List2B,white,man,,,,null,,,,
null,are shouting at each other,,html-keyboard-response,219,889153,0.0-15.0-2.17,99703,List2B,white,man,,,,null,,,,
6928,,,survey-text,220,896081,0.0-15.0-3.17,99703,List2B,white,man,,,,,"{""Q0"":""dave and jane are shouting at eachother""}","<img src=""stim_listB/shout2.gif""</stim_listB>",are shouting at each other,
null,"<div style=""font-size:60px;"">+</div>",,html-keyboard-response,221,896584,0.0-15.0-0.18,99703,List2B,white,man,,,,null,,,,
null,"<img src=""stim_listB/marry2.gif""</stim_listB>",,html-keyboard-response,222,898586,0.0-15.0-1.18,99703,List2B,white,man,,,,null,,,,
null,are marrying each other,,html-keyboard-response,223,900586,0.0-15.0-2.18,99703,List2B,white,man,,,,null,,,,
5852,,,survey-text,224,906439,0.0-15.0-3.18,99703,List2B,white,man,,,,,"{""Q0"":""luke and jane are marrying eachother""}","<img src=""stim_listB/marry2.gif""</stim_listB>",are marrying each other,
null,"<div style=""font-size:60px;"">+</div>",,html-keyboard-response,225,906940,0.0-15.0-0.19,99703,List2B,white,man,,,,null,,,,
null,"<img src=""stim_listB/kiss3.gif""</stim_listB>",,html-keyboard-response,226,908942,0.0-15.0-1.19,99703,List2B,white,man,,,,null,,,,
null,is kissing,,html-keyboard-response,227,910943,0.0-15.0-2.19,99703,List2B,white,man,,,,null,,,,
5665,,,survey-text,228,916608,0.0-15.0-3.19,99703,List2B,white,man,,,,,"{""Q0"":""fred is kissing beth""}","<img src=""stim_listB/kiss3.gif""</stim_listB>",is kissing,
2446,"<img src='img/portrait_matrix_list2.JPG' style='width:900px;height:500px;''></img><p>If you have memorised all the portraits and names and are ready to start, press Continue.</p><p><strong>Please note: Your memory of these faces will be tested 4 times during this experiment.</strong></p>",0,html-button-response,229,919054,0.0-16.0-0.0,99703,List2B,white,man,,,,,,,,
2527,"<img src=""portrait/BM1.jpg""style=""width:400px;height:400px;""></img>",4,html-button-response,230,922583,0.0-16.0-1.0,99703,List2B,white,man,,TRUE,4,,,,,
null,CORRECT,,html-keyboard-response,231,924084,0.0-16.0-2.0-0.0,99703,List2B,white,man,,,,null,,,,
2417,"<img src=""portrait/WW2.jpg""style=""width:400px;height:400px;""></img>",3,html-button-response,232,926502,0.0-16.0-4.0,99703,List2B,white,man,,TRUE,3,,,,,
null,CORRECT,,html-keyboard-response,233,928003,0.0-16.0-5.0-0.0,99703,List2B,white,man,,,,null,,,,
1328,"<img src=""portrait/WM1.jpg""style=""width:400px;height:400px;""></img>",6,html-button-response,234,929332,0.0-16.0-7.0,99703,List2B,white,man,,TRUE,6,,,,,
null,CORRECT,,html-keyboard-response,235,930835,0.0-16.0-8.0-0.0,99703,List2B,white,man,,,,null,,,,
2798,"<img src=""portrait/BW2.jpg""style=""width:400px;height:400px;""></img>",2,html-button-response,236,933633,0.0-16.0-10.0,99703,List2B,white,man,,TRUE,2,,,,,
null,CORRECT,,html-keyboard-response,237,935134,0.0-16.0-11.0-0.0,99703,List2B,white,man,,,,null,,,,
1224,"<img src=""portrait/WM2.jpg""style=""width:400px;height:400px;""></img>",7,html-button-response,238,936359,0.0-16.0-13.0,99703,List2B,white,man,,TRUE,7,,,,,
null,CORRECT,,html-keyboard-response,239,937862,0.0-16.0-14.0-0.0,99703,List2B,white,man,,,,null,,,,
2010,"<img src=""portrait/BM2.jpg""style=""width:400px;height:400px;""></img>",5,html-button-response,240,939873,0.0-16.0-16.0,99703,List2B,white,man,,TRUE,5,,,,,
null,CORRECT,,html-keyboard-response,241,941376,0.0-16.0-17.0-0.0,99703,List2B,white,man,,,,null,,,,
1943,"<img src=""portrait/WW1.jpg""style=""width:400px;height:400px;""></img>",1,html-button-response,242,943320,0.0-16.0-19.0,99703,List2B,white,man,,TRUE,1,,,,,
null,CORRECT,,html-keyboard-response,243,944822,0.0-16.0-20.0-0.0,99703,List2B,white,man,,,,null,,,,
1777,"<img src=""portrait/BW1.jpg""style=""width:400px;height:400px;""></img>",0,html-button-response,244,946600,0.0-16.0-22.0,99703,List2B,white,man,,TRUE,0,,,,,
null,CORRECT,,html-keyboard-response,245,948101,0.0-16.0-23.0-0.0,99703,List2B,white,man,,,,null,,,,
1095,<p>You got 8 out of 8 right first time. Press Continue.</p>,0,html-button-response,246,949197,0.0-16.0-25.0,99703,List2B,white,man,,,,,,,,
null,"<div style=""font-size:60px;"">+</div>",,html-keyboard-response,247,950699,0.0-17.0-0.0,99703,List2B,white,man,,,,null,,,,
null,"<img src=""stim_listB/fight2.gif""</stim_listB>",,html-keyboard-response,248,952700,0.0-17.0-1.0,99703,List2B,white,man,,,,null,,,,
null,are fighting each other,,html-keyboard-response,249,954701,0.0-17.0-2.0,99703,List2B,white,man,,,,null,,,,
7236,,,survey-text,250,961937,0.0-17.0-3.0,99703,List2B,white,man,,,,,"{""Q0"":""luke and ruth are fighting eachother""}","<img src=""stim_listB/fight2.gif""</stim_listB>",are fighting each other,
null,"<div style=""font-size:60px;"">+</div>",,html-keyboard-response,251,962439,0.0-17.0-0.1,99703,List2B,white,man,,,,null,,,,
null,"<img src=""stim_listB/touch6.gif""</stim_listB>",,html-keyboard-response,252,964440,0.0-17.0-1.1,99703,List2B,white,man,,,,null,,,,
null,are touching each other,,html-keyboard-response,253,966442,0.0-17.0-2.1,99703,List2B,white,man,,,,null,,,,
9860,,,survey-text,254,976303,0.0-17.0-3.1,99703,List2B,white,man,,,,,"{""Q0"":""luke and fred are touching eachother""}","<img src=""stim_listB/touch6.gif""</stim_listB>",are touching each other,
null,"<div style=""font-size:60px;"">+</div>",,html-keyboard-response,255,976805,0.0-17.0-0.2,99703,List2B,white,man,,,,null,,,,
null,"<img src=""stim_listB/meet1.gif""</stim_listB>",,html-keyboard-response,256,978806,0.0-17.0-1.2,99703,List2B,white,man,,,,null,,,,
null,is meeting,,html-keyboard-response,257,980807,0.0-17.0-2.2,99703,List2B,white,man,,,,null,,,,
5347,,,survey-text,258,986154,0.0-17.0-3.2,99703,List2B,white,man,,,,,"{""Q0"":""dave is meeting jane""}","<img src=""stim_listB/meet1.gif""</stim_listB>",is meeting,
null,"<div style=""font-size:60px;"">+</div>",,html-keyboard-response,259,986657,0.0-17.0-0.3,99703,List2B,white,man,,,,null,,,,
null,"<img src=""stim_listB/hug4.gif""</stim_listB>",,html-keyboard-response,260,988659,0.0-17.0-1.3,99703,List2B,white,man,,,,null,,,,
null,are hugging each other,,html-keyboard-response,261,990660,0.0-17.0-2.3,99703,List2B,white,man,,,,null,,,,
8294,,,survey-text,262,998954,0.0-17.0-3.3,99703,List2B,white,man,,,,,"{""Q0"":""mike and kate are hugging eachother""}","<img src=""stim_listB/hug4.gif""</stim_listB>",are hugging each other,
null,"<div style=""font-size:60px;"">+</div>",,html-keyboard-response,263,999456,0.0-17.0-0.4,99703,List2B,white,man,,,,null,,,,
null,"<img src=""stim_listB/kiss7.gif""</stim_listB>",,html-keyboard-response,264,1001457,0.0-17.0-1.4,99703,List2B,white,man,,,,null,,,,
null,is kissing,,html-keyboard-response,265,1003458,0.0-17.0-2.4,99703,List2B,white,man,,,,null,,,,
12433,,,survey-text,266,1015892,0.0-17.0-3.4,99703,List2B,white,man,,,,,"{""Q0"":""beth is kissing ruth""}","<img src=""stim_listB/kiss7.gif""</stim_listB>",is kissing,
null,"<div style=""font-size:60px;"">+</div>",,html-keyboard-response,267,1016394,0.0-17.0-0.5,99703,List2B,white,man,,,,null,,,,
null,"<img src=""stim_listB/touch1.gif""</stim_listB>",,html-keyboard-response,268,1018396,0.0-17.0-1.5,99703,List2B,white,man,,,,null,,,,
null,is touching,,html-keyboard-response,269,1020397,0.0-17.0-2.5,99703,List2B,white,man,,,,null,,,,
5797,,,survey-text,270,1026194,0.0-17.0-3.5,99703,List2B,white,man,,,,,"{""Q0"":""dave is touching jane""}","<img src=""stim_listB/touch1.gif""</stim_listB>",is touching,
null,"<div style=""font-size:60px;"">+</div>",,html-keyboard-response,271,1026696,0.0-17.0-0.6,99703,List2B,white,man,,,,null,,,,
null,"<img src=""stim_listB/talk2.gif""</stim_listB>",,html-keyboard-response,272,1028697,0.0-17.0-1.6,99703,List2B,white,man,,,,null,,,,
null,are talking to each other,,html-keyboard-response,273,1030699,0.0-17.0-2.6,99703,List2B,white,man,,,,null,,,,
9589,,,survey-text,274,1040288,0.0-17.0-3.6,99703,List2B,white,man,,,,,"{""Q0"":""dave and ruth are talking to eachother""}","<img src=""stim_listB/talk2.gif""</stim_listB>",are talking to each other,
null,"<div style=""font-size:60px;"">+</div>",,html-keyboard-response,275,1040790,0.0-17.0-0.7,99703,List2B,white,man,,,,null,,,,
null,"<img src=""stim_listB/hug2.gif""</stim_listB>",,html-keyboard-response,276,1042792,0.0-17.0-1.7,99703,List2B,white,man,,,,null,,,,
null,are hugging each other,,html-keyboard-response,277,1044793,0.0-17.0-2.7,99703,List2B,white,man,,,,null,,,,
6507,,,survey-text,278,1051300,0.0-17.0-3.7,99703,List2B,white,man,,,,,"{""Q0"":""dave and jane are hugging eachother""}","<img src=""stim_listB/hug2.gif""</stim_listB>",are hugging each other,
null,"<div style=""font-size:60px;"">+</div>",,html-keyboard-response,279,1051801,0.0-17.0-0.8,99703,List2B,white,man,,,,null,,,,
null,"<img src=""stim_listB/talk1.gif""</stim_listB>",,html-keyboard-response,280,1053802,0.0-17.0-1.8,99703,List2B,white,man,,,,null,,,,
null,is talking to,,html-keyboard-response,281,1055804,0.0-17.0-2.8,99703,List2B,white,man,,,,null,,,,
5078,,,survey-text,282,1060884,0.0-17.0-3.8,99703,List2B,white,man,,,,,"{""Q0"":""jane is talking to luke""}","<img src=""stim_listB/talk1.gif""</stim_listB>",is talking to,
null,"<div style=""font-size:60px;"">+</div>",,html-keyboard-response,283,1061384,0.0-17.0-0.9,99703,List2B,white,man,,,,null,,,,
null,"<img src=""stim_listB/meet5.gif""</stim_listB>",,html-keyboard-response,284,1063387,0.0-17.0-1.9,99703,List2B,white,man,,,,null,,,,
null,is meeting,,html-keyboard-response,285,1065388,0.0-17.0-2.9,99703,List2B,white,man,,,,null,,,,
4403,,,survey-text,286,1069791,0.0-17.0-3.9,99703,List2B,white,man,,,,,"{""Q0"":""mike is meeting dave""}","<img src=""stim_listB/meet5.gif""</stim_listB>",is meeting,
null,"<div style=""font-size:60px;"">+</div>",,html-keyboard-response,287,1070292,0.0-17.0-0.10,99703,List2B,white,man,,,,null,,,,
null,"<img src=""stim_listB/kiss6.gif""</stim_listB>",,html-keyboard-response,288,1072294,0.0-17.0-1.10,99703,List2B,white,man,,,,null,,,,
null,are kissing each other,,html-keyboard-response,289,1074296,0.0-17.0-2.10,99703,List2B,white,man,,,,null,,,,
6209,,,survey-text,290,1080505,0.0-17.0-3.10,99703,List2B,white,man,,,,,"{""Q0"":""dave and mike are kissing eachother""}","<img src=""stim_listB/kiss6.gif""</stim_listB>",are kissing each other,
null,"<div style=""font-size:60px;"">+</div>",,html-keyboard-response,291,1081006,0.0-17.0-0.11,99703,List2B,white,man,,,,null,,,,
null,"<img src=""stim_listB/touch3.gif""</stim_listB>",,html-keyboard-response,292,1083008,0.0-17.0-1.11,99703,List2B,white,man,,,,null,,,,
null,is touching,,html-keyboard-response,293,1085010,0.0-17.0-2.11,99703,List2B,white,man,,,,null,,,,
5070,,,survey-text,294,1090081,0.0-17.0-3.11,99703,List2B,white,man,,,,,"{""Q0"":""mike is touching kate""}","<img src=""stim_listB/touch3.gif""</stim_listB>",is touching,
null,"<div style=""font-size:60px;"">+</div>",,html-keyboard-response,295,1090582,0.0-17.0-0.12,99703,List2B,white,man,,,,null,,,,
null,"<img src=""stim_listB/argue7.gif""</stim_listB>",,html-keyboard-response,296,1092584,0.0-17.0-1.12,99703,List2B,white,man,,,,null,,,,
null,is arguing with,,html-keyboard-response,297,1094586,0.0-17.0-2.12,99703,List2B,white,man,,,,null,,,,
6065,,,survey-text,298,1100651,0.0-17.0-3.12,99703,List2B,white,man,,,,,"{""Q0"":""jane is arguing with beth""}","<img src=""stim_listB/argue7.gif""</stim_listB>",is arguing with,
null,"<div style=""font-size:60px;"">+</div>",,html-keyboard-response,299,1101153,0.0-17.0-0.13,99703,List2B,white,man,,,,null,,,,
null,"<img src=""stim_listB/shout8.gif""</stim_listB>",,html-keyboard-response,300,1103155,0.0-17.0-1.13,99703,List2B,white,man,,,,null,,,,
null,are shouting at each other,,html-keyboard-response,301,1105157,0.0-17.0-2.13,99703,List2B,white,man,,,,null,,,,
11714,,,survey-text,302,1116872,0.0-17.0-3.13,99703,List2B,white,man,,,,,"{""Q0"":""jane and kate are shouting at eachother""}","<img src=""stim_listB/shout8.gif""</stim_listB>",are shouting at each other,
null,"<div style=""font-size:60px;"">+</div>",,html-keyboard-response,303,1117373,0.0-17.0-0.14,99703,List2B,white,man,,,,null,,,,
null,"<img src=""stim_listB/shout1.gif""</stim_listB>",,html-keyboard-response,304,1119375,0.0-17.0-1.14,99703,List2B,white,man,,,,null,,,,
null,is shouting at,,html-keyboard-response,305,1121376,0.0-17.0-2.14,99703,List2B,white,man,,,,null,,,,
9500,,,survey-text,306,1130876,0.0-17.0-3.14,99703,List2B,white,man,,,,,"{""Q0"":""luke is shouting at ruth""}","<img src=""stim_listB/shout1.gif""</stim_listB>",is shouting at,
null,"<div style=""font-size:60px;"">+</div>",,html-keyboard-response,307,1131377,0.0-17.0-0.15,99703,List2B,white,man,,,,null,,,,
null,"<img src=""stim_listB/touch8.gif""</stim_listB>",,html-keyboard-response,308,1133378,0.0-17.0-1.15,99703,List2B,white,man,,,,null,,,,
null,are touching each other,,html-keyboard-response,309,1135380,0.0-17.0-2.15,99703,List2B,white,man,,,,null,,,,
8049,,,survey-text,310,1143429,0.0-17.0-3.15,99703,List2B,white,man,,,,,"{""Q0"":""ruth and beth are touching eachother""}","<img src=""stim_listB/touch8.gif""</stim_listB>",are touching each other,
null,"<div style=""font-size:60px;"">+</div>",,html-keyboard-response,311,1143930,0.0-17.0-0.16,99703,List2B,white,man,,,,null,,,,
null,"<img src=""stim_listB/kiss8.gif""</stim_listB>",,html-keyboard-response,312,1145930,0.0-17.0-1.16,99703,List2B,white,man,,,,null,,,,
null,are kissing each other,,html-keyboard-response,313,1147932,0.0-17.0-2.16,99703,List2B,white,man,,,,null,,,,
6504,,,survey-text,314,1154437,0.0-17.0-3.16,99703,List2B,white,man,,,,,"{""Q0"":""jane and kate are kissing eachother""}","<img src=""stim_listB/kiss8.gif""</stim_listB>",are kissing each other,
null,"<div style=""font-size:60px;"">+</div>",,html-keyboard-response,315,1154939,0.0-17.0-0.17,99703,List2B,white,man,,,,null,,,,
null,"<img src=""stim_listB/touch5.gif""</stim_listB>",,html-keyboard-response,316,1156940,0.0-17.0-1.17,99703,List2B,white,man,,,,null,,,,
null,is touching,,html-keyboard-response,317,1158941,0.0-17.0-2.17,99703,List2B,white,man,,,,null,,,,
5367,,,survey-text,318,1164309,0.0-17.0-3.17,99703,List2B,white,man,,,,,"{""Q0"":""dave is touching mike""}","<img src=""stim_listB/touch5.gif""</stim_listB>",is touching,
null,"<div style=""font-size:60px;"">+</div>",,html-keyboard-response,319,1164810,0.0-17.0-0.18,99703,List2B,white,man,,,,null,,,,
null,"<img src=""stim_listB/talk6.gif""</stim_listB>",,html-keyboard-response,320,1166813,0.0-17.0-1.18,99703,List2B,white,man,,,,null,,,,
null,are talking to each other,,html-keyboard-response,321,1168815,0.0-17.0-2.18,99703,List2B,white,man,,,,null,,,,
8896,,,survey-text,322,1177712,0.0-17.0-3.18,99703,List2B,white,man,,,,,"{""Q0"":""dave and fred are talking to eachother""}","<img src=""stim_listB/talk6.gif""</stim_listB>",are talking to each other,
null,"<div style=""font-size:60px;"">+</div>",,html-keyboard-response,323,1178212,0.0-17.0-0.19,99703,List2B,white,man,,,,null,,,,
null,"<img src=""stim_listB/argue5.gif""</stim_listB>",,html-keyboard-response,324,1180214,0.0-17.0-1.19,99703,List2B,white,man,,,,null,,,,
null,is arguing with,,html-keyboard-response,325,1182215,0.0-17.0-2.19,99703,List2B,white,man,,,,null,,,,
5464,,,survey-text,326,1187680,0.0-17.0-3.19,99703,List2B,white,man,,,,,"{""Q0"":""fred is arguing with dave""}","<img src=""stim_listB/argue5.gif""</stim_listB>",is arguing with,
1404,"<img src='img/portrait_matrix_list2.JPG' style='width:900px;height:500px;''></img><p>If you have memorised all the portraits and names and are ready to start, press Continue.</p><p><strong>Please note: Your memory of these faces will be tested 4 times during this experiment.</strong></p>",0,html-button-response,327,1189085,0.0-18.0-0.0,99703,List2B,white,man,,,,,,,,
4355,"<img src=""portrait/BW2.jpg""style=""width:400px;height:400px;""></img>",2,html-button-response,328,1194443,0.0-18.0-1.0,99703,List2B,white,man,,TRUE,2,,,,,
null,CORRECT,,html-keyboard-response,329,1195944,0.0-18.0-2.0-0.0,99703,List2B,white,man,,,,null,,,,
1172,"<img src=""portrait/WM2.jpg""style=""width:400px;height:400px;""></img>",7,html-button-response,330,1197117,0.0-18.0-4.0,99703,List2B,white,man,,TRUE,7,,,,,
null,CORRECT,,html-keyboard-response,331,1198620,0.0-18.0-5.0-0.0,99703,List2B,white,man,,,,null,,,,
2055,"<img src=""portrait/BM1.jpg""style=""width:400px;height:400px;""></img>",4,html-button-response,332,1200677,0.0-18.0-7.0,99703,List2B,white,man,,TRUE,4,,,,,
null,CORRECT,,html-keyboard-response,333,1202179,0.0-18.0-8.0-0.0,99703,List2B,white,man,,,,null,,,,
1842,"<img src=""portrait/WM1.jpg""style=""width:400px;height:400px;""></img>",6,html-button-response,334,1204023,0.0-18.0-10.0,99703,List2B,white,man,,TRUE,6,,,,,
null,CORRECT,,html-keyboard-response,335,1205526,0.0-18.0-11.0-0.0,99703,List2B,white,man,,,,null,,,,
1723,"<img src=""portrait/WW1.jpg""style=""width:400px;height:400px;""></img>",1,html-button-response,336,1207250,0.0-18.0-13.0,99703,List2B,white,man,,TRUE,1,,,,,
null,CORRECT,,html-keyboard-response,337,1208752,0.0-18.0-14.0-0.0,99703,List2B,white,man,,,,null,,,,
1812,"<img src=""portrait/BM2.jpg""style=""width:400px;height:400px;""></img>",5,html-button-response,338,1210564,0.0-18.0-16.0,99703,List2B,white,man,,TRUE,5,,,,,
null,CORRECT,,html-keyboard-response,339,1212067,0.0-18.0-17.0-0.0,99703,List2B,white,man,,,,null,,,,
2380,"<img src=""portrait/WW2.jpg""style=""width:400px;height:400px;""></img>",3,html-button-response,340,1214449,0.0-18.0-19.0,99703,List2B,white,man,,TRUE,3,,,,,
null,CORRECT,,html-keyboard-response,341,1215950,0.0-18.0-20.0-0.0,99703,List2B,white,man,,,,null,,,,
2188,"<img src=""portrait/BW1.jpg""style=""width:400px;height:400px;""></img>",0,html-button-response,342,1218138,0.0-18.0-22.0,99703,List2B,white,man,,TRUE,0,,,,,
null,CORRECT,,html-keyboard-response,343,1219640,0.0-18.0-23.0-0.0,99703,List2B,white,man,,,,null,,,,
1199,<p>You got 8 out of 8 right first time. Press Continue.</p>,0,html-button-response,344,1220840,0.0-18.0-25.0,99703,List2B,white,man,,,,,,,,
null,"<div style=""font-size:60px;"">+</div>",,html-keyboard-response,345,1222342,0.0-19.0-0.0,99703,List2B,white,man,,,,null,,,,
null,"<img src=""stim_listB/kiss2.gif""</stim_listB>",,html-keyboard-response,346,1224343,0.0-19.0-1.0,99703,List2B,white,man,,,,null,,,,
null,are kissing each other,,html-keyboard-response,347,1226344,0.0-19.0-2.0,99703,List2B,white,man,,,,null,,,,
7174,,,survey-text,348,1233518,0.0-19.0-3.0,99703,List2B,white,man,,,,,"{""Q0"":""dave and jane are kissing eachother""}","<img src=""stim_listB/kiss2.gif""</stim_listB>",are kissing each other,
null,"<div style=""font-size:60px;"">+</div>",,html-keyboard-response,349,1234020,0.0-19.0-0.1,99703,List2B,white,man,,,,null,,,,
null,"<img src=""stim_listB/talk8.gif""</stim_listB>",,html-keyboard-response,350,1236023,0.0-19.0-1.1,99703,List2B,white,man,,,,null,,,,
null,are talking to each other,,html-keyboard-response,351,1238024,0.0-19.0-2.1,99703,List2B,white,man,,,,null,,,,
9883,,,survey-text,352,1247907,0.0-19.0-3.1,99703,List2B,white,man,,,,,"{""Q0"":""jane and beth are talking to eachother""}","<img src=""stim_listB/talk8.gif""</stim_listB>",are talking to each other,
null,"<div style=""font-size:60px;"">+</div>",,html-keyboard-response,353,1248407,0.0-19.0-0.2,99703,List2B,white,man,,,,null,,,,
null,"<img src=""stim_listB/talk3.gif""</stim_listB>",,html-keyboard-response,354,1250408,0.0-19.0-1.2,99703,List2B,white,man,,,,null,,,,
null,is talking to,,html-keyboard-response,355,1252409,0.0-19.0-2.2,99703,List2B,white,man,,,,null,,,,
6180,,,survey-text,356,1258590,0.0-19.0-3.2,99703,List2B,white,man,,,,,"{""Q0"":""fred is talking to kate""}","<img src=""stim_listB/talk3.gif""</stim_listB>",is talking to,
null,"<div style=""font-size:60px;"">+</div>",,html-keyboard-response,357,1259092,0.0-19.0-0.3,99703,List2B,white,man,,,,null,,,,
null,"<img src=""stim_listB/argue8.gif""</stim_listB>",,html-keyboard-response,358,1261094,0.0-19.0-1.3,99703,List2B,white,man,,,,null,,,,
null,are arguing with each other,,html-keyboard-response,359,1263095,0.0-19.0-2.3,99703,List2B,white,man,,,,null,,,,
9527,,,survey-text,360,1272622,0.0-19.0-3.3,99703,List2B,white,man,,,,,"{""Q0"":""kate and ruth are talking to eachother""}","<img src=""stim_listB/argue8.gif""</stim_listB>",are arguing with each other,
null,"<div style=""font-size:60px;"">+</div>",,html-keyboard-response,361,1273123,0.0-19.0-0.4,99703,List2B,white,man,,,,null,,,,
null,"<img src=""stim_listB/meet3.gif""</stim_listB>",,html-keyboard-response,362,1275124,0.0-19.0-1.4,99703,List2B,white,man,,,,null,,,,
null,is meeting,,html-keyboard-response,363,1277125,0.0-19.0-2.4,99703,List2B,white,man,,,,null,,,,
4073,,,survey-text,364,1281199,0.0-19.0-3.4,99703,List2B,white,man,,,,,"{""Q0"":""kate is meeting mike""}","<img src=""stim_listB/meet3.gif""</stim_listB>",is meeting,
null,"<div style=""font-size:60px;"">+</div>",,html-keyboard-response,365,1281699,0.0-19.0-0.5,99703,List2B,white,man,,,,null,,,,
null,"<img src=""stim_listB/talk7.gif""</stim_listB>",,html-keyboard-response,366,1283700,0.0-19.0-1.5,99703,List2B,white,man,,,,null,,,,
null,is talking to,,html-keyboard-response,367,1285702,0.0-19.0-2.5,99703,List2B,white,man,,,,null,,,,
5177,,,survey-text,368,1290879,0.0-19.0-3.5,99703,List2B,white,man,,,,,"{""Q0"":""kate is talking to ruth""}","<img src=""stim_listB/talk7.gif""</stim_listB>",is talking to,
null,"<div style=""font-size:60px;"">+</div>",,html-keyboard-response,369,1291380,0.0-19.0-0.6,99703,List2B,white,man,,,,null,,,,
null,"<img src=""stim_listB/fight6.gif""</stim_listB>",,html-keyboard-response,370,1293381,0.0-19.0-1.6,99703,List2B,white,man,,,,null,,,,
null,are fighting each other,,html-keyboard-response,371,1295383,0.0-19.0-2.6,99703,List2B,white,man,,,,null,,,,
6815,,,survey-text,372,1302199,0.0-19.0-3.6,99703,List2B,white,man,,,,,"{""Q0"":""luke and fred are fighting eachother""}","<img src=""stim_listB/fight6.gif""</stim_listB>",are fighting each other,
null,"<div style=""font-size:60px;"">+</div>",,html-keyboard-response,373,1302701,0.0-19.0-0.7,99703,List2B,white,man,,,,null,,,,
null,"<img src=""stim_listB/hug6.gif""</stim_listB>",,html-keyboard-response,374,1304702,0.0-19.0-1.7,99703,List2B,white,man,,,,null,,,,
null,are hugging each other,,html-keyboard-response,375,1306704,0.0-19.0-2.7,99703,List2B,white,man,,,,null,,,,
5553,,,survey-text,376,1312257,0.0-19.0-3.7,99703,List2B,white,man,,,,,"{""Q0"":""dave and mike are hugging eachother""}","<img src=""stim_listB/hug6.gif""</stim_listB>",are hugging each other,
null,"<div style=""font-size:60px;"">+</div>",,html-keyboard-response,377,1312758,0.0-19.0-0.8,99703,List2B,white,man,,,,null,,,,
null,"<img src=""stim_listB/marry4.gif""</stim_listB>",,html-keyboard-response,378,1314759,0.0-19.0-1.8,99703,List2B,white,man,,,,null,,,,
null,are marrying each other,,html-keyboard-response,379,1316760,0.0-19.0-2.8,99703,List2B,white,man,,,,null,,,,
7271,,,survey-text,380,1324031,0.0-19.0-3.8,99703,List2B,white,man,,,,,"{""Q0"":""fred and kate are marrying eachother""}","<img src=""stim_listB/marry4.gif""</stim_listB>",are marrying each other,
null,"<div style=""font-size:60px;"">+</div>",,html-keyboard-response,381,1324532,0.0-19.0-0.9,99703,List2B,white,man,,,,null,,,,
null,"<img src=""stim_listB/dance4.gif""</stim_listB>",,html-keyboard-response,382,1326534,0.0-19.0-1.9,99703,List2B,white,man,,,,null,,,,
null,are dancing with each other,,html-keyboard-response,383,1328535,0.0-19.0-2.9,99703,List2B,white,man,,,,null,,,,
9823,,,survey-text,384,1338358,0.0-19.0-3.9,99703,List2B,white,man,,,,,"{""Q0"":""mike and beth are dancing with eachother""}","<img src=""stim_listB/dance4.gif""</stim_listB>",are dancing with each other,
null,"<div style=""font-size:60px;"">+</div>",,html-keyboard-response,385,1338859,0.0-19.0-0.10,99703,List2B,white,man,,,,null,,,,
null,"<img src=""stim_listB/talk4.gif""</stim_listB>",,html-keyboard-response,386,1340861,0.0-19.0-1.10,99703,List2B,white,man,,,,null,,,,
null,are talking to each other,,html-keyboard-response,387,1342862,0.0-19.0-2.10,99703,List2B,white,man,,,,null,,,,
7111,,,survey-text,388,1349973,0.0-19.0-3.10,99703,List2B,white,man,,,,,"{""Q0"":""mike and beth are talking with eachother""}","<img src=""stim_listB/talk4.gif""</stim_listB>",are talking to each other,
null,"<div style=""font-size:60px;"">+</div>",,html-keyboard-response,389,1350474,0.0-19.0-0.11,99703,List2B,white,man,,,,null,,,,
null,"<img src=""stim_listB/dance2.gif""</stim_listB>",,html-keyboard-response,390,1352476,0.0-19.0-1.11,99703,List2B,white,man,,,,null,,,,
null,are dancing with each other,,html-keyboard-response,391,1354478,0.0-19.0-2.11,99703,List2B,white,man,,,,null,,,,
8898,,,survey-text,392,1363377,0.0-19.0-3.11,99703,List2B,white,man,,,,,"{""Q0"":""ruth and dave are dancing with eachother""}","<img src=""stim_listB/dance2.gif""</stim_listB>",are dancing with each other,
null,"<div style=""font-size:60px;"">+</div>",,html-keyboard-response,393,1363878,0.0-19.0-0.12,99703,List2B,white,man,,,,null,,,,
null,"<img src=""stim_listB/hug5.gif""</stim_listB>",,html-keyboard-response,394,1365879,0.0-19.0-1.12,99703,List2B,white,man,,,,null,,,,
null,is hugging,,html-keyboard-response,395,1367880,0.0-19.0-2.12,99703,List2B,white,man,,,,null,,,,
7239,,,survey-text,396,1375119,0.0-19.0-3.12,99703,List2B,white,man,,,,,"{""Q0"":""luke is hugging fred""}","<img src=""stim_listB/hug5.gif""</stim_listB>",is hugging,
null,"<div style=""font-size:60px;"">+</div>",,html-keyboard-response,397,1375621,0.0-19.0-0.13,99703,List2B,white,man,,,,null,,,,
null,"<img src=""stim_listB/dance1.gif""</stim_listB>",,html-keyboard-response,398,1377622,0.0-19.0-1.13,99703,List2B,white,man,,,,null,,,,
null,is dancing with,,html-keyboard-response,399,1379622,0.0-19.0-2.13,99703,List2B,white,man,,,,null,,,,
6105,,,survey-text,400,1385728,0.0-19.0-3.13,99703,List2B,white,man,,,,,"{""Q0"":""luke is dancing with jane""}","<img src=""stim_listB/dance1.gif""</stim_listB>",is dancing with,
null,"<div style=""font-size:60px;"">+</div>",,html-keyboard-response,401,1386231,0.0-19.0-0.14,99703,List2B,white,man,,,,null,,,,
null,"<img src=""stim_listB/marry6.gif""</stim_listB>",,html-keyboard-response,402,1388231,0.0-19.0-1.14,99703,List2B,white,man,,,,null,,,,
null,are marrying each other,,html-keyboard-response,403,1390232,0.0-19.0-2.14,99703,List2B,white,man,,,,null,,,,
7158,,,survey-text,404,1397390,0.0-19.0-3.14,99703,List2B,white,man,,,,,"{""Q0"":""luke and mike are marrying eachother""}","<img src=""stim_listB/marry6.gif""</stim_listB>",are marrying each other,
null,"<div style=""font-size:60px;"">+</div>",,html-keyboard-response,405,1397892,0.0-19.0-0.15,99703,List2B,white,man,,,,null,,,,
null,"<img src=""stim_listB/shout6.gif""</stim_listB>",,html-keyboard-response,406,1399894,0.0-19.0-1.15,99703,List2B,white,man,,,,null,,,,
null,are shouting at each other,,html-keyboard-response,407,1401896,0.0-19.0-2.15,99703,List2B,white,man,,,,null,,,,
9154,,,survey-text,408,1411050,0.0-19.0-3.15,99703,List2B,white,man,,,,,"{""Q0"":""dave and mike are arguing with eachother""}","<img src=""stim_listB/shout6.gif""</stim_listB>",are shouting at each other,
null,"<div style=""font-size:60px;"">+</div>",,html-keyboard-response,409,1411553,0.0-19.0-0.16,99703,List2B,white,man,,,,null,,,,
null,"<img src=""stim_listB/argue2.gif""</stim_listB>",,html-keyboard-response,410,1413554,0.0-19.0-1.16,99703,List2B,white,man,,,,null,,,,
null,are arguing with each other,,html-keyboard-response,411,1415556,0.0-19.0-2.16,99703,List2B,white,man,,,,null,,,,
7803,,,survey-text,412,1423359,0.0-19.0-3.16,99703,List2B,white,man,,,,,"{""Q0"":""luke and jane are arguing with eachother""}","<img src=""stim_listB/argue2.gif""</stim_listB>",are arguing with each other,
null,"<div style=""font-size:60px;"">+</div>",,html-keyboard-response,413,1423861,0.0-19.0-0.17,99703,List2B,white,man,,,,null,,,,
null,"<img src=""stim_listB/dance8.gif""</stim_listB>",,html-keyboard-response,414,1425863,0.0-19.0-1.17,99703,List2B,white,man,,,,null,,,,
null,are dancing with each other,,html-keyboard-response,415,1427864,0.0-19.0-2.17,99703,List2B,white,man,,,,null,,,,
6973,,,survey-text,416,1434838,0.0-19.0-3.17,99703,List2B,white,man,,,,,"{""Q0"":""jane and beth are dancing with eachother""}","<img src=""stim_listB/dance8.gif""</stim_listB>",are dancing with each other,
null,"<div style=""font-size:60px;"">+</div>",,html-keyboard-response,417,1435339,0.0-19.0-0.18,99703,List2B,white,man,,,,null,,,,
null,"<img src=""stim_listB/kiss1.gif""</stim_listB>",,html-keyboard-response,418,1437341,0.0-19.0-1.18,99703,List2B,white,man,,,,null,,,,
null,is kissing,,html-keyboard-response,419,1439342,0.0-19.0-2.18,99703,List2B,white,man,,,,null,,,,
6460,,,survey-text,420,1445803,0.0-19.0-3.18,99703,List2B,white,man,,,,,"{""Q0"":""luke is kissing ruth""}","<img src=""stim_listB/kiss1.gif""</stim_listB>",is kissing,
null,"<div style=""font-size:60px;"">+</div>",,html-keyboard-response,421,1446305,0.0-19.0-0.19,99703,List2B,white,man,,,,null,,,,
null,"<img src=""stim_listB/argue4.gif""</stim_listB>",,html-keyboard-response,422,1448306,0.0-19.0-1.19,99703,List2B,white,man,,,,null,,,,
null,are arguing with each other,,html-keyboard-response,423,1450308,0.0-19.0-2.19,99703,List2B,white,man,,,,null,,,,
7929,,,survey-text,424,1458238,0.0-19.0-3.19,99703,List2B,white,man,,,,,"{""Q0"":""fred and kate are arguing with eachother""}","<img src=""stim_listB/argue4.gif""</stim_listB>",are arguing with each other,
2334,<p>Thank you for completing that task.</p><p>The final part of this session is a short questionnaire.</p><p>Press Continue.</p>,0,html-button-response,425,1460572,0.0-20.0,99703,List2B,white,man,,,,,,,,
33760,,,survey-text,426,1495335,0.0-21.0,99703,List2B,white,man,,,,,"{""Q0"":""24"",""Q1"":""English"",""Q2"":""English"",""Q3"":""Australia"",""Q4"":""Caucasian"",""Q5"":""Male""}",,,demographics
70000,,,survey-likert,427,1565339,0.0-22.0,99703,List2B,white,man,,,,,"{""Q0"":3,""Q1"":3,""Q2"":3,""Q3"":3,""Q4"":3,""Q5"":5,""Q6"":4,""Q7"":1,""Q8"":0,""Q9"":1,""Q10"":4,""Q11"":4,""Q12"":3,""Q13"":3}",,,likert_race
69654,,,survey-likert,428,1634996,0.0-23.0,99703,List2B,white,man,,,,,"{""Q0"":5,""Q1"":4,""Q2"":3,""Q3"":5,""Q4"":4,""Q5"":5,""Q6"":5,""Q7"":2,""Q8"":2,""Q9"":3,""Q10"":4,""Q11"":4,""Q12"":1,""Q13"":1}",,,likert_gender
7430,,,survey-text,429,1642428,0.0-24.0,99703,List2B,white,man,,,,,"{""Q0"":""ccc""}",,,worker_id
24407,,,external-html,430,1667481,0.0-25.0,99703,List2B,white,man,debrief.html,,,,,,,
