rt,stimulus,button_pressed,trial_type,trial_index,time_elapsed,internal_node_id,subject,list,ppt_race,ppt_gender,url,first_guess,correct,key_press,responses,image_type,phrase_type,test_part
1627,Welcome to the experiment. Press Continue to begin.,0,html-button-response,0,1640,0.0-0.0,99945,List2A,black,woman,,,,,,,,
40120,,,external-html,1,42872,0.0-1.0,99945,List2A,black,woman,consent.html,,,,,,,
58147,"<p>On the next page, you will see portraits of 8 people and their names.</p><p>Your first task is to take a few minutes to memorise the names of these people.</p><p>You will have to recall their names during the rest of the experiment, so it is</p><p>essential that you try to memorise these people and their names as best as you can.</p><br><p><strong>You will then be tested on your memory of these names and portraits.</strong></p><br><p>The experiment will start after you have completed this memory test.</p><br><p>Ready?</p>",0,html-button-response,2,101020,0.0-2.0,99945,List2A,black,woman,,,,,,,,
100565,"<img src='img/portrait_matrix_list2.JPG' style='width:900px;height:500px;''></img><p>If you have memorised all the portraits and names and are ready to start, press Continue.</p><p><strong>Please note: Your memory of these faces will be tested 4 times during this experiment.</strong></p>",0,html-button-response,3,202589,0.0-3.0-0.0,99945,List2A,black,woman,,,,,,,,
2350,"<img src=""portrait/BM2.jpg""style=""width:400px;height:400px;""></img>",5,html-button-response,4,205943,0.0-3.0-1.0,99945,List2A,black,woman,,TRUE,5,,,,,
null,CORRECT,,html-keyboard-response,5,207452,0.0-3.0-2.0-0.0,99945,List2A,black,woman,,,,null,,,,
2081,"<img src=""portrait/WM1.jpg""style=""width:400px;height:400px;""></img>",6,html-button-response,6,209533,0.0-3.0-4.0,99945,List2A,black,woman,,TRUE,6,,,,,
null,CORRECT,,html-keyboard-response,7,211047,0.0-3.0-5.0-0.0,99945,List2A,black,woman,,,,null,,,,
3894,"<img src=""portrait/BW2.jpg""style=""width:400px;height:400px;""></img>",2,html-button-response,8,214943,0.0-3.0-7.0,99945,List2A,black,woman,,TRUE,2,,,,,
null,CORRECT,,html-keyboard-response,9,216451,0.0-3.0-8.0-0.0,99945,List2A,black,woman,,,,null,,,,
1987,"<img src=""portrait/WW2.jpg""style=""width:400px;height:400px;""></img>",3,html-button-response,10,218440,0.0-3.0-10.0,99945,List2A,black,woman,,TRUE,3,,,,,
null,CORRECT,,html-keyboard-response,11,219952,0.0-3.0-11.0-0.0,99945,List2A,black,woman,,,,null,,,,
6748,"<img src=""portrait/WM2.jpg""style=""width:400px;height:400px;""></img>",7,html-button-response,12,226702,0.0-3.0-13.0,99945,List2A,black,woman,,TRUE,7,,,,,
null,CORRECT,,html-keyboard-response,13,228211,0.0-3.0-14.0-0.0,99945,List2A,black,woman,,,,null,,,,
6376,"<img src=""portrait/BW1.jpg""style=""width:400px;height:400px;""></img>",1,html-button-response,14,234589,0.0-3.0-16.0,99945,List2A,black,woman,,TRUE,0,,,,,
2891,"<img src=""portrait/BW1.jpg""style=""width:400px;height:400px;""></img>",0,html-button-response,15,238486,0.0-3.0-18.0-0.0,99945,List2A,black,woman,,FALSE,0,,,,,
null,CORRECT,,html-keyboard-response,16,239995,0.0-3.0-18.0-1.0-0.0,99945,List2A,black,woman,,,,null,,,,
2249,"<img src=""portrait/WW1.jpg""style=""width:400px;height:400px;""></img>",3,html-button-response,17,242245,0.0-3.0-19.0,99945,List2A,black,woman,,TRUE,1,,,,,
1940,"<img src=""portrait/WW1.jpg""style=""width:400px;height:400px;""></img>",1,html-button-response,18,245192,0.0-3.0-21.0-0.0,99945,List2A,black,woman,,FALSE,1,,,,,
null,CORRECT,,html-keyboard-response,19,246698,0.0-3.0-21.0-1.0-0.0,99945,List2A,black,woman,,,,null,,,,
2244,"<img src=""portrait/BM1.jpg""style=""width:400px;height:400px;""></img>",4,html-button-response,20,248943,0.0-3.0-22.0,99945,List2A,black,woman,,TRUE,4,,,,,
null,CORRECT,,html-keyboard-response,21,250456,0.0-3.0-23.0-0.0,99945,List2A,black,woman,,,,null,,,,
1245,<p>You got 6 out of 8 right first time. Press Continue.</p>,0,html-button-response,22,251702,0.0-3.0-25.0,99945,List2A,black,woman,,,,,,,,
2160,"As you did not score 100%, the memory game will repeat. Press Continue.",0,html-button-response,23,254868,0.0-3.0-26.0-0.0,99945,List2A,black,woman,,,,,,,,
20595,"<img src='img/portrait_matrix_list2.JPG' style='width:900px;height:500px;''></img><p>If you have memorised all the portraits and names and are ready to start, press Continue.</p><p><strong>Please note: Your memory of these faces will be tested 4 times during this experiment.</strong></p>",0,html-button-response,24,276472,0.0-3.1-0.1,99945,List2A,black,woman,,,,,,,,
1992,"<img src=""portrait/BM2.jpg""style=""width:400px;height:400px;""></img>",5,html-button-response,25,279466,0.0-3.1-1.1,99945,List2A,black,woman,,TRUE,5,,,,,
null,CORRECT,,html-keyboard-response,26,280967,0.0-3.1-2.1-0.1,99945,List2A,black,woman,,,,null,,,,
2041,"<img src=""portrait/WM1.jpg""style=""width:400px;height:400px;""></img>",6,html-button-response,27,283009,0.0-3.1-4.1,99945,List2A,black,woman,,TRUE,6,,,,,
null,CORRECT,,html-keyboard-response,28,284520,0.0-3.1-5.1-0.1,99945,List2A,black,woman,,,,null,,,,
9087,"<img src=""portrait/BW2.jpg""style=""width:400px;height:400px;""></img>",2,html-button-response,29,293609,0.0-3.1-7.1,99945,List2A,black,woman,,TRUE,2,,,,,
null,CORRECT,,html-keyboard-response,30,295115,0.0-3.1-8.1-0.1,99945,List2A,black,woman,,,,null,,,,
1236,"<img src=""portrait/WW2.jpg""style=""width:400px;height:400px;""></img>",3,html-button-response,31,296353,0.0-3.1-10.1,99945,List2A,black,woman,,TRUE,3,,,,,
null,CORRECT,,html-keyboard-response,32,297858,0.0-3.1-11.1-0.1,99945,List2A,black,woman,,,,null,,,,
966,"<img src=""portrait/WM2.jpg""style=""width:400px;height:400px;""></img>",7,html-button-response,33,298825,0.0-3.1-13.1,99945,List2A,black,woman,,TRUE,7,,,,,
null,CORRECT,,html-keyboard-response,34,300331,0.0-3.1-14.1-0.1,99945,List2A,black,woman,,,,null,,,,
2326,"<img src=""portrait/BW1.jpg""style=""width:400px;height:400px;""></img>",0,html-button-response,35,302659,0.0-3.1-16.1,99945,List2A,black,woman,,TRUE,0,,,,,
null,CORRECT,,html-keyboard-response,36,304164,0.0-3.1-17.1-0.1,99945,List2A,black,woman,,,,null,,,,
6576,"<img src=""portrait/WW1.jpg""style=""width:400px;height:400px;""></img>",1,html-button-response,37,310742,0.0-3.1-19.1,99945,List2A,black,woman,,TRUE,1,,,,,
null,CORRECT,,html-keyboard-response,38,312253,0.0-3.1-20.1-0.1,99945,List2A,black,woman,,,,null,,,,
1436,"<img src=""portrait/BM1.jpg""style=""width:400px;height:400px;""></img>",4,html-button-response,39,313691,0.0-3.1-22.1,99945,List2A,black,woman,,TRUE,4,,,,,
null,CORRECT,,html-keyboard-response,40,315196,0.0-3.1-23.1-0.1,99945,List2A,black,woman,,,,null,,,,
1211,<p>You got 8 out of 8 right first time. Press Continue.</p>,0,html-button-response,41,316408,0.0-3.1-25.1,99945,List2A,black,woman,,,,,,,,
25036,"<p>In this experiment, you will view photographs of the people from the memory game interacting.</p><p>By using the <strong>exact</strong> phrase given <i>after</i> the photograph appears and recalling the correct names of the people in the photographs, form a sentence describing the interaction. You do not need to capitalise names.</p><p>Type your answer in the space provided. Please complete every sentence before moving onto the next trial.</p><p>You will only have a few seconds to memorise each given photograph and phrase before you can respond, so try your best to focus.</p><p>An example is given below. Press 'Continue' when you are ready.</p><img src='img/speaking_example_v2.jpg' style='width:800px;height:460px;''></img>",0,html-button-response,42,342446,0.0-4.0,99945,List2A,black,woman,,,,,,,,
1618,"<p>Before the experiment starts, you will watch two example trials. Press 'Continue'.</p>",0,html-button-response,43,345066,0.0-5.0,99945,List2A,black,woman,,,,,,,,
null,<img src='img/speaking_WW.gif'></img>,,html-keyboard-response,44,348074,0.0-6.0,99945,List2A,black,woman,,,,null,,,,
null,<p>is speaking to</p>,,html-keyboard-response,45,350080,0.0-7.0,99945,List2A,black,woman,,,,null,,,,
1866,<p><b>Answer:</b> jane is speaking to ruth</p>,0,html-button-response,46,351948,0.0-8.0,99945,List2A,black,woman,,,,,,,,
null,<img src='img/pointing_BM.gif'></img>,,html-keyboard-response,47,354952,0.0-9.0,99945,List2A,black,woman,,,,null,,,,
null,<p>are pointing at each other</p>,,html-keyboard-response,48,356954,0.0-10.0,99945,List2A,black,woman,,,,null,,,,
1009,<p><b>Answer:</b> fred and mike are pointing at each other</p>,0,html-button-response,49,357964,0.0-11.0,99945,List2A,black,woman,,,,,,,,
2639,"<p>Ready to start the experiment?</p><br><p><strong>Remember to describe the picture using a full sentence,</strong></p><p><strong> that combines the names of the people with the given phrase.</strong></p><p><strong> You do not need to capitalise names or use punctuation.</strong></p><br><p>Press 'Continue' to begin.</p>",0,html-button-response,50,361605,0.0-12.0,99945,List2A,black,woman,,,,,,,,
null,"<div style=""font-size:60px;"">+</div>",,html-keyboard-response,51,363112,0.0-13.0-0.0,99945,List2A,black,woman,,,,null,,,,
null,"<img src=""stim_listA/touch2.gif""</stim_listA>",,html-keyboard-response,52,365119,0.0-13.0-1.0,99945,List2A,black,woman,,,,null,,,,
null,are touching each other,,html-keyboard-response,53,367120,0.0-13.0-2.0,99945,List2A,black,woman,,,,null,,,,
9188,,,survey-text,54,376309,0.0-13.0-3.0,99945,List2A,black,woman,,,,,"{""Q0"":""Luke and Ruth are touching each other""}","<img src=""stim_listA/touch2.gif""</stim_listA>",are touching each other,
null,"<div style=""font-size:60px;"">+</div>",,html-keyboard-response,55,376812,0.0-13.0-0.1,99945,List2A,black,woman,,,,null,,,,
null,"<img src=""stim_listA/shout7.gif""</stim_listA>",,html-keyboard-response,56,378813,0.0-13.0-1.1,99945,List2A,black,woman,,,,null,,,,
null,is shouting at,,html-keyboard-response,57,380814,0.0-13.0-2.1,99945,List2A,black,woman,,,,null,,,,
17212,,,survey-text,58,398029,0.0-13.0-3.1,99945,List2A,black,woman,,,,,"{""Q0"":""Beth is screaming at Ruth""}","<img src=""stim_listA/shout7.gif""</stim_listA>",is shouting at,
null,"<div style=""font-size:60px;"">+</div>",,html-keyboard-response,59,398535,0.0-13.0-0.2,99945,List2A,black,woman,,,,null,,,,
null,"<img src=""stim_listA/argue7.gif""</stim_listA>",,html-keyboard-response,60,400540,0.0-13.0-1.2,99945,List2A,black,woman,,,,null,,,,
null,is arguing with,,html-keyboard-response,61,402541,0.0-13.0-2.2,99945,List2A,black,woman,,,,null,,,,
12571,,,survey-text,62,415113,0.0-13.0-3.2,99945,List2A,black,woman,,,,,"{""Q0"":""Jane is arguing with Beth""}","<img src=""stim_listA/argue7.gif""</stim_listA>",is arguing with,
null,"<div style=""font-size:60px;"">+</div>",,html-keyboard-response,63,415616,0.0-13.0-0.3,99945,List2A,black,woman,,,,null,,,,
null,"<img src=""stim_listA/hug3.gif""</stim_listA>",,html-keyboard-response,64,417622,0.0-13.0-1.3,99945,List2A,black,woman,,,,null,,,,
null,is hugging,,html-keyboard-response,65,419622,0.0-13.0-2.3,99945,List2A,black,woman,,,,null,,,,
6954,,,survey-text,66,426577,0.0-13.0-3.3,99945,List2A,black,woman,,,,,"{""Q0"":""Fred and Beth are hugging""}","<img src=""stim_listA/hug3.gif""</stim_listA>",is hugging,
null,"<div style=""font-size:60px;"">+</div>",,html-keyboard-response,67,427079,0.0-13.0-0.4,99945,List2A,black,woman,,,,null,,,,
null,"<img src=""stim_listA/argue4.gif""</stim_listA>",,html-keyboard-response,68,429086,0.0-13.0-1.4,99945,List2A,black,woman,,,,null,,,,
null,are arguing with each other,,html-keyboard-response,69,431087,0.0-13.0-2.4,99945,List2A,black,woman,,,,null,,,,
9417,,,survey-text,70,440507,0.0-13.0-3.4,99945,List2A,black,woman,,,,,"{""Q0"":""Fred and Kate are arguing with each other""}","<img src=""stim_listA/argue4.gif""</stim_listA>",are arguing with each other,
null,"<div style=""font-size:60px;"">+</div>",,html-keyboard-response,71,441010,0.0-13.0-0.5,99945,List2A,black,woman,,,,null,,,,
null,"<img src=""stim_listA/talk2.gif""</stim_listA>",,html-keyboard-response,72,443017,0.0-13.0-1.5,99945,List2A,black,woman,,,,null,,,,
null,are talking to each other,,html-keyboard-response,73,445018,0.0-13.0-2.5,99945,List2A,black,woman,,,,null,,,,
8408,,,survey-text,74,453428,0.0-13.0-3.5,99945,List2A,black,woman,,,,,"{""Q0"":""Ruth and Dave are talking to each other""}","<img src=""stim_listA/talk2.gif""</stim_listA>",are talking to each other,
null,"<div style=""font-size:60px;"">+</div>",,html-keyboard-response,75,453929,0.0-13.0-0.6,99945,List2A,black,woman,,,,null,,,,
null,"<img src=""stim_listA/kiss5.gif""</stim_listA>",,html-keyboard-response,76,455932,0.0-13.0-1.6,99945,List2A,black,woman,,,,null,,,,
null,is kissing,,html-keyboard-response,77,457937,0.0-13.0-2.6,99945,List2A,black,woman,,,,null,,,,
7213,,,survey-text,78,465150,0.0-13.0-3.6,99945,List2A,black,woman,,,,,"{""Q0"":""Luke and Fred are kissing each other""}","<img src=""stim_listA/kiss5.gif""</stim_listA>",is kissing,
null,"<div style=""font-size:60px;"">+</div>",,html-keyboard-response,79,465657,0.0-13.0-0.7,99945,List2A,black,woman,,,,null,,,,
null,"<img src=""stim_listA/meet4.gif""</stim_listA>",,html-keyboard-response,80,467661,0.0-13.0-1.7,99945,List2A,black,woman,,,,null,,,,
null,are meeting each other,,html-keyboard-response,81,469662,0.0-13.0-2.7,99945,List2A,black,woman,,,,null,,,,
8275,,,survey-text,82,477937,0.0-13.0-3.7,99945,List2A,black,woman,,,,,"{""Q0"":""Beth and Fred are meeting each other""}","<img src=""stim_listA/meet4.gif""</stim_listA>",are meeting each other,
null,"<div style=""font-size:60px;"">+</div>",,html-keyboard-response,83,478439,0.0-13.0-0.8,99945,List2A,black,woman,,,,null,,,,
null,"<img src=""stim_listA/dance3.gif""</stim_listA>",,html-keyboard-response,84,480445,0.0-13.0-1.8,99945,List2A,black,woman,,,,null,,,,
null,is dancing with,,html-keyboard-response,85,482447,0.0-13.0-2.8,99945,List2A,black,woman,,,,null,,,,
7324,,,survey-text,86,489772,0.0-13.0-3.8,99945,List2A,black,woman,,,,,"{""Q0"":""Kate and Fred are dancing with each other""}","<img src=""stim_listA/dance3.gif""</stim_listA>",is dancing with,
null,"<div style=""font-size:60px;"">+</div>",,html-keyboard-response,87,490278,0.0-13.0-0.9,99945,List2A,black,woman,,,,null,,,,
null,"<img src=""stim_listA/kiss8.gif""</stim_listA>",,html-keyboard-response,88,492283,0.0-13.0-1.9,99945,List2A,black,woman,,,,null,,,,
null,are kissing each other,,html-keyboard-response,89,494283,0.0-13.0-2.9,99945,List2A,black,woman,,,,null,,,,
6864,,,survey-text,90,501148,0.0-13.0-3.9,99945,List2A,black,woman,,,,,"{""Q0"":""Kate and Jane are kissing each other""}","<img src=""stim_listA/kiss8.gif""</stim_listA>",are kissing each other,
null,"<div style=""font-size:60px;"">+</div>",,html-keyboard-response,91,501650,0.0-13.0-0.10,99945,List2A,black,woman,,,,null,,,,
null,"<img src=""stim_listA/argue2.gif""</stim_listA>",,html-keyboard-response,92,503651,0.0-13.0-1.10,99945,List2A,black,woman,,,,null,,,,
null,are arguing with each other,,html-keyboard-response,93,505652,0.0-13.0-2.10,99945,List2A,black,woman,,,,null,,,,
9819,,,survey-text,94,515471,0.0-13.0-3.10,99945,List2A,black,woman,,,,,"{""Q0"":""Jane and Luke are arguing with each other""}","<img src=""stim_listA/argue2.gif""</stim_listA>",are arguing with each other,
null,"<div style=""font-size:60px;"">+</div>",,html-keyboard-response,95,515973,0.0-13.0-0.11,99945,List2A,black,woman,,,,null,,,,
null,"<img src=""stim_listA/talk1.gif""</stim_listA>",,html-keyboard-response,96,517979,0.0-13.0-1.11,99945,List2A,black,woman,,,,null,,,,
null,is talking to,,html-keyboard-response,97,519982,0.0-13.0-2.11,99945,List2A,black,woman,,,,null,,,,
5146,,,survey-text,98,525129,0.0-13.0-3.11,99945,List2A,black,woman,,,,,"{""Q0"":""Luke is talking to Jane""}","<img src=""stim_listA/talk1.gif""</stim_listA>",is talking to,
null,"<div style=""font-size:60px;"">+</div>",,html-keyboard-response,99,525635,0.0-13.0-0.12,99945,List2A,black,woman,,,,null,,,,
null,"<img src=""stim_listA/shout3.gif""</stim_listA>",,html-keyboard-response,100,527638,0.0-13.0-1.12,99945,List2A,black,woman,,,,null,,,,
null,is shouting at,,html-keyboard-response,101,529640,0.0-13.0-2.12,99945,List2A,black,woman,,,,null,,,,
9972,,,survey-text,102,539612,0.0-13.0-3.12,99945,List2A,black,woman,,,,,"{""Q0"":""Beth is shouting at Fred""}","<img src=""stim_listA/shout3.gif""</stim_listA>",is shouting at,
null,"<div style=""font-size:60px;"">+</div>",,html-keyboard-response,103,540118,0.0-13.0-0.13,99945,List2A,black,woman,,,,null,,,,
null,"<img src=""stim_listA/dance2.gif""</stim_listA>",,html-keyboard-response,104,542120,0.0-13.0-1.13,99945,List2A,black,woman,,,,null,,,,
null,are dancing with each other,,html-keyboard-response,105,544122,0.0-13.0-2.13,99945,List2A,black,woman,,,,null,,,,
8936,,,survey-text,106,553058,0.0-13.0-3.13,99945,List2A,black,woman,,,,,"{""Q0"":""Ruth and Dave are dancing with each other""}","<img src=""stim_listA/dance2.gif""</stim_listA>",are dancing with each other,
null,"<div style=""font-size:60px;"">+</div>",,html-keyboard-response,107,553561,0.0-13.0-0.14,99945,List2A,black,woman,,,,null,,,,
null,"<img src=""stim_listA/touch3.gif""</stim_listA>",,html-keyboard-response,108,555565,0.0-13.0-1.14,99945,List2A,black,woman,,,,null,,,,
null,is touching,,html-keyboard-response,109,557568,0.0-13.0-2.14,99945,List2A,black,woman,,,,null,,,,
6818,,,survey-text,110,564386,0.0-13.0-3.14,99945,List2A,black,woman,,,,,"{""Q0"":""Mike is touching Kate""}","<img src=""stim_listA/touch3.gif""</stim_listA>",is touching,
null,"<div style=""font-size:60px;"">+</div>",,html-keyboard-response,111,564887,0.0-13.0-0.15,99945,List2A,black,woman,,,,null,,,,
null,"<img src=""stim_listA/marry6.gif""</stim_listA>",,html-keyboard-response,112,566893,0.0-13.0-1.15,99945,List2A,black,woman,,,,null,,,,
null,are marrying each other,,html-keyboard-response,113,568896,0.0-13.0-2.15,99945,List2A,black,woman,,,,null,,,,
6735,,,survey-text,114,575632,0.0-13.0-3.15,99945,List2A,black,woman,,,,,"{""Q0"":""Mike and Luke are marrying each other""}","<img src=""stim_listA/marry6.gif""</stim_listA>",are marrying each other,
null,"<div style=""font-size:60px;"">+</div>",,html-keyboard-response,115,576133,0.0-13.0-0.16,99945,List2A,black,woman,,,,null,,,,
null,"<img src=""stim_listA/fight5.gif""</stim_listA>",,html-keyboard-response,116,578135,0.0-13.0-1.16,99945,List2A,black,woman,,,,null,,,,
null,is fighting,,html-keyboard-response,117,580140,0.0-13.0-2.16,99945,List2A,black,woman,,,,null,,,,
5645,,,survey-text,118,585787,0.0-13.0-3.16,99945,List2A,black,woman,,,,,"{""Q0"":""Dave is fighting Mike""}","<img src=""stim_listA/fight5.gif""</stim_listA>",is fighting,
null,"<div style=""font-size:60px;"">+</div>",,html-keyboard-response,119,586289,0.0-13.0-0.17,99945,List2A,black,woman,,,,null,,,,
null,"<img src=""stim_listA/talk8.gif""</stim_listA>",,html-keyboard-response,120,588296,0.0-13.0-1.17,99945,List2A,black,woman,,,,null,,,,
null,are talking to each other,,html-keyboard-response,121,590301,0.0-13.0-2.17,99945,List2A,black,woman,,,,null,,,,
7386,,,survey-text,122,597688,0.0-13.0-3.17,99945,List2A,black,woman,,,,,"{""Q0"":""Beth and Jane are talking to each other""}","<img src=""stim_listA/talk8.gif""</stim_listA>",are talking to each other,
null,"<div style=""font-size:60px;"">+</div>",,html-keyboard-response,123,598190,0.0-13.0-0.18,99945,List2A,black,woman,,,,null,,,,
null,"<img src=""stim_listA/hug6.gif""</stim_listA>",,html-keyboard-response,124,600196,0.0-13.0-1.18,99945,List2A,black,woman,,,,null,,,,
null,are hugging each other,,html-keyboard-response,125,602200,0.0-13.0-2.18,99945,List2A,black,woman,,,,null,,,,
7454,,,survey-text,126,609654,0.0-13.0-3.18,99945,List2A,black,woman,,,,,"{""Q0"":""Mike and Dave are hugging each other""}","<img src=""stim_listA/hug6.gif""</stim_listA>",are hugging each other,
null,"<div style=""font-size:60px;"">+</div>",,html-keyboard-response,127,610157,0.0-13.0-0.19,99945,List2A,black,woman,,,,null,,,,
null,"<img src=""stim_listA/argue3.gif""</stim_listA>",,html-keyboard-response,128,612159,0.0-13.0-1.19,99945,List2A,black,woman,,,,null,,,,
null,is arguing with,,html-keyboard-response,129,614162,0.0-13.0-2.19,99945,List2A,black,woman,,,,null,,,,
5079,,,survey-text,130,619242,0.0-13.0-3.19,99945,List2A,black,woman,,,,,"{""Q0"":""Jane is arguing with Mike""}","<img src=""stim_listA/argue3.gif""</stim_listA>",is arguing with,
26364,"<img src='img/portrait_matrix_list2.JPG' style='width:900px;height:500px;''></img><p>If you have memorised all the portraits and names and are ready to start, press Continue.</p><p><strong>Please note: Your memory of these faces will be tested 4 times during this experiment.</strong></p>",0,html-button-response,131,645607,0.0-14.0-0.0,99945,List2A,black,woman,,,,,,,,
2996,"<img src=""portrait/WW1.jpg""style=""width:400px;height:400px;""></img>",1,html-button-response,132,649606,0.0-14.0-1.0,99945,List2A,black,woman,,TRUE,1,,,,,
null,CORRECT,,html-keyboard-response,133,651117,0.0-14.0-2.0-0.0,99945,List2A,black,woman,,,,null,,,,
1669,"<img src=""portrait/BW1.jpg""style=""width:400px;height:400px;""></img>",0,html-button-response,134,652787,0.0-14.0-4.0,99945,List2A,black,woman,,TRUE,0,,,,,
null,CORRECT,,html-keyboard-response,135,654299,0.0-14.0-5.0-0.0,99945,List2A,black,woman,,,,null,,,,
1718,"<img src=""portrait/WM2.jpg""style=""width:400px;height:400px;""></img>",7,html-button-response,136,656019,0.0-14.0-7.0,99945,List2A,black,woman,,TRUE,7,,,,,
null,CORRECT,,html-keyboard-response,137,657531,0.0-14.0-8.0-0.0,99945,List2A,black,woman,,,,null,,,,
1831,"<img src=""portrait/WM1.jpg""style=""width:400px;height:400px;""></img>",6,html-button-response,138,659364,0.0-14.0-10.0,99945,List2A,black,woman,,TRUE,6,,,,,
null,CORRECT,,html-keyboard-response,139,660870,0.0-14.0-11.0-0.0,99945,List2A,black,woman,,,,null,,,,
1668,"<img src=""portrait/BM1.jpg""style=""width:400px;height:400px;""></img>",4,html-button-response,140,662539,0.0-14.0-13.0,99945,List2A,black,woman,,TRUE,4,,,,,
null,CORRECT,,html-keyboard-response,141,664044,0.0-14.0-14.0-0.0,99945,List2A,black,woman,,,,null,,,,
1651,"<img src=""portrait/BM2.jpg""style=""width:400px;height:400px;""></img>",5,html-button-response,142,665697,0.0-14.0-16.0,99945,List2A,black,woman,,TRUE,5,,,,,
null,CORRECT,,html-keyboard-response,143,667207,0.0-14.0-17.0-0.0,99945,List2A,black,woman,,,,null,,,,
1621,"<img src=""portrait/BW2.jpg""style=""width:400px;height:400px;""></img>",2,html-button-response,144,668830,0.0-14.0-19.0,99945,List2A,black,woman,,TRUE,2,,,,,
null,CORRECT,,html-keyboard-response,145,670342,0.0-14.0-20.0-0.0,99945,List2A,black,woman,,,,null,,,,
1537,"<img src=""portrait/WW2.jpg""style=""width:400px;height:400px;""></img>",3,html-button-response,146,671881,0.0-14.0-22.0,99945,List2A,black,woman,,TRUE,3,,,,,
null,CORRECT,,html-keyboard-response,147,673388,0.0-14.0-23.0-0.0,99945,List2A,black,woman,,,,null,,,,
1241,<p>You got 8 out of 8 right first time. Press Continue.</p>,0,html-button-response,148,674631,0.0-14.0-25.0,99945,List2A,black,woman,,,,,,,,
null,"<div style=""font-size:60px;"">+</div>",,html-keyboard-response,149,676141,0.0-15.0-0.0,99945,List2A,black,woman,,,,null,,,,
null,"<img src=""stim_listA/dance7.gif""</stim_listA>",,html-keyboard-response,150,678148,0.0-15.0-1.0,99945,List2A,black,woman,,,,null,,,,
null,is dancing with,,html-keyboard-response,151,680149,0.0-15.0-2.0,99945,List2A,black,woman,,,,null,,,,
5747,,,survey-text,152,685898,0.0-15.0-3.0,99945,List2A,black,woman,,,,,"{""Q0"":""Ruth is dancing with Kate""}","<img src=""stim_listA/dance7.gif""</stim_listA>",is dancing with,
null,"<div style=""font-size:60px;"">+</div>",,html-keyboard-response,153,686400,0.0-15.0-0.1,99945,List2A,black,woman,,,,null,,,,
null,"<img src=""stim_listA/shout6.gif""</stim_listA>",,html-keyboard-response,154,688406,0.0-15.0-1.1,99945,List2A,black,woman,,,,null,,,,
null,are shouting at each other,,html-keyboard-response,155,690407,0.0-15.0-2.1,99945,List2A,black,woman,,,,null,,,,
7157,,,survey-text,156,697566,0.0-15.0-3.1,99945,List2A,black,woman,,,,,"{""Q0"":""Dave and Mike are shouting at each other""}","<img src=""stim_listA/shout6.gif""</stim_listA>",are shouting at each other,
null,"<div style=""font-size:60px;"">+</div>",,html-keyboard-response,157,698068,0.0-15.0-0.2,99945,List2A,black,woman,,,,null,,,,
null,"<img src=""stim_listA/marry1.gif""</stim_listA>",,html-keyboard-response,158,700072,0.0-15.0-1.2,99945,List2A,black,woman,,,,null,,,,
null,is marrying,,html-keyboard-response,159,702075,0.0-15.0-2.2,99945,List2A,black,woman,,,,null,,,,
5588,,,survey-text,160,707664,0.0-15.0-3.2,99945,List2A,black,woman,,,,,"{""Q0"":""Dave is marrying Ruth""}","<img src=""stim_listA/marry1.gif""</stim_listA>",is marrying,
null,"<div style=""font-size:60px;"">+</div>",,html-keyboard-response,161,708165,0.0-15.0-0.3,99945,List2A,black,woman,,,,null,,,,
null,"<img src=""stim_listA/meet1.gif""</stim_listA>",,html-keyboard-response,162,710170,0.0-15.0-1.3,99945,List2A,black,woman,,,,null,,,,
null,is meeting,,html-keyboard-response,163,712171,0.0-15.0-2.3,99945,List2A,black,woman,,,,null,,,,
5279,,,survey-text,164,717450,0.0-15.0-3.3,99945,List2A,black,woman,,,,,"{""Q0"":""Dave is meeting Jane""}","<img src=""stim_listA/meet1.gif""</stim_listA>",is meeting,
null,"<div style=""font-size:60px;"">+</div>",,html-keyboard-response,165,717951,0.0-15.0-0.4,99945,List2A,black,woman,,,,null,,,,
null,"<img src=""stim_listA/dance4.gif""</stim_listA>",,html-keyboard-response,166,719953,0.0-15.0-1.4,99945,List2A,black,woman,,,,null,,,,
null,are dancing with each other,,html-keyboard-response,167,721955,0.0-15.0-2.4,99945,List2A,black,woman,,,,null,,,,
7167,,,survey-text,168,729124,0.0-15.0-3.4,99945,List2A,black,woman,,,,,"{""Q0"":""Beth and Mike are dancing with each other""}","<img src=""stim_listA/dance4.gif""</stim_listA>",are dancing with each other,
null,"<div style=""font-size:60px;"">+</div>",,html-keyboard-response,169,729631,0.0-15.0-0.5,99945,List2A,black,woman,,,,null,,,,
null,"<img src=""stim_listA/meet5.gif""</stim_listA>",,html-keyboard-response,170,731637,0.0-15.0-1.5,99945,List2A,black,woman,,,,null,,,,
null,is meeting,,html-keyboard-response,171,733641,0.0-15.0-2.5,99945,List2A,black,woman,,,,null,,,,
6820,,,survey-text,172,740462,0.0-15.0-3.5,99945,List2A,black,woman,,,,,"{""Q0"":""Dave is meeting Mike""}","<img src=""stim_listA/meet5.gif""</stim_listA>",is meeting,
null,"<div style=""font-size:60px;"">+</div>",,html-keyboard-response,173,740966,0.0-15.0-0.6,99945,List2A,black,woman,,,,null,,,,
null,"<img src=""stim_listA/touch7.gif""</stim_listA>",,html-keyboard-response,174,742973,0.0-15.0-1.6,99945,List2A,black,woman,,,,null,,,,
null,is touching,,html-keyboard-response,175,744976,0.0-15.0-2.6,99945,List2A,black,woman,,,,null,,,,
5434,,,survey-text,176,750412,0.0-15.0-3.6,99945,List2A,black,woman,,,,,"{""Q0"":""Jane is touching Kate""}","<img src=""stim_listA/touch7.gif""</stim_listA>",is touching,
null,"<div style=""font-size:60px;"">+</div>",,html-keyboard-response,177,750915,0.0-15.0-0.7,99945,List2A,black,woman,,,,null,,,,
null,"<img src=""stim_listA/touch1.gif""</stim_listA>",,html-keyboard-response,178,752918,0.0-15.0-1.7,99945,List2A,black,woman,,,,null,,,,
null,is touching,,html-keyboard-response,179,754922,0.0-15.0-2.7,99945,List2A,black,woman,,,,null,,,,
5794,,,survey-text,180,760717,0.0-15.0-3.7,99945,List2A,black,woman,,,,,"{""Q0"":""Dave is touching Jane""}","<img src=""stim_listA/touch1.gif""</stim_listA>",is touching,
null,"<div style=""font-size:60px;"">+</div>",,html-keyboard-response,181,761224,0.0-15.0-0.8,99945,List2A,black,woman,,,,null,,,,
null,"<img src=""stim_listA/talk5.gif""</stim_listA>",,html-keyboard-response,182,763227,0.0-15.0-1.8,99945,List2A,black,woman,,,,null,,,,
null,is talking to,,html-keyboard-response,183,765229,0.0-15.0-2.8,99945,List2A,black,woman,,,,null,,,,
8096,,,survey-text,184,773327,0.0-15.0-3.8,99945,List2A,black,woman,,,,,"{""Q0"":""Luke is talking to Mike""}","<img src=""stim_listA/talk5.gif""</stim_listA>",is talking to,
null,"<div style=""font-size:60px;"">+</div>",,html-keyboard-response,185,773830,0.0-15.0-0.9,99945,List2A,black,woman,,,,null,,,,
null,"<img src=""stim_listA/talk3.gif""</stim_listA>",,html-keyboard-response,186,775836,0.0-15.0-1.9,99945,List2A,black,woman,,,,null,,,,
null,is talking to,,html-keyboard-response,187,777837,0.0-15.0-2.9,99945,List2A,black,woman,,,,null,,,,
4982,,,survey-text,188,782821,0.0-15.0-3.9,99945,List2A,black,woman,,,,,"{""Q0"":""Fred is talking to Beth""}","<img src=""stim_listA/talk3.gif""</stim_listA>",is talking to,
null,"<div style=""font-size:60px;"">+</div>",,html-keyboard-response,189,783323,0.0-15.0-0.10,99945,List2A,black,woman,,,,null,,,,
null,"<img src=""stim_listA/argue1.gif""</stim_listA>",,html-keyboard-response,190,785329,0.0-15.0-1.10,99945,List2A,black,woman,,,,null,,,,
null,is arguing with,,html-keyboard-response,191,787330,0.0-15.0-2.10,99945,List2A,black,woman,,,,null,,,,
6164,,,survey-text,192,793495,0.0-15.0-3.10,99945,List2A,black,woman,,,,,"{""Q0"":""Dave is arguing with Ruth""}","<img src=""stim_listA/argue1.gif""</stim_listA>",is arguing with,
null,"<div style=""font-size:60px;"">+</div>",,html-keyboard-response,193,793997,0.0-15.0-0.11,99945,List2A,black,woman,,,,null,,,,
null,"<img src=""stim_listA/hug7.gif""</stim_listA>",,html-keyboard-response,194,796004,0.0-15.0-1.11,99945,List2A,black,woman,,,,null,,,,
null,is hugging,,html-keyboard-response,195,798006,0.0-15.0-2.11,99945,List2A,black,woman,,,,null,,,,
5410,,,survey-text,196,803418,0.0-15.0-3.11,99945,List2A,black,woman,,,,,"{""Q0"":""Beth is hugging Ruth""}","<img src=""stim_listA/hug7.gif""</stim_listA>",is hugging,
null,"<div style=""font-size:60px;"">+</div>",,html-keyboard-response,197,803919,0.0-15.0-0.12,99945,List2A,black,woman,,,,null,,,,
null,"<img src=""stim_listA/marry8.gif""</stim_listA>",,html-keyboard-response,198,805926,0.0-15.0-1.12,99945,List2A,black,woman,,,,null,,,,
null,are marrying each other,,html-keyboard-response,199,807927,0.0-15.0-2.12,99945,List2A,black,woman,,,,null,,,,
7924,,,survey-text,200,815851,0.0-15.0-3.12,99945,List2A,black,woman,,,,,"{""Q0"":""Kate and Ruth are marrying each other""}","<img src=""stim_listA/marry8.gif""</stim_listA>",are marrying each other,
null,"<div style=""font-size:60px;"">+</div>",,html-keyboard-response,201,816353,0.0-15.0-0.13,99945,List2A,black,woman,,,,null,,,,
null,"<img src=""stim_listA/kiss2.gif""</stim_listA>",,html-keyboard-response,202,818355,0.0-15.0-1.13,99945,List2A,black,woman,,,,null,,,,
null,are kissing each other,,html-keyboard-response,203,820359,0.0-15.0-2.13,99945,List2A,black,woman,,,,null,,,,
7820,,,survey-text,204,828180,0.0-15.0-3.13,99945,List2A,black,woman,,,,,"{""Q0"":""Jane and Dave are kissing each other""}","<img src=""stim_listA/kiss2.gif""</stim_listA>",are kissing each other,
null,"<div style=""font-size:60px;"">+</div>",,html-keyboard-response,205,828682,0.0-15.0-0.14,99945,List2A,black,woman,,,,null,,,,
null,"<img src=""stim_listA/fight7.gif""</stim_listA>",,html-keyboard-response,206,830686,0.0-15.0-1.14,99945,List2A,black,woman,,,,null,,,,
null,is fighting,,html-keyboard-response,207,832686,0.0-15.0-2.14,99945,List2A,black,woman,,,,null,,,,
5709,,,survey-text,208,838397,0.0-15.0-3.14,99945,List2A,black,woman,,,,,"{""Q0"":""Jane is fighting with Kate""}","<img src=""stim_listA/fight7.gif""</stim_listA>",is fighting,
null,"<div style=""font-size:60px;"">+</div>",,html-keyboard-response,209,838899,0.0-15.0-0.15,99945,List2A,black,woman,,,,null,,,,
null,"<img src=""stim_listA/dance6.gif""</stim_listA>",,html-keyboard-response,210,840900,0.0-15.0-1.15,99945,List2A,black,woman,,,,null,,,,
null,are dancing with each other,,html-keyboard-response,211,842902,0.0-15.0-2.15,99945,List2A,black,woman,,,,null,,,,
8174,,,survey-text,212,851078,0.0-15.0-3.15,99945,List2A,black,woman,,,,,"{""Q0"":""Fred and Dave are dancing with each other""}","<img src=""stim_listA/dance6.gif""</stim_listA>",are dancing with each other,
null,"<div style=""font-size:60px;"">+</div>",,html-keyboard-response,213,851580,0.0-15.0-0.16,99945,List2A,black,woman,,,,null,,,,
null,"<img src=""stim_listA/shout1.gif""</stim_listA>",,html-keyboard-response,214,853586,0.0-15.0-1.16,99945,List2A,black,woman,,,,null,,,,
null,is shouting at,,html-keyboard-response,215,855591,0.0-15.0-2.16,99945,List2A,black,woman,,,,null,,,,
6496,,,survey-text,216,862088,0.0-15.0-3.16,99945,List2A,black,woman,,,,,"{""Q0"":""Luke is shouting at Ruth""}","<img src=""stim_listA/shout1.gif""</stim_listA>",is shouting at,
null,"<div style=""font-size:60px;"">+</div>",,html-keyboard-response,217,862589,0.0-15.0-0.17,99945,List2A,black,woman,,,,null,,,,
null,"<img src=""stim_listA/fight2.gif""</stim_listA>",,html-keyboard-response,218,864596,0.0-15.0-1.17,99945,List2A,black,woman,,,,null,,,,
null,are fighting each other,,html-keyboard-response,219,866598,0.0-15.0-2.17,99945,List2A,black,woman,,,,null,,,,
6310,,,survey-text,220,872908,0.0-15.0-3.17,99945,List2A,black,woman,,,,,"{""Q0"":""Ruth and Luke are fighting each other""}","<img src=""stim_listA/fight2.gif""</stim_listA>",are fighting each other,
null,"<div style=""font-size:60px;"">+</div>",,html-keyboard-response,221,873410,0.0-15.0-0.18,99945,List2A,black,woman,,,,null,,,,
null,"<img src=""stim_listA/marry5.gif""</stim_listA>",,html-keyboard-response,222,875413,0.0-15.0-1.18,99945,List2A,black,woman,,,,null,,,,
null,is marrying,,html-keyboard-response,223,877415,0.0-15.0-2.18,99945,List2A,black,woman,,,,null,,,,
5593,,,survey-text,224,883010,0.0-15.0-3.18,99945,List2A,black,woman,,,,,"{""Q0"":""Dave is marrying Fred""}","<img src=""stim_listA/marry5.gif""</stim_listA>",is marrying,
null,"<div style=""font-size:60px;"">+</div>",,html-keyboard-response,225,883512,0.0-15.0-0.19,99945,List2A,black,woman,,,,null,,,,
null,"<img src=""stim_listA/hug8.gif""</stim_listA>",,html-keyboard-response,226,885518,0.0-15.0-1.19,99945,List2A,black,woman,,,,null,,,,
null,are hugging each other,,html-keyboard-response,227,887523,0.0-15.0-2.19,99945,List2A,black,woman,,,,null,,,,
7871,,,survey-text,228,895396,0.0-15.0-3.19,99945,List2A,black,woman,,,,,"{""Q0"":""Kate and Jane are hugging ""}","<img src=""stim_listA/hug8.gif""</stim_listA>",are hugging each other,
12695,"<img src='img/portrait_matrix_list2.JPG' style='width:900px;height:500px;''></img><p>If you have memorised all the portraits and names and are ready to start, press Continue.</p><p><strong>Please note: Your memory of these faces will be tested 4 times during this experiment.</strong></p>",0,html-button-response,229,908093,0.0-16.0-0.0,99945,List2A,black,woman,,,,,,,,
1915,"<img src=""portrait/WW1.jpg""style=""width:400px;height:400px;""></img>",1,html-button-response,230,911015,0.0-16.0-1.0,99945,List2A,black,woman,,TRUE,1,,,,,
null,CORRECT,,html-keyboard-response,231,912521,0.0-16.0-2.0-0.0,99945,List2A,black,woman,,,,null,,,,
2846,"<img src=""portrait/BW2.jpg""style=""width:400px;height:400px;""></img>",2,html-button-response,232,915367,0.0-16.0-4.0,99945,List2A,black,woman,,TRUE,2,,,,,
null,CORRECT,,html-keyboard-response,233,916879,0.0-16.0-5.0-0.0,99945,List2A,black,woman,,,,null,,,,
1498,"<img src=""portrait/BW1.jpg""style=""width:400px;height:400px;""></img>",0,html-button-response,234,918379,0.0-16.0-7.0,99945,List2A,black,woman,,TRUE,0,,,,,
null,CORRECT,,html-keyboard-response,235,919891,0.0-16.0-8.0-0.0,99945,List2A,black,woman,,,,null,,,,
1329,"<img src=""portrait/BM1.jpg""style=""width:400px;height:400px;""></img>",4,html-button-response,236,921222,0.0-16.0-10.0,99945,List2A,black,woman,,TRUE,4,,,,,
null,CORRECT,,html-keyboard-response,237,922732,0.0-16.0-11.0-0.0,99945,List2A,black,woman,,,,null,,,,
1816,"<img src=""portrait/BM2.jpg""style=""width:400px;height:400px;""></img>",5,html-button-response,238,924550,0.0-16.0-13.0,99945,List2A,black,woman,,TRUE,5,,,,,
null,CORRECT,,html-keyboard-response,239,926053,0.0-16.0-14.0-0.0,99945,List2A,black,woman,,,,null,,,,
1437,"<img src=""portrait/WM2.jpg""style=""width:400px;height:400px;""></img>",7,html-button-response,240,927492,0.0-16.0-16.0,99945,List2A,black,woman,,TRUE,7,,,,,
null,CORRECT,,html-keyboard-response,241,929004,0.0-16.0-17.0-0.0,99945,List2A,black,woman,,,,null,,,,
1549,"<img src=""portrait/WW2.jpg""style=""width:400px;height:400px;""></img>",3,html-button-response,242,930554,0.0-16.0-19.0,99945,List2A,black,woman,,TRUE,3,,,,,
null,CORRECT,,html-keyboard-response,243,932066,0.0-16.0-20.0-0.0,99945,List2A,black,woman,,,,null,,,,
2146,"<img src=""portrait/WM1.jpg""style=""width:400px;height:400px;""></img>",6,html-button-response,244,934212,0.0-16.0-22.0,99945,List2A,black,woman,,TRUE,6,,,,,
null,CORRECT,,html-keyboard-response,245,935720,0.0-16.0-23.0-0.0,99945,List2A,black,woman,,,,null,,,,
1105,<p>You got 8 out of 8 right first time. Press Continue.</p>,0,html-button-response,246,936826,0.0-16.0-25.0,99945,List2A,black,woman,,,,,,,,
null,"<div style=""font-size:60px;"">+</div>",,html-keyboard-response,247,938338,0.0-17.0-0.0,99945,List2A,black,woman,,,,null,,,,
null,"<img src=""stim_listA/argue8.gif""</stim_listA>",,html-keyboard-response,248,940340,0.0-17.0-1.0,99945,List2A,black,woman,,,,null,,,,
null,are arguing with each other,,html-keyboard-response,249,942342,0.0-17.0-2.0,99945,List2A,black,woman,,,,null,,,,
9137,,,survey-text,250,951480,0.0-17.0-3.0,99945,List2A,black,woman,,,,,"{""Q0"":""Kate and Ruth are arguing with each other""}","<img src=""stim_listA/argue8.gif""</stim_listA>",are arguing with each other,
null,"<div style=""font-size:60px;"">+</div>",,html-keyboard-response,251,951983,0.0-17.0-0.1,99945,List2A,black,woman,,,,null,,,,
null,"<img src=""stim_listA/kiss1.gif""</stim_listA>",,html-keyboard-response,252,953987,0.0-17.0-1.1,99945,List2A,black,woman,,,,null,,,,
null,is kissing,,html-keyboard-response,253,955992,0.0-17.0-2.1,99945,List2A,black,woman,,,,null,,,,
5380,,,survey-text,254,961373,0.0-17.0-3.1,99945,List2A,black,woman,,,,,"{""Q0"":""Luke is kissing Ruth""}","<img src=""stim_listA/kiss1.gif""</stim_listA>",is kissing,
null,"<div style=""font-size:60px;"">+</div>",,html-keyboard-response,255,961875,0.0-17.0-0.2,99945,List2A,black,woman,,,,null,,,,
null,"<img src=""stim_listA/touch6.gif""</stim_listA>",,html-keyboard-response,256,963880,0.0-17.0-1.2,99945,List2A,black,woman,,,,null,,,,
null,are touching each other,,html-keyboard-response,257,965883,0.0-17.0-2.2,99945,List2A,black,woman,,,,null,,,,
7450,,,survey-text,258,973334,0.0-17.0-3.2,99945,List2A,black,woman,,,,,"{""Q0"":""Fred is touching Luke""}","<img src=""stim_listA/touch6.gif""</stim_listA>",are touching each other,
null,"<div style=""font-size:60px;"">+</div>",,html-keyboard-response,259,973835,0.0-17.0-0.3,99945,List2A,black,woman,,,,null,,,,
null,"<img src=""stim_listA/marry7.gif""</stim_listA>",,html-keyboard-response,260,975837,0.0-17.0-1.3,99945,List2A,black,woman,,,,null,,,,
null,is marrying,,html-keyboard-response,261,977841,0.0-17.0-2.3,99945,List2A,black,woman,,,,null,,,,
7172,,,survey-text,262,985013,0.0-17.0-3.3,99945,List2A,black,woman,,,,,"{""Q0"":""Beth is marrying Jane""}","<img src=""stim_listA/marry7.gif""</stim_listA>",is marrying,
null,"<div style=""font-size:60px;"">+</div>",,html-keyboard-response,263,985515,0.0-17.0-0.4,99945,List2A,black,woman,,,,null,,,,
null,"<img src=""stim_listA/dance5.gif""</stim_listA>",,html-keyboard-response,264,987518,0.0-17.0-1.4,99945,List2A,black,woman,,,,null,,,,
null,is dancing with,,html-keyboard-response,265,989519,0.0-17.0-2.4,99945,List2A,black,woman,,,,null,,,,
5031,,,survey-text,266,994552,0.0-17.0-3.4,99945,List2A,black,woman,,,,,"{""Q0"":""Luke is dancing with Mike""}","<img src=""stim_listA/dance5.gif""</stim_listA>",is dancing with,
null,"<div style=""font-size:60px;"">+</div>",,html-keyboard-response,267,995054,0.0-17.0-0.5,99945,List2A,black,woman,,,,null,,,,
null,"<img src=""stim_listA/meet6.gif""</stim_listA>",,html-keyboard-response,268,997056,0.0-17.0-1.5,99945,List2A,black,woman,,,,null,,,,
null,are meeting each other,,html-keyboard-response,269,999057,0.0-17.0-2.5,99945,List2A,black,woman,,,,null,,,,
6441,,,survey-text,270,1005499,0.0-17.0-3.5,99945,List2A,black,woman,,,,,"{""Q0"":""Fred and Luke are meeting each other""}","<img src=""stim_listA/meet6.gif""</stim_listA>",are meeting each other,
null,"<div style=""font-size:60px;"">+</div>",,html-keyboard-response,271,1006005,0.0-17.0-0.6,99945,List2A,black,woman,,,,null,,,,
null,"<img src=""stim_listA/kiss6.gif""</stim_listA>",,html-keyboard-response,272,1008009,0.0-17.0-1.6,99945,List2A,black,woman,,,,null,,,,
null,are kissing each other,,html-keyboard-response,273,1010011,0.0-17.0-2.6,99945,List2A,black,woman,,,,null,,,,
7821,,,survey-text,274,1017833,0.0-17.0-3.6,99945,List2A,black,woman,,,,,"{""Q0"":""Mike and Dave are kissing each other""}","<img src=""stim_listA/kiss6.gif""</stim_listA>",are kissing each other,
null,"<div style=""font-size:60px;"">+</div>",,html-keyboard-response,275,1018338,0.0-17.0-0.7,99945,List2A,black,woman,,,,null,,,,
null,"<img src=""stim_listA/argue6.gif""</stim_listA>",,html-keyboard-response,276,1020342,0.0-17.0-1.7,99945,List2A,black,woman,,,,null,,,,
null,are arguing with each other,,html-keyboard-response,277,1022343,0.0-17.0-2.7,99945,List2A,black,woman,,,,null,,,,
7194,,,survey-text,278,1029539,0.0-17.0-3.7,99945,List2A,black,woman,,,,,"{""Q0"":""Luke and Mike are arguing with each other""}","<img src=""stim_listA/argue6.gif""</stim_listA>",are arguing with each other,
null,"<div style=""font-size:60px;"">+</div>",,html-keyboard-response,279,1030043,0.0-17.0-0.8,99945,List2A,black,woman,,,,null,,,,
null,"<img src=""stim_listA/dance8.gif""</stim_listA>",,html-keyboard-response,280,1032048,0.0-17.0-1.8,99945,List2A,black,woman,,,,null,,,,
null,are dancing with each other,,html-keyboard-response,281,1034049,0.0-17.0-2.8,99945,List2A,black,woman,,,,null,,,,
10097,,,survey-text,282,1044148,0.0-17.0-3.8,99945,List2A,black,woman,,,,,"{""Q0"":""Beth and Kate are dancing with each other""}","<img src=""stim_listA/dance8.gif""</stim_listA>",are dancing with each other,
null,"<div style=""font-size:60px;"">+</div>",,html-keyboard-response,283,1044649,0.0-17.0-0.9,99945,List2A,black,woman,,,,null,,,,
null,"<img src=""stim_listA/marry2.gif""</stim_listA>",,html-keyboard-response,284,1046656,0.0-17.0-1.9,99945,List2A,black,woman,,,,null,,,,
null,are marrying each other,,html-keyboard-response,285,1048657,0.0-17.0-2.9,99945,List2A,black,woman,,,,null,,,,
6775,,,survey-text,286,1055433,0.0-17.0-3.9,99945,List2A,black,woman,,,,,"{""Q0"":""Jane and Luke are marrying each other""}","<img src=""stim_listA/marry2.gif""</stim_listA>",are marrying each other,
null,"<div style=""font-size:60px;"">+</div>",,html-keyboard-response,287,1055938,0.0-17.0-0.10,99945,List2A,black,woman,,,,null,,,,
null,"<img src=""stim_listA/touch8.gif""</stim_listA>",,html-keyboard-response,288,1057943,0.0-17.0-1.10,99945,List2A,black,woman,,,,null,,,,
null,are touching each other,,html-keyboard-response,289,1059945,0.0-17.0-2.10,99945,List2A,black,woman,,,,null,,,,
6648,,,survey-text,290,1066594,0.0-17.0-3.10,99945,List2A,black,woman,,,,,"{""Q0"":""Beth and Ruth are touching each other""}","<img src=""stim_listA/touch8.gif""</stim_listA>",are touching each other,
null,"<div style=""font-size:60px;"">+</div>",,html-keyboard-response,291,1067095,0.0-17.0-0.11,99945,List2A,black,woman,,,,null,,,,
null,"<img src=""stim_listA/marry4.gif""</stim_listA>",,html-keyboard-response,292,1069102,0.0-17.0-1.11,99945,List2A,black,woman,,,,null,,,,
null,are marrying each other,,html-keyboard-response,293,1071103,0.0-17.0-2.11,99945,List2A,black,woman,,,,null,,,,
8408,,,survey-text,294,1079512,0.0-17.0-3.11,99945,List2A,black,woman,,,,,"{""Q0"":""Kate and Fred are touching each other""}","<img src=""stim_listA/marry4.gif""</stim_listA>",are marrying each other,
null,"<div style=""font-size:60px;"">+</div>",,html-keyboard-response,295,1080014,0.0-17.0-0.12,99945,List2A,black,woman,,,,null,,,,
null,"<img src=""stim_listA/fight1.gif""</stim_listA>",,html-keyboard-response,296,1082016,0.0-17.0-1.12,99945,List2A,black,woman,,,,null,,,,
null,is fighting,,html-keyboard-response,297,1084017,0.0-17.0-2.12,99945,List2A,black,woman,,,,null,,,,
6756,,,survey-text,298,1090774,0.0-17.0-3.12,99945,List2A,black,woman,,,,,"{""Q0"":""Jane is fighting Dave""}","<img src=""stim_listA/fight1.gif""</stim_listA>",is fighting,
null,"<div style=""font-size:60px;"">+</div>",,html-keyboard-response,299,1091276,0.0-17.0-0.13,99945,List2A,black,woman,,,,null,,,,
null,"<img src=""stim_listA/meet3.gif""</stim_listA>",,html-keyboard-response,300,1093278,0.0-17.0-1.13,99945,List2A,black,woman,,,,null,,,,
null,is meeting,,html-keyboard-response,301,1095279,0.0-17.0-2.13,99945,List2A,black,woman,,,,null,,,,
4265,,,survey-text,302,1099545,0.0-17.0-3.13,99945,List2A,black,woman,,,,,"{""Q0"":""Mike is meeting Kate""}","<img src=""stim_listA/meet3.gif""</stim_listA>",is meeting,
null,"<div style=""font-size:60px;"">+</div>",,html-keyboard-response,303,1100051,0.0-17.0-0.14,99945,List2A,black,woman,,,,null,,,,
null,"<img src=""stim_listA/touch4.gif""</stim_listA>",,html-keyboard-response,304,1102056,0.0-17.0-1.14,99945,List2A,black,woman,,,,null,,,,
null,are touching each other,,html-keyboard-response,305,1104061,0.0-17.0-2.14,99945,List2A,black,woman,,,,null,,,,
5582,,,survey-text,306,1109644,0.0-17.0-3.14,99945,List2A,black,woman,,,,,"{""Q0"":""Beth and Fred are touching""}","<img src=""stim_listA/touch4.gif""</stim_listA>",are touching each other,
null,"<div style=""font-size:60px;"">+</div>",,html-keyboard-response,307,1110147,0.0-17.0-0.15,99945,List2A,black,woman,,,,null,,,,
null,"<img src=""stim_listA/hug1.gif""</stim_listA>",,html-keyboard-response,308,1112148,0.0-17.0-1.15,99945,List2A,black,woman,,,,null,,,,
null,is hugging,,html-keyboard-response,309,1114150,0.0-17.0-2.15,99945,List2A,black,woman,,,,null,,,,
5521,,,survey-text,310,1119672,0.0-17.0-3.15,99945,List2A,black,woman,,,,,"{""Q0"":""Ruth is hugging Luke""}","<img src=""stim_listA/hug1.gif""</stim_listA>",is hugging,
null,"<div style=""font-size:60px;"">+</div>",,html-keyboard-response,311,1120173,0.0-17.0-0.16,99945,List2A,black,woman,,,,null,,,,
null,"<img src=""stim_listA/shout2.gif""</stim_listA>",,html-keyboard-response,312,1122175,0.0-17.0-1.16,99945,List2A,black,woman,,,,null,,,,
null,are shouting at each other,,html-keyboard-response,313,1124176,0.0-17.0-2.16,99945,List2A,black,woman,,,,null,,,,
9500,,,survey-text,314,1133676,0.0-17.0-3.16,99945,List2A,black,woman,,,,,"{""Q0"":""Jane and Dave are shouting at each other""}","<img src=""stim_listA/shout2.gif""</stim_listA>",are shouting at each other,
null,"<div style=""font-size:60px;"">+</div>",,html-keyboard-response,315,1134178,0.0-17.0-0.17,99945,List2A,black,woman,,,,null,,,,
null,"<img src=""stim_listA/fight3.gif""</stim_listA>",,html-keyboard-response,316,1136185,0.0-17.0-1.17,99945,List2A,black,woman,,,,null,,,,
null,is fighting,,html-keyboard-response,317,1138190,0.0-17.0-2.17,99945,List2A,black,woman,,,,null,,,,
6108,,,survey-text,318,1144300,0.0-17.0-3.17,99945,List2A,black,woman,,,,,"{""Q0"":""Mike is fighting Kate""}","<img src=""stim_listA/fight3.gif""</stim_listA>",is fighting,
null,"<div style=""font-size:60px;"">+</div>",,html-keyboard-response,319,1144802,0.0-17.0-0.18,99945,List2A,black,woman,,,,null,,,,
null,"<img src=""stim_listA/argue5.gif""</stim_listA>",,html-keyboard-response,320,1146808,0.0-17.0-1.18,99945,List2A,black,woman,,,,null,,,,
null,is arguing with,,html-keyboard-response,321,1148812,0.0-17.0-2.18,99945,List2A,black,woman,,,,null,,,,
5835,,,survey-text,322,1154649,0.0-17.0-3.18,99945,List2A,black,woman,,,,,"{""Q0"":""Dave is arguing with Fred""}","<img src=""stim_listA/argue5.gif""</stim_listA>",is arguing with,
null,"<div style=""font-size:60px;"">+</div>",,html-keyboard-response,323,1155151,0.0-17.0-0.19,99945,List2A,black,woman,,,,null,,,,
null,"<img src=""stim_listA/hug5.gif""</stim_listA>",,html-keyboard-response,324,1157156,0.0-17.0-1.19,99945,List2A,black,woman,,,,null,,,,
null,is hugging,,html-keyboard-response,325,1159160,0.0-17.0-2.19,99945,List2A,black,woman,,,,null,,,,
5925,,,survey-text,326,1165087,0.0-17.0-3.19,99945,List2A,black,woman,,,,,"{""Q0"":""Fred is hugging Luke""}","<img src=""stim_listA/hug5.gif""</stim_listA>",is hugging,
11564,"<img src='img/portrait_matrix_list2.JPG' style='width:900px;height:500px;''></img><p>If you have memorised all the portraits and names and are ready to start, press Continue.</p><p><strong>Please note: Your memory of these faces will be tested 4 times during this experiment.</strong></p>",0,html-button-response,327,1176651,0.0-18.0-0.0,99945,List2A,black,woman,,,,,,,,
1436,"<img src=""portrait/WM2.jpg""style=""width:400px;height:400px;""></img>",7,html-button-response,328,1179092,0.0-18.0-1.0,99945,List2A,black,woman,,TRUE,7,,,,,
null,CORRECT,,html-keyboard-response,329,1180598,0.0-18.0-2.0-0.0,99945,List2A,black,woman,,,,null,,,,
1932,"<img src=""portrait/WW1.jpg""style=""width:400px;height:400px;""></img>",1,html-button-response,330,1182531,0.0-18.0-4.0,99945,List2A,black,woman,,TRUE,1,,,,,
null,CORRECT,,html-keyboard-response,331,1184040,0.0-18.0-5.0-0.0,99945,List2A,black,woman,,,,null,,,,
1296,"<img src=""portrait/WW2.jpg""style=""width:400px;height:400px;""></img>",3,html-button-response,332,1185338,0.0-18.0-7.0,99945,List2A,black,woman,,TRUE,3,,,,,
null,CORRECT,,html-keyboard-response,333,1186840,0.0-18.0-8.0-0.0,99945,List2A,black,woman,,,,null,,,,
1371,"<img src=""portrait/WM1.jpg""style=""width:400px;height:400px;""></img>",6,html-button-response,334,1188213,0.0-18.0-10.0,99945,List2A,black,woman,,TRUE,6,,,,,
null,CORRECT,,html-keyboard-response,335,1189716,0.0-18.0-11.0-0.0,99945,List2A,black,woman,,,,null,,,,
1884,"<img src=""portrait/BW2.jpg""style=""width:400px;height:400px;""></img>",2,html-button-response,336,1191602,0.0-18.0-13.0,99945,List2A,black,woman,,TRUE,2,,,,,
null,CORRECT,,html-keyboard-response,337,1193114,0.0-18.0-14.0-0.0,99945,List2A,black,woman,,,,null,,,,
2439,"<img src=""portrait/BM2.jpg""style=""width:400px;height:400px;""></img>",5,html-button-response,338,1195555,0.0-18.0-16.0,99945,List2A,black,woman,,TRUE,5,,,,,
null,CORRECT,,html-keyboard-response,339,1197062,0.0-18.0-17.0-0.0,99945,List2A,black,woman,,,,null,,,,
1683,"<img src=""portrait/BW1.jpg""style=""width:400px;height:400px;""></img>",0,html-button-response,340,1198747,0.0-18.0-19.0,99945,List2A,black,woman,,TRUE,0,,,,,
null,CORRECT,,html-keyboard-response,341,1200252,0.0-18.0-20.0-0.0,99945,List2A,black,woman,,,,null,,,,
1654,"<img src=""portrait/BM1.jpg""style=""width:400px;height:400px;""></img>",4,html-button-response,342,1201908,0.0-18.0-22.0,99945,List2A,black,woman,,TRUE,4,,,,,
null,CORRECT,,html-keyboard-response,343,1203415,0.0-18.0-23.0-0.0,99945,List2A,black,woman,,,,null,,,,
1342,<p>You got 8 out of 8 right first time. Press Continue.</p>,0,html-button-response,344,1204758,0.0-18.0-25.0,99945,List2A,black,woman,,,,,,,,
null,"<div style=""font-size:60px;"">+</div>",,html-keyboard-response,345,1206271,0.0-19.0-0.0,99945,List2A,black,woman,,,,null,,,,
null,"<img src=""stim_listA/dance1.gif""</stim_listA>",,html-keyboard-response,346,1208274,0.0-19.0-1.0,99945,List2A,black,woman,,,,null,,,,
null,is dancing with,,html-keyboard-response,347,1210281,0.0-19.0-2.0,99945,List2A,black,woman,,,,null,,,,
5585,,,survey-text,348,1215867,0.0-19.0-3.0,99945,List2A,black,woman,,,,,"{""Q0"":""Luke is dancing with Jane""}","<img src=""stim_listA/dance1.gif""</stim_listA>",is dancing with,
null,"<div style=""font-size:60px;"">+</div>",,html-keyboard-response,349,1216371,0.0-19.0-0.1,99945,List2A,black,woman,,,,null,,,,
null,"<img src=""stim_listA/fight4.gif""</stim_listA>",,html-keyboard-response,350,1218378,0.0-19.0-1.1,99945,List2A,black,woman,,,,null,,,,
null,are fighting each other,,html-keyboard-response,351,1220384,0.0-19.0-2.1,99945,List2A,black,woman,,,,null,,,,
7137,,,survey-text,352,1227522,0.0-19.0-3.1,99945,List2A,black,woman,,,,,"{""Q0"":""Beth and Fred are fighting each other""}","<img src=""stim_listA/fight4.gif""</stim_listA>",are fighting each other,
null,"<div style=""font-size:60px;"">+</div>",,html-keyboard-response,353,1228023,0.0-19.0-0.2,99945,List2A,black,woman,,,,null,,,,
null,"<img src=""stim_listA/kiss7.gif""</stim_listA>",,html-keyboard-response,354,1230027,0.0-19.0-1.2,99945,List2A,black,woman,,,,null,,,,
null,is kissing,,html-keyboard-response,355,1232028,0.0-19.0-2.2,99945,List2A,black,woman,,,,null,,,,
4530,,,survey-text,356,1236559,0.0-19.0-3.2,99945,List2A,black,woman,,,,,"{""Q0"":""Beth is kissing Ruth""}","<img src=""stim_listA/kiss7.gif""</stim_listA>",is kissing,
null,"<div style=""font-size:60px;"">+</div>",,html-keyboard-response,357,1237060,0.0-19.0-0.3,99945,List2A,black,woman,,,,null,,,,
null,"<img src=""stim_listA/hug2.gif""</stim_listA>",,html-keyboard-response,358,1239062,0.0-19.0-1.3,99945,List2A,black,woman,,,,null,,,,
null,are hugging each other,,html-keyboard-response,359,1241063,0.0-19.0-2.3,99945,List2A,black,woman,,,,null,,,,
8159,,,survey-text,360,1249224,0.0-19.0-3.3,99945,List2A,black,woman,,,,,"{""Q0"":""Jane and Dave are hugging each other""}","<img src=""stim_listA/hug2.gif""</stim_listA>",are hugging each other,
null,"<div style=""font-size:60px;"">+</div>",,html-keyboard-response,361,1249725,0.0-19.0-0.4,99945,List2A,black,woman,,,,null,,,,
null,"<img src=""stim_listA/meet8.gif""</stim_listA>",,html-keyboard-response,362,1251732,0.0-19.0-1.4,99945,List2A,black,woman,,,,null,,,,
null,are meeting each other,,html-keyboard-response,363,1253737,0.0-19.0-2.4,99945,List2A,black,woman,,,,null,,,,
5837,,,survey-text,364,1259576,0.0-19.0-3.4,99945,List2A,black,woman,,,,,"{""Q0"":""Beth and Ruth are meeting each other""}","<img src=""stim_listA/meet8.gif""</stim_listA>",are meeting each other,
null,"<div style=""font-size:60px;"">+</div>",,html-keyboard-response,365,1260077,0.0-19.0-0.5,99945,List2A,black,woman,,,,null,,,,
null,"<img src=""stim_listA/talk7.gif""</stim_listA>",,html-keyboard-response,366,1262078,0.0-19.0-1.5,99945,List2A,black,woman,,,,null,,,,
null,is talking to,,html-keyboard-response,367,1264083,0.0-19.0-2.5,99945,List2A,black,woman,,,,null,,,,
5514,,,survey-text,368,1269597,0.0-19.0-3.5,99945,List2A,black,woman,,,,,"{""Q0"":""Ruth is talking to Kate""}","<img src=""stim_listA/talk7.gif""</stim_listA>",is talking to,
null,"<div style=""font-size:60px;"">+</div>",,html-keyboard-response,369,1270099,0.0-19.0-0.6,99945,List2A,black,woman,,,,null,,,,
null,"<img src=""stim_listA/meet7.gif""</stim_listA>",,html-keyboard-response,370,1272102,0.0-19.0-1.6,99945,List2A,black,woman,,,,null,,,,
null,is meeting,,html-keyboard-response,371,1274104,0.0-19.0-2.6,99945,List2A,black,woman,,,,null,,,,
4520,,,survey-text,372,1278624,0.0-19.0-3.6,99945,List2A,black,woman,,,,,"{""Q0"":""Kate is meeting Jane""}","<img src=""stim_listA/meet7.gif""</stim_listA>",is meeting,
null,"<div style=""font-size:60px;"">+</div>",,html-keyboard-response,373,1279129,0.0-19.0-0.7,99945,List2A,black,woman,,,,null,,,,
null,"<img src=""stim_listA/kiss4.gif""</stim_listA>",,html-keyboard-response,374,1281131,0.0-19.0-1.7,99945,List2A,black,woman,,,,null,,,,
null,are kissing each other,,html-keyboard-response,375,1283132,0.0-19.0-2.7,99945,List2A,black,woman,,,,null,,,,
5587,,,survey-text,376,1288720,0.0-19.0-3.7,99945,List2A,black,woman,,,,,"{""Q0"":""Mike is kissing Kate""}","<img src=""stim_listA/kiss4.gif""</stim_listA>",are kissing each other,
null,"<div style=""font-size:60px;"">+</div>",,html-keyboard-response,377,1289222,0.0-19.0-0.8,99945,List2A,black,woman,,,,null,,,,
null,"<img src=""stim_listA/shout8.gif""</stim_listA>",,html-keyboard-response,378,1291225,0.0-19.0-1.8,99945,List2A,black,woman,,,,null,,,,
null,are shouting at each other,,html-keyboard-response,379,1293226,0.0-19.0-2.8,99945,List2A,black,woman,,,,null,,,,
14085,,,survey-text,380,1307312,0.0-19.0-3.8,99945,List2A,black,woman,,,,,"{""Q0"":""Kate and Jane are shouting at each other""}","<img src=""stim_listA/shout8.gif""</stim_listA>",are shouting at each other,
null,"<div style=""font-size:60px;"">+</div>",,html-keyboard-response,381,1307817,0.0-19.0-0.9,99945,List2A,black,woman,,,,null,,,,
null,"<img src=""stim_listA/meet2.gif""</stim_listA>",,html-keyboard-response,382,1309818,0.0-19.0-1.9,99945,List2A,black,woman,,,,null,,,,
null,are meeting each other,,html-keyboard-response,383,1311819,0.0-19.0-2.9,99945,List2A,black,woman,,,,null,,,,
9617,,,survey-text,384,1321438,0.0-19.0-3.9,99945,List2A,black,woman,,,,,"{""Q0"":""Ruth and Luke are meeting each other""}","<img src=""stim_listA/meet2.gif""</stim_listA>",are meeting each other,
null,"<div style=""font-size:60px;"">+</div>",,html-keyboard-response,385,1321939,0.0-19.0-0.10,99945,List2A,black,woman,,,,null,,,,
null,"<img src=""stim_listA/marry3.gif""</stim_listA>",,html-keyboard-response,386,1323942,0.0-19.0-1.10,99945,List2A,black,woman,,,,null,,,,
null,is marrying,,html-keyboard-response,387,1325943,0.0-19.0-2.10,99945,List2A,black,woman,,,,null,,,,
6031,,,survey-text,388,1331975,0.0-19.0-3.10,99945,List2A,black,woman,,,,,"{""Q0"":""Mike is marrying Beth""}","<img src=""stim_listA/marry3.gif""</stim_listA>",is marrying,
null,"<div style=""font-size:60px;"">+</div>",,html-keyboard-response,389,1332477,0.0-19.0-0.11,99945,List2A,black,woman,,,,null,,,,
null,"<img src=""stim_listA/fight8.gif""</stim_listA>",,html-keyboard-response,390,1334483,0.0-19.0-1.11,99945,List2A,black,woman,,,,null,,,,
null,are fighting each other,,html-keyboard-response,391,1336486,0.0-19.0-2.11,99945,List2A,black,woman,,,,null,,,,
6902,,,survey-text,392,1343388,0.0-19.0-3.11,99945,List2A,black,woman,,,,,"{""Q0"":""Beth and Ruth are fighting each other""}","<img src=""stim_listA/fight8.gif""</stim_listA>",are fighting each other,
null,"<div style=""font-size:60px;"">+</div>",,html-keyboard-response,393,1343894,0.0-19.0-0.12,99945,List2A,black,woman,,,,null,,,,
null,"<img src=""stim_listA/fight6.gif""</stim_listA>",,html-keyboard-response,394,1345895,0.0-19.0-1.12,99945,List2A,black,woman,,,,null,,,,
null,are fighting each other,,html-keyboard-response,395,1347900,0.0-19.0-2.12,99945,List2A,black,woman,,,,null,,,,
7924,,,survey-text,396,1355824,0.0-19.0-3.12,99945,List2A,black,woman,,,,,"{""Q0"":""Fred and Luke are fighting each other""}","<img src=""stim_listA/fight6.gif""</stim_listA>",are fighting each other,
null,"<div style=""font-size:60px;"">+</div>",,html-keyboard-response,397,1356330,0.0-19.0-0.13,99945,List2A,black,woman,,,,null,,,,
null,"<img src=""stim_listA/talk6.gif""</stim_listA>",,html-keyboard-response,398,1358332,0.0-19.0-1.13,99945,List2A,black,woman,,,,null,,,,
null,are talking to each other,,html-keyboard-response,399,1360338,0.0-19.0-2.13,99945,List2A,black,woman,,,,null,,,,
7241,,,survey-text,400,1367579,0.0-19.0-3.13,99945,List2A,black,woman,,,,,"{""Q0"":""Fred and Dave are talking to each other""}","<img src=""stim_listA/talk6.gif""</stim_listA>",are talking to each other,
null,"<div style=""font-size:60px;"">+</div>",,html-keyboard-response,401,1368081,0.0-19.0-0.14,99945,List2A,black,woman,,,,null,,,,
null,"<img src=""stim_listA/kiss3.gif""</stim_listA>",,html-keyboard-response,402,1370085,0.0-19.0-1.14,99945,List2A,black,woman,,,,null,,,,
null,is kissing,,html-keyboard-response,403,1372086,0.0-19.0-2.14,99945,List2A,black,woman,,,,null,,,,
4754,,,survey-text,404,1376841,0.0-19.0-3.14,99945,List2A,black,woman,,,,,"{""Q0"":""Fred is kissing Beth""}","<img src=""stim_listA/kiss3.gif""</stim_listA>",is kissing,
null,"<div style=""font-size:60px;"">+</div>",,html-keyboard-response,405,1377342,0.0-19.0-0.15,99945,List2A,black,woman,,,,null,,,,
null,"<img src=""stim_listA/touch5.gif""</stim_listA>",,html-keyboard-response,406,1379346,0.0-19.0-1.15,99945,List2A,black,woman,,,,null,,,,
null,is touching,,html-keyboard-response,407,1381349,0.0-19.0-2.15,99945,List2A,black,woman,,,,null,,,,
4260,,,survey-text,408,1385611,0.0-19.0-3.15,99945,List2A,black,woman,,,,,"{""Q0"":""Dave is touching Mike""}","<img src=""stim_listA/touch5.gif""</stim_listA>",is touching,
null,"<div style=""font-size:60px;"">+</div>",,html-keyboard-response,409,1386117,0.0-19.0-0.16,99945,List2A,black,woman,,,,null,,,,
null,"<img src=""stim_listA/shout5.gif""</stim_listA>",,html-keyboard-response,410,1388124,0.0-19.0-1.16,99945,List2A,black,woman,,,,null,,,,
null,is shouting at,,html-keyboard-response,411,1390125,0.0-19.0-2.16,99945,List2A,black,woman,,,,null,,,,
5093,,,survey-text,412,1395219,0.0-19.0-3.16,99945,List2A,black,woman,,,,,"{""Q0"":""Luke is shouting at Fred""}","<img src=""stim_listA/shout5.gif""</stim_listA>",is shouting at,
null,"<div style=""font-size:60px;"">+</div>",,html-keyboard-response,413,1395720,0.0-19.0-0.17,99945,List2A,black,woman,,,,null,,,,
null,"<img src=""stim_listA/talk4.gif""</stim_listA>",,html-keyboard-response,414,1397726,0.0-19.0-1.17,99945,List2A,black,woman,,,,null,,,,
null,are talking to each other,,html-keyboard-response,415,1399732,0.0-19.0-2.17,99945,List2A,black,woman,,,,null,,,,
7170,,,survey-text,416,1406902,0.0-19.0-3.17,99945,List2A,black,woman,,,,,"{""Q0"":""Beth and Mike are talking to each other""}","<img src=""stim_listA/talk4.gif""</stim_listA>",are talking to each other,
null,"<div style=""font-size:60px;"">+</div>",,html-keyboard-response,417,1407404,0.0-19.0-0.18,99945,List2A,black,woman,,,,null,,,,
null,"<img src=""stim_listA/hug4.gif""</stim_listA>",,html-keyboard-response,418,1409408,0.0-19.0-1.18,99945,List2A,black,woman,,,,null,,,,
null,are hugging each other,,html-keyboard-response,419,1411409,0.0-19.0-2.18,99945,List2A,black,woman,,,,null,,,,
7030,,,survey-text,420,1418440,0.0-19.0-3.18,99945,List2A,black,woman,,,,,"{""Q0"":""Kate and Mike are hugging each other""}","<img src=""stim_listA/hug4.gif""</stim_listA>",are hugging each other,
null,"<div style=""font-size:60px;"">+</div>",,html-keyboard-response,421,1418942,0.0-19.0-0.19,99945,List2A,black,woman,,,,null,,,,
null,"<img src=""stim_listA/shout4.gif""</stim_listA>",,html-keyboard-response,422,1420945,0.0-19.0-1.19,99945,List2A,black,woman,,,,null,,,,
null,are shouting at each other,,html-keyboard-response,423,1422946,0.0-19.0-2.19,99945,List2A,black,woman,,,,null,,,,
7473,,,survey-text,424,1430421,0.0-19.0-3.19,99945,List2A,black,woman,,,,,"{""Q0"":""Kate and Mike are shouting at each other""}","<img src=""stim_listA/shout4.gif""</stim_listA>",are shouting at each other,
1223,<p>Thank you for completing that task.</p><p>The final part of this session is a short questionnaire.</p><p>Press Continue.</p>,0,html-button-response,425,1431645,0.0-20.0,99945,List2A,black,woman,,,,,,,,
29958,,,survey-text,426,1462611,0.0-21.0,99945,List2A,black,woman,,,,,"{""Q0"":""29"",""Q1"":""english"",""Q2"":""english"",""Q3"":""USA"",""Q4"":""Black"",""Q5"":""female""}",,,demographics
33956,,,survey-likert,427,1496572,0.0-22.0,99945,List2A,black,woman,,,,,"{""Q0"":5,""Q1"":5,""Q2"":5,""Q3"":5,""Q4"":6,""Q5"":5,""Q6"":5,""Q7"":4,""Q8"":5,""Q9"":4,""Q10"":4,""Q11"":"""",""Q12"":4,""Q13"":4}",,,likert_race
31449,,,survey-likert,428,1528038,0.0-23.0,99945,List2A,black,woman,,,,,"{""Q0"":5,""Q1"":5,""Q2"":5,""Q3"":6,""Q4"":6,""Q5"":4,""Q6"":5,""Q7"":5,""Q8"":5,""Q9"":5,""Q10"":5,""Q11"":5,""Q12"":5,""Q13"":5}",,,likert_gender
10685,,,survey-text,429,1538736,0.0-24.0,99945,List2A,black,woman,,,,,"{""Q0"":""ccc""}",,,worker_id
14323,,,external-html,430,1553292,0.0-25.0,99945,List2A,black,woman,debrief.html,,,,,,,
