rt,stimulus,button_pressed,trial_type,trial_index,time_elapsed,internal_node_id,subject,list,ppt_race,ppt_gender,url,first_guess,correct,key_press,responses,image_type,phrase_type,test_part
13273,Welcome to the experiment. Press Continue to begin.,0,html-button-response,0,13278,0.0-0.0,10583,List1B,black,woman,,,,,,,,
41078,,,external-html,1,55589,0.0-1.0,10583,List1B,black,woman,consent.html,,,,,,,
9785,"<p>On the next page, you will see portraits of 8 people and their names.</p><p>Your first task is to take a few minutes to memorise the names of these people.</p><p>You will have to recall their names during the rest of the experiment, so it is</p><p>essential that you try to memorise these people and their names as best as you can.</p><br><p><strong>You will then be tested on your memory of these names and portraits.</strong></p><br><p>The experiment will start after you have completed this memory test.</p><br><p>Ready?</p>",0,html-button-response,2,65377,0.0-2.0,10583,List1B,black,woman,,,,,,,,
149864,"<img src='img/portrait_matrix_list1.JPG' style='width:900px;height:500px;''></img><p>If you have memorised all the portraits and names and are ready to start, press Continue.</p><p><strong>Please note: Your memory of these faces will be tested 4 times during this experiment.</strong></p>",0,html-button-response,3,216250,0.0-3.0-0.0,10583,List1B,black,woman,,,,,,,,
8413,"<img src=""portrait/WW2.jpg""style=""width:400px;height:400px;""></img>",3,html-button-response,4,225668,0.0-3.0-1.0,10583,List1B,black,woman,,TRUE,3,,,,,
null,CORRECT,,html-keyboard-response,5,227172,0.0-3.0-2.0-0.0,10583,List1B,black,woman,,,,null,,,,
8986,"<img src=""portrait/BM1.jpg""style=""width:400px;height:400px;""></img>",4,html-button-response,6,236160,0.0-3.0-4.0,10583,List1B,black,woman,,TRUE,4,,,,,
null,CORRECT,,html-keyboard-response,7,237664,0.0-3.0-5.0-0.0,10583,List1B,black,woman,,,,null,,,,
3982,"<img src=""portrait/WW1.jpg""style=""width:400px;height:400px;""></img>",1,html-button-response,8,241649,0.0-3.0-7.0,10583,List1B,black,woman,,TRUE,1,,,,,
null,CORRECT,,html-keyboard-response,9,243151,0.0-3.0-8.0-0.0,10583,List1B,black,woman,,,,null,,,,
11187,"<img src=""portrait/BW2.jpg""style=""width:400px;height:400px;""></img>",2,html-button-response,10,254340,0.0-3.0-10.0,10583,List1B,black,woman,,TRUE,2,,,,,
null,CORRECT,,html-keyboard-response,11,255844,0.0-3.0-11.0-0.0,10583,List1B,black,woman,,,,null,,,,
8849,"<img src=""portrait/BM2.jpg""style=""width:400px;height:400px;""></img>",5,html-button-response,12,264695,0.0-3.0-13.0,10583,List1B,black,woman,,TRUE,5,,,,,
null,CORRECT,,html-keyboard-response,13,266196,0.0-3.0-14.0-0.0,10583,List1B,black,woman,,,,null,,,,
7148,"<img src=""portrait/BW1.jpg""style=""width:400px;height:400px;""></img>",0,html-button-response,14,273347,0.0-3.0-16.0,10583,List1B,black,woman,,TRUE,0,,,,,
null,CORRECT,,html-keyboard-response,15,274850,0.0-3.0-17.0-0.0,10583,List1B,black,woman,,,,null,,,,
2726,"<img src=""portrait/WM2.jpg""style=""width:400px;height:400px;""></img>",7,html-button-response,16,277581,0.0-3.0-19.0,10583,List1B,black,woman,,TRUE,7,,,,,
null,CORRECT,,html-keyboard-response,17,279084,0.0-3.0-20.0-0.0,10583,List1B,black,woman,,,,null,,,,
6330,"<img src=""portrait/WM1.jpg""style=""width:400px;height:400px;""></img>",6,html-button-response,18,285420,0.0-3.0-22.0,10583,List1B,black,woman,,TRUE,6,,,,,
null,CORRECT,,html-keyboard-response,19,286923,0.0-3.0-23.0-0.0,10583,List1B,black,woman,,,,null,,,,
1913,<p>You got 8 out of 8 right first time. Press Continue.</p>,0,html-button-response,20,288838,0.0-3.0-25.0,10583,List1B,black,woman,,,,,,,,
35924,"<p>In this experiment, you will view photographs of the people from the memory game interacting.</p><p>By using the <strong>exact</strong> phrase given <i>after</i> the photograph appears and recalling the correct names of the people in the photographs, form a sentence describing the interaction. You do not need to capitalise names.</p><p>Type your answer in the space provided. Please complete every sentence before moving onto the next trial.</p><p>You will only have a few seconds to memorise each given photograph and phrase before you can respond, so try your best to focus.</p><p>An example is given below. Press 'Continue' when you are ready.</p><img src='img/speaking_example_v2.jpg' style='width:800px;height:460px;''></img>",0,html-button-response,21,325766,0.0-4.0,10583,List1B,black,woman,,,,,,,,
2882,"<p>Before the experiment starts, you will watch two example trials. Press 'Continue'.</p>",0,html-button-response,22,329650,0.0-5.0,10583,List1B,black,woman,,,,,,,,
null,<img src='img/speaking_WW.gif'></img>,,html-keyboard-response,23,332653,0.0-6.0,10583,List1B,black,woman,,,,null,,,,
null,<p>is speaking to</p>,,html-keyboard-response,24,334654,0.0-7.0,10583,List1B,black,woman,,,,null,,,,
11880,<p><b>Answer:</b> kate is speaking to beth</p>,0,html-button-response,25,346534,0.0-8.0,10583,List1B,black,woman,,,,,,,,
null,<img src='img/pointing_BM.gif'></img>,,html-keyboard-response,26,349538,0.0-9.0,10583,List1B,black,woman,,,,null,,,,
null,<p>are pointing at each other</p>,,html-keyboard-response,27,351540,0.0-10.0,10583,List1B,black,woman,,,,null,,,,
26282,<p><b>Answer:</b> luke and dave are pointing at each other</p>,0,html-button-response,28,377824,0.0-11.0,10583,List1B,black,woman,,,,,,,,
14713,"<p>Ready to start the experiment?</p><br><p><strong>Remember to describe the picture using a full sentence,</strong></p><p><strong>that combines the names of the people with the given phrase.</strong></p><p><strong>If you do not do this correctly you will not be paid.</strong></p><p><strong> You do not need to capitalise names or use punctuation.</strong></p><br><p>Press 'Continue' to begin.</p>",0,html-button-response,29,393541,0.0-12.0,10583,List1B,black,woman,,,,,,,,
null,"<div style=""font-size:60px;"">+</div>",,html-keyboard-response,30,395047,0.0-13.0-0.0,10583,List1B,black,woman,,,,null,,,,
null,"<img src=""stim_listB/marry8.gif""</stim_listB>",,html-keyboard-response,31,397049,0.0-13.0-1.0,10583,List1B,black,woman,,,,null,,,,
null,are marrying each other,,html-keyboard-response,32,399051,0.0-13.0-2.0,10583,List1B,black,woman,,,,null,,,,
21046,,,survey-text,33,420098,0.0-13.0-3.0,10583,List1B,black,woman,,,,,"{""Q0"":""Beth and Jane are marrying each other""}","<img src=""stim_listB/marry8.gif""</stim_listB>",are marrying each other,
null,"<div style=""font-size:60px;"">+</div>",,html-keyboard-response,34,420601,0.0-13.0-0.1,10583,List1B,black,woman,,,,null,,,,
null,"<img src=""stim_listB/argue1.gif""</stim_listB>",,html-keyboard-response,35,422602,0.0-13.0-1.1,10583,List1B,black,woman,,,,null,,,,
null,is arguing with,,html-keyboard-response,36,424603,0.0-13.0-2.1,10583,List1B,black,woman,,,,null,,,,
8702,,,survey-text,37,433306,0.0-13.0-3.1,10583,List1B,black,woman,,,,,"{""Q0"":""beth and mike is arguing with each other""}","<img src=""stim_listB/argue1.gif""</stim_listB>",is arguing with,
null,"<div style=""font-size:60px;"">+</div>",,html-keyboard-response,38,433809,0.0-13.0-0.2,10583,List1B,black,woman,,,,null,,,,
null,"<img src=""stim_listB/fight4.gif""</stim_listB>",,html-keyboard-response,39,435810,0.0-13.0-1.2,10583,List1B,black,woman,,,,null,,,,
null,are fighting each other,,html-keyboard-response,40,437811,0.0-13.0-2.2,10583,List1B,black,woman,,,,null,,,,
25100,,,survey-text,41,462911,0.0-13.0-3.2,10583,List1B,black,woman,,,,,"{""Q0"":""ruth and luke are fighting each other""}","<img src=""stim_listB/fight4.gif""</stim_listB>",are fighting each other,
null,"<div style=""font-size:60px;"">+</div>",,html-keyboard-response,42,463414,0.0-13.0-0.3,10583,List1B,black,woman,,,,null,,,,
null,"<img src=""stim_listB/hug8.gif""</stim_listB>",,html-keyboard-response,43,465416,0.0-13.0-1.3,10583,List1B,black,woman,,,,null,,,,
null,are hugging each other,,html-keyboard-response,44,467418,0.0-13.0-2.3,10583,List1B,black,woman,,,,null,,,,
11631,,,survey-text,45,479050,0.0-13.0-3.3,10583,List1B,black,woman,,,,,"{""Q0"":""jane and kate are hugging each other""}","<img src=""stim_listB/hug8.gif""</stim_listB>",are hugging each other,
null,"<div style=""font-size:60px;"">+</div>",,html-keyboard-response,46,479552,0.0-13.0-0.4,10583,List1B,black,woman,,,,null,,,,
null,"<img src=""stim_listB/talk4.gif""</stim_listB>",,html-keyboard-response,47,481555,0.0-13.0-1.4,10583,List1B,black,woman,,,,null,,,,
null,are talking to each other,,html-keyboard-response,48,483556,0.0-13.0-2.4,10583,List1B,black,woman,,,,null,,,,
12963,,,survey-text,49,496520,0.0-13.0-3.4,10583,List1B,black,woman,,,,,"{""Q0"":""ruth and dave are talking to each other""}","<img src=""stim_listB/talk4.gif""</stim_listB>",are talking to each other,
null,"<div style=""font-size:60px;"">+</div>",,html-keyboard-response,50,497021,0.0-13.0-0.5,10583,List1B,black,woman,,,,null,,,,
null,"<img src=""stim_listB/kiss5.gif""</stim_listB>",,html-keyboard-response,51,499023,0.0-13.0-1.5,10583,List1B,black,woman,,,,null,,,,
null,is kissing,,html-keyboard-response,52,501025,0.0-13.0-2.5,10583,List1B,black,woman,,,,null,,,,
9382,,,survey-text,53,510408,0.0-13.0-3.5,10583,List1B,black,woman,,,,,"{""Q0"":""fred and luke is kissing""}","<img src=""stim_listB/kiss5.gif""</stim_listB>",is kissing,
null,"<div style=""font-size:60px;"">+</div>",,html-keyboard-response,54,510910,0.0-13.0-0.6,10583,List1B,black,woman,,,,null,,,,
null,"<img src=""stim_listB/shout8.gif""</stim_listB>",,html-keyboard-response,55,512914,0.0-13.0-1.6,10583,List1B,black,woman,,,,null,,,,
null,are shouting at each other,,html-keyboard-response,56,514914,0.0-13.0-2.6,10583,List1B,black,woman,,,,null,,,,
15733,,,survey-text,57,530648,0.0-13.0-3.6,10583,List1B,black,woman,,,,,"{""Q0"":""jane and kate are shouting at each other""}","<img src=""stim_listB/shout8.gif""</stim_listB>",are shouting at each other,
null,"<div style=""font-size:60px;"">+</div>",,html-keyboard-response,58,531151,0.0-13.0-0.7,10583,List1B,black,woman,,,,null,,,,
null,"<img src=""stim_listB/fight3.gif""</stim_listB>",,html-keyboard-response,59,533153,0.0-13.0-1.7,10583,List1B,black,woman,,,,null,,,,
null,is fighting,,html-keyboard-response,60,535156,0.0-13.0-2.7,10583,List1B,black,woman,,,,null,,,,
6685,,,survey-text,61,541843,0.0-13.0-3.7,10583,List1B,black,woman,,,,,"{""Q0"":""dave and jane is fighting""}","<img src=""stim_listB/fight3.gif""</stim_listB>",is fighting,
null,"<div style=""font-size:60px;"">+</div>",,html-keyboard-response,62,542349,0.0-13.0-0.8,10583,List1B,black,woman,,,,null,,,,
null,"<img src=""stim_listB/argue8.gif""</stim_listB>",,html-keyboard-response,63,544352,0.0-13.0-1.8,10583,List1B,black,woman,,,,null,,,,
null,are arguing with each other,,html-keyboard-response,64,546354,0.0-13.0-2.8,10583,List1B,black,woman,,,,null,,,,
30694,,,survey-text,65,577050,0.0-13.0-3.8,10583,List1B,black,woman,,,,,"{""Q0"":""jane and beth are pointing at each other""}","<img src=""stim_listB/argue8.gif""</stim_listB>",are arguing with each other,
null,"<div style=""font-size:60px;"">+</div>",,html-keyboard-response,66,577552,0.0-13.0-0.9,10583,List1B,black,woman,,,,null,,,,
null,"<img src=""stim_listB/meet4.gif""</stim_listB>",,html-keyboard-response,67,579557,0.0-13.0-1.9,10583,List1B,black,woman,,,,null,,,,
null,are meeting each other,,html-keyboard-response,68,581559,0.0-13.0-2.9,10583,List1B,black,woman,,,,null,,,,
24677,,,survey-text,69,606238,0.0-13.0-3.9,10583,List1B,black,woman,,,,,"{""Q0"":""ruth and luke are meeting each other""}","<img src=""stim_listB/meet4.gif""</stim_listB>",are meeting each other,
null,"<div style=""font-size:60px;"">+</div>",,html-keyboard-response,70,606740,0.0-13.0-0.10,10583,List1B,black,woman,,,,null,,,,
null,"<img src=""stim_listB/meet3.gif""</stim_listB>",,html-keyboard-response,71,608744,0.0-13.0-1.10,10583,List1B,black,woman,,,,null,,,,
null,is meeting,,html-keyboard-response,72,610746,0.0-13.0-2.10,10583,List1B,black,woman,,,,null,,,,
7103,,,survey-text,73,617851,0.0-13.0-3.10,10583,List1B,black,woman,,,,,"{""Q0"":""jane and dave is meeting""}","<img src=""stim_listB/meet3.gif""</stim_listB>",is meeting,
null,"<div style=""font-size:60px;"">+</div>",,html-keyboard-response,74,618354,0.0-13.0-0.11,10583,List1B,black,woman,,,,null,,,,
null,"<img src=""stim_listB/marry5.gif""</stim_listB>",,html-keyboard-response,75,620357,0.0-13.0-1.11,10583,List1B,black,woman,,,,null,,,,
null,is marrying,,html-keyboard-response,76,622358,0.0-13.0-2.11,10583,List1B,black,woman,,,,null,,,,
7137,,,survey-text,77,629495,0.0-13.0-3.11,10583,List1B,black,woman,,,,,"{""Q0"":""mike and luke is marrying""}","<img src=""stim_listB/marry5.gif""</stim_listB>",is marrying,
null,"<div style=""font-size:60px;"">+</div>",,html-keyboard-response,78,629997,0.0-13.0-0.12,10583,List1B,black,woman,,,,null,,,,
null,"<img src=""stim_listB/dance3.gif""</stim_listB>",,html-keyboard-response,79,632000,0.0-13.0-1.12,10583,List1B,black,woman,,,,null,,,,
null,is dancing with,,html-keyboard-response,80,634004,0.0-13.0-2.12,10583,List1B,black,woman,,,,null,,,,
8389,,,survey-text,81,642394,0.0-13.0-3.12,10583,List1B,black,woman,,,,,"{""Q0"":""jane and luke is dancing""}","<img src=""stim_listB/dance3.gif""</stim_listB>",is dancing with,
null,"<div style=""font-size:60px;"">+</div>",,html-keyboard-response,82,642897,0.0-13.0-0.13,10583,List1B,black,woman,,,,null,,,,
null,"<img src=""stim_listB/dance6.gif""</stim_listB>",,html-keyboard-response,83,644901,0.0-13.0-1.13,10583,List1B,black,woman,,,,null,,,,
null,are dancing with each other,,html-keyboard-response,84,646904,0.0-13.0-2.13,10583,List1B,black,woman,,,,null,,,,
11024,,,survey-text,85,657930,0.0-13.0-3.13,10583,List1B,black,woman,,,,,"{""Q0"":""mike and luke are dancing with each other""}","<img src=""stim_listB/dance6.gif""</stim_listB>",are dancing with each other,
null,"<div style=""font-size:60px;"">+</div>",,html-keyboard-response,86,658433,0.0-13.0-0.14,10583,List1B,black,woman,,,,null,,,,
null,"<img src=""stim_listB/touch7.gif""</stim_listB>",,html-keyboard-response,87,660436,0.0-13.0-1.14,10583,List1B,black,woman,,,,null,,,,
null,is touching,,html-keyboard-response,88,662439,0.0-13.0-2.14,10583,List1B,black,woman,,,,null,,,,
9670,,,survey-text,89,672112,0.0-13.0-3.14,10583,List1B,black,woman,,,,,"{""Q0"":""jane and kate is touching""}","<img src=""stim_listB/touch7.gif""</stim_listB>",is touching,
null,"<div style=""font-size:60px;"">+</div>",,html-keyboard-response,90,672614,0.0-13.0-0.15,10583,List1B,black,woman,,,,null,,,,
null,"<img src=""stim_listB/argue6.gif""</stim_listB>",,html-keyboard-response,91,674620,0.0-13.0-1.15,10583,List1B,black,woman,,,,null,,,,
null,are arguing with each other,,html-keyboard-response,92,676623,0.0-13.0-2.15,10583,List1B,black,woman,,,,null,,,,
13468,,,survey-text,93,690092,0.0-13.0-3.15,10583,List1B,black,woman,,,,,"{""Q0"":""fred and dave are arguing with each other""}","<img src=""stim_listB/argue6.gif""</stim_listB>",are arguing with each other,
null,"<div style=""font-size:60px;"">+</div>",,html-keyboard-response,94,690596,0.0-13.0-0.16,10583,List1B,black,woman,,,,null,,,,
null,"<img src=""stim_listB/touch4.gif""</stim_listB>",,html-keyboard-response,95,692624,0.0-13.0-1.16,10583,List1B,black,woman,,,,null,,,,
null,are touching each other,,html-keyboard-response,96,694624,0.0-13.0-2.16,10583,List1B,black,woman,,,,null,,,,
17694,,,survey-text,97,712320,0.0-13.0-3.16,10583,List1B,black,woman,,,,,"{""Q0"":""ruth and luke are touching each other""}","<img src=""stim_listB/touch4.gif""</stim_listB>",are touching each other,
null,"<div style=""font-size:60px;"">+</div>",,html-keyboard-response,98,712822,0.0-13.0-0.17,10583,List1B,black,woman,,,,null,,,,
null,"<img src=""stim_listB/argue3.gif""</stim_listB>",,html-keyboard-response,99,714824,0.0-13.0-1.17,10583,List1B,black,woman,,,,null,,,,
null,is arguing with,,html-keyboard-response,100,716825,0.0-13.0-2.17,10583,List1B,black,woman,,,,null,,,,
9817,,,survey-text,101,726642,0.0-13.0-3.17,10583,List1B,black,woman,,,,,"{""Q0"":""ruth and dave is arguing with each other""}","<img src=""stim_listB/argue3.gif""</stim_listB>",is arguing with,
null,"<div style=""font-size:60px;"">+</div>",,html-keyboard-response,102,727143,0.0-13.0-0.18,10583,List1B,black,woman,,,,null,,,,
null,"<img src=""stim_listB/marry3.gif""</stim_listB>",,html-keyboard-response,103,729144,0.0-13.0-1.18,10583,List1B,black,woman,,,,null,,,,
null,is marrying,,html-keyboard-response,104,731146,0.0-13.0-2.18,10583,List1B,black,woman,,,,null,,,,
8352,,,survey-text,105,739500,0.0-13.0-3.18,10583,List1B,black,woman,,,,,"{""Q0"":""ruth and dave is marrying""}","<img src=""stim_listB/marry3.gif""</stim_listB>",is marrying,
null,"<div style=""font-size:60px;"">+</div>",,html-keyboard-response,106,740004,0.0-13.0-0.19,10583,List1B,black,woman,,,,null,,,,
null,"<img src=""stim_listB/marry2.gif""</stim_listB>",,html-keyboard-response,107,742010,0.0-13.0-1.19,10583,List1B,black,woman,,,,null,,,,
null,are marrying each other,,html-keyboard-response,108,744013,0.0-13.0-2.19,10583,List1B,black,woman,,,,null,,,,
13964,,,survey-text,109,757979,0.0-13.0-3.19,10583,List1B,black,woman,,,,,"{""Q0"":""mike and fred are marrying each other""}","<img src=""stim_listB/marry2.gif""</stim_listB>",are marrying each other,
34247,"<img src='img/portrait_matrix_list1.JPG' style='width:900px;height:500px;''></img><p>If you have memorised all the portraits and names and are ready to start, press Continue.</p><p><strong>Please note: Your memory of these faces will be tested 4 times during this experiment.</strong></p>",0,html-button-response,110,792228,0.0-14.0-0.0,10583,List1B,black,woman,,,,,,,,
2267,"<img src=""portrait/BW2.jpg""style=""width:400px;height:400px;""></img>",2,html-button-response,111,795500,0.0-14.0-1.0,10583,List1B,black,woman,,TRUE,2,,,,,
null,CORRECT,,html-keyboard-response,112,797003,0.0-14.0-2.0-0.0,10583,List1B,black,woman,,,,null,,,,
1567,"<img src=""portrait/WM2.jpg""style=""width:400px;height:400px;""></img>",7,html-button-response,113,798573,0.0-14.0-4.0,10583,List1B,black,woman,,TRUE,7,,,,,
null,CORRECT,,html-keyboard-response,114,800077,0.0-14.0-5.0-0.0,10583,List1B,black,woman,,,,null,,,,
3135,"<img src=""portrait/BM1.jpg""style=""width:400px;height:400px;""></img>",4,html-button-response,115,803213,0.0-14.0-7.0,10583,List1B,black,woman,,TRUE,4,,,,,
null,CORRECT,,html-keyboard-response,116,804719,0.0-14.0-8.0-0.0,10583,List1B,black,woman,,,,null,,,,
4571,"<img src=""portrait/WW1.jpg""style=""width:400px;height:400px;""></img>",1,html-button-response,117,809293,0.0-14.0-10.0,10583,List1B,black,woman,,TRUE,1,,,,,
null,CORRECT,,html-keyboard-response,118,810796,0.0-14.0-11.0-0.0,10583,List1B,black,woman,,,,null,,,,
2341,"<img src=""portrait/BM2.jpg""style=""width:400px;height:400px;""></img>",5,html-button-response,119,813140,0.0-14.0-13.0,10583,List1B,black,woman,,TRUE,5,,,,,
null,CORRECT,,html-keyboard-response,120,814644,0.0-14.0-14.0-0.0,10583,List1B,black,woman,,,,null,,,,
5046,"<img src=""portrait/WW2.jpg""style=""width:400px;height:400px;""></img>",3,html-button-response,121,819692,0.0-14.0-16.0,10583,List1B,black,woman,,TRUE,3,,,,,
null,CORRECT,,html-keyboard-response,122,821194,0.0-14.0-17.0-0.0,10583,List1B,black,woman,,,,null,,,,
3109,"<img src=""portrait/BW1.jpg""style=""width:400px;height:400px;""></img>",0,html-button-response,123,824303,0.0-14.0-19.0,10583,List1B,black,woman,,TRUE,0,,,,,
null,CORRECT,,html-keyboard-response,124,825805,0.0-14.0-20.0-0.0,10583,List1B,black,woman,,,,null,,,,
36133,"<img src=""portrait/WM1.jpg""style=""width:400px;height:400px;""></img>",6,html-button-response,125,861939,0.0-14.0-22.0,10583,List1B,black,woman,,TRUE,6,,,,,
null,CORRECT,,html-keyboard-response,126,863444,0.0-14.0-23.0-0.0,10583,List1B,black,woman,,,,null,,,,
87987,<p>You got 8 out of 8 right first time. Press Continue.</p>,0,html-button-response,127,951434,0.0-14.0-25.0,10583,List1B,black,woman,,,,,,,,
null,"<div style=""font-size:60px;"">+</div>",,html-keyboard-response,128,952944,0.0-15.0-0.0,10583,List1B,black,woman,,,,null,,,,
null,"<img src=""stim_listB/dance1.gif""</stim_listB>",,html-keyboard-response,129,954949,0.0-15.0-1.0,10583,List1B,black,woman,,,,null,,,,
null,is dancing with,,html-keyboard-response,130,956953,0.0-15.0-2.0,10583,List1B,black,woman,,,,null,,,,
9729,,,survey-text,131,966683,0.0-15.0-3.0,10583,List1B,black,woman,,,,,"{""Q0"":""fred is dancing with kate""}","<img src=""stim_listB/dance1.gif""</stim_listB>",is dancing with,
null,"<div style=""font-size:60px;"">+</div>",,html-keyboard-response,132,967186,0.0-15.0-0.1,10583,List1B,black,woman,,,,null,,,,
null,"<img src=""stim_listB/talk5.gif""</stim_listB>",,html-keyboard-response,133,969188,0.0-15.0-1.1,10583,List1B,black,woman,,,,null,,,,
null,is talking to,,html-keyboard-response,134,971190,0.0-15.0-2.1,10583,List1B,black,woman,,,,null,,,,
9604,,,survey-text,135,980795,0.0-15.0-3.1,10583,List1B,black,woman,,,,,"{""Q0"":""fred is talking to dave""}","<img src=""stim_listB/talk5.gif""</stim_listB>",is talking to,
null,"<div style=""font-size:60px;"">+</div>",,html-keyboard-response,136,981297,0.0-15.0-0.2,10583,List1B,black,woman,,,,null,,,,
null,"<img src=""stim_listB/talk6.gif""</stim_listB>",,html-keyboard-response,137,983298,0.0-15.0-1.2,10583,List1B,black,woman,,,,null,,,,
null,are talking to each other,,html-keyboard-response,138,985300,0.0-15.0-2.2,10583,List1B,black,woman,,,,null,,,,
9661,,,survey-text,139,994963,0.0-15.0-3.2,10583,List1B,black,woman,,,,,"{""Q0"":""mike and luke are talking to each other""}","<img src=""stim_listB/talk6.gif""</stim_listB>",are talking to each other,
null,"<div style=""font-size:60px;"">+</div>",,html-keyboard-response,140,995465,0.0-15.0-0.3,10583,List1B,black,woman,,,,null,,,,
null,"<img src=""stim_listB/touch2.gif""</stim_listB>",,html-keyboard-response,141,997468,0.0-15.0-1.3,10583,List1B,black,woman,,,,null,,,,
null,are touching each other,,html-keyboard-response,142,999469,0.0-15.0-2.3,10583,List1B,black,woman,,,,null,,,,
12399,,,survey-text,143,1011868,0.0-15.0-3.3,10583,List1B,black,woman,,,,,"{""Q0"":""fred and beth are touching each other""}","<img src=""stim_listB/touch2.gif""</stim_listB>",are touching each other,
null,"<div style=""font-size:60px;"">+</div>",,html-keyboard-response,144,1012371,0.0-15.0-0.4,10583,List1B,black,woman,,,,null,,,,
null,"<img src=""stim_listB/dance8.gif""</stim_listB>",,html-keyboard-response,145,1014372,0.0-15.0-1.4,10583,List1B,black,woman,,,,null,,,,
null,are dancing with each other,,html-keyboard-response,146,1016373,0.0-15.0-2.4,10583,List1B,black,woman,,,,null,,,,
15809,,,survey-text,147,1032184,0.0-15.0-3.4,10583,List1B,black,woman,,,,,"{""Q0"":""kate and ruth are dancing with each other""}","<img src=""stim_listB/dance8.gif""</stim_listB>",are dancing with each other,
null,"<div style=""font-size:60px;"">+</div>",,html-keyboard-response,148,1032687,0.0-15.0-0.5,10583,List1B,black,woman,,,,null,,,,
null,"<img src=""stim_listB/meet1.gif""</stim_listB>",,html-keyboard-response,149,1034690,0.0-15.0-1.5,10583,List1B,black,woman,,,,null,,,,
null,is meeting,,html-keyboard-response,150,1036692,0.0-15.0-2.5,10583,List1B,black,woman,,,,null,,,,
5819,,,survey-text,151,1042512,0.0-15.0-3.5,10583,List1B,black,woman,,,,,"{""Q0"":""mike and kate is meeting""}","<img src=""stim_listB/meet1.gif""</stim_listB>",is meeting,
null,"<div style=""font-size:60px;"">+</div>",,html-keyboard-response,152,1043015,0.0-15.0-0.6,10583,List1B,black,woman,,,,null,,,,
null,"<img src=""stim_listB/marry6.gif""</stim_listB>",,html-keyboard-response,153,1045017,0.0-15.0-1.6,10583,List1B,black,woman,,,,null,,,,
null,are marrying each other,,html-keyboard-response,154,1047020,0.0-15.0-2.6,10583,List1B,black,woman,,,,null,,,,
8927,,,survey-text,155,1055949,0.0-15.0-3.6,10583,List1B,black,woman,,,,,"{""Q0"":""dave and fred are marrying each other""}","<img src=""stim_listB/marry6.gif""</stim_listB>",are marrying each other,
null,"<div style=""font-size:60px;"">+</div>",,html-keyboard-response,156,1056452,0.0-15.0-0.7,10583,List1B,black,woman,,,,null,,,,
null,"<img src=""stim_listB/argue2.gif""</stim_listB>",,html-keyboard-response,157,1058453,0.0-15.0-1.7,10583,List1B,black,woman,,,,null,,,,
null,are arguing with each other,,html-keyboard-response,158,1060457,0.0-15.0-2.7,10583,List1B,black,woman,,,,null,,,,
8078,,,survey-text,159,1068536,0.0-15.0-3.7,10583,List1B,black,woman,,,,,"{""Q0"":""kate and fred are arguing with each other""}","<img src=""stim_listB/argue2.gif""</stim_listB>",are arguing with each other,
null,"<div style=""font-size:60px;"">+</div>",,html-keyboard-response,160,1069039,0.0-15.0-0.8,10583,List1B,black,woman,,,,null,,,,
null,"<img src=""stim_listB/hug7.gif""</stim_listB>",,html-keyboard-response,161,1071043,0.0-15.0-1.8,10583,List1B,black,woman,,,,null,,,,
null,is hugging,,html-keyboard-response,162,1073044,0.0-15.0-2.8,10583,List1B,black,woman,,,,null,,,,
12091,,,survey-text,163,1085137,0.0-15.0-3.8,10583,List1B,black,woman,,,,,"{""Q0"":""beth and ruth is hugging""}","<img src=""stim_listB/hug7.gif""</stim_listB>",is hugging,
null,"<div style=""font-size:60px;"">+</div>",,html-keyboard-response,164,1085638,0.0-15.0-0.9,10583,List1B,black,woman,,,,null,,,,
null,"<img src=""stim_listB/dance4.gif""</stim_listB>",,html-keyboard-response,165,1087639,0.0-15.0-1.9,10583,List1B,black,woman,,,,null,,,,
null,are dancing with each other,,html-keyboard-response,166,1089641,0.0-15.0-2.9,10583,List1B,black,woman,,,,null,,,,
7944,,,survey-text,167,1097585,0.0-15.0-3.9,10583,List1B,black,woman,,,,,"{""Q0"":""ruth and dave are dancing with each other""}","<img src=""stim_listB/dance4.gif""</stim_listB>",are dancing with each other,
null,"<div style=""font-size:60px;"">+</div>",,html-keyboard-response,168,1098088,0.0-15.0-0.10,10583,List1B,black,woman,,,,null,,,,
null,"<img src=""stim_listB/touch5.gif""</stim_listB>",,html-keyboard-response,169,1100090,0.0-15.0-1.10,10583,List1B,black,woman,,,,null,,,,
null,is touching,,html-keyboard-response,170,1102092,0.0-15.0-2.10,10583,List1B,black,woman,,,,null,,,,
5137,,,survey-text,171,1107231,0.0-15.0-3.10,10583,List1B,black,woman,,,,,"{""Q0"":""mike and dave is touching""}","<img src=""stim_listB/touch5.gif""</stim_listB>",is touching,
null,"<div style=""font-size:60px;"">+</div>",,html-keyboard-response,172,1107733,0.0-15.0-0.11,10583,List1B,black,woman,,,,null,,,,
null,"<img src=""stim_listB/fight1.gif""</stim_listB>",,html-keyboard-response,173,1109735,0.0-15.0-1.11,10583,List1B,black,woman,,,,null,,,,
null,is fighting,,html-keyboard-response,174,1111736,0.0-15.0-2.11,10583,List1B,black,woman,,,,null,,,,
6433,,,survey-text,175,1118169,0.0-15.0-3.11,10583,List1B,black,woman,,,,,"{""Q0"":""kate and mike is fighting""}","<img src=""stim_listB/fight1.gif""</stim_listB>",is fighting,
null,"<div style=""font-size:60px;"">+</div>",,html-keyboard-response,176,1118670,0.0-15.0-0.12,10583,List1B,black,woman,,,,null,,,,
null,"<img src=""stim_listB/talk1.gif""</stim_listB>",,html-keyboard-response,177,1120671,0.0-15.0-1.12,10583,List1B,black,woman,,,,null,,,,
null,is talking to,,html-keyboard-response,178,1122672,0.0-15.0-2.12,10583,List1B,black,woman,,,,null,,,,
7525,,,survey-text,179,1130199,0.0-15.0-3.12,10583,List1B,black,woman,,,,,"{""Q0"":""kate is talking to fred""}","<img src=""stim_listB/talk1.gif""</stim_listB>",is talking to,
null,"<div style=""font-size:60px;"">+</div>",,html-keyboard-response,180,1130702,0.0-15.0-0.13,10583,List1B,black,woman,,,,null,,,,
null,"<img src=""stim_listB/kiss2.gif""</stim_listB>",,html-keyboard-response,181,1132705,0.0-15.0-1.13,10583,List1B,black,woman,,,,null,,,,
null,are kissing each other,,html-keyboard-response,182,1134709,0.0-15.0-2.13,10583,List1B,black,woman,,,,null,,,,
7765,,,survey-text,183,1142474,0.0-15.0-3.13,10583,List1B,black,woman,,,,,"{""Q0"":""mike and kate are kissing each other""}","<img src=""stim_listB/kiss2.gif""</stim_listB>",are kissing each other,
null,"<div style=""font-size:60px;"">+</div>",,html-keyboard-response,184,1142977,0.0-15.0-0.14,10583,List1B,black,woman,,,,null,,,,
null,"<img src=""stim_listB/hug5.gif""</stim_listB>",,html-keyboard-response,185,1144979,0.0-15.0-1.14,10583,List1B,black,woman,,,,null,,,,
null,is hugging,,html-keyboard-response,186,1146981,0.0-15.0-2.14,10583,List1B,black,woman,,,,null,,,,
5864,,,survey-text,187,1152846,0.0-15.0-3.14,10583,List1B,black,woman,,,,,"{""Q0"":""luke and fred is hugging""}","<img src=""stim_listB/hug5.gif""</stim_listB>",is hugging,
null,"<div style=""font-size:60px;"">+</div>",,html-keyboard-response,188,1153348,0.0-15.0-0.15,10583,List1B,black,woman,,,,null,,,,
null,"<img src=""stim_listB/talk8.gif""</stim_listB>",,html-keyboard-response,189,1155351,0.0-15.0-1.15,10583,List1B,black,woman,,,,null,,,,
null,are talking to each other,,html-keyboard-response,190,1157353,0.0-15.0-2.15,10583,List1B,black,woman,,,,null,,,,
6579,,,survey-text,191,1163933,0.0-15.0-3.15,10583,List1B,black,woman,,,,,"{""Q0"":""kate and ruth are talking to each other""}","<img src=""stim_listB/talk8.gif""</stim_listB>",are talking to each other,
null,"<div style=""font-size:60px;"">+</div>",,html-keyboard-response,192,1164435,0.0-15.0-0.16,10583,List1B,black,woman,,,,null,,,,
null,"<img src=""stim_listB/fight8.gif""</stim_listB>",,html-keyboard-response,193,1166438,0.0-15.0-1.16,10583,List1B,black,woman,,,,null,,,,
null,are fighting each other,,html-keyboard-response,194,1168440,0.0-15.0-2.16,10583,List1B,black,woman,,,,null,,,,
8061,,,survey-text,195,1176502,0.0-15.0-3.16,10583,List1B,black,woman,,,,,"{""Q0"":""beth and ruth are fighting each other""}","<img src=""stim_listB/fight8.gif""</stim_listB>",are fighting each other,
null,"<div style=""font-size:60px;"">+</div>",,html-keyboard-response,196,1177007,0.0-15.0-0.17,10583,List1B,black,woman,,,,null,,,,
null,"<img src=""stim_listB/argue4.gif""</stim_listB>",,html-keyboard-response,197,1179009,0.0-15.0-1.17,10583,List1B,black,woman,,,,null,,,,
null,are arguing with each other,,html-keyboard-response,198,1181011,0.0-15.0-2.17,10583,List1B,black,woman,,,,null,,,,
8059,,,survey-text,199,1189070,0.0-15.0-3.17,10583,List1B,black,woman,,,,,"{""Q0"":""jane and luke are arguing with each other""}","<img src=""stim_listB/argue4.gif""</stim_listB>",are arguing with each other,
null,"<div style=""font-size:60px;"">+</div>",,html-keyboard-response,200,1189572,0.0-15.0-0.18,10583,List1B,black,woman,,,,null,,,,
null,"<img src=""stim_listB/hug1.gif""</stim_listB>",,html-keyboard-response,201,1191574,0.0-15.0-1.18,10583,List1B,black,woman,,,,null,,,,
null,is hugging,,html-keyboard-response,202,1193575,0.0-15.0-2.18,10583,List1B,black,woman,,,,null,,,,
6192,,,survey-text,203,1199768,0.0-15.0-3.18,10583,List1B,black,woman,,,,,"{""Q0"":""fred and beth is hugging""}","<img src=""stim_listB/hug1.gif""</stim_listB>",is hugging,
null,"<div style=""font-size:60px;"">+</div>",,html-keyboard-response,204,1200279,0.0-15.0-0.19,10583,List1B,black,woman,,,,null,,,,
null,"<img src=""stim_listB/touch6.gif""</stim_listB>",,html-keyboard-response,205,1202282,0.0-15.0-1.19,10583,List1B,black,woman,,,,null,,,,
null,are touching each other,,html-keyboard-response,206,1204283,0.0-15.0-2.19,10583,List1B,black,woman,,,,null,,,,
7033,,,survey-text,207,1211317,0.0-15.0-3.19,10583,List1B,black,woman,,,,,"{""Q0"":""fred and luke are touching each other""}","<img src=""stim_listB/touch6.gif""</stim_listB>",are touching each other,
4918,"<img src='img/portrait_matrix_list1.JPG' style='width:900px;height:500px;''></img><p>If you have memorised all the portraits and names and are ready to start, press Continue.</p><p><strong>Please note: Your memory of these faces will be tested 4 times during this experiment.</strong></p>",0,html-button-response,208,1216236,0.0-16.0-0.0,10583,List1B,black,woman,,,,,,,,
1905,"<img src=""portrait/BW2.jpg""style=""width:400px;height:400px;""></img>",2,html-button-response,209,1219145,0.0-16.0-1.0,10583,List1B,black,woman,,TRUE,2,,,,,
null,CORRECT,,html-keyboard-response,210,1220647,0.0-16.0-2.0-0.0,10583,List1B,black,woman,,,,null,,,,
1387,"<img src=""portrait/WW1.jpg""style=""width:400px;height:400px;""></img>",1,html-button-response,211,1222037,0.0-16.0-4.0,10583,List1B,black,woman,,TRUE,1,,,,,
null,CORRECT,,html-keyboard-response,212,1223543,0.0-16.0-5.0-0.0,10583,List1B,black,woman,,,,null,,,,
1326,"<img src=""portrait/WW2.jpg""style=""width:400px;height:400px;""></img>",3,html-button-response,213,1224875,0.0-16.0-7.0,10583,List1B,black,woman,,TRUE,3,,,,,
null,CORRECT,,html-keyboard-response,214,1226377,0.0-16.0-8.0-0.0,10583,List1B,black,woman,,,,null,,,,
2704,"<img src=""portrait/WM2.jpg""style=""width:400px;height:400px;""></img>",7,html-button-response,215,1229083,0.0-16.0-10.0,10583,List1B,black,woman,,TRUE,7,,,,,
null,CORRECT,,html-keyboard-response,216,1230587,0.0-16.0-11.0-0.0,10583,List1B,black,woman,,,,null,,,,
1671,"<img src=""portrait/BW1.jpg""style=""width:400px;height:400px;""></img>",0,html-button-response,217,1232260,0.0-16.0-13.0,10583,List1B,black,woman,,TRUE,0,,,,,
null,CORRECT,,html-keyboard-response,218,1233765,0.0-16.0-14.0-0.0,10583,List1B,black,woman,,,,null,,,,
1782,"<img src=""portrait/BM2.jpg""style=""width:400px;height:400px;""></img>",5,html-button-response,219,1235549,0.0-16.0-16.0,10583,List1B,black,woman,,TRUE,5,,,,,
null,CORRECT,,html-keyboard-response,220,1237054,0.0-16.0-17.0-0.0,10583,List1B,black,woman,,,,null,,,,
1550,"<img src=""portrait/WM1.jpg""style=""width:400px;height:400px;""></img>",6,html-button-response,221,1238610,0.0-16.0-19.0,10583,List1B,black,woman,,TRUE,6,,,,,
null,CORRECT,,html-keyboard-response,222,1240114,0.0-16.0-20.0-0.0,10583,List1B,black,woman,,,,null,,,,
2231,"<img src=""portrait/BM1.jpg""style=""width:400px;height:400px;""></img>",4,html-button-response,223,1242347,0.0-16.0-22.0,10583,List1B,black,woman,,TRUE,4,,,,,
null,CORRECT,,html-keyboard-response,224,1243850,0.0-16.0-23.0-0.0,10583,List1B,black,woman,,,,null,,,,
1364,<p>You got 8 out of 8 right first time. Press Continue.</p>,0,html-button-response,225,1245216,0.0-16.0-25.0,10583,List1B,black,woman,,,,,,,,
null,"<div style=""font-size:60px;"">+</div>",,html-keyboard-response,226,1246722,0.0-17.0-0.0,10583,List1B,black,woman,,,,null,,,,
null,"<img src=""stim_listB/marry4.gif""</stim_listB>",,html-keyboard-response,227,1248724,0.0-17.0-1.0,10583,List1B,black,woman,,,,null,,,,
null,are marrying each other,,html-keyboard-response,228,1250724,0.0-17.0-2.0,10583,List1B,black,woman,,,,null,,,,
7409,,,survey-text,229,1258135,0.0-17.0-3.0,10583,List1B,black,woman,,,,,"{""Q0"":""jane and luke are marrying each other""}","<img src=""stim_listB/marry4.gif""</stim_listB>",are marrying each other,
null,"<div style=""font-size:60px;"">+</div>",,html-keyboard-response,230,1258638,0.0-17.0-0.1,10583,List1B,black,woman,,,,null,,,,
null,"<img src=""stim_listB/hug4.gif""</stim_listB>",,html-keyboard-response,231,1260640,0.0-17.0-1.1,10583,List1B,black,woman,,,,null,,,,
null,are hugging each other,,html-keyboard-response,232,1262642,0.0-17.0-2.1,10583,List1B,black,woman,,,,null,,,,
8454,,,survey-text,233,1271098,0.0-17.0-3.1,10583,List1B,black,woman,,,,,"{""Q0"":""jane and dave are hugging each other""}","<img src=""stim_listB/hug4.gif""</stim_listB>",are hugging each other,
null,"<div style=""font-size:60px;"">+</div>",,html-keyboard-response,234,1271602,0.0-17.0-0.2,10583,List1B,black,woman,,,,null,,,,
null,"<img src=""stim_listB/talk3.gif""</stim_listB>",,html-keyboard-response,235,1273605,0.0-17.0-1.2,10583,List1B,black,woman,,,,null,,,,
null,is talking to,,html-keyboard-response,236,1275606,0.0-17.0-2.2,10583,List1B,black,woman,,,,null,,,,
7153,,,survey-text,237,1282762,0.0-17.0-3.2,10583,List1B,black,woman,,,,,"{""Q0"":""jane is talking to luke""}","<img src=""stim_listB/talk3.gif""</stim_listB>",is talking to,
null,"<div style=""font-size:60px;"">+</div>",,html-keyboard-response,238,1283264,0.0-17.0-0.3,10583,List1B,black,woman,,,,null,,,,
null,"<img src=""stim_listB/meet2.gif""</stim_listB>",,html-keyboard-response,239,1285267,0.0-17.0-1.3,10583,List1B,black,woman,,,,null,,,,
null,are meeting each other,,html-keyboard-response,240,1287268,0.0-17.0-2.3,10583,List1B,black,woman,,,,null,,,,
9153,,,survey-text,241,1296423,0.0-17.0-3.3,10583,List1B,black,woman,,,,,"{""Q0"":""fred and beth are meeting each other""}","<img src=""stim_listB/meet2.gif""</stim_listB>",are meeting each other,
null,"<div style=""font-size:60px;"">+</div>",,html-keyboard-response,242,1296927,0.0-17.0-0.4,10583,List1B,black,woman,,,,null,,,,
null,"<img src=""stim_listB/argue7.gif""</stim_listB>",,html-keyboard-response,243,1298932,0.0-17.0-1.4,10583,List1B,black,woman,,,,null,,,,
null,is arguing with,,html-keyboard-response,244,1300933,0.0-17.0-2.4,10583,List1B,black,woman,,,,null,,,,
5739,,,survey-text,245,1306673,0.0-17.0-3.4,10583,List1B,black,woman,,,,,"{""Q0"":""ruth is arguing with kate""}","<img src=""stim_listB/argue7.gif""</stim_listB>",is arguing with,
null,"<div style=""font-size:60px;"">+</div>",,html-keyboard-response,246,1307174,0.0-17.0-0.5,10583,List1B,black,woman,,,,null,,,,
null,"<img src=""stim_listB/shout7.gif""</stim_listB>",,html-keyboard-response,247,1309178,0.0-17.0-1.5,10583,List1B,black,woman,,,,null,,,,
null,is shouting at,,html-keyboard-response,248,1311179,0.0-17.0-2.5,10583,List1B,black,woman,,,,null,,,,
8270,,,survey-text,249,1319451,0.0-17.0-3.5,10583,List1B,black,woman,,,,,"{""Q0"":""ruth is shouting at beth""}","<img src=""stim_listB/shout7.gif""</stim_listB>",is shouting at,
null,"<div style=""font-size:60px;"">+</div>",,html-keyboard-response,250,1319952,0.0-17.0-0.6,10583,List1B,black,woman,,,,null,,,,
null,"<img src=""stim_listB/argue5.gif""</stim_listB>",,html-keyboard-response,251,1321954,0.0-17.0-1.6,10583,List1B,black,woman,,,,null,,,,
null,is arguing with,,html-keyboard-response,252,1323954,0.0-17.0-2.6,10583,List1B,black,woman,,,,null,,,,
6363,,,survey-text,253,1330319,0.0-17.0-3.6,10583,List1B,black,woman,,,,,"{""Q0"":""mike is arguing with luke""}","<img src=""stim_listB/argue5.gif""</stim_listB>",is arguing with,
null,"<div style=""font-size:60px;"">+</div>",,html-keyboard-response,254,1330819,0.0-17.0-0.7,10583,List1B,black,woman,,,,null,,,,
null,"<img src=""stim_listB/meet5.gif""</stim_listB>",,html-keyboard-response,255,1332821,0.0-17.0-1.7,10583,List1B,black,woman,,,,null,,,,
null,is meeting,,html-keyboard-response,256,1334821,0.0-17.0-2.7,10583,List1B,black,woman,,,,null,,,,
11662,,,survey-text,257,1346485,0.0-17.0-3.7,10583,List1B,black,woman,,,,,"{""Q0"":""mike is meeting dave""}","<img src=""stim_listB/meet5.gif""</stim_listB>",is meeting,
null,"<div style=""font-size:60px;"">+</div>",,html-keyboard-response,258,1346987,0.0-17.0-0.8,10583,List1B,black,woman,,,,null,,,,
null,"<img src=""stim_listB/shout4.gif""</stim_listB>",,html-keyboard-response,259,1348995,0.0-17.0-1.8,10583,List1B,black,woman,,,,null,,,,
null,are shouting at each other,,html-keyboard-response,260,1350997,0.0-17.0-2.8,10583,List1B,black,woman,,,,null,,,,
7681,,,survey-text,261,1358679,0.0-17.0-3.8,10583,List1B,black,woman,,,,,"{""Q0"":""jane and dave are shouting with each other""}","<img src=""stim_listB/shout4.gif""</stim_listB>",are shouting at each other,
null,"<div style=""font-size:60px;"">+</div>",,html-keyboard-response,262,1359183,0.0-17.0-0.9,10583,List1B,black,woman,,,,null,,,,
null,"<img src=""stim_listB/shout6.gif""</stim_listB>",,html-keyboard-response,263,1361185,0.0-17.0-1.9,10583,List1B,black,woman,,,,null,,,,
null,are shouting at each other,,html-keyboard-response,264,1363186,0.0-17.0-2.9,10583,List1B,black,woman,,,,null,,,,
8811,,,survey-text,265,1371998,0.0-17.0-3.9,10583,List1B,black,woman,,,,,"{""Q0"":""mike and dave are shouting at each other""}","<img src=""stim_listB/shout6.gif""</stim_listB>",are shouting at each other,
null,"<div style=""font-size:60px;"">+</div>",,html-keyboard-response,266,1372501,0.0-17.0-0.10,10583,List1B,black,woman,,,,null,,,,
null,"<img src=""stim_listB/hug6.gif""</stim_listB>",,html-keyboard-response,267,1374503,0.0-17.0-1.10,10583,List1B,black,woman,,,,null,,,,
null,are hugging each other,,html-keyboard-response,268,1376504,0.0-17.0-2.10,10583,List1B,black,woman,,,,null,,,,
7258,,,survey-text,269,1383764,0.0-17.0-3.10,10583,List1B,black,woman,,,,,"{""Q0"":""dave and mike are hugging each other""}","<img src=""stim_listB/hug6.gif""</stim_listB>",are hugging each other,
null,"<div style=""font-size:60px;"">+</div>",,html-keyboard-response,270,1384266,0.0-17.0-0.11,10583,List1B,black,woman,,,,null,,,,
null,"<img src=""stim_listB/kiss6.gif""</stim_listB>",,html-keyboard-response,271,1386270,0.0-17.0-1.11,10583,List1B,black,woman,,,,null,,,,
null,are kissing each other,,html-keyboard-response,272,1388270,0.0-17.0-2.11,10583,List1B,black,woman,,,,null,,,,
8751,,,survey-text,273,1397022,0.0-17.0-3.11,10583,List1B,black,woman,,,,,"{""Q0"":""dave and mike are kissing each other""}","<img src=""stim_listB/kiss6.gif""</stim_listB>",are kissing each other,
null,"<div style=""font-size:60px;"">+</div>",,html-keyboard-response,274,1397525,0.0-17.0-0.12,10583,List1B,black,woman,,,,null,,,,
null,"<img src=""stim_listB/kiss1.gif""</stim_listB>",,html-keyboard-response,275,1399527,0.0-17.0-1.12,10583,List1B,black,woman,,,,null,,,,
null,is kissing,,html-keyboard-response,276,1401527,0.0-17.0-2.12,10583,List1B,black,woman,,,,null,,,,
5469,,,survey-text,277,1406998,0.0-17.0-3.12,10583,List1B,black,woman,,,,,"{""Q0"":""fred is kissing beth""}","<img src=""stim_listB/kiss1.gif""</stim_listB>",is kissing,
null,"<div style=""font-size:60px;"">+</div>",,html-keyboard-response,278,1407500,0.0-17.0-0.13,10583,List1B,black,woman,,,,null,,,,
null,"<img src=""stim_listB/meet8.gif""</stim_listB>",,html-keyboard-response,279,1409501,0.0-17.0-1.13,10583,List1B,black,woman,,,,null,,,,
null,are meeting each other,,html-keyboard-response,280,1411503,0.0-17.0-2.13,10583,List1B,black,woman,,,,null,,,,
7196,,,survey-text,281,1418699,0.0-17.0-3.13,10583,List1B,black,woman,,,,,"{""Q0"":""beth and ruth are meeting each other""}","<img src=""stim_listB/meet8.gif""</stim_listB>",are meeting each other,
null,"<div style=""font-size:60px;"">+</div>",,html-keyboard-response,282,1419201,0.0-17.0-0.14,10583,List1B,black,woman,,,,null,,,,
null,"<img src=""stim_listB/meet6.gif""</stim_listB>",,html-keyboard-response,283,1421203,0.0-17.0-1.14,10583,List1B,black,woman,,,,null,,,,
null,are meeting each other,,html-keyboard-response,284,1423205,0.0-17.0-2.14,10583,List1B,black,woman,,,,null,,,,
5911,,,survey-text,285,1429117,0.0-17.0-3.14,10583,List1B,black,woman,,,,,"{""Q0"":""fred and luke are meeting each other""}","<img src=""stim_listB/meet6.gif""</stim_listB>",are meeting each other,
null,"<div style=""font-size:60px;"">+</div>",,html-keyboard-response,286,1429619,0.0-17.0-0.15,10583,List1B,black,woman,,,,null,,,,
null,"<img src=""stim_listB/fight5.gif""</stim_listB>",,html-keyboard-response,287,1431622,0.0-17.0-1.15,10583,List1B,black,woman,,,,null,,,,
null,is fighting,,html-keyboard-response,288,1433622,0.0-17.0-2.15,10583,List1B,black,woman,,,,null,,,,
5168,,,survey-text,289,1438791,0.0-17.0-3.15,10583,List1B,black,woman,,,,,"{""Q0"":""mike is fighting dave""}","<img src=""stim_listB/fight5.gif""</stim_listB>",is fighting,
null,"<div style=""font-size:60px;"">+</div>",,html-keyboard-response,290,1439293,0.0-17.0-0.16,10583,List1B,black,woman,,,,null,,,,
null,"<img src=""stim_listB/hug3.gif""</stim_listB>",,html-keyboard-response,291,1441294,0.0-17.0-1.16,10583,List1B,black,woman,,,,null,,,,
null,is hugging,,html-keyboard-response,292,1443295,0.0-17.0-2.16,10583,List1B,black,woman,,,,null,,,,
4986,,,survey-text,293,1448282,0.0-17.0-3.16,10583,List1B,black,woman,,,,,"{""Q0"":""ruth is hugging luke""}","<img src=""stim_listB/hug3.gif""</stim_listB>",is hugging,
null,"<div style=""font-size:60px;"">+</div>",,html-keyboard-response,294,1448784,0.0-17.0-0.17,10583,List1B,black,woman,,,,null,,,,
null,"<img src=""stim_listB/hug2.gif""</stim_listB>",,html-keyboard-response,295,1450785,0.0-17.0-1.17,10583,List1B,black,woman,,,,null,,,,
null,are hugging each other,,html-keyboard-response,296,1452786,0.0-17.0-2.17,10583,List1B,black,woman,,,,null,,,,
7434,,,survey-text,297,1460221,0.0-17.0-3.17,10583,List1B,black,woman,,,,,"{""Q0"":""kate and mike are hugging each other""}","<img src=""stim_listB/hug2.gif""</stim_listB>",are hugging each other,
null,"<div style=""font-size:60px;"">+</div>",,html-keyboard-response,298,1460724,0.0-17.0-0.18,10583,List1B,black,woman,,,,null,,,,
null,"<img src=""stim_listB/dance7.gif""</stim_listB>",,html-keyboard-response,299,1462726,0.0-17.0-1.18,10583,List1B,black,woman,,,,null,,,,
null,is dancing with,,html-keyboard-response,300,1464727,0.0-17.0-2.18,10583,List1B,black,woman,,,,null,,,,
5657,,,survey-text,301,1470385,0.0-17.0-3.18,10583,List1B,black,woman,,,,,"{""Q0"":""jane is dancing with beth""}","<img src=""stim_listB/dance7.gif""</stim_listB>",is dancing with,
null,"<div style=""font-size:60px;"">+</div>",,html-keyboard-response,302,1470887,0.0-17.0-0.19,10583,List1B,black,woman,,,,null,,,,
null,"<img src=""stim_listB/kiss4.gif""</stim_listB>",,html-keyboard-response,303,1472890,0.0-17.0-1.19,10583,List1B,black,woman,,,,null,,,,
null,are kissing each other,,html-keyboard-response,304,1474891,0.0-17.0-2.19,10583,List1B,black,woman,,,,null,,,,
6907,,,survey-text,305,1481800,0.0-17.0-3.19,10583,List1B,black,woman,,,,,"{""Q0"":""jane and dave are kissing each other""}","<img src=""stim_listB/kiss4.gif""</stim_listB>",are kissing each other,
6229,"<img src='img/portrait_matrix_list1.JPG' style='width:900px;height:500px;''></img><p>If you have memorised all the portraits and names and are ready to start, press Continue.</p><p><strong>Please note: Your memory of these faces will be tested 4 times during this experiment.</strong></p>",0,html-button-response,306,1488034,0.0-18.0-0.0,10583,List1B,black,woman,,,,,,,,
1618,"<img src=""portrait/BM2.jpg""style=""width:400px;height:400px;""></img>",5,html-button-response,307,1490654,0.0-18.0-1.0,10583,List1B,black,woman,,TRUE,5,,,,,
null,CORRECT,,html-keyboard-response,308,1492158,0.0-18.0-2.0-0.0,10583,List1B,black,woman,,,,null,,,,
1303,"<img src=""portrait/BM1.jpg""style=""width:400px;height:400px;""></img>",4,html-button-response,309,1493463,0.0-18.0-4.0,10583,List1B,black,woman,,TRUE,4,,,,,
null,CORRECT,,html-keyboard-response,310,1494966,0.0-18.0-5.0-0.0,10583,List1B,black,woman,,,,null,,,,
1680,"<img src=""portrait/WW1.jpg""style=""width:400px;height:400px;""></img>",1,html-button-response,311,1496649,0.0-18.0-7.0,10583,List1B,black,woman,,TRUE,1,,,,,
null,CORRECT,,html-keyboard-response,312,1498152,0.0-18.0-8.0-0.0,10583,List1B,black,woman,,,,null,,,,
1983,"<img src=""portrait/BW2.jpg""style=""width:400px;height:400px;""></img>",2,html-button-response,313,1500136,0.0-18.0-10.0,10583,List1B,black,woman,,TRUE,2,,,,,
null,CORRECT,,html-keyboard-response,314,1501640,0.0-18.0-11.0-0.0,10583,List1B,black,woman,,,,null,,,,
1644,"<img src=""portrait/BW1.jpg""style=""width:400px;height:400px;""></img>",0,html-button-response,315,1503284,0.0-18.0-13.0,10583,List1B,black,woman,,TRUE,0,,,,,
null,CORRECT,,html-keyboard-response,316,1504789,0.0-18.0-14.0-0.0,10583,List1B,black,woman,,,,null,,,,
1270,"<img src=""portrait/WM1.jpg""style=""width:400px;height:400px;""></img>",6,html-button-response,317,1506060,0.0-18.0-16.0,10583,List1B,black,woman,,TRUE,6,,,,,
null,CORRECT,,html-keyboard-response,318,1507563,0.0-18.0-17.0-0.0,10583,List1B,black,woman,,,,null,,,,
824,"<img src=""portrait/WM2.jpg""style=""width:400px;height:400px;""></img>",7,html-button-response,319,1508387,0.0-18.0-19.0,10583,List1B,black,woman,,TRUE,7,,,,,
null,CORRECT,,html-keyboard-response,320,1509891,0.0-18.0-20.0-0.0,10583,List1B,black,woman,,,,null,,,,
1156,"<img src=""portrait/WW2.jpg""style=""width:400px;height:400px;""></img>",3,html-button-response,321,1511049,0.0-18.0-22.0,10583,List1B,black,woman,,TRUE,3,,,,,
null,CORRECT,,html-keyboard-response,322,1512550,0.0-18.0-23.0-0.0,10583,List1B,black,woman,,,,null,,,,
930,<p>You got 8 out of 8 right first time. Press Continue.</p>,0,html-button-response,323,1513484,0.0-18.0-25.0,10583,List1B,black,woman,,,,,,,,
null,"<div style=""font-size:60px;"">+</div>",,html-keyboard-response,324,1514987,0.0-19.0-0.0,10583,List1B,black,woman,,,,null,,,,
null,"<img src=""stim_listB/kiss7.gif""</stim_listB>",,html-keyboard-response,325,1516989,0.0-19.0-1.0,10583,List1B,black,woman,,,,null,,,,
null,is kissing,,html-keyboard-response,326,1518991,0.0-19.0-2.0,10583,List1B,black,woman,,,,null,,,,
7151,,,survey-text,327,1526143,0.0-19.0-3.0,10583,List1B,black,woman,,,,,"{""Q0"":""beth is kissing ruth""}","<img src=""stim_listB/kiss7.gif""</stim_listB>",is kissing,
null,"<div style=""font-size:60px;"">+</div>",,html-keyboard-response,328,1526647,0.0-19.0-0.1,10583,List1B,black,woman,,,,null,,,,
null,"<img src=""stim_listB/talk7.gif""</stim_listB>",,html-keyboard-response,329,1528647,0.0-19.0-1.1,10583,List1B,black,woman,,,,null,,,,
null,is talking to,,html-keyboard-response,330,1530649,0.0-19.0-2.1,10583,List1B,black,woman,,,,null,,,,
6447,,,survey-text,331,1537096,0.0-19.0-3.1,10583,List1B,black,woman,,,,,"{""Q0"":""jane is talking to beth""}","<img src=""stim_listB/talk7.gif""</stim_listB>",is talking to,
null,"<div style=""font-size:60px;"">+</div>",,html-keyboard-response,332,1537598,0.0-19.0-0.2,10583,List1B,black,woman,,,,null,,,,
null,"<img src=""stim_listB/touch1.gif""</stim_listB>",,html-keyboard-response,333,1539616,0.0-19.0-1.2,10583,List1B,black,woman,,,,null,,,,
null,is touching,,html-keyboard-response,334,1541617,0.0-19.0-2.2,10583,List1B,black,woman,,,,null,,,,
6544,,,survey-text,335,1548162,0.0-19.0-3.2,10583,List1B,black,woman,,,,,"{""Q0"":""kate is touching mike""}","<img src=""stim_listB/touch1.gif""</stim_listB>",is touching,
null,"<div style=""font-size:60px;"">+</div>",,html-keyboard-response,336,1548665,0.0-19.0-0.3,10583,List1B,black,woman,,,,null,,,,
null,"<img src=""stim_listB/dance5.gif""</stim_listB>",,html-keyboard-response,337,1550668,0.0-19.0-1.3,10583,List1B,black,woman,,,,null,,,,
null,is dancing with,,html-keyboard-response,338,1552668,0.0-19.0-2.3,10583,List1B,black,woman,,,,null,,,,
5547,,,survey-text,339,1558216,0.0-19.0-3.3,10583,List1B,black,woman,,,,,"{""Q0"":""fred is dancing with dave""}","<img src=""stim_listB/dance5.gif""</stim_listB>",is dancing with,
null,"<div style=""font-size:60px;"">+</div>",,html-keyboard-response,340,1558718,0.0-19.0-0.4,10583,List1B,black,woman,,,,null,,,,
null,"<img src=""stim_listB/marry1.gif""</stim_listB>",,html-keyboard-response,341,1560720,0.0-19.0-1.4,10583,List1B,black,woman,,,,null,,,,
null,is marrying,,html-keyboard-response,342,1562721,0.0-19.0-2.4,10583,List1B,black,woman,,,,null,,,,
5363,,,survey-text,343,1568084,0.0-19.0-3.4,10583,List1B,black,woman,,,,,"{""Q0"":""mike is marrying beth""}","<img src=""stim_listB/marry1.gif""</stim_listB>",is marrying,
null,"<div style=""font-size:60px;"">+</div>",,html-keyboard-response,344,1568587,0.0-19.0-0.5,10583,List1B,black,woman,,,,null,,,,
null,"<img src=""stim_listB/marry7.gif""</stim_listB>",,html-keyboard-response,345,1570589,0.0-19.0-1.5,10583,List1B,black,woman,,,,null,,,,
null,is marrying,,html-keyboard-response,346,1572591,0.0-19.0-2.5,10583,List1B,black,woman,,,,null,,,,
9932,,,survey-text,347,1582523,0.0-19.0-3.5,10583,List1B,black,woman,,,,,"{""Q0"":""kate is marrying ruth""}","<img src=""stim_listB/marry7.gif""</stim_listB>",is marrying,
null,"<div style=""font-size:60px;"">+</div>",,html-keyboard-response,348,1583025,0.0-19.0-0.6,10583,List1B,black,woman,,,,null,,,,
null,"<img src=""stim_listB/shout3.gif""</stim_listB>",,html-keyboard-response,349,1585027,0.0-19.0-1.6,10583,List1B,black,woman,,,,null,,,,
null,is shouting at,,html-keyboard-response,350,1587029,0.0-19.0-2.6,10583,List1B,black,woman,,,,null,,,,
8888,,,survey-text,351,1595918,0.0-19.0-3.6,10583,List1B,black,woman,,,,,"{""Q0"":""ruth is shouting at luke""}","<img src=""stim_listB/shout3.gif""</stim_listB>",is shouting at,
null,"<div style=""font-size:60px;"">+</div>",,html-keyboard-response,352,1596421,0.0-19.0-0.7,10583,List1B,black,woman,,,,null,,,,
null,"<img src=""stim_listB/touch3.gif""</stim_listB>",,html-keyboard-response,353,1598422,0.0-19.0-1.7,10583,List1B,black,woman,,,,null,,,,
null,is touching,,html-keyboard-response,354,1600425,0.0-19.0-2.7,10583,List1B,black,woman,,,,null,,,,
4487,,,survey-text,355,1604914,0.0-19.0-3.7,10583,List1B,black,woman,,,,,"{""Q0"":""jane is touching dave""}","<img src=""stim_listB/touch3.gif""</stim_listB>",is touching,
null,"<div style=""font-size:60px;"">+</div>",,html-keyboard-response,356,1605415,0.0-19.0-0.8,10583,List1B,black,woman,,,,null,,,,
null,"<img src=""stim_listB/talk2.gif""</stim_listB>",,html-keyboard-response,357,1607417,0.0-19.0-1.8,10583,List1B,black,woman,,,,null,,,,
null,are talking to each other,,html-keyboard-response,358,1609420,0.0-19.0-2.8,10583,List1B,black,woman,,,,null,,,,
7859,,,survey-text,359,1617281,0.0-19.0-3.8,10583,List1B,black,woman,,,,,"{""Q0"":""mike and beth are touching each other""}","<img src=""stim_listB/talk2.gif""</stim_listB>",are talking to each other,
null,"<div style=""font-size:60px;"">+</div>",,html-keyboard-response,360,1617784,0.0-19.0-0.9,10583,List1B,black,woman,,,,null,,,,
null,"<img src=""stim_listB/fight7.gif""</stim_listB>",,html-keyboard-response,361,1619787,0.0-19.0-1.9,10583,List1B,black,woman,,,,null,,,,
null,is fighting,,html-keyboard-response,362,1621791,0.0-19.0-2.9,10583,List1B,black,woman,,,,null,,,,
4829,,,survey-text,363,1626622,0.0-19.0-3.9,10583,List1B,black,woman,,,,,"{""Q0"":""jane is fighting kate""}","<img src=""stim_listB/fight7.gif""</stim_listB>",is fighting,
null,"<div style=""font-size:60px;"">+</div>",,html-keyboard-response,364,1627124,0.0-19.0-0.10,10583,List1B,black,woman,,,,null,,,,
null,"<img src=""stim_listB/touch8.gif""</stim_listB>",,html-keyboard-response,365,1629125,0.0-19.0-1.10,10583,List1B,black,woman,,,,null,,,,
null,are touching each other,,html-keyboard-response,366,1631128,0.0-19.0-2.10,10583,List1B,black,woman,,,,null,,,,
6776,,,survey-text,367,1637906,0.0-19.0-3.10,10583,List1B,black,woman,,,,,"{""Q0"":""beth and ruth are touching each other""}","<img src=""stim_listB/touch8.gif""</stim_listB>",are touching each other,
null,"<div style=""font-size:60px;"">+</div>",,html-keyboard-response,368,1638409,0.0-19.0-0.11,10583,List1B,black,woman,,,,null,,,,
null,"<img src=""stim_listB/shout5.gif""</stim_listB>",,html-keyboard-response,369,1640411,0.0-19.0-1.11,10583,List1B,black,woman,,,,null,,,,
null,is shouting at,,html-keyboard-response,370,1642413,0.0-19.0-2.11,10583,List1B,black,woman,,,,null,,,,
5281,,,survey-text,371,1647695,0.0-19.0-3.11,10583,List1B,black,woman,,,,,"{""Q0"":""fred is shouting at luke""}","<img src=""stim_listB/shout5.gif""</stim_listB>",is shouting at,
null,"<div style=""font-size:60px;"">+</div>",,html-keyboard-response,372,1648197,0.0-19.0-0.12,10583,List1B,black,woman,,,,null,,,,
null,"<img src=""stim_listB/kiss8.gif""</stim_listB>",,html-keyboard-response,373,1650200,0.0-19.0-1.12,10583,List1B,black,woman,,,,null,,,,
null,are kissing each other,,html-keyboard-response,374,1652201,0.0-19.0-2.12,10583,List1B,black,woman,,,,null,,,,
6060,,,survey-text,375,1658262,0.0-19.0-3.12,10583,List1B,black,woman,,,,,"{""Q0"":""jane and kate are kissing each other""}","<img src=""stim_listB/kiss8.gif""</stim_listB>",are kissing each other,
null,"<div style=""font-size:60px;"">+</div>",,html-keyboard-response,376,1658764,0.0-19.0-0.13,10583,List1B,black,woman,,,,null,,,,
null,"<img src=""stim_listB/meet7.gif""</stim_listB>",,html-keyboard-response,377,1660766,0.0-19.0-1.13,10583,List1B,black,woman,,,,null,,,,
null,is meeting,,html-keyboard-response,378,1662768,0.0-19.0-2.13,10583,List1B,black,woman,,,,null,,,,
4534,,,survey-text,379,1667304,0.0-19.0-3.13,10583,List1B,black,woman,,,,,"{""Q0"":""jane is meeting kate""}","<img src=""stim_listB/meet7.gif""</stim_listB>",is meeting,
null,"<div style=""font-size:60px;"">+</div>",,html-keyboard-response,380,1667807,0.0-19.0-0.14,10583,List1B,black,woman,,,,null,,,,
null,"<img src=""stim_listB/fight2.gif""</stim_listB>",,html-keyboard-response,381,1669808,0.0-19.0-1.14,10583,List1B,black,woman,,,,null,,,,
null,are fighting each other,,html-keyboard-response,382,1671810,0.0-19.0-2.14,10583,List1B,black,woman,,,,null,,,,
6983,,,survey-text,383,1678793,0.0-19.0-3.14,10583,List1B,black,woman,,,,,"{""Q0"":""fred and beth are fighting each other""}","<img src=""stim_listB/fight2.gif""</stim_listB>",are fighting each other,
null,"<div style=""font-size:60px;"">+</div>",,html-keyboard-response,384,1679296,0.0-19.0-0.15,10583,List1B,black,woman,,,,null,,,,
null,"<img src=""stim_listB/kiss3.gif""</stim_listB>",,html-keyboard-response,385,1681297,0.0-19.0-1.15,10583,List1B,black,woman,,,,null,,,,
null,is kissing,,html-keyboard-response,386,1683298,0.0-19.0-2.15,10583,List1B,black,woman,,,,null,,,,
5310,,,survey-text,387,1688609,0.0-19.0-3.15,10583,List1B,black,woman,,,,,"{""Q0"":""ruth is kissing luke""}","<img src=""stim_listB/kiss3.gif""</stim_listB>",is kissing,
null,"<div style=""font-size:60px;"">+</div>",,html-keyboard-response,388,1689112,0.0-19.0-0.16,10583,List1B,black,woman,,,,null,,,,
null,"<img src=""stim_listB/fight6.gif""</stim_listB>",,html-keyboard-response,389,1691114,0.0-19.0-1.16,10583,List1B,black,woman,,,,null,,,,
null,are fighting each other,,html-keyboard-response,390,1693115,0.0-19.0-2.16,10583,List1B,black,woman,,,,null,,,,
6576,,,survey-text,391,1699691,0.0-19.0-3.16,10583,List1B,black,woman,,,,,"{""Q0"":""fred and luke are fighting each other""}","<img src=""stim_listB/fight6.gif""</stim_listB>",are fighting each other,
null,"<div style=""font-size:60px;"">+</div>",,html-keyboard-response,392,1700192,0.0-19.0-0.17,10583,List1B,black,woman,,,,null,,,,
null,"<img src=""stim_listB/shout1.gif""</stim_listB>",,html-keyboard-response,393,1702195,0.0-19.0-1.17,10583,List1B,black,woman,,,,null,,,,
null,is shouting at,,html-keyboard-response,394,1704197,0.0-19.0-2.17,10583,List1B,black,woman,,,,null,,,,
5053,,,survey-text,395,1709251,0.0-19.0-3.17,10583,List1B,black,woman,,,,,"{""Q0"":""fred is shouting at beth""}","<img src=""stim_listB/shout1.gif""</stim_listB>",is shouting at,
null,"<div style=""font-size:60px;"">+</div>",,html-keyboard-response,396,1709753,0.0-19.0-0.18,10583,List1B,black,woman,,,,null,,,,
null,"<img src=""stim_listB/dance2.gif""</stim_listB>",,html-keyboard-response,397,1711754,0.0-19.0-1.18,10583,List1B,black,woman,,,,null,,,,
null,are dancing with each other,,html-keyboard-response,398,1713756,0.0-19.0-2.18,10583,List1B,black,woman,,,,null,,,,
7351,,,survey-text,399,1721108,0.0-19.0-3.18,10583,List1B,black,woman,,,,,"{""Q0"":""mike and beth are dancing with each other""}","<img src=""stim_listB/dance2.gif""</stim_listB>",are dancing with each other,
null,"<div style=""font-size:60px;"">+</div>",,html-keyboard-response,400,1721610,0.0-19.0-0.19,10583,List1B,black,woman,,,,null,,,,
null,"<img src=""stim_listB/shout2.gif""</stim_listB>",,html-keyboard-response,401,1723614,0.0-19.0-1.19,10583,List1B,black,woman,,,,null,,,,
null,are shouting at each other,,html-keyboard-response,402,1725619,0.0-19.0-2.19,10583,List1B,black,woman,,,,null,,,,
13074,,,survey-text,403,1738695,0.0-19.0-3.19,10583,List1B,black,woman,,,,,"{""Q0"":""mike and kate are shouting at each other""}","<img src=""stim_listB/shout2.gif""</stim_listB>",are shouting at each other,
3959,<p>Thank you for completing that task.</p><p>The final part of this session is a short questionnaire.</p><p>Press Continue.</p>,0,html-button-response,404,1742655,0.0-20.0,10583,List1B,black,woman,,,,,,,,
19082,,,survey-text,405,1762740,0.0-21.0,10583,List1B,black,woman,,,,,"{""Q0"":""47"",""Q1"":""english"",""Q2"":""english"",""Q3"":""USA"",""Q4"":""Black"",""Q5"":""female""}",,,demographics
49147,,,survey-likert,406,1811891,0.0-22.0,10583,List1B,black,woman,,,,,"{""Q0"":6,""Q1"":5,""Q2"":5,""Q3"":6,""Q4"":6,""Q5"":"""",""Q6"":6,""Q7"":6,""Q8"":6,""Q9"":"""",""Q10"":5,""Q11"":5,""Q12"":6,""Q13"":5}",,,likert_race
51434,,,survey-likert,407,1863331,0.0-23.0,10583,List1B,black,woman,,,,,"{""Q0"":2,""Q1"":"""",""Q2"":2,""Q3"":4,""Q4"":5,""Q5"":5,""Q6"":4,""Q7"":2,""Q8"":"""",""Q9"":5,""Q10"":2,""Q11"":2,""Q12"":4,""Q13"":4}",,,likert_gender
22133,,,survey-text,408,1885467,0.0-24.0,10583,List1B,black,woman,,,,,"{""Q0"":""ccc""}",,,worker_id
13146,,,external-html,409,1898860,0.0-25.0,10583,List1B,black,woman,debrief.html,,,,,,,
