rt,stimulus,button_pressed,trial_type,trial_index,time_elapsed,internal_node_id,subject,list,ppt_race,ppt_gender,url,first_guess,correct,key_press,responses,image_type,phrase_type,test_part
1331,Welcome to the experiment. Press Continue to begin.,0,html-button-response,0,1339,0.0-0.0,12072,List2B,black,man,,,,,,,,
14238,,,external-html,1,16639,0.0-1.0,12072,List2B,black,man,consent.html,,,,,,,
3281,"<p>On the next page, you will see portraits of 8 people and their names.</p><p>Your first task is to take a few minutes to memorise the names of these people.</p><p>You will have to recall their names during the rest of the experiment, so it is</p><p>essential that you try to memorise these people and their names as best as you can.</p><br><p><strong>You will then be tested on your memory of these names and portraits.</strong></p><br><p>The experiment will start after you have completed this memory test.</p><br><p>Ready?</p>",0,html-button-response,2,19922,0.0-2.0,12072,List2B,black,man,,,,,,,,
31276,"<img src='img/portrait_matrix_list2.JPG' style='width:900px;height:500px;''></img><p>If you have memorised all the portraits and names and are ready to start, press Continue.</p><p><strong>Please note: Your memory of these faces will be tested 4 times during this experiment.</strong></p>",0,html-button-response,3,52218,0.0-3.0-0.0,12072,List2B,black,man,,,,,,,,
26721,"<img src=""portrait/BW1.jpg""style=""width:400px;height:400px;""></img>",0,html-button-response,4,79954,0.0-3.0-1.0,12072,List2B,black,man,,TRUE,0,,,,,
null,CORRECT,,html-keyboard-response,5,81490,0.0-3.0-2.0-0.0,12072,List2B,black,man,,,,null,,,,
3294,"<img src=""portrait/WW2.jpg""style=""width:400px;height:400px;""></img>",3,html-button-response,6,84787,0.0-3.0-4.0,12072,List2B,black,man,,TRUE,3,,,,,
null,CORRECT,,html-keyboard-response,7,86328,0.0-3.0-5.0-0.0,12072,List2B,black,man,,,,null,,,,
3198,"<img src=""portrait/BW2.jpg""style=""width:400px;height:400px;""></img>",2,html-button-response,8,89526,0.0-3.0-7.0,12072,List2B,black,man,,TRUE,2,,,,,
null,CORRECT,,html-keyboard-response,9,91043,0.0-3.0-8.0-0.0,12072,List2B,black,man,,,,null,,,,
2960,"<img src=""portrait/BM1.jpg""style=""width:400px;height:400px;""></img>",4,html-button-response,10,94004,0.0-3.0-10.0,12072,List2B,black,man,,TRUE,4,,,,,
null,CORRECT,,html-keyboard-response,11,95543,0.0-3.0-11.0-0.0,12072,List2B,black,man,,,,null,,,,
3230,"<img src=""portrait/BM2.jpg""style=""width:400px;height:400px;""></img>",3,html-button-response,12,98776,0.0-3.0-13.0,12072,List2B,black,man,,TRUE,5,,,,,
3482,"<img src=""portrait/BM2.jpg""style=""width:400px;height:400px;""></img>",5,html-button-response,13,103272,0.0-3.0-15.0-0.0,12072,List2B,black,man,,FALSE,5,,,,,
null,CORRECT,,html-keyboard-response,14,104797,0.0-3.0-15.0-1.0-0.0,12072,List2B,black,man,,,,null,,,,
5608,"<img src=""portrait/WW1.jpg""style=""width:400px;height:400px;""></img>",1,html-button-response,15,110407,0.0-3.0-16.0,12072,List2B,black,man,,TRUE,1,,,,,
null,CORRECT,,html-keyboard-response,16,111935,0.0-3.0-17.0-0.0,12072,List2B,black,man,,,,null,,,,
18742,"<img src=""portrait/WM1.jpg""style=""width:400px;height:400px;""></img>",6,html-button-response,17,130679,0.0-3.0-19.0,12072,List2B,black,man,,TRUE,6,,,,,
null,CORRECT,,html-keyboard-response,18,132202,0.0-3.0-20.0-0.0,12072,List2B,black,man,,,,null,,,,
9774,"<img src=""portrait/WM2.jpg""style=""width:400px;height:400px;""></img>",7,html-button-response,19,141980,0.0-3.0-22.0,12072,List2B,black,man,,TRUE,7,,,,,
null,CORRECT,,html-keyboard-response,20,143497,0.0-3.0-23.0-0.0,12072,List2B,black,man,,,,null,,,,
29113,<p>You got 7 out of 8 right first time. Press Continue.</p>,0,html-button-response,21,172613,0.0-3.0-25.0,12072,List2B,black,man,,,,,,,,
2290,"As you did not score 100%, the memory game will repeat. Press Continue.",0,html-button-response,22,175919,0.0-3.0-26.0-0.0,12072,List2B,black,man,,,,,,,,
1525,"<img src='img/portrait_matrix_list2.JPG' style='width:900px;height:500px;''></img><p>If you have memorised all the portraits and names and are ready to start, press Continue.</p><p><strong>Please note: Your memory of these faces will be tested 4 times during this experiment.</strong></p>",0,html-button-response,23,178466,0.0-3.1-0.1,12072,List2B,black,man,,,,,,,,
2732,"<img src=""portrait/BW1.jpg""style=""width:400px;height:400px;""></img>",0,html-button-response,24,182207,0.0-3.1-1.1,12072,List2B,black,man,,TRUE,0,,,,,
null,CORRECT,,html-keyboard-response,25,183747,0.0-3.1-2.1-0.1,12072,List2B,black,man,,,,null,,,,
4523,"<img src=""portrait/WW2.jpg""style=""width:400px;height:400px;""></img>",3,html-button-response,26,188271,0.0-3.1-4.1,12072,List2B,black,man,,TRUE,3,,,,,
null,CORRECT,,html-keyboard-response,27,189803,0.0-3.1-5.1-0.1,12072,List2B,black,man,,,,null,,,,
3378,"<img src=""portrait/BW2.jpg""style=""width:400px;height:400px;""></img>",2,html-button-response,28,193184,0.0-3.1-7.1,12072,List2B,black,man,,TRUE,2,,,,,
null,CORRECT,,html-keyboard-response,29,194719,0.0-3.1-8.1-0.1,12072,List2B,black,man,,,,null,,,,
7135,"<img src=""portrait/BM1.jpg""style=""width:400px;height:400px;""></img>",4,html-button-response,30,201855,0.0-3.1-10.1,12072,List2B,black,man,,TRUE,4,,,,,
null,CORRECT,,html-keyboard-response,31,203395,0.0-3.1-11.1-0.1,12072,List2B,black,man,,,,null,,,,
3511,"<img src=""portrait/BM2.jpg""style=""width:400px;height:400px;""></img>",5,html-button-response,32,206908,0.0-3.1-13.1,12072,List2B,black,man,,TRUE,5,,,,,
null,CORRECT,,html-keyboard-response,33,208443,0.0-3.1-14.1-0.1,12072,List2B,black,man,,,,null,,,,
8640,"<img src=""portrait/WW1.jpg""style=""width:400px;height:400px;""></img>",1,html-button-response,34,217085,0.0-3.1-16.1,12072,List2B,black,man,,TRUE,1,,,,,
null,CORRECT,,html-keyboard-response,35,218605,0.0-3.1-17.1-0.1,12072,List2B,black,man,,,,null,,,,
5118,"<img src=""portrait/WM1.jpg""style=""width:400px;height:400px;""></img>",6,html-button-response,36,223724,0.0-3.1-19.1,12072,List2B,black,man,,TRUE,6,,,,,
null,CORRECT,,html-keyboard-response,37,225270,0.0-3.1-20.1-0.1,12072,List2B,black,man,,,,null,,,,
4405,"<img src=""portrait/WM2.jpg""style=""width:400px;height:400px;""></img>",7,html-button-response,38,229678,0.0-3.1-22.1,12072,List2B,black,man,,TRUE,7,,,,,
null,CORRECT,,html-keyboard-response,39,231206,0.0-3.1-23.1-0.1,12072,List2B,black,man,,,,null,,,,
1430,<p>You got 8 out of 8 right first time. Press Continue.</p>,0,html-button-response,40,232638,0.0-3.1-25.1,12072,List2B,black,man,,,,,,,,
8810,"<p>In this experiment, you will view photographs of the people from the memory game interacting.</p><p>By using the <strong>exact</strong> phrase given <i>after</i> the photograph appears and recalling the correct names of the people in the photographs, form a sentence describing the interaction. You do not need to capitalise names.</p><p>Type your answer in the space provided. Please complete every sentence before moving onto the next trial.</p><p>You will only have a few seconds to memorise each given photograph and phrase before you can respond, so try your best to focus.</p><p>An example is given below. Press 'Continue' when you are ready.</p><img src='img/speaking_example_v2.jpg' style='width:800px;height:460px;''></img>",0,html-button-response,41,242471,0.0-4.0,12072,List2B,black,man,,,,,,,,
2239,"<p>Before the experiment starts, you will watch two example trials. Press 'Continue'.</p>",0,html-button-response,42,245735,0.0-5.0,12072,List2B,black,man,,,,,,,,
null,<img src='img/speaking_WW.gif'></img>,,html-keyboard-response,43,248775,0.0-6.0,12072,List2B,black,man,,,,null,,,,
null,<p>is speaking to</p>,,html-keyboard-response,44,250770,0.0-7.0,12072,List2B,black,man,,,,null,,,,
8954,<p><b>Answer:</b> jane is speaking to ruth</p>,0,html-button-response,45,259726,0.0-8.0,12072,List2B,black,man,,,,,,,,
null,<img src='img/pointing_BM.gif'></img>,,html-keyboard-response,46,262742,0.0-9.0,12072,List2B,black,man,,,,null,,,,
null,<p>are pointing at each other</p>,,html-keyboard-response,47,264757,0.0-10.0,12072,List2B,black,man,,,,null,,,,
1404,<p><b>Answer:</b> fred and mike are pointing at each other</p>,0,html-button-response,48,266163,0.0-11.0,12072,List2B,black,man,,,,,,,,
3094,"<p>Ready to start the experiment?</p><br><p><strong>Remember to describe the picture using a full sentence,</strong></p><p><strong>that combines the names of the people with the given phrase.</strong></p><p><strong>If you do not do this correctly you will not be paid.</strong></p><p><strong> You do not need to capitalise names or use punctuation.</strong></p><br><p>Press 'Continue' to begin.</p>",0,html-button-response,49,270266,0.0-12.0,12072,List2B,black,man,,,,,,,,
null,"<div style=""font-size:60px;"">+</div>",,html-keyboard-response,50,271820,0.0-13.0-0.0,12072,List2B,black,man,,,,null,,,,
null,"<img src=""stim_listB/argue1.gif""</stim_listB>",,html-keyboard-response,51,273846,0.0-13.0-1.0,12072,List2B,black,man,,,,null,,,,
null,is arguing with,,html-keyboard-response,52,275846,0.0-13.0-2.0,12072,List2B,black,man,,,,null,,,,
15313,,,survey-text,53,291164,0.0-13.0-3.0,12072,List2B,black,man,,,,,"{""Q0"":""dave is arguing with ruth""}","<img src=""stim_listB/argue1.gif""</stim_listB>",is arguing with,
null,"<div style=""font-size:60px;"">+</div>",,html-keyboard-response,54,291677,0.0-13.0-0.1,12072,List2B,black,man,,,,null,,,,
null,"<img src=""stim_listB/fight5.gif""</stim_listB>",,html-keyboard-response,55,293700,0.0-13.0-1.1,12072,List2B,black,man,,,,null,,,,
null,is fighting,,html-keyboard-response,56,295678,0.0-13.0-2.1,12072,List2B,black,man,,,,null,,,,
24653,,,survey-text,57,320332,0.0-13.0-3.1,12072,List2B,black,man,,,,,"{""Q0"":""jane is arguing with ruth""}","<img src=""stim_listB/fight5.gif""</stim_listB>",is fighting,
null,"<div style=""font-size:60px;"">+</div>",,html-keyboard-response,58,320857,0.0-13.0-0.2,12072,List2B,black,man,,,,null,,,,
null,"<img src=""stim_listB/shout2.gif""</stim_listB>",,html-keyboard-response,59,322884,0.0-13.0-1.2,12072,List2B,black,man,,,,null,,,,
null,are shouting at each other,,html-keyboard-response,60,324863,0.0-13.0-2.2,12072,List2B,black,man,,,,null,,,,
37654,,,survey-text,61,362520,0.0-13.0-3.2,12072,List2B,black,man,,,,,"{""Q0"":""dave is shouting at jane""}","<img src=""stim_listB/shout2.gif""</stim_listB>",are shouting at each other,
null,"<div style=""font-size:60px;"">+</div>",,html-keyboard-response,62,363028,0.0-13.0-0.3,12072,List2B,black,man,,,,null,,,,
null,"<img src=""stim_listB/kiss8.gif""</stim_listB>",,html-keyboard-response,63,365045,0.0-13.0-1.3,12072,List2B,black,man,,,,null,,,,
null,are kissing each other,,html-keyboard-response,64,367039,0.0-13.0-2.3,12072,List2B,black,man,,,,null,,,,
13269,,,survey-text,65,380312,0.0-13.0-3.3,12072,List2B,black,man,,,,,"{""Q0"":""kate is kissing jane ""}","<img src=""stim_listB/kiss8.gif""</stim_listB>",are kissing each other,
null,"<div style=""font-size:60px;"">+</div>",,html-keyboard-response,66,380830,0.0-13.0-0.4,12072,List2B,black,man,,,,null,,,,
null,"<img src=""stim_listB/touch1.gif""</stim_listB>",,html-keyboard-response,67,382847,0.0-13.0-1.4,12072,List2B,black,man,,,,null,,,,
null,is touching,,html-keyboard-response,68,384834,0.0-13.0-2.4,12072,List2B,black,man,,,,null,,,,
9723,,,survey-text,69,394558,0.0-13.0-3.4,12072,List2B,black,man,,,,,"{""Q0"":""dave is touching jane ""}","<img src=""stim_listB/touch1.gif""</stim_listB>",is touching,
null,"<div style=""font-size:60px;"">+</div>",,html-keyboard-response,70,395075,0.0-13.0-0.5,12072,List2B,black,man,,,,null,,,,
null,"<img src=""stim_listB/argue6.gif""</stim_listB>",,html-keyboard-response,71,397096,0.0-13.0-1.5,12072,List2B,black,man,,,,null,,,,
null,are arguing with each other,,html-keyboard-response,72,399096,0.0-13.0-2.5,12072,List2B,black,man,,,,null,,,,
13792,,,survey-text,73,412890,0.0-13.0-3.5,12072,List2B,black,man,,,,,"{""Q0"":""mike is holding luke""}","<img src=""stim_listB/argue6.gif""</stim_listB>",are arguing with each other,
null,"<div style=""font-size:60px;"">+</div>",,html-keyboard-response,74,413409,0.0-13.0-0.6,12072,List2B,black,man,,,,null,,,,
null,"<img src=""stim_listB/fight6.gif""</stim_listB>",,html-keyboard-response,75,415435,0.0-13.0-1.6,12072,List2B,black,man,,,,null,,,,
null,are fighting each other,,html-keyboard-response,76,417416,0.0-13.0-2.6,12072,List2B,black,man,,,,null,,,,
9733,,,survey-text,77,427151,0.0-13.0-3.6,12072,List2B,black,man,,,,,"{""Q0"":""luke is fighting fred""}","<img src=""stim_listB/fight6.gif""</stim_listB>",are fighting each other,
null,"<div style=""font-size:60px;"">+</div>",,html-keyboard-response,78,427665,0.0-13.0-0.7,12072,List2B,black,man,,,,null,,,,
null,"<img src=""stim_listB/fight1.gif""</stim_listB>",,html-keyboard-response,79,429686,0.0-13.0-1.7,12072,List2B,black,man,,,,null,,,,
null,is fighting,,html-keyboard-response,80,431679,0.0-13.0-2.7,12072,List2B,black,man,,,,null,,,,
13297,,,survey-text,81,444979,0.0-13.0-3.7,12072,List2B,black,man,,,,,"{""Q0"":""jane is punching luke""}","<img src=""stim_listB/fight1.gif""</stim_listB>",is fighting,
null,"<div style=""font-size:60px;"">+</div>",,html-keyboard-response,82,445483,0.0-13.0-0.8,12072,List2B,black,man,,,,null,,,,
null,"<img src=""stim_listB/meet4.gif""</stim_listB>",,html-keyboard-response,83,447499,0.0-13.0-1.8,12072,List2B,black,man,,,,null,,,,
null,are meeting each other,,html-keyboard-response,84,449504,0.0-13.0-2.8,12072,List2B,black,man,,,,null,,,,
13359,,,survey-text,85,462866,0.0-13.0-3.8,12072,List2B,black,man,,,,,"{""Q0"":""fred is holding beth""}","<img src=""stim_listB/meet4.gif""</stim_listB>",are meeting each other,
null,"<div style=""font-size:60px;"">+</div>",,html-keyboard-response,86,463386,0.0-13.0-0.9,12072,List2B,black,man,,,,null,,,,
null,"<img src=""stim_listB/argue3.gif""</stim_listB>",,html-keyboard-response,87,465396,0.0-13.0-1.9,12072,List2B,black,man,,,,null,,,,
null,is arguing with,,html-keyboard-response,88,467404,0.0-13.0-2.9,12072,List2B,black,man,,,,null,,,,
10815,,,survey-text,89,478221,0.0-13.0-3.9,12072,List2B,black,man,,,,,"{""Q0"":""mike is arguing with beth""}","<img src=""stim_listB/argue3.gif""</stim_listB>",is arguing with,
null,"<div style=""font-size:60px;"">+</div>",,html-keyboard-response,90,478734,0.0-13.0-0.10,12072,List2B,black,man,,,,null,,,,
null,"<img src=""stim_listB/meet6.gif""</stim_listB>",,html-keyboard-response,91,480750,0.0-13.0-1.10,12072,List2B,black,man,,,,null,,,,
null,are meeting each other,,html-keyboard-response,92,482755,0.0-13.0-2.10,12072,List2B,black,man,,,,null,,,,
6613,,,survey-text,93,489369,0.0-13.0-3.10,12072,List2B,black,man,,,,,"{""Q0"":""luke is meeting fred""}","<img src=""stim_listB/meet6.gif""</stim_listB>",are meeting each other,
null,"<div style=""font-size:60px;"">+</div>",,html-keyboard-response,94,489900,0.0-13.0-0.11,12072,List2B,black,man,,,,null,,,,
null,"<img src=""stim_listB/fight2.gif""</stim_listB>",,html-keyboard-response,95,491925,0.0-13.0-1.11,12072,List2B,black,man,,,,null,,,,
null,are fighting each other,,html-keyboard-response,96,493904,0.0-13.0-2.11,12072,List2B,black,man,,,,null,,,,
24004,,,survey-text,97,517910,0.0-13.0-3.11,12072,List2B,black,man,,,,,"{""Q0"":""mike is arguing with kate""}","<img src=""stim_listB/fight2.gif""</stim_listB>",are fighting each other,
null,"<div style=""font-size:60px;"">+</div>",,html-keyboard-response,98,518427,0.0-13.0-0.12,12072,List2B,black,man,,,,null,,,,
null,"<img src=""stim_listB/dance2.gif""</stim_listB>",,html-keyboard-response,99,520443,0.0-13.0-1.12,12072,List2B,black,man,,,,null,,,,
null,are dancing with each other,,html-keyboard-response,100,522444,0.0-13.0-2.12,12072,List2B,black,man,,,,null,,,,
19032,,,survey-text,101,541479,0.0-13.0-3.12,12072,List2B,black,man,,,,,"{""Q0"":""dave is holding hands with luke""}","<img src=""stim_listB/dance2.gif""</stim_listB>",are dancing with each other,
null,"<div style=""font-size:60px;"">+</div>",,html-keyboard-response,102,541992,0.0-13.0-0.13,12072,List2B,black,man,,,,null,,,,
null,"<img src=""stim_listB/dance1.gif""</stim_listB>",,html-keyboard-response,103,544010,0.0-13.0-1.13,12072,List2B,black,man,,,,null,,,,
null,is dancing with,,html-keyboard-response,104,546019,0.0-13.0-2.13,12072,List2B,black,man,,,,null,,,,
7708,,,survey-text,105,553730,0.0-13.0-3.13,12072,List2B,black,man,,,,,"{""Q0"":""luke is dancing with jane ""}","<img src=""stim_listB/dance1.gif""</stim_listB>",is dancing with,
null,"<div style=""font-size:60px;"">+</div>",,html-keyboard-response,106,554238,0.0-13.0-0.14,12072,List2B,black,man,,,,null,,,,
null,"<img src=""stim_listB/kiss3.gif""</stim_listB>",,html-keyboard-response,107,556253,0.0-13.0-1.14,12072,List2B,black,man,,,,null,,,,
null,is kissing,,html-keyboard-response,108,558248,0.0-13.0-2.14,12072,List2B,black,man,,,,null,,,,
15779,,,survey-text,109,574028,0.0-13.0-3.14,12072,List2B,black,man,,,,,"{""Q0"":""jane is holding with luke ""}","<img src=""stim_listB/kiss3.gif""</stim_listB>",is kissing,
null,"<div style=""font-size:60px;"">+</div>",,html-keyboard-response,110,574531,0.0-13.0-0.15,12072,List2B,black,man,,,,null,,,,
null,"<img src=""stim_listB/marry4.gif""</stim_listB>",,html-keyboard-response,111,576540,0.0-13.0-1.15,12072,List2B,black,man,,,,null,,,,
null,are marrying each other,,html-keyboard-response,112,578547,0.0-13.0-2.15,12072,List2B,black,man,,,,null,,,,
7315,,,survey-text,113,585864,0.0-13.0-3.15,12072,List2B,black,man,,,,,"{""Q0"":""kate is marrying fred""}","<img src=""stim_listB/marry4.gif""</stim_listB>",are marrying each other,
null,"<div style=""font-size:60px;"">+</div>",,html-keyboard-response,114,586376,0.0-13.0-0.16,12072,List2B,black,man,,,,null,,,,
null,"<img src=""stim_listB/marry1.gif""</stim_listB>",,html-keyboard-response,115,588395,0.0-13.0-1.16,12072,List2B,black,man,,,,null,,,,
null,is marrying,,html-keyboard-response,116,590889,0.0-13.0-2.16,12072,List2B,black,man,,,,null,,,,
92906,,,survey-text,117,683798,0.0-13.0-3.16,12072,List2B,black,man,,,,,"{""Q0"":""mike is holding beth""}","<img src=""stim_listB/marry1.gif""</stim_listB>",is marrying,
null,"<div style=""font-size:60px;"">+</div>",,html-keyboard-response,118,684311,0.0-13.0-0.17,12072,List2B,black,man,,,,null,,,,
null,"<img src=""stim_listB/touch7.gif""</stim_listB>",,html-keyboard-response,119,686328,0.0-13.0-1.17,12072,List2B,black,man,,,,null,,,,
null,is touching,,html-keyboard-response,120,688344,0.0-13.0-2.17,12072,List2B,black,man,,,,null,,,,
10292,,,survey-text,121,698638,0.0-13.0-3.17,12072,List2B,black,man,,,,,"{""Q0"":""kate is touching ruth""}","<img src=""stim_listB/touch7.gif""</stim_listB>",is touching,
null,"<div style=""font-size:60px;"">+</div>",,html-keyboard-response,122,699155,0.0-13.0-0.18,12072,List2B,black,man,,,,null,,,,
null,"<img src=""stim_listB/shout1.gif""</stim_listB>",,html-keyboard-response,123,701174,0.0-13.0-1.18,12072,List2B,black,man,,,,null,,,,
null,is shouting at,,html-keyboard-response,124,703171,0.0-13.0-2.18,12072,List2B,black,man,,,,null,,,,
6633,,,survey-text,125,709807,0.0-13.0-3.18,12072,List2B,black,man,,,,,"{""Q0"":""luke is shouting at jane ""}","<img src=""stim_listB/shout1.gif""</stim_listB>",is shouting at,
null,"<div style=""font-size:60px;"">+</div>",,html-keyboard-response,126,710326,0.0-13.0-0.19,12072,List2B,black,man,,,,null,,,,
null,"<img src=""stim_listB/talk5.gif""</stim_listB>",,html-keyboard-response,127,712338,0.0-13.0-1.19,12072,List2B,black,man,,,,null,,,,
null,is talking to,,html-keyboard-response,128,714333,0.0-13.0-2.19,12072,List2B,black,man,,,,null,,,,
5813,,,survey-text,129,720146,0.0-13.0-3.19,12072,List2B,black,man,,,,,"{""Q0"":""mike is talking to luke ""}","<img src=""stim_listB/talk5.gif""</stim_listB>",is talking to,
4383,"<img src='img/portrait_matrix_list2.JPG' style='width:900px;height:500px;''></img><p>If you have memorised all the portraits and names and are ready to start, press Continue.</p><p><strong>Please note: Your memory of these faces will be tested 4 times during this experiment.</strong></p>",0,html-button-response,130,724532,0.0-14.0-0.0,12072,List2B,black,man,,,,,,,,
13125,"<img src=""portrait/WM1.jpg""style=""width:400px;height:400px;""></img>",6,html-button-response,131,738687,0.0-14.0-1.0,12072,List2B,black,man,,TRUE,6,,,,,
null,CORRECT,,html-keyboard-response,132,740190,0.0-14.0-2.0-0.0,12072,List2B,black,man,,,,null,,,,
4993,"<img src=""portrait/BW1.jpg""style=""width:400px;height:400px;""></img>",0,html-button-response,133,745188,0.0-14.0-4.0,12072,List2B,black,man,,TRUE,0,,,,,
null,CORRECT,,html-keyboard-response,134,746722,0.0-14.0-5.0-0.0,12072,List2B,black,man,,,,null,,,,
29568,"<img src=""portrait/WW1.jpg""style=""width:400px;height:400px;""></img>",3,html-button-response,135,776293,0.0-14.0-7.0,12072,List2B,black,man,,TRUE,1,,,,,
4233,"<img src=""portrait/WW1.jpg""style=""width:400px;height:400px;""></img>",1,html-button-response,136,781529,0.0-14.0-9.0-0.0,12072,List2B,black,man,,FALSE,1,,,,,
null,CORRECT,,html-keyboard-response,137,783061,0.0-14.0-9.0-1.0-0.0,12072,List2B,black,man,,,,null,,,,
10430,"<img src=""portrait/BM1.jpg""style=""width:400px;height:400px;""></img>",1,html-button-response,138,793495,0.0-14.0-10.0,12072,List2B,black,man,,TRUE,4,,,,,
33354,"<img src=""portrait/BM1.jpg""style=""width:400px;height:400px;""></img>",4,html-button-response,139,827862,0.0-14.0-12.0-0.0,12072,List2B,black,man,,FALSE,4,,,,,
null,CORRECT,,html-keyboard-response,140,829387,0.0-14.0-12.0-1.0-0.0,12072,List2B,black,man,,,,null,,,,
4162,"<img src=""portrait/BW2.jpg""style=""width:400px;height:400px;""></img>",2,html-button-response,141,833553,0.0-14.0-13.0,12072,List2B,black,man,,TRUE,2,,,,,
null,CORRECT,,html-keyboard-response,142,835079,0.0-14.0-14.0-0.0,12072,List2B,black,man,,,,null,,,,
12416,"<img src=""portrait/WW2.jpg""style=""width:400px;height:400px;""></img>",3,html-button-response,143,847500,0.0-14.0-16.0,12072,List2B,black,man,,TRUE,3,,,,,
null,CORRECT,,html-keyboard-response,144,849044,0.0-14.0-17.0-0.0,12072,List2B,black,man,,,,null,,,,
4321,"<img src=""portrait/WM2.jpg""style=""width:400px;height:400px;""></img>",7,html-button-response,145,853371,0.0-14.0-19.0,12072,List2B,black,man,,TRUE,7,,,,,
null,CORRECT,,html-keyboard-response,146,854925,0.0-14.0-20.0-0.0,12072,List2B,black,man,,,,null,,,,
2811,"<img src=""portrait/BM2.jpg""style=""width:400px;height:400px;""></img>",5,html-button-response,147,857739,0.0-14.0-22.0,12072,List2B,black,man,,TRUE,5,,,,,
null,CORRECT,,html-keyboard-response,148,859269,0.0-14.0-23.0-0.0,12072,List2B,black,man,,,,null,,,,
24112,<p>You got 6 out of 8 right first time. Press Continue.</p>,0,html-button-response,149,883381,0.0-14.0-25.0,12072,List2B,black,man,,,,,,,,
1052,"As you did not score 100%, the memory game will repeat. Press Continue.",0,html-button-response,150,885452,0.0-14.0-26.0-0.0,12072,List2B,black,man,,,,,,,,
1829,"<img src='img/portrait_matrix_list2.JPG' style='width:900px;height:500px;''></img><p>If you have memorised all the portraits and names and are ready to start, press Continue.</p><p><strong>Please note: Your memory of these faces will be tested 4 times during this experiment.</strong></p>",0,html-button-response,151,888313,0.0-14.1-0.1,12072,List2B,black,man,,,,,,,,
11218,"<img src=""portrait/WM1.jpg""style=""width:400px;height:400px;""></img>",6,html-button-response,152,900558,0.0-14.1-1.1,12072,List2B,black,man,,TRUE,6,,,,,
null,CORRECT,,html-keyboard-response,153,902108,0.0-14.1-2.1-0.1,12072,List2B,black,man,,,,null,,,,
25069,"<img src=""portrait/BW1.jpg""style=""width:400px;height:400px;""></img>",0,html-button-response,154,927177,0.0-14.1-4.1,12072,List2B,black,man,,TRUE,0,,,,,
null,CORRECT,,html-keyboard-response,155,928707,0.0-14.1-5.1-0.1,12072,List2B,black,man,,,,null,,,,
13129,"<img src=""portrait/WW1.jpg""style=""width:400px;height:400px;""></img>",1,html-button-response,156,941837,0.0-14.1-7.1,12072,List2B,black,man,,TRUE,1,,,,,
null,CORRECT,,html-keyboard-response,157,943361,0.0-14.1-8.1-0.1,12072,List2B,black,man,,,,null,,,,
4648,"<img src=""portrait/BM1.jpg""style=""width:400px;height:400px;""></img>",4,html-button-response,158,948016,0.0-14.1-10.1,12072,List2B,black,man,,TRUE,4,,,,,
null,CORRECT,,html-keyboard-response,159,949551,0.0-14.1-11.1-0.1,12072,List2B,black,man,,,,null,,,,
3092,"<img src=""portrait/BW2.jpg""style=""width:400px;height:400px;""></img>",2,html-button-response,160,952646,0.0-14.1-13.1,12072,List2B,black,man,,TRUE,2,,,,,
null,CORRECT,,html-keyboard-response,161,954158,0.0-14.1-14.1-0.1,12072,List2B,black,man,,,,null,,,,
5074,"<img src=""portrait/WW2.jpg""style=""width:400px;height:400px;""></img>",3,html-button-response,162,959237,0.0-14.1-16.1,12072,List2B,black,man,,TRUE,3,,,,,
null,CORRECT,,html-keyboard-response,163,960761,0.0-14.1-17.1-0.1,12072,List2B,black,man,,,,null,,,,
6275,"<img src=""portrait/WM2.jpg""style=""width:400px;height:400px;""></img>",7,html-button-response,164,967039,0.0-14.1-19.1,12072,List2B,black,man,,TRUE,7,,,,,
null,CORRECT,,html-keyboard-response,165,968559,0.0-14.1-20.1-0.1,12072,List2B,black,man,,,,null,,,,
3371,"<img src=""portrait/BM2.jpg""style=""width:400px;height:400px;""></img>",5,html-button-response,166,971932,0.0-14.1-22.1,12072,List2B,black,man,,TRUE,5,,,,,
null,CORRECT,,html-keyboard-response,167,973459,0.0-14.1-23.1-0.1,12072,List2B,black,man,,,,null,,,,
1503,<p>You got 8 out of 8 right first time. Press Continue.</p>,0,html-button-response,168,974965,0.0-14.1-25.1,12072,List2B,black,man,,,,,,,,
null,"<div style=""font-size:60px;"">+</div>",,html-keyboard-response,169,976488,0.0-15.0-0.0,12072,List2B,black,man,,,,null,,,,
null,"<img src=""stim_listB/dance3.gif""</stim_listB>",,html-keyboard-response,170,978503,0.0-15.0-1.0,12072,List2B,black,man,,,,null,,,,
null,is dancing with,,html-keyboard-response,171,980507,0.0-15.0-2.0,12072,List2B,black,man,,,,null,,,,
230051,,,survey-text,172,1210561,0.0-15.0-3.0,12072,List2B,black,man,,,,,"{""Q0"":""beth is holding jane ""}","<img src=""stim_listB/dance3.gif""</stim_listB>",is dancing with,
null,"<div style=""font-size:60px;"">+</div>",,html-keyboard-response,173,1211071,0.0-15.0-0.1,12072,List2B,black,man,,,,null,,,,
null,"<img src=""stim_listB/fight3.gif""</stim_listB>",,html-keyboard-response,174,1213076,0.0-15.0-1.1,12072,List2B,black,man,,,,null,,,,
null,is fighting,,html-keyboard-response,175,1215086,0.0-15.0-2.1,12072,List2B,black,man,,,,null,,,,
26428,,,survey-text,176,1241518,0.0-15.0-3.1,12072,List2B,black,man,,,,,"{""Q0"":""luke is fighting beth""}","<img src=""stim_listB/fight3.gif""</stim_listB>",is fighting,
null,"<div style=""font-size:60px;"">+</div>",,html-keyboard-response,177,1242039,0.0-15.0-0.2,12072,List2B,black,man,,,,null,,,,
null,"<img src=""stim_listB/meet2.gif""</stim_listB>",,html-keyboard-response,178,1244047,0.0-15.0-1.2,12072,List2B,black,man,,,,null,,,,
null,are meeting each other,,html-keyboard-response,179,1246059,0.0-15.0-2.2,12072,List2B,black,man,,,,null,,,,
5920,,,survey-text,180,1251981,0.0-15.0-3.2,12072,List2B,black,man,,,,,"{""Q0"":""luke is holding beth""}","<img src=""stim_listB/meet2.gif""</stim_listB>",are meeting each other,
null,"<div style=""font-size:60px;"">+</div>",,html-keyboard-response,181,1252489,0.0-15.0-0.3,12072,List2B,black,man,,,,null,,,,
null,"<img src=""stim_listB/kiss5.gif""</stim_listB>",,html-keyboard-response,182,1254502,0.0-15.0-1.3,12072,List2B,black,man,,,,null,,,,
null,is kissing,,html-keyboard-response,183,1256492,0.0-15.0-2.3,12072,List2B,black,man,,,,null,,,,
8432,,,survey-text,184,1264926,0.0-15.0-3.3,12072,List2B,black,man,,,,,"{""Q0"":""luke is kissing fred""}","<img src=""stim_listB/kiss5.gif""</stim_listB>",is kissing,
null,"<div style=""font-size:60px;"">+</div>",,html-keyboard-response,185,1265445,0.0-15.0-0.4,12072,List2B,black,man,,,,null,,,,
null,"<img src=""stim_listB/hug4.gif""</stim_listB>",,html-keyboard-response,186,1267456,0.0-15.0-1.4,12072,List2B,black,man,,,,null,,,,
null,are hugging each other,,html-keyboard-response,187,1269456,0.0-15.0-2.4,12072,List2B,black,man,,,,null,,,,
7759,,,survey-text,188,1277220,0.0-15.0-3.4,12072,List2B,black,man,,,,,"{""Q0"":""mike is hugging kate ""}","<img src=""stim_listB/hug4.gif""</stim_listB>",are hugging each other,
null,"<div style=""font-size:60px;"">+</div>",,html-keyboard-response,189,1277740,0.0-15.0-0.5,12072,List2B,black,man,,,,null,,,,
null,"<img src=""stim_listB/marry2.gif""</stim_listB>",,html-keyboard-response,190,1279753,0.0-15.0-1.5,12072,List2B,black,man,,,,null,,,,
null,are marrying each other,,html-keyboard-response,191,1281749,0.0-15.0-2.5,12072,List2B,black,man,,,,null,,,,
7905,,,survey-text,192,1289657,0.0-15.0-3.5,12072,List2B,black,man,,,,,"{""Q0"":""luke is marrying jane ""}","<img src=""stim_listB/marry2.gif""</stim_listB>",are marrying each other,
null,"<div style=""font-size:60px;"">+</div>",,html-keyboard-response,193,1290179,0.0-15.0-0.6,12072,List2B,black,man,,,,null,,,,
null,"<img src=""stim_listB/kiss1.gif""</stim_listB>",,html-keyboard-response,194,1292189,0.0-15.0-1.6,12072,List2B,black,man,,,,null,,,,
null,is kissing,,html-keyboard-response,195,1294206,0.0-15.0-2.6,12072,List2B,black,man,,,,null,,,,
75408,,,survey-text,196,1369620,0.0-15.0-3.6,12072,List2B,black,man,,,,,"{""Q0"":""mike is fighting jane ""}","<img src=""stim_listB/kiss1.gif""</stim_listB>",is kissing,
null,"<div style=""font-size:60px;"">+</div>",,html-keyboard-response,197,1370141,0.0-15.0-0.7,12072,List2B,black,man,,,,null,,,,
null,"<img src=""stim_listB/meet5.gif""</stim_listB>",,html-keyboard-response,198,1372157,0.0-15.0-1.7,12072,List2B,black,man,,,,null,,,,
null,is meeting,,html-keyboard-response,199,1374167,0.0-15.0-2.7,12072,List2B,black,man,,,,null,,,,
6343,,,survey-text,200,1380510,0.0-15.0-3.7,12072,List2B,black,man,,,,,"{""Q0"":""mike is meeting dave ""}","<img src=""stim_listB/meet5.gif""</stim_listB>",is meeting,
null,"<div style=""font-size:60px;"">+</div>",,html-keyboard-response,201,1381028,0.0-15.0-0.8,12072,List2B,black,man,,,,null,,,,
null,"<img src=""stim_listB/argue5.gif""</stim_listB>",,html-keyboard-response,202,1383034,0.0-15.0-1.8,12072,List2B,black,man,,,,null,,,,
null,is arguing with,,html-keyboard-response,203,1385029,0.0-15.0-2.8,12072,List2B,black,man,,,,null,,,,
7860,,,survey-text,204,1392894,0.0-15.0-3.8,12072,List2B,black,man,,,,,"{""Q0"":""mike is arguing with dave ""}","<img src=""stim_listB/argue5.gif""</stim_listB>",is arguing with,
null,"<div style=""font-size:60px;"">+</div>",,html-keyboard-response,205,1393407,0.0-15.0-0.9,12072,List2B,black,man,,,,null,,,,
null,"<img src=""stim_listB/shout5.gif""</stim_listB>",,html-keyboard-response,206,1395413,0.0-15.0-1.9,12072,List2B,black,man,,,,null,,,,
null,is shouting at,,html-keyboard-response,207,1397409,0.0-15.0-2.9,12072,List2B,black,man,,,,null,,,,
6147,,,survey-text,208,1403557,0.0-15.0-3.9,12072,List2B,black,man,,,,,"{""Q0"":""luke is shouting at fred""}","<img src=""stim_listB/shout5.gif""</stim_listB>",is shouting at,
null,"<div style=""font-size:60px;"">+</div>",,html-keyboard-response,209,1404077,0.0-15.0-0.10,12072,List2B,black,man,,,,null,,,,
null,"<img src=""stim_listB/dance6.gif""</stim_listB>",,html-keyboard-response,210,1406092,0.0-15.0-1.10,12072,List2B,black,man,,,,null,,,,
null,are dancing with each other,,html-keyboard-response,211,1408098,0.0-15.0-2.10,12072,List2B,black,man,,,,null,,,,
8059,,,survey-text,212,1416157,0.0-15.0-3.10,12072,List2B,black,man,,,,,"{""Q0"":""fred is dancing with dave ""}","<img src=""stim_listB/dance6.gif""</stim_listB>",are dancing with each other,
null,"<div style=""font-size:60px;"">+</div>",,html-keyboard-response,213,1416670,0.0-15.0-0.11,12072,List2B,black,man,,,,null,,,,
null,"<img src=""stim_listB/kiss6.gif""</stim_listB>",,html-keyboard-response,214,1418686,0.0-15.0-1.11,12072,List2B,black,man,,,,null,,,,
null,are kissing each other,,html-keyboard-response,215,1420681,0.0-15.0-2.11,12072,List2B,black,man,,,,null,,,,
8977,,,survey-text,216,1429659,0.0-15.0-3.11,12072,List2B,black,man,,,,,"{""Q0"":""beth and mike are kissing each ote r""}","<img src=""stim_listB/kiss6.gif""</stim_listB>",are kissing each other,
null,"<div style=""font-size:60px;"">+</div>",,html-keyboard-response,217,1430174,0.0-15.0-0.12,12072,List2B,black,man,,,,null,,,,
null,"<img src=""stim_listB/kiss7.gif""</stim_listB>",,html-keyboard-response,218,1432190,0.0-15.0-1.12,12072,List2B,black,man,,,,null,,,,
null,is kissing,,html-keyboard-response,219,1434205,0.0-15.0-2.12,12072,List2B,black,man,,,,null,,,,
6928,,,survey-text,220,1441135,0.0-15.0-3.12,12072,List2B,black,man,,,,,"{""Q0"":""beth is kissing jane ""}","<img src=""stim_listB/kiss7.gif""</stim_listB>",is kissing,
null,"<div style=""font-size:60px;"">+</div>",,html-keyboard-response,221,1441642,0.0-15.0-0.13,12072,List2B,black,man,,,,null,,,,
null,"<img src=""stim_listB/talk8.gif""</stim_listB>",,html-keyboard-response,222,1443654,0.0-15.0-1.13,12072,List2B,black,man,,,,null,,,,
null,are talking to each other,,html-keyboard-response,223,1445675,0.0-15.0-2.13,12072,List2B,black,man,,,,null,,,,
12535,,,survey-text,224,1458213,0.0-15.0-3.13,12072,List2B,black,man,,,,,"{""Q0"":""beth and jane are tlking to each other""}","<img src=""stim_listB/talk8.gif""</stim_listB>",are talking to each other,
null,"<div style=""font-size:60px;"">+</div>",,html-keyboard-response,225,1458728,0.0-15.0-0.14,12072,List2B,black,man,,,,null,,,,
null,"<img src=""stim_listB/kiss4.gif""</stim_listB>",,html-keyboard-response,226,1460739,0.0-15.0-1.14,12072,List2B,black,man,,,,null,,,,
null,are kissing each other,,html-keyboard-response,227,1462745,0.0-15.0-2.14,12072,List2B,black,man,,,,null,,,,
6917,,,survey-text,228,1469666,0.0-15.0-3.14,12072,List2B,black,man,,,,,"{""Q0"":""luke is kissing mike ""}","<img src=""stim_listB/kiss4.gif""</stim_listB>",are kissing each other,
null,"<div style=""font-size:60px;"">+</div>",,html-keyboard-response,229,1470179,0.0-15.0-0.15,12072,List2B,black,man,,,,null,,,,
null,"<img src=""stim_listB/meet1.gif""</stim_listB>",,html-keyboard-response,230,1472194,0.0-15.0-1.15,12072,List2B,black,man,,,,null,,,,
null,is meeting,,html-keyboard-response,231,1474203,0.0-15.0-2.15,12072,List2B,black,man,,,,null,,,,
13542,,,survey-text,232,1487748,0.0-15.0-3.15,12072,List2B,black,man,,,,,"{""Q0"":""fred is meeting dave ""}","<img src=""stim_listB/meet1.gif""</stim_listB>",is meeting,
null,"<div style=""font-size:60px;"">+</div>",,html-keyboard-response,233,1488258,0.0-15.0-0.16,12072,List2B,black,man,,,,null,,,,
null,"<img src=""stim_listB/meet3.gif""</stim_listB>",,html-keyboard-response,234,1490280,0.0-15.0-1.16,12072,List2B,black,man,,,,null,,,,
null,is meeting,,html-keyboard-response,235,1492275,0.0-15.0-2.16,12072,List2B,black,man,,,,null,,,,
7775,,,survey-text,236,1500054,0.0-15.0-3.16,12072,List2B,black,man,,,,,"{""Q0"":""kate is meeting mike""}","<img src=""stim_listB/meet3.gif""</stim_listB>",is meeting,
null,"<div style=""font-size:60px;"">+</div>",,html-keyboard-response,237,1500564,0.0-15.0-0.17,12072,List2B,black,man,,,,null,,,,
null,"<img src=""stim_listB/dance7.gif""</stim_listB>",,html-keyboard-response,238,1502595,0.0-15.0-1.17,12072,List2B,black,man,,,,null,,,,
null,is dancing with,,html-keyboard-response,239,1504583,0.0-15.0-2.17,12072,List2B,black,man,,,,null,,,,
11900,,,survey-text,240,1516487,0.0-15.0-3.17,12072,List2B,black,man,,,,,"{""Q0"":""kate is dancing with ruth""}","<img src=""stim_listB/dance7.gif""</stim_listB>",is dancing with,
null,"<div style=""font-size:60px;"">+</div>",,html-keyboard-response,241,1517005,0.0-15.0-0.18,12072,List2B,black,man,,,,null,,,,
null,"<img src=""stim_listB/argue2.gif""</stim_listB>",,html-keyboard-response,242,1519033,0.0-15.0-1.18,12072,List2B,black,man,,,,null,,,,
null,are arguing with each other,,html-keyboard-response,243,1521017,0.0-15.0-2.18,12072,List2B,black,man,,,,null,,,,
7668,,,survey-text,244,1528687,0.0-15.0-3.18,12072,List2B,black,man,,,,,"{""Q0"":""luke is fighting with jane ""}","<img src=""stim_listB/argue2.gif""</stim_listB>",are arguing with each other,
null,"<div style=""font-size:60px;"">+</div>",,html-keyboard-response,245,1529199,0.0-15.0-0.19,12072,List2B,black,man,,,,null,,,,
null,"<img src=""stim_listB/meet8.gif""</stim_listB>",,html-keyboard-response,246,1531214,0.0-15.0-1.19,12072,List2B,black,man,,,,null,,,,
null,are meeting each other,,html-keyboard-response,247,1533210,0.0-15.0-2.19,12072,List2B,black,man,,,,null,,,,
12382,,,survey-text,248,1545594,0.0-15.0-3.19,12072,List2B,black,man,,,,,"{""Q0"":""jane is meeting beth""}","<img src=""stim_listB/meet8.gif""</stim_listB>",are meeting each other,
4952,"<img src='img/portrait_matrix_list2.JPG' style='width:900px;height:500px;''></img><p>If you have memorised all the portraits and names and are ready to start, press Continue.</p><p><strong>Please note: Your memory of these faces will be tested 4 times during this experiment.</strong></p>",0,html-button-response,249,1550547,0.0-16.0-0.0,12072,List2B,black,man,,,,,,,,
3165,"<img src=""portrait/BM2.jpg""style=""width:400px;height:400px;""></img>",5,html-button-response,250,1554733,0.0-16.0-1.0,12072,List2B,black,man,,TRUE,5,,,,,
null,CORRECT,,html-keyboard-response,251,1556248,0.0-16.0-2.0-0.0,12072,List2B,black,man,,,,null,,,,
4251,"<img src=""portrait/WM2.jpg""style=""width:400px;height:400px;""></img>",7,html-button-response,252,1560504,0.0-16.0-4.0,12072,List2B,black,man,,TRUE,7,,,,,
null,CORRECT,,html-keyboard-response,253,1562042,0.0-16.0-5.0-0.0,12072,List2B,black,man,,,,null,,,,
3565,"<img src=""portrait/WM1.jpg""style=""width:400px;height:400px;""></img>",6,html-button-response,254,1565610,0.0-16.0-7.0,12072,List2B,black,man,,TRUE,6,,,,,
null,CORRECT,,html-keyboard-response,255,1567145,0.0-16.0-8.0-0.0,12072,List2B,black,man,,,,null,,,,
2749,"<img src=""portrait/BW2.jpg""style=""width:400px;height:400px;""></img>",2,html-button-response,256,1569896,0.0-16.0-10.0,12072,List2B,black,man,,TRUE,2,,,,,
null,CORRECT,,html-keyboard-response,257,1571420,0.0-16.0-11.0-0.0,12072,List2B,black,man,,,,null,,,,
7267,"<img src=""portrait/WW1.jpg""style=""width:400px;height:400px;""></img>",1,html-button-response,258,1578691,0.0-16.0-13.0,12072,List2B,black,man,,TRUE,1,,,,,
null,CORRECT,,html-keyboard-response,259,1580231,0.0-16.0-14.0-0.0,12072,List2B,black,man,,,,null,,,,
2715,"<img src=""portrait/BW1.jpg""style=""width:400px;height:400px;""></img>",0,html-button-response,260,1582948,0.0-16.0-16.0,12072,List2B,black,man,,TRUE,0,,,,,
null,CORRECT,,html-keyboard-response,261,1584478,0.0-16.0-17.0-0.0,12072,List2B,black,man,,,,null,,,,
2599,"<img src=""portrait/WW2.jpg""style=""width:400px;height:400px;""></img>",3,html-button-response,262,1587082,0.0-16.0-19.0,12072,List2B,black,man,,TRUE,3,,,,,
null,CORRECT,,html-keyboard-response,263,1588616,0.0-16.0-20.0-0.0,12072,List2B,black,man,,,,null,,,,
6297,"<img src=""portrait/BM1.jpg""style=""width:400px;height:400px;""></img>",4,html-button-response,264,1594920,0.0-16.0-22.0,12072,List2B,black,man,,TRUE,4,,,,,
null,CORRECT,,html-keyboard-response,265,1596466,0.0-16.0-23.0-0.0,12072,List2B,black,man,,,,null,,,,
2010,<p>You got 8 out of 8 right first time. Press Continue.</p>,0,html-button-response,266,1598478,0.0-16.0-25.0,12072,List2B,black,man,,,,,,,,
null,"<div style=""font-size:60px;"">+</div>",,html-keyboard-response,267,1600024,0.0-17.0-0.0,12072,List2B,black,man,,,,null,,,,
null,"<img src=""stim_listB/touch8.gif""</stim_listB>",,html-keyboard-response,268,1602038,0.0-17.0-1.0,12072,List2B,black,man,,,,null,,,,
null,are touching each other,,html-keyboard-response,269,1604060,0.0-17.0-2.0,12072,List2B,black,man,,,,null,,,,
14348,,,survey-text,270,1618411,0.0-17.0-3.0,12072,List2B,black,man,,,,,"{""Q0"":""beth and ruth are touching each other""}","<img src=""stim_listB/touch8.gif""</stim_listB>",are touching each other,
null,"<div style=""font-size:60px;"">+</div>",,html-keyboard-response,271,1618924,0.0-17.0-0.1,12072,List2B,black,man,,,,null,,,,
null,"<img src=""stim_listB/dance8.gif""</stim_listB>",,html-keyboard-response,272,1620946,0.0-17.0-1.1,12072,List2B,black,man,,,,null,,,,
null,are dancing with each other,,html-keyboard-response,273,1622930,0.0-17.0-2.1,12072,List2B,black,man,,,,null,,,,
11294,,,survey-text,274,1634229,0.0-17.0-3.1,12072,List2B,black,man,,,,,"{""Q0"":""beth and ruth are dancing ""}","<img src=""stim_listB/dance8.gif""</stim_listB>",are dancing with each other,
null,"<div style=""font-size:60px;"">+</div>",,html-keyboard-response,275,1634734,0.0-17.0-0.2,12072,List2B,black,man,,,,null,,,,
null,"<img src=""stim_listB/marry7.gif""</stim_listB>",,html-keyboard-response,276,1636756,0.0-17.0-1.2,12072,List2B,black,man,,,,null,,,,
null,is marrying,,html-keyboard-response,277,1638740,0.0-17.0-2.2,12072,List2B,black,man,,,,null,,,,
6008,,,survey-text,278,1644753,0.0-17.0-3.2,12072,List2B,black,man,,,,,"{""Q0"":""beth is marrying jane ""}","<img src=""stim_listB/marry7.gif""</stim_listB>",is marrying,
null,"<div style=""font-size:60px;"">+</div>",,html-keyboard-response,279,1645267,0.0-17.0-0.3,12072,List2B,black,man,,,,null,,,,
null,"<img src=""stim_listB/argue4.gif""</stim_listB>",,html-keyboard-response,280,1647274,0.0-17.0-1.3,12072,List2B,black,man,,,,null,,,,
null,are arguing with each other,,html-keyboard-response,281,1649277,0.0-17.0-2.3,12072,List2B,black,man,,,,null,,,,
8567,,,survey-text,282,1657845,0.0-17.0-3.3,12072,List2B,black,man,,,,,"{""Q0"":""fred is arguing with kate ""}","<img src=""stim_listB/argue4.gif""</stim_listB>",are arguing with each other,
null,"<div style=""font-size:60px;"">+</div>",,html-keyboard-response,283,1658363,0.0-17.0-0.4,12072,List2B,black,man,,,,null,,,,
null,"<img src=""stim_listB/talk6.gif""</stim_listB>",,html-keyboard-response,284,1660391,0.0-17.0-1.4,12072,List2B,black,man,,,,null,,,,
null,are talking to each other,,html-keyboard-response,285,1662392,0.0-17.0-2.4,12072,List2B,black,man,,,,null,,,,
6905,,,survey-text,286,1669300,0.0-17.0-3.4,12072,List2B,black,man,,,,,"{""Q0"":""fred is talking to dave ""}","<img src=""stim_listB/talk6.gif""</stim_listB>",are talking to each other,
null,"<div style=""font-size:60px;"">+</div>",,html-keyboard-response,287,1669825,0.0-17.0-0.5,12072,List2B,black,man,,,,null,,,,
null,"<img src=""stim_listB/talk3.gif""</stim_listB>",,html-keyboard-response,288,1671846,0.0-17.0-1.5,12072,List2B,black,man,,,,null,,,,
null,is talking to,,html-keyboard-response,289,1673829,0.0-17.0-2.5,12072,List2B,black,man,,,,null,,,,
8696,,,survey-text,290,1682527,0.0-17.0-3.5,12072,List2B,black,man,,,,,"{""Q0"":""kate is talking to fred""}","<img src=""stim_listB/talk3.gif""</stim_listB>",is talking to,
null,"<div style=""font-size:60px;"">+</div>",,html-keyboard-response,291,1683043,0.0-17.0-0.6,12072,List2B,black,man,,,,null,,,,
null,"<img src=""stim_listB/dance5.gif""</stim_listB>",,html-keyboard-response,292,1685071,0.0-17.0-1.6,12072,List2B,black,man,,,,null,,,,
null,is dancing with,,html-keyboard-response,293,1687064,0.0-17.0-2.6,12072,List2B,black,man,,,,null,,,,
6620,,,survey-text,294,1693687,0.0-17.0-3.6,12072,List2B,black,man,,,,,"{""Q0"":""luke is dancing with mike""}","<img src=""stim_listB/dance5.gif""</stim_listB>",is dancing with,
null,"<div style=""font-size:60px;"">+</div>",,html-keyboard-response,295,1694190,0.0-17.0-0.7,12072,List2B,black,man,,,,null,,,,
null,"<img src=""stim_listB/touch4.gif""</stim_listB>",,html-keyboard-response,296,1696217,0.0-17.0-1.7,12072,List2B,black,man,,,,null,,,,
null,are touching each other,,html-keyboard-response,297,1698203,0.0-17.0-2.7,12072,List2B,black,man,,,,null,,,,
7744,,,survey-text,298,1705949,0.0-17.0-3.7,12072,List2B,black,man,,,,,"{""Q0"":""fred is touching luke""}","<img src=""stim_listB/touch4.gif""</stim_listB>",are touching each other,
null,"<div style=""font-size:60px;"">+</div>",,html-keyboard-response,299,1706477,0.0-17.0-0.8,12072,List2B,black,man,,,,null,,,,
null,"<img src=""stim_listB/shout4.gif""</stim_listB>",,html-keyboard-response,300,1708497,0.0-17.0-1.8,12072,List2B,black,man,,,,null,,,,
null,are shouting at each other,,html-keyboard-response,301,1710488,0.0-17.0-2.8,12072,List2B,black,man,,,,null,,,,
7704,,,survey-text,302,1718193,0.0-17.0-3.8,12072,List2B,black,man,,,,,"{""Q0"":""kate is shouting at luke ""}","<img src=""stim_listB/shout4.gif""</stim_listB>",are shouting at each other,
null,"<div style=""font-size:60px;"">+</div>",,html-keyboard-response,303,1718719,0.0-17.0-0.9,12072,List2B,black,man,,,,null,,,,
null,"<img src=""stim_listB/dance4.gif""</stim_listB>",,html-keyboard-response,304,1720743,0.0-17.0-1.9,12072,List2B,black,man,,,,null,,,,
null,are dancing with each other,,html-keyboard-response,305,1722745,0.0-17.0-2.9,12072,List2B,black,man,,,,null,,,,
12404,,,survey-text,306,1735151,0.0-17.0-3.9,12072,List2B,black,man,,,,,"{""Q0"":""luke is dancing with mike""}","<img src=""stim_listB/dance4.gif""</stim_listB>",are dancing with each other,
null,"<div style=""font-size:60px;"">+</div>",,html-keyboard-response,307,1735686,0.0-17.0-0.10,12072,List2B,black,man,,,,null,,,,
null,"<img src=""stim_listB/touch6.gif""</stim_listB>",,html-keyboard-response,308,1737702,0.0-17.0-1.10,12072,List2B,black,man,,,,null,,,,
null,are touching each other,,html-keyboard-response,309,1739687,0.0-17.0-2.10,12072,List2B,black,man,,,,null,,,,
7549,,,survey-text,310,1747241,0.0-17.0-3.10,12072,List2B,black,man,,,,,"{""Q0"":""luke is touching mike""}","<img src=""stim_listB/touch6.gif""</stim_listB>",are touching each other,
null,"<div style=""font-size:60px;"">+</div>",,html-keyboard-response,311,1747759,0.0-17.0-0.11,12072,List2B,black,man,,,,null,,,,
null,"<img src=""stim_listB/shout7.gif""</stim_listB>",,html-keyboard-response,312,1749783,0.0-17.0-1.11,12072,List2B,black,man,,,,null,,,,
null,is shouting at,,html-keyboard-response,313,1751766,0.0-17.0-2.11,12072,List2B,black,man,,,,null,,,,
7735,,,survey-text,314,1759504,0.0-17.0-3.11,12072,List2B,black,man,,,,,"{""Q0"":""beth is shouting at ruth""}","<img src=""stim_listB/shout7.gif""</stim_listB>",is shouting at,
null,"<div style=""font-size:60px;"">+</div>",,html-keyboard-response,315,1760024,0.0-17.0-0.12,12072,List2B,black,man,,,,null,,,,
null,"<img src=""stim_listB/hug3.gif""</stim_listB>",,html-keyboard-response,316,1762042,0.0-17.0-1.12,12072,List2B,black,man,,,,null,,,,
null,is hugging,,html-keyboard-response,317,1764044,0.0-17.0-2.12,12072,List2B,black,man,,,,null,,,,
10003,,,survey-text,318,1774051,0.0-17.0-3.12,12072,List2B,black,man,,,,,"{""Q0"":""beth is hugging ruth""}","<img src=""stim_listB/hug3.gif""</stim_listB>",is hugging,
null,"<div style=""font-size:60px;"">+</div>",,html-keyboard-response,319,1774569,0.0-17.0-0.13,12072,List2B,black,man,,,,null,,,,
null,"<img src=""stim_listB/shout8.gif""</stim_listB>",,html-keyboard-response,320,1776593,0.0-17.0-1.13,12072,List2B,black,man,,,,null,,,,
null,are shouting at each other,,html-keyboard-response,321,1778593,0.0-17.0-2.13,12072,List2B,black,man,,,,null,,,,
11502,,,survey-text,322,1790097,0.0-17.0-3.13,12072,List2B,black,man,,,,,"{""Q0"":""ruth is shouting at kate ""}","<img src=""stim_listB/shout8.gif""</stim_listB>",are shouting at each other,
null,"<div style=""font-size:60px;"">+</div>",,html-keyboard-response,323,1790615,0.0-17.0-0.14,12072,List2B,black,man,,,,null,,,,
null,"<img src=""stim_listB/touch2.gif""</stim_listB>",,html-keyboard-response,324,1792864,0.0-17.0-1.14,12072,List2B,black,man,,,,null,,,,
null,are touching each other,,html-keyboard-response,325,1794847,0.0-17.0-2.14,12072,List2B,black,man,,,,null,,,,
10102,,,survey-text,326,1804953,0.0-17.0-3.14,12072,List2B,black,man,,,,,"{""Q0"":""mike is holding beth ""}","<img src=""stim_listB/touch2.gif""</stim_listB>",are touching each other,
null,"<div style=""font-size:60px;"">+</div>",,html-keyboard-response,327,1805478,0.0-17.0-0.15,12072,List2B,black,man,,,,null,,,,
null,"<img src=""stim_listB/talk7.gif""</stim_listB>",,html-keyboard-response,328,1807493,0.0-17.0-1.15,12072,List2B,black,man,,,,null,,,,
null,is talking to,,html-keyboard-response,329,1809497,0.0-17.0-2.15,12072,List2B,black,man,,,,null,,,,
9914,,,survey-text,330,1819414,0.0-17.0-3.15,12072,List2B,black,man,,,,,"{""Q0"":""ruth is talking kate ""}","<img src=""stim_listB/talk7.gif""</stim_listB>",is talking to,
null,"<div style=""font-size:60px;"">+</div>",,html-keyboard-response,331,1819937,0.0-17.0-0.16,12072,List2B,black,man,,,,null,,,,
null,"<img src=""stim_listB/marry5.gif""</stim_listB>",,html-keyboard-response,332,1821943,0.0-17.0-1.16,12072,List2B,black,man,,,,null,,,,
null,is marrying,,html-keyboard-response,333,1823957,0.0-17.0-2.16,12072,List2B,black,man,,,,null,,,,
14386,,,survey-text,334,1838347,0.0-17.0-3.16,12072,List2B,black,man,,,,,"{""Q0"":""ruth is holding beth""}","<img src=""stim_listB/marry5.gif""</stim_listB>",is marrying,
null,"<div style=""font-size:60px;"">+</div>",,html-keyboard-response,335,1838860,0.0-17.0-0.17,12072,List2B,black,man,,,,null,,,,
null,"<img src=""stim_listB/talk1.gif""</stim_listB>",,html-keyboard-response,336,1840882,0.0-17.0-1.17,12072,List2B,black,man,,,,null,,,,
null,is talking to,,html-keyboard-response,337,1842876,0.0-17.0-2.17,12072,List2B,black,man,,,,null,,,,
7149,,,survey-text,338,1850028,0.0-17.0-3.17,12072,List2B,black,man,,,,,"{""Q0"":""luke is talking to beth""}","<img src=""stim_listB/talk1.gif""</stim_listB>",is talking to,
null,"<div style=""font-size:60px;"">+</div>",,html-keyboard-response,339,1850542,0.0-17.0-0.18,12072,List2B,black,man,,,,null,,,,
null,"<img src=""stim_listB/meet7.gif""</stim_listB>",,html-keyboard-response,340,1852571,0.0-17.0-1.18,12072,List2B,black,man,,,,null,,,,
null,is meeting,,html-keyboard-response,341,1854547,0.0-17.0-2.18,12072,List2B,black,man,,,,null,,,,
7917,,,survey-text,342,1862467,0.0-17.0-3.18,12072,List2B,black,man,,,,,"{""Q0"":""kate is ruth""}","<img src=""stim_listB/meet7.gif""</stim_listB>",is meeting,
null,"<div style=""font-size:60px;"">+</div>",,html-keyboard-response,343,1862990,0.0-17.0-0.19,12072,List2B,black,man,,,,null,,,,
null,"<img src=""stim_listB/fight7.gif""</stim_listB>",,html-keyboard-response,344,1865024,0.0-17.0-1.19,12072,List2B,black,man,,,,null,,,,
null,is fighting,,html-keyboard-response,345,1867040,0.0-17.0-2.19,12072,List2B,black,man,,,,null,,,,
10644,,,survey-text,346,1877687,0.0-17.0-3.19,12072,List2B,black,man,,,,,"{""Q0"":""mike is figtinh dave ""}","<img src=""stim_listB/fight7.gif""</stim_listB>",is fighting,
1635,"<img src='img/portrait_matrix_list2.JPG' style='width:900px;height:500px;''></img><p>If you have memorised all the portraits and names and are ready to start, press Continue.</p><p><strong>Please note: Your memory of these faces will be tested 4 times during this experiment.</strong></p>",0,html-button-response,347,1879326,0.0-18.0-0.0,12072,List2B,black,man,,,,,,,,
12087,"<img src=""portrait/BW1.jpg""style=""width:400px;height:400px;""></img>",0,html-button-response,348,1892433,0.0-18.0-1.0,12072,List2B,black,man,,TRUE,0,,,,,
null,CORRECT,,html-keyboard-response,349,1893978,0.0-18.0-2.0-0.0,12072,List2B,black,man,,,,null,,,,
21447,"<img src=""portrait/BM1.jpg""style=""width:400px;height:400px;""></img>",4,html-button-response,350,1915427,0.0-18.0-4.0,12072,List2B,black,man,,TRUE,4,,,,,
null,CORRECT,,html-keyboard-response,351,1916963,0.0-18.0-5.0-0.0,12072,List2B,black,man,,,,null,,,,
8971,"<img src=""portrait/BW2.jpg""style=""width:400px;height:400px;""></img>",2,html-button-response,352,1925937,0.0-18.0-7.0,12072,List2B,black,man,,TRUE,2,,,,,
null,CORRECT,,html-keyboard-response,353,1927472,0.0-18.0-8.0-0.0,12072,List2B,black,man,,,,null,,,,
4303,"<img src=""portrait/WW1.jpg""style=""width:400px;height:400px;""></img>",1,html-button-response,354,1931780,0.0-18.0-10.0,12072,List2B,black,man,,TRUE,1,,,,,
null,CORRECT,,html-keyboard-response,355,1933327,0.0-18.0-11.0-0.0,12072,List2B,black,man,,,,null,,,,
2672,"<img src=""portrait/BM2.jpg""style=""width:400px;height:400px;""></img>",5,html-button-response,356,1936006,0.0-18.0-13.0,12072,List2B,black,man,,TRUE,5,,,,,
null,CORRECT,,html-keyboard-response,357,1937542,0.0-18.0-14.0-0.0,12072,List2B,black,man,,,,null,,,,
4343,"<img src=""portrait/WW2.jpg""style=""width:400px;height:400px;""></img>",3,html-button-response,358,1941889,0.0-18.0-16.0,12072,List2B,black,man,,TRUE,3,,,,,
null,CORRECT,,html-keyboard-response,359,1943427,0.0-18.0-17.0-0.0,12072,List2B,black,man,,,,null,,,,
4492,"<img src=""portrait/WM1.jpg""style=""width:400px;height:400px;""></img>",6,html-button-response,360,1947925,0.0-18.0-19.0,12072,List2B,black,man,,TRUE,6,,,,,
null,CORRECT,,html-keyboard-response,361,1949432,0.0-18.0-20.0-0.0,12072,List2B,black,man,,,,null,,,,
2817,"<img src=""portrait/WM2.jpg""style=""width:400px;height:400px;""></img>",7,html-button-response,362,1952253,0.0-18.0-22.0,12072,List2B,black,man,,TRUE,7,,,,,
null,CORRECT,,html-keyboard-response,363,1953769,0.0-18.0-23.0-0.0,12072,List2B,black,man,,,,null,,,,
1534,<p>You got 8 out of 8 right first time. Press Continue.</p>,0,html-button-response,364,1955306,0.0-18.0-25.0,12072,List2B,black,man,,,,,,,,
null,"<div style=""font-size:60px;"">+</div>",,html-keyboard-response,365,1956832,0.0-19.0-0.0,12072,List2B,black,man,,,,null,,,,
null,"<img src=""stim_listB/marry8.gif""</stim_listB>",,html-keyboard-response,366,1958862,0.0-19.0-1.0,12072,List2B,black,man,,,,null,,,,
null,are marrying each other,,html-keyboard-response,367,1960844,0.0-19.0-2.0,12072,List2B,black,man,,,,null,,,,
17734,,,survey-text,368,1978579,0.0-19.0-3.0,12072,List2B,black,man,,,,,"{""Q0"":""ruth is fighting with kate""}","<img src=""stim_listB/marry8.gif""</stim_listB>",are marrying each other,
null,"<div style=""font-size:60px;"">+</div>",,html-keyboard-response,369,1979101,0.0-19.0-0.1,12072,List2B,black,man,,,,null,,,,
null,"<img src=""stim_listB/hug1.gif""</stim_listB>",,html-keyboard-response,370,1981130,0.0-19.0-1.1,12072,List2B,black,man,,,,null,,,,
null,is hugging,,html-keyboard-response,371,1983118,0.0-19.0-2.1,12072,List2B,black,man,,,,null,,,,
9872,,,survey-text,372,1992996,0.0-19.0-3.1,12072,List2B,black,man,,,,,"{""Q0"":""luke is hugging jane ""}","<img src=""stim_listB/hug1.gif""</stim_listB>",is hugging,
null,"<div style=""font-size:60px;"">+</div>",,html-keyboard-response,373,1993520,0.0-19.0-0.2,12072,List2B,black,man,,,,null,,,,
null,"<img src=""stim_listB/shout3.gif""</stim_listB>",,html-keyboard-response,374,1995532,0.0-19.0-1.2,12072,List2B,black,man,,,,null,,,,
null,is shouting at,,html-keyboard-response,375,1997542,0.0-19.0-2.2,12072,List2B,black,man,,,,null,,,,
8453,,,survey-text,376,2005996,0.0-19.0-3.2,12072,List2B,black,man,,,,,"{""Q0"":""beth is shouting at fred ""}","<img src=""stim_listB/shout3.gif""</stim_listB>",is shouting at,
null,"<div style=""font-size:60px;"">+</div>",,html-keyboard-response,377,2006524,0.0-19.0-0.3,12072,List2B,black,man,,,,null,,,,
null,"<img src=""stim_listB/fight4.gif""</stim_listB>",,html-keyboard-response,378,2008530,0.0-19.0-1.3,12072,List2B,black,man,,,,null,,,,
null,are fighting each other,,html-keyboard-response,379,2010545,0.0-19.0-2.3,12072,List2B,black,man,,,,null,,,,
6477,,,survey-text,380,2017027,0.0-19.0-3.3,12072,List2B,black,man,,,,,"{""Q0"":""fred is fighting beth""}","<img src=""stim_listB/fight4.gif""</stim_listB>",are fighting each other,
null,"<div style=""font-size:60px;"">+</div>",,html-keyboard-response,381,2017527,0.0-19.0-0.4,12072,List2B,black,man,,,,null,,,,
null,"<img src=""stim_listB/talk4.gif""</stim_listB>",,html-keyboard-response,382,2019551,0.0-19.0-1.4,12072,List2B,black,man,,,,null,,,,
null,are talking to each other,,html-keyboard-response,383,2021539,0.0-19.0-2.4,12072,List2B,black,man,,,,null,,,,
10514,,,survey-text,384,2032055,0.0-19.0-3.4,12072,List2B,black,man,,,,,"{""Q0"":""beth is speaking to mike ""}","<img src=""stim_listB/talk4.gif""</stim_listB>",are talking to each other,
null,"<div style=""font-size:60px;"">+</div>",,html-keyboard-response,385,2032566,0.0-19.0-0.5,12072,List2B,black,man,,,,null,,,,
null,"<img src=""stim_listB/hug2.gif""</stim_listB>",,html-keyboard-response,386,2034586,0.0-19.0-1.5,12072,List2B,black,man,,,,null,,,,
null,are hugging each other,,html-keyboard-response,387,2036593,0.0-19.0-2.5,12072,List2B,black,man,,,,null,,,,
7439,,,survey-text,388,2044037,0.0-19.0-3.5,12072,List2B,black,man,,,,,"{""Q0"":""jane is hugging dave""}","<img src=""stim_listB/hug2.gif""</stim_listB>",are hugging each other,
null,"<div style=""font-size:60px;"">+</div>",,html-keyboard-response,389,2044558,0.0-19.0-0.6,12072,List2B,black,man,,,,null,,,,
null,"<img src=""stim_listB/touch3.gif""</stim_listB>",,html-keyboard-response,390,2046579,0.0-19.0-1.6,12072,List2B,black,man,,,,null,,,,
null,is touching,,html-keyboard-response,391,2048562,0.0-19.0-2.6,12072,List2B,black,man,,,,null,,,,
7332,,,survey-text,392,2055895,0.0-19.0-3.6,12072,List2B,black,man,,,,,"{""Q0"":""kate is touching mike""}","<img src=""stim_listB/touch3.gif""</stim_listB>",is touching,
null,"<div style=""font-size:60px;"">+</div>",,html-keyboard-response,393,2056409,0.0-19.0-0.7,12072,List2B,black,man,,,,null,,,,
null,"<img src=""stim_listB/hug6.gif""</stim_listB>",,html-keyboard-response,394,2058435,0.0-19.0-1.7,12072,List2B,black,man,,,,null,,,,
null,are hugging each other,,html-keyboard-response,395,2060428,0.0-19.0-2.7,12072,List2B,black,man,,,,null,,,,
8384,,,survey-text,396,2068817,0.0-19.0-3.7,12072,List2B,black,man,,,,,"{""Q0"":""mike is hugging dave""}","<img src=""stim_listB/hug6.gif""</stim_listB>",are hugging each other,
null,"<div style=""font-size:60px;"">+</div>",,html-keyboard-response,397,2069338,0.0-19.0-0.8,12072,List2B,black,man,,,,null,,,,
null,"<img src=""stim_listB/marry6.gif""</stim_listB>",,html-keyboard-response,398,2071360,0.0-19.0-1.8,12072,List2B,black,man,,,,null,,,,
null,are marrying each other,,html-keyboard-response,399,2073874,0.0-19.0-2.8,12072,List2B,black,man,,,,null,,,,
13714,,,survey-text,400,2087593,0.0-19.0-3.8,12072,List2B,black,man,,,,,"{""Q0"":""kate is kissing dave ""}","<img src=""stim_listB/marry6.gif""</stim_listB>",are marrying each other,
null,"<div style=""font-size:60px;"">+</div>",,html-keyboard-response,401,2088098,0.0-19.0-0.9,12072,List2B,black,man,,,,null,,,,
null,"<img src=""stim_listB/fight8.gif""</stim_listB>",,html-keyboard-response,402,2090114,0.0-19.0-1.9,12072,List2B,black,man,,,,null,,,,
null,are fighting each other,,html-keyboard-response,403,2092129,0.0-19.0-2.9,12072,List2B,black,man,,,,null,,,,
11033,,,survey-text,404,2103163,0.0-19.0-3.9,12072,List2B,black,man,,,,,"{""Q0"":""jane is fighting beth""}","<img src=""stim_listB/fight8.gif""</stim_listB>",are fighting each other,
null,"<div style=""font-size:60px;"">+</div>",,html-keyboard-response,405,2103689,0.0-19.0-0.10,12072,List2B,black,man,,,,null,,,,
null,"<img src=""stim_listB/touch5.gif""</stim_listB>",,html-keyboard-response,406,2105702,0.0-19.0-1.10,12072,List2B,black,man,,,,null,,,,
null,is touching,,html-keyboard-response,407,2107692,0.0-19.0-2.10,12072,List2B,black,man,,,,null,,,,
6640,,,survey-text,408,2114336,0.0-19.0-3.10,12072,List2B,black,man,,,,,"{""Q0"":""mike is touching dave ""}","<img src=""stim_listB/touch5.gif""</stim_listB>",is touching,
null,"<div style=""font-size:60px;"">+</div>",,html-keyboard-response,409,2114857,0.0-19.0-0.11,12072,List2B,black,man,,,,null,,,,
null,"<img src=""stim_listB/kiss2.gif""</stim_listB>",,html-keyboard-response,410,2116868,0.0-19.0-1.11,12072,List2B,black,man,,,,null,,,,
null,are kissing each other,,html-keyboard-response,411,2118872,0.0-19.0-2.11,12072,List2B,black,man,,,,null,,,,
8797,,,survey-text,412,2127671,0.0-19.0-3.11,12072,List2B,black,man,,,,,"{""Q0"":""jane is kissing dave ""}","<img src=""stim_listB/kiss2.gif""</stim_listB>",are kissing each other,
null,"<div style=""font-size:60px;"">+</div>",,html-keyboard-response,413,2128188,0.0-19.0-0.12,12072,List2B,black,man,,,,null,,,,
null,"<img src=""stim_listB/argue7.gif""</stim_listB>",,html-keyboard-response,414,2130217,0.0-19.0-1.12,12072,List2B,black,man,,,,null,,,,
null,is arguing with,,html-keyboard-response,415,2132217,0.0-19.0-2.12,12072,List2B,black,man,,,,null,,,,
15088,,,survey-text,416,2147310,0.0-19.0-3.12,12072,List2B,black,man,,,,,"{""Q0"":""beth is arguing wit jane ""}","<img src=""stim_listB/argue7.gif""</stim_listB>",is arguing with,
null,"<div style=""font-size:60px;"">+</div>",,html-keyboard-response,417,2147828,0.0-19.0-0.13,12072,List2B,black,man,,,,null,,,,
null,"<img src=""stim_listB/argue8.gif""</stim_listB>",,html-keyboard-response,418,2149846,0.0-19.0-1.13,12072,List2B,black,man,,,,null,,,,
null,are arguing with each other,,html-keyboard-response,419,2151841,0.0-19.0-2.13,12072,List2B,black,man,,,,null,,,,
14559,,,survey-text,420,2166401,0.0-19.0-3.13,12072,List2B,black,man,,,,,"{""Q0"":""kate is arguing with beth ""}","<img src=""stim_listB/argue8.gif""</stim_listB>",are arguing with each other,
null,"<div style=""font-size:60px;"">+</div>",,html-keyboard-response,421,2166930,0.0-19.0-0.14,12072,List2B,black,man,,,,null,,,,
null,"<img src=""stim_listB/hug8.gif""</stim_listB>",,html-keyboard-response,422,2168952,0.0-19.0-1.14,12072,List2B,black,man,,,,null,,,,
null,are hugging each other,,html-keyboard-response,423,2170942,0.0-19.0-2.14,12072,List2B,black,man,,,,null,,,,
8744,,,survey-text,424,2179689,0.0-19.0-3.14,12072,List2B,black,man,,,,,"{""Q0"":""jane is hugging kate""}","<img src=""stim_listB/hug8.gif""</stim_listB>",are hugging each other,
null,"<div style=""font-size:60px;"">+</div>",,html-keyboard-response,425,2180203,0.0-19.0-0.15,12072,List2B,black,man,,,,null,,,,
null,"<img src=""stim_listB/shout6.gif""</stim_listB>",,html-keyboard-response,426,2182222,0.0-19.0-1.15,12072,List2B,black,man,,,,null,,,,
null,are shouting at each other,,html-keyboard-response,427,2184231,0.0-19.0-2.15,12072,List2B,black,man,,,,null,,,,
12765,,,survey-text,428,2196999,0.0-19.0-3.15,12072,List2B,black,man,,,,,"{""Q0"":""kate is shouting at luke ""}","<img src=""stim_listB/shout6.gif""</stim_listB>",are shouting at each other,
null,"<div style=""font-size:60px;"">+</div>",,html-keyboard-response,429,2197515,0.0-19.0-0.16,12072,List2B,black,man,,,,null,,,,
null,"<img src=""stim_listB/marry3.gif""</stim_listB>",,html-keyboard-response,430,2199539,0.0-19.0-1.16,12072,List2B,black,man,,,,null,,,,
null,is marrying,,html-keyboard-response,431,2201525,0.0-19.0-2.16,12072,List2B,black,man,,,,null,,,,
13260,,,survey-text,432,2214787,0.0-19.0-3.16,12072,List2B,black,man,,,,,"{""Q0"":""jane is marrying fred""}","<img src=""stim_listB/marry3.gif""</stim_listB>",is marrying,
null,"<div style=""font-size:60px;"">+</div>",,html-keyboard-response,433,2215288,0.0-19.0-0.17,12072,List2B,black,man,,,,null,,,,
null,"<img src=""stim_listB/talk2.gif""</stim_listB>",,html-keyboard-response,434,2217297,0.0-19.0-1.17,12072,List2B,black,man,,,,null,,,,
null,are talking to each other,,html-keyboard-response,435,2219307,0.0-19.0-2.17,12072,List2B,black,man,,,,null,,,,
15975,,,survey-text,436,2235285,0.0-19.0-3.17,12072,List2B,black,man,,,,,"{""Q0"":""jane is fighting beth""}","<img src=""stim_listB/talk2.gif""</stim_listB>",are talking to each other,
null,"<div style=""font-size:60px;"">+</div>",,html-keyboard-response,437,2235823,0.0-19.0-0.18,12072,List2B,black,man,,,,null,,,,
null,"<img src=""stim_listB/hug7.gif""</stim_listB>",,html-keyboard-response,438,2237846,0.0-19.0-1.18,12072,List2B,black,man,,,,null,,,,
null,is hugging,,html-keyboard-response,439,2239840,0.0-19.0-2.18,12072,List2B,black,man,,,,null,,,,
10791,,,survey-text,440,2250633,0.0-19.0-3.18,12072,List2B,black,man,,,,,"{""Q0"":""beth is hugging jane ""}","<img src=""stim_listB/hug7.gif""</stim_listB>",is hugging,
null,"<div style=""font-size:60px;"">+</div>",,html-keyboard-response,441,2251157,0.0-19.0-0.19,12072,List2B,black,man,,,,null,,,,
null,"<img src=""stim_listB/hug5.gif""</stim_listB>",,html-keyboard-response,442,2253186,0.0-19.0-1.19,12072,List2B,black,man,,,,null,,,,
null,is hugging,,html-keyboard-response,443,2255173,0.0-19.0-2.19,12072,List2B,black,man,,,,null,,,,
9323,,,survey-text,444,2264498,0.0-19.0-3.19,12072,List2B,black,man,,,,,"{""Q0"":""luke is hugging fred""}","<img src=""stim_listB/hug5.gif""</stim_listB>",is hugging,
1898,<p>Thank you for completing that task.</p><p>The final part of this session is a short questionnaire.</p><p>Press Continue.</p>,0,html-button-response,445,2266397,0.0-20.0,12072,List2B,black,man,,,,,,,,
23906,,,survey-text,446,2291320,0.0-21.0,12072,List2B,black,man,,,,,"{""Q0"":""21"",""Q1"":""english"",""Q2"":""english"",""Q3"":""england"",""Q4"":""african"",""Q5"":""male""}",,,demographics
27491,,,survey-likert,447,2318820,0.0-22.0,12072,List2B,black,man,,,,,"{""Q0"":5,""Q1"":4,""Q2"":5,""Q3"":4,""Q4"":3,""Q5"":5,""Q6"":4,""Q7"":5,""Q8"":4,""Q9"":5,""Q10"":4,""Q11"":5,""Q12"":4,""Q13"":5}",,,likert_race
54171,,,survey-likert,448,2372999,0.0-23.0,12072,List2B,black,man,,,,,"{""Q0"":5,""Q1"":5,""Q2"":3,""Q3"":"""",""Q4"":3,""Q5"":5,""Q6"":4,""Q7"":5,""Q8"":4,""Q9"":5,""Q10"":4,""Q11"":5,""Q12"":4,""Q13"":5}",,,likert_gender
4466,,,survey-text,449,2377467,0.0-24.0,12072,List2B,black,man,,,,,"{""Q0"":""ccc""}",,,worker_id
2226,,,external-html,450,2379821,0.0-25.0,12072,List2B,black,man,debrief.html,,,,,,,
