rt,stimulus,button_pressed,trial_type,trial_index,time_elapsed,internal_node_id,subject,list,ppt_race,ppt_gender,url,first_guess,correct,key_press,responses,image_type,phrase_type,test_part
3045,Welcome to the experiment. Press Continue to begin.,0,html-button-response,0,3049,0.0-0.0,1284,List2A,black,woman,,,,,,,,
34312,,,external-html,1,38390,0.0-1.0,1284,List2A,black,woman,consent.html,,,,,,,
8321,"<p>On the next page, you will see portraits of 8 people and their names.</p><p>Your first task is to take a few minutes to memorise the names of these people.</p><p>You will have to recall their names during the rest of the experiment, so it is</p><p>essential that you try to memorise these people and their names as best as you can.</p><br><p><strong>You will then be tested on your memory of these names and portraits.</strong></p><br><p>The experiment will start after you have completed this memory test.</p><br><p>Ready?</p>",0,html-button-response,2,46712,0.0-2.0,1284,List2A,black,woman,,,,,,,,
38184,"<img src='img/portrait_matrix_list2.JPG' style='width:900px;height:500px;''></img><p>If you have memorised all the portraits and names and are ready to start, press Continue.</p><p><strong>Please note: Your memory of these faces will be tested 4 times during this experiment.</strong></p>",0,html-button-response,3,85900,0.0-3.0-0.0,1284,List2A,black,woman,,,,,,,,
11926,"<img src=""portrait/WW1.jpg""style=""width:400px;height:400px;""></img>",1,html-button-response,4,98830,0.0-3.0-1.0,1284,List2A,black,woman,,TRUE,1,,,,,
null,CORRECT,,html-keyboard-response,5,100336,0.0-3.0-2.0-0.0,1284,List2A,black,woman,,,,null,,,,
9152,"<img src=""portrait/WW2.jpg""style=""width:400px;height:400px;""></img>",3,html-button-response,6,109490,0.0-3.0-4.0,1284,List2A,black,woman,,TRUE,3,,,,,
null,CORRECT,,html-keyboard-response,7,110993,0.0-3.0-5.0-0.0,1284,List2A,black,woman,,,,null,,,,
4351,"<img src=""portrait/BM2.jpg""style=""width:400px;height:400px;""></img>",5,html-button-response,8,115345,0.0-3.0-7.0,1284,List2A,black,woman,,TRUE,5,,,,,
null,CORRECT,,html-keyboard-response,9,116851,0.0-3.0-8.0-0.0,1284,List2A,black,woman,,,,null,,,,
1947,"<img src=""portrait/BM1.jpg""style=""width:400px;height:400px;""></img>",4,html-button-response,10,118800,0.0-3.0-10.0,1284,List2A,black,woman,,TRUE,4,,,,,
null,CORRECT,,html-keyboard-response,11,120304,0.0-3.0-11.0-0.0,1284,List2A,black,woman,,,,null,,,,
1908,"<img src=""portrait/BW2.jpg""style=""width:400px;height:400px;""></img>",2,html-button-response,12,122213,0.0-3.0-13.0,1284,List2A,black,woman,,TRUE,2,,,,,
null,CORRECT,,html-keyboard-response,13,123720,0.0-3.0-14.0-0.0,1284,List2A,black,woman,,,,null,,,,
13088,"<img src=""portrait/WM1.jpg""style=""width:400px;height:400px;""></img>",6,html-button-response,14,136808,0.0-3.0-16.0,1284,List2A,black,woman,,TRUE,6,,,,,
null,CORRECT,,html-keyboard-response,15,138312,0.0-3.0-17.0-0.0,1284,List2A,black,woman,,,,null,,,,
6505,"<img src=""portrait/WM2.jpg""style=""width:400px;height:400px;""></img>",7,html-button-response,16,144819,0.0-3.0-19.0,1284,List2A,black,woman,,TRUE,7,,,,,
null,CORRECT,,html-keyboard-response,17,146325,0.0-3.0-20.0-0.0,1284,List2A,black,woman,,,,null,,,,
8342,"<img src=""portrait/BW1.jpg""style=""width:400px;height:400px;""></img>",0,html-button-response,18,154668,0.0-3.0-22.0,1284,List2A,black,woman,,TRUE,0,,,,,
null,CORRECT,,html-keyboard-response,19,156170,0.0-3.0-23.0-0.0,1284,List2A,black,woman,,,,null,,,,
2518,<p>You got 8 out of 8 right first time. Press Continue.</p>,0,html-button-response,20,158690,0.0-3.0-25.0,1284,List2A,black,woman,,,,,,,,
26594,"<p>In this experiment, you will view photographs of the people from the memory game interacting.</p><p>By using the <strong>exact</strong> phrase given <i>after</i> the photograph appears and recalling the correct names of the people in the photographs, form a sentence describing the interaction. You do not need to capitalise names.</p><p>Type your answer in the space provided. Please complete every sentence before moving onto the next trial.</p><p>You will only have a few seconds to memorise each given photograph and phrase before you can respond, so try your best to focus.</p><p>An example is given below. Press 'Continue' when you are ready.</p><img src='img/speaking_example_v2.jpg' style='width:800px;height:460px;''></img>",0,html-button-response,21,186292,0.0-4.0,1284,List2A,black,woman,,,,,,,,
1667,"<p>Before the experiment starts, you will watch two example trials. Press 'Continue'.</p>",0,html-button-response,22,188963,0.0-5.0,1284,List2A,black,woman,,,,,,,,
null,<img src='img/speaking_WW.gif'></img>,,html-keyboard-response,23,191966,0.0-6.0,1284,List2A,black,woman,,,,null,,,,
null,<p>is speaking to</p>,,html-keyboard-response,24,193967,0.0-7.0,1284,List2A,black,woman,,,,null,,,,
4281,<p><b>Answer:</b> jane is speaking to ruth</p>,0,html-button-response,25,198249,0.0-8.0,1284,List2A,black,woman,,,,,,,,
null,<img src='img/pointing_BM.gif'></img>,,html-keyboard-response,26,201251,0.0-9.0,1284,List2A,black,woman,,,,null,,,,
null,<p>are pointing at each other</p>,,html-keyboard-response,27,203254,0.0-10.0,1284,List2A,black,woman,,,,null,,,,
6343,<p><b>Answer:</b> fred and mike are pointing at each other</p>,0,html-button-response,28,209597,0.0-11.0,1284,List2A,black,woman,,,,,,,,
6589,"<p>Ready to start the experiment?</p><br><p><strong>Remember to describe the picture using a full sentence,</strong></p><p><strong> that combines the names of the people with the given phrase.</strong></p><p><strong> You do not need to capitalise names or use punctuation.</strong></p><br><p>Press 'Continue' to begin.</p>",0,html-button-response,29,217189,0.0-12.0,1284,List2A,black,woman,,,,,,,,
null,"<div style=""font-size:60px;"">+</div>",,html-keyboard-response,30,218487,0.0-13.0-0.0,1284,List2A,black,woman,,,,null,,,,
null,"<img src=""stim_listA/argue6.gif""</stim_listA>",,html-keyboard-response,31,220489,0.0-13.0-1.0,1284,List2A,black,woman,,,,null,,,,
null,are arguing with each other,,html-keyboard-response,32,222491,0.0-13.0-2.0,1284,List2A,black,woman,,,,null,,,,
30539,,,survey-text,33,253031,0.0-13.0-3.0,1284,List2A,black,woman,,,,,"{""Q0"":""Mike and Luke are arguing with each other""}","<img src=""stim_listA/argue6.gif""</stim_listA>",are arguing with each other,
null,"<div style=""font-size:60px;"">+</div>",,html-keyboard-response,34,253606,0.0-13.0-0.1,1284,List2A,black,woman,,,,null,,,,
null,"<img src=""stim_listA/shout2.gif""</stim_listA>",,html-keyboard-response,35,255608,0.0-13.0-1.1,1284,List2A,black,woman,,,,null,,,,
null,are shouting at each other,,html-keyboard-response,36,257613,0.0-13.0-2.1,1284,List2A,black,woman,,,,null,,,,
17774,,,survey-text,37,275389,0.0-13.0-3.1,1284,List2A,black,woman,,,,,"{""Q0"":""Dave and Jane shouting at each other""}","<img src=""stim_listA/shout2.gif""</stim_listA>",are shouting at each other,
null,"<div style=""font-size:60px;"">+</div>",,html-keyboard-response,38,275890,0.0-13.0-0.2,1284,List2A,black,woman,,,,null,,,,
null,"<img src=""stim_listA/argue7.gif""</stim_listA>",,html-keyboard-response,39,277893,0.0-13.0-1.2,1284,List2A,black,woman,,,,null,,,,
null,is arguing with,,html-keyboard-response,40,279692,0.0-13.0-2.2,1284,List2A,black,woman,,,,null,,,,
7637,,,survey-text,41,287329,0.0-13.0-3.2,1284,List2A,black,woman,,,,,"{""Q0"":""Beth is arguing with Jane""}","<img src=""stim_listA/argue7.gif""</stim_listA>",is arguing with,
null,"<div style=""font-size:60px;"">+</div>",,html-keyboard-response,42,287839,0.0-13.0-0.3,1284,List2A,black,woman,,,,null,,,,
null,"<img src=""stim_listA/argue5.gif""</stim_listA>",,html-keyboard-response,43,289921,0.0-13.0-1.3,1284,List2A,black,woman,,,,null,,,,
null,is arguing with,,html-keyboard-response,44,291938,0.0-13.0-2.3,1284,List2A,black,woman,,,,null,,,,
19119,,,survey-text,45,311057,0.0-13.0-3.3,1284,List2A,black,woman,,,,,"{""Q0"":""dave is arguing with Fred""}","<img src=""stim_listA/argue5.gif""</stim_listA>",is arguing with,
null,"<div style=""font-size:60px;"">+</div>",,html-keyboard-response,46,311559,0.0-13.0-0.4,1284,List2A,black,woman,,,,null,,,,
null,"<img src=""stim_listA/argue8.gif""</stim_listA>",,html-keyboard-response,47,313561,0.0-13.0-1.4,1284,List2A,black,woman,,,,null,,,,
null,are arguing with each other,,html-keyboard-response,48,315562,0.0-13.0-2.4,1284,List2A,black,woman,,,,null,,,,
13457,,,survey-text,49,329020,0.0-13.0-3.4,1284,List2A,black,woman,,,,,"{""Q0"":""Beth and ruth""}","<img src=""stim_listA/argue8.gif""</stim_listA>",are arguing with each other,
null,"<div style=""font-size:60px;"">+</div>",,html-keyboard-response,50,329522,0.0-13.0-0.5,1284,List2A,black,woman,,,,null,,,,
null,"<img src=""stim_listA/talk8.gif""</stim_listA>",,html-keyboard-response,51,331524,0.0-13.0-1.5,1284,List2A,black,woman,,,,null,,,,
null,are talking to each other,,html-keyboard-response,52,333526,0.0-13.0-2.5,1284,List2A,black,woman,,,,null,,,,
9310,,,survey-text,53,342837,0.0-13.0-3.5,1284,List2A,black,woman,,,,,"{""Q0"":""beth and jane are talking to each other""}","<img src=""stim_listA/talk8.gif""</stim_listA>",are talking to each other,
null,"<div style=""font-size:60px;"">+</div>",,html-keyboard-response,54,343340,0.0-13.0-0.6,1284,List2A,black,woman,,,,null,,,,
null,"<img src=""stim_listA/hug6.gif""</stim_listA>",,html-keyboard-response,55,345344,0.0-13.0-1.6,1284,List2A,black,woman,,,,null,,,,
null,are hugging each other,,html-keyboard-response,56,347346,0.0-13.0-2.6,1284,List2A,black,woman,,,,null,,,,
12493,,,survey-text,57,359840,0.0-13.0-3.6,1284,List2A,black,woman,,,,,"{""Q0"":""dave and mike are hugging each other""}","<img src=""stim_listA/hug6.gif""</stim_listA>",are hugging each other,
null,"<div style=""font-size:60px;"">+</div>",,html-keyboard-response,58,360342,0.0-13.0-0.7,1284,List2A,black,woman,,,,null,,,,
null,"<img src=""stim_listA/talk4.gif""</stim_listA>",,html-keyboard-response,59,362345,0.0-13.0-1.7,1284,List2A,black,woman,,,,null,,,,
null,are talking to each other,,html-keyboard-response,60,364350,0.0-13.0-2.7,1284,List2A,black,woman,,,,null,,,,
21478,,,survey-text,61,385830,0.0-13.0-3.7,1284,List2A,black,woman,,,,,"{""Q0"":""mike and beth are talking to each other""}","<img src=""stim_listA/talk4.gif""</stim_listA>",are talking to each other,
null,"<div style=""font-size:60px;"">+</div>",,html-keyboard-response,62,386332,0.0-13.0-0.8,1284,List2A,black,woman,,,,null,,,,
null,"<img src=""stim_listA/shout4.gif""</stim_listA>",,html-keyboard-response,63,388335,0.0-13.0-1.8,1284,List2A,black,woman,,,,null,,,,
null,are shouting at each other,,html-keyboard-response,64,390337,0.0-13.0-2.8,1284,List2A,black,woman,,,,null,,,,
9299,,,survey-text,65,399638,0.0-13.0-3.8,1284,List2A,black,woman,,,,,"{""Q0"":""kate and mike are shouting at each other""}","<img src=""stim_listA/shout4.gif""</stim_listA>",are shouting at each other,
null,"<div style=""font-size:60px;"">+</div>",,html-keyboard-response,66,400140,0.0-13.0-0.9,1284,List2A,black,woman,,,,null,,,,
null,"<img src=""stim_listA/kiss3.gif""</stim_listA>",,html-keyboard-response,67,402144,0.0-13.0-1.9,1284,List2A,black,woman,,,,null,,,,
null,is kissing,,html-keyboard-response,68,404148,0.0-13.0-2.9,1284,List2A,black,woman,,,,null,,,,
7333,,,survey-text,69,411484,0.0-13.0-3.9,1284,List2A,black,woman,,,,,"{""Q0"":""beth and fred are kissing""}","<img src=""stim_listA/kiss3.gif""</stim_listA>",is kissing,
null,"<div style=""font-size:60px;"">+</div>",,html-keyboard-response,70,411988,0.0-13.0-0.10,1284,List2A,black,woman,,,,null,,,,
null,"<img src=""stim_listA/kiss5.gif""</stim_listA>",,html-keyboard-response,71,413992,0.0-13.0-1.10,1284,List2A,black,woman,,,,null,,,,
null,is kissing,,html-keyboard-response,72,415994,0.0-13.0-2.10,1284,List2A,black,woman,,,,null,,,,
16372,,,survey-text,73,432366,0.0-13.0-3.10,1284,List2A,black,woman,,,,,"{""Q0"":""fred is kissing luke""}","<img src=""stim_listA/kiss5.gif""</stim_listA>",is kissing,
null,"<div style=""font-size:60px;"">+</div>",,html-keyboard-response,74,432868,0.0-13.0-0.11,1284,List2A,black,woman,,,,null,,,,
null,"<img src=""stim_listA/shout8.gif""</stim_listA>",,html-keyboard-response,75,434871,0.0-13.0-1.11,1284,List2A,black,woman,,,,null,,,,
null,are shouting at each other,,html-keyboard-response,76,436874,0.0-13.0-2.11,1284,List2A,black,woman,,,,null,,,,
6384,,,survey-text,77,443259,0.0-13.0-3.11,1284,List2A,black,woman,,,,,"{""Q0"":""ruth and kate""}","<img src=""stim_listA/shout8.gif""</stim_listA>",are shouting at each other,
null,"<div style=""font-size:60px;"">+</div>",,html-keyboard-response,78,443761,0.0-13.0-0.12,1284,List2A,black,woman,,,,null,,,,
null,"<img src=""stim_listA/dance6.gif""</stim_listA>",,html-keyboard-response,79,445763,0.0-13.0-1.12,1284,List2A,black,woman,,,,null,,,,
null,are dancing with each other,,html-keyboard-response,80,447765,0.0-13.0-2.12,1284,List2A,black,woman,,,,null,,,,
11368,,,survey-text,81,459135,0.0-13.0-3.12,1284,List2A,black,woman,,,,,"{""Q0"":""dave and fred are dancing with each other ""}","<img src=""stim_listA/dance6.gif""</stim_listA>",are dancing with each other,
null,"<div style=""font-size:60px;"">+</div>",,html-keyboard-response,82,459636,0.0-13.0-0.13,1284,List2A,black,woman,,,,null,,,,
null,"<img src=""stim_listA/argue2.gif""</stim_listA>",,html-keyboard-response,83,461534,0.0-13.0-1.13,1284,List2A,black,woman,,,,null,,,,
null,are arguing with each other,,html-keyboard-response,84,463537,0.0-13.0-2.13,1284,List2A,black,woman,,,,null,,,,
18083,,,survey-text,85,481621,0.0-13.0-3.13,1284,List2A,black,woman,,,,,"{""Q0"":""luke and jane are arguing with each other""}","<img src=""stim_listA/argue2.gif""</stim_listA>",are arguing with each other,
null,"<div style=""font-size:60px;"">+</div>",,html-keyboard-response,86,482122,0.0-13.0-0.14,1284,List2A,black,woman,,,,null,,,,
null,"<img src=""stim_listA/kiss2.gif""</stim_listA>",,html-keyboard-response,87,484125,0.0-13.0-1.14,1284,List2A,black,woman,,,,null,,,,
null,are kissing each other,,html-keyboard-response,88,486128,0.0-13.0-2.14,1284,List2A,black,woman,,,,null,,,,
11610,,,survey-text,89,497739,0.0-13.0-3.14,1284,List2A,black,woman,,,,,"{""Q0"":""dave and ruth are kissing each other""}","<img src=""stim_listA/kiss2.gif""</stim_listA>",are kissing each other,
null,"<div style=""font-size:60px;"">+</div>",,html-keyboard-response,90,498240,0.0-13.0-0.15,1284,List2A,black,woman,,,,null,,,,
null,"<img src=""stim_listA/dance3.gif""</stim_listA>",,html-keyboard-response,91,500243,0.0-13.0-1.15,1284,List2A,black,woman,,,,null,,,,
null,is dancing with,,html-keyboard-response,92,502244,0.0-13.0-2.15,1284,List2A,black,woman,,,,null,,,,
7075,,,survey-text,93,509320,0.0-13.0-3.15,1284,List2A,black,woman,,,,,"{""Q0"":""kate is dancing with fred""}","<img src=""stim_listA/dance3.gif""</stim_listA>",is dancing with,
null,"<div style=""font-size:60px;"">+</div>",,html-keyboard-response,94,509822,0.0-13.0-0.16,1284,List2A,black,woman,,,,null,,,,
null,"<img src=""stim_listA/meet2.gif""</stim_listA>",,html-keyboard-response,95,511824,0.0-13.0-1.16,1284,List2A,black,woman,,,,null,,,,
null,are meeting each other,,html-keyboard-response,96,513825,0.0-13.0-2.16,1284,List2A,black,woman,,,,null,,,,
11497,,,survey-text,97,525323,0.0-13.0-3.16,1284,List2A,black,woman,,,,,"{""Q0"":""luke and jane are meeting each other""}","<img src=""stim_listA/meet2.gif""</stim_listA>",are meeting each other,
null,"<div style=""font-size:60px;"">+</div>",,html-keyboard-response,98,525824,0.0-13.0-0.17,1284,List2A,black,woman,,,,null,,,,
null,"<img src=""stim_listA/shout1.gif""</stim_listA>",,html-keyboard-response,99,527828,0.0-13.0-1.17,1284,List2A,black,woman,,,,null,,,,
null,is shouting at,,html-keyboard-response,100,529832,0.0-13.0-2.17,1284,List2A,black,woman,,,,null,,,,
10860,,,survey-text,101,540693,0.0-13.0-3.17,1284,List2A,black,woman,,,,,"{""Q0"":""luke is shouting at jane""}","<img src=""stim_listA/shout1.gif""</stim_listA>",is shouting at,
null,"<div style=""font-size:60px;"">+</div>",,html-keyboard-response,102,541194,0.0-13.0-0.18,1284,List2A,black,woman,,,,null,,,,
null,"<img src=""stim_listA/talk5.gif""</stim_listA>",,html-keyboard-response,103,543195,0.0-13.0-1.18,1284,List2A,black,woman,,,,null,,,,
null,is talking to,,html-keyboard-response,104,545199,0.0-13.0-2.18,1284,List2A,black,woman,,,,null,,,,
5796,,,survey-text,105,550995,0.0-13.0-3.18,1284,List2A,black,woman,,,,,"{""Q0"":""luke is talking to mike""}","<img src=""stim_listA/talk5.gif""</stim_listA>",is talking to,
null,"<div style=""font-size:60px;"">+</div>",,html-keyboard-response,106,551498,0.0-13.0-0.19,1284,List2A,black,woman,,,,null,,,,
null,"<img src=""stim_listA/fight8.gif""</stim_listA>",,html-keyboard-response,107,553500,0.0-13.0-1.19,1284,List2A,black,woman,,,,null,,,,
null,are fighting each other,,html-keyboard-response,108,555502,0.0-13.0-2.19,1284,List2A,black,woman,,,,null,,,,
10289,,,survey-text,109,565792,0.0-13.0-3.19,1284,List2A,black,woman,,,,,"{""Q0"":""beth and jane are fighting each other""}","<img src=""stim_listA/fight8.gif""</stim_listA>",are fighting each other,
15742,"<img src='img/portrait_matrix_list2.JPG' style='width:900px;height:500px;''></img><p>If you have memorised all the portraits and names and are ready to start, press Continue.</p><p><strong>Please note: Your memory of these faces will be tested 4 times during this experiment.</strong></p>",0,html-button-response,110,581534,0.0-14.0-0.0,1284,List2A,black,woman,,,,,,,,
4341,"<img src=""portrait/BW2.jpg""style=""width:400px;height:400px;""></img>",2,html-button-response,111,586879,0.0-14.0-1.0,1284,List2A,black,woman,,TRUE,2,,,,,
null,CORRECT,,html-keyboard-response,112,588382,0.0-14.0-2.0-0.0,1284,List2A,black,woman,,,,null,,,,
2995,"<img src=""portrait/BM2.jpg""style=""width:400px;height:400px;""></img>",5,html-button-response,113,591379,0.0-14.0-4.0,1284,List2A,black,woman,,TRUE,5,,,,,
null,CORRECT,,html-keyboard-response,114,592884,0.0-14.0-5.0-0.0,1284,List2A,black,woman,,,,null,,,,
2794,"<img src=""portrait/WM1.jpg""style=""width:400px;height:400px;""></img>",6,html-button-response,115,595679,0.0-14.0-7.0,1284,List2A,black,woman,,TRUE,6,,,,,
null,CORRECT,,html-keyboard-response,116,597186,0.0-14.0-8.0-0.0,1284,List2A,black,woman,,,,null,,,,
2299,"<img src=""portrait/WM2.jpg""style=""width:400px;height:400px;""></img>",7,html-button-response,117,599488,0.0-14.0-10.0,1284,List2A,black,woman,,TRUE,7,,,,,
null,CORRECT,,html-keyboard-response,118,600991,0.0-14.0-11.0-0.0,1284,List2A,black,woman,,,,null,,,,
4661,"<img src=""portrait/WW1.jpg""style=""width:400px;height:400px;""></img>",1,html-button-response,119,605653,0.0-14.0-13.0,1284,List2A,black,woman,,TRUE,1,,,,,
null,CORRECT,,html-keyboard-response,120,607159,0.0-14.0-14.0-0.0,1284,List2A,black,woman,,,,null,,,,
3633,"<img src=""portrait/BM1.jpg""style=""width:400px;height:400px;""></img>",4,html-button-response,121,610793,0.0-14.0-16.0,1284,List2A,black,woman,,TRUE,4,,,,,
null,CORRECT,,html-keyboard-response,122,612297,0.0-14.0-17.0-0.0,1284,List2A,black,woman,,,,null,,,,
2981,"<img src=""portrait/WW2.jpg""style=""width:400px;height:400px;""></img>",3,html-button-response,123,615279,0.0-14.0-19.0,1284,List2A,black,woman,,TRUE,3,,,,,
null,CORRECT,,html-keyboard-response,124,616786,0.0-14.0-20.0-0.0,1284,List2A,black,woman,,,,null,,,,
2991,"<img src=""portrait/BW1.jpg""style=""width:400px;height:400px;""></img>",0,html-button-response,125,619778,0.0-14.0-22.0,1284,List2A,black,woman,,TRUE,0,,,,,
null,CORRECT,,html-keyboard-response,126,621283,0.0-14.0-23.0-0.0,1284,List2A,black,woman,,,,null,,,,
2294,<p>You got 8 out of 8 right first time. Press Continue.</p>,0,html-button-response,127,623578,0.0-14.0-25.0,1284,List2A,black,woman,,,,,,,,
null,"<div style=""font-size:60px;"">+</div>",,html-keyboard-response,128,625085,0.0-15.0-0.0,1284,List2A,black,woman,,,,null,,,,
null,"<img src=""stim_listA/hug7.gif""</stim_listA>",,html-keyboard-response,129,627087,0.0-15.0-1.0,1284,List2A,black,woman,,,,null,,,,
null,is hugging,,html-keyboard-response,130,629090,0.0-15.0-2.0,1284,List2A,black,woman,,,,null,,,,
10051,,,survey-text,131,639142,0.0-15.0-3.0,1284,List2A,black,woman,,,,,"{""Q0"":""beth is hugging ruth""}","<img src=""stim_listA/hug7.gif""</stim_listA>",is hugging,
null,"<div style=""font-size:60px;"">+</div>",,html-keyboard-response,132,639644,0.0-15.0-0.1,1284,List2A,black,woman,,,,null,,,,
null,"<img src=""stim_listA/talk7.gif""</stim_listA>",,html-keyboard-response,133,641550,0.0-15.0-1.1,1284,List2A,black,woman,,,,null,,,,
null,is talking to,,html-keyboard-response,134,643552,0.0-15.0-2.1,1284,List2A,black,woman,,,,null,,,,
12520,,,survey-text,135,656072,0.0-15.0-3.1,1284,List2A,black,woman,,,,,"{""Q0"":""kate is talking to ruth""}","<img src=""stim_listA/talk7.gif""</stim_listA>",is talking to,
null,"<div style=""font-size:60px;"">+</div>",,html-keyboard-response,136,656575,0.0-15.0-0.2,1284,List2A,black,woman,,,,null,,,,
null,"<img src=""stim_listA/marry3.gif""</stim_listA>",,html-keyboard-response,137,658576,0.0-15.0-1.2,1284,List2A,black,woman,,,,null,,,,
null,is marrying,,html-keyboard-response,138,660578,0.0-15.0-2.2,1284,List2A,black,woman,,,,null,,,,
5015,,,survey-text,139,665594,0.0-15.0-3.2,1284,List2A,black,woman,,,,,"{""Q0"":""beth is marrying mike""}","<img src=""stim_listA/marry3.gif""</stim_listA>",is marrying,
null,"<div style=""font-size:60px;"">+</div>",,html-keyboard-response,140,666097,0.0-15.0-0.3,1284,List2A,black,woman,,,,null,,,,
null,"<img src=""stim_listA/touch4.gif""</stim_listA>",,html-keyboard-response,141,668099,0.0-15.0-1.3,1284,List2A,black,woman,,,,null,,,,
null,are touching each other,,html-keyboard-response,142,670101,0.0-15.0-2.3,1284,List2A,black,woman,,,,null,,,,
10702,,,survey-text,143,680803,0.0-15.0-3.3,1284,List2A,black,woman,,,,,"{""Q0"":""beth and fred are touching each other""}","<img src=""stim_listA/touch4.gif""</stim_listA>",are touching each other,
null,"<div style=""font-size:60px;"">+</div>",,html-keyboard-response,144,681305,0.0-15.0-0.4,1284,List2A,black,woman,,,,null,,,,
null,"<img src=""stim_listA/fight3.gif""</stim_listA>",,html-keyboard-response,145,683307,0.0-15.0-1.4,1284,List2A,black,woman,,,,null,,,,
null,is fighting,,html-keyboard-response,146,685308,0.0-15.0-2.4,1284,List2A,black,woman,,,,null,,,,
4507,,,survey-text,147,689816,0.0-15.0-3.4,1284,List2A,black,woman,,,,,"{""Q0"":""kate is fighting mike""}","<img src=""stim_listA/fight3.gif""</stim_listA>",is fighting,
null,"<div style=""font-size:60px;"">+</div>",,html-keyboard-response,148,690317,0.0-15.0-0.5,1284,List2A,black,woman,,,,null,,,,
null,"<img src=""stim_listA/dance7.gif""</stim_listA>",,html-keyboard-response,149,692319,0.0-15.0-1.5,1284,List2A,black,woman,,,,null,,,,
null,is dancing with,,html-keyboard-response,150,694320,0.0-15.0-2.5,1284,List2A,black,woman,,,,null,,,,
7476,,,survey-text,151,701797,0.0-15.0-3.5,1284,List2A,black,woman,,,,,"{""Q0"":""kate is dancing with ruth""}","<img src=""stim_listA/dance7.gif""</stim_listA>",is dancing with,
null,"<div style=""font-size:60px;"">+</div>",,html-keyboard-response,152,702299,0.0-15.0-0.6,1284,List2A,black,woman,,,,null,,,,
null,"<img src=""stim_listA/meet5.gif""</stim_listA>",,html-keyboard-response,153,704302,0.0-15.0-1.6,1284,List2A,black,woman,,,,null,,,,
null,is meeting,,html-keyboard-response,154,706303,0.0-15.0-2.6,1284,List2A,black,woman,,,,null,,,,
4198,,,survey-text,155,710501,0.0-15.0-3.6,1284,List2A,black,woman,,,,,"{""Q0"":""dave is meeting mike""}","<img src=""stim_listA/meet5.gif""</stim_listA>",is meeting,
null,"<div style=""font-size:60px;"">+</div>",,html-keyboard-response,156,711003,0.0-15.0-0.7,1284,List2A,black,woman,,,,null,,,,
null,"<img src=""stim_listA/fight1.gif""</stim_listA>",,html-keyboard-response,157,713005,0.0-15.0-1.7,1284,List2A,black,woman,,,,null,,,,
null,is fighting,,html-keyboard-response,158,715007,0.0-15.0-2.7,1284,List2A,black,woman,,,,null,,,,
6812,,,survey-text,159,721820,0.0-15.0-3.7,1284,List2A,black,woman,,,,,"{""Q0"":""jane is fighting dave""}","<img src=""stim_listA/fight1.gif""</stim_listA>",is fighting,
null,"<div style=""font-size:60px;"">+</div>",,html-keyboard-response,160,722325,0.0-15.0-0.8,1284,List2A,black,woman,,,,null,,,,
null,"<img src=""stim_listA/marry4.gif""</stim_listA>",,html-keyboard-response,161,724327,0.0-15.0-1.8,1284,List2A,black,woman,,,,null,,,,
null,are marrying each other,,html-keyboard-response,162,726329,0.0-15.0-2.8,1284,List2A,black,woman,,,,null,,,,
9546,,,survey-text,163,735876,0.0-15.0-3.8,1284,List2A,black,woman,,,,,"{""Q0"":""kate and fred are marrying each other ""}","<img src=""stim_listA/marry4.gif""</stim_listA>",are marrying each other,
null,"<div style=""font-size:60px;"">+</div>",,html-keyboard-response,164,736377,0.0-15.0-0.9,1284,List2A,black,woman,,,,null,,,,
null,"<img src=""stim_listA/fight4.gif""</stim_listA>",,html-keyboard-response,165,738380,0.0-15.0-1.9,1284,List2A,black,woman,,,,null,,,,
null,are fighting each other,,html-keyboard-response,166,740381,0.0-15.0-2.9,1284,List2A,black,woman,,,,null,,,,
11706,,,survey-text,167,752088,0.0-15.0-3.9,1284,List2A,black,woman,,,,,"{""Q0"":""beth and fred are fighting each other""}","<img src=""stim_listA/fight4.gif""</stim_listA>",are fighting each other,
null,"<div style=""font-size:60px;"">+</div>",,html-keyboard-response,168,752590,0.0-15.0-0.10,1284,List2A,black,woman,,,,null,,,,
null,"<img src=""stim_listA/marry2.gif""</stim_listA>",,html-keyboard-response,169,754593,0.0-15.0-1.10,1284,List2A,black,woman,,,,null,,,,
null,are marrying each other,,html-keyboard-response,170,756597,0.0-15.0-2.10,1284,List2A,black,woman,,,,null,,,,
7684,,,survey-text,171,764282,0.0-15.0-3.10,1284,List2A,black,woman,,,,,"{""Q0"":""jane and luke are marrying each other""}","<img src=""stim_listA/marry2.gif""</stim_listA>",are marrying each other,
null,"<div style=""font-size:60px;"">+</div>",,html-keyboard-response,172,764784,0.0-15.0-0.11,1284,List2A,black,woman,,,,null,,,,
null,"<img src=""stim_listA/argue1.gif""</stim_listA>",,html-keyboard-response,173,766786,0.0-15.0-1.11,1284,List2A,black,woman,,,,null,,,,
null,is arguing with,,html-keyboard-response,174,768788,0.0-15.0-2.11,1284,List2A,black,woman,,,,null,,,,
7753,,,survey-text,175,776542,0.0-15.0-3.11,1284,List2A,black,woman,,,,,"{""Q0"":""ruth is arguing with dave""}","<img src=""stim_listA/argue1.gif""</stim_listA>",is arguing with,
null,"<div style=""font-size:60px;"">+</div>",,html-keyboard-response,176,777045,0.0-15.0-0.12,1284,List2A,black,woman,,,,null,,,,
null,"<img src=""stim_listA/kiss4.gif""</stim_listA>",,html-keyboard-response,177,779047,0.0-15.0-1.12,1284,List2A,black,woman,,,,null,,,,
null,are kissing each other,,html-keyboard-response,178,781049,0.0-15.0-2.12,1284,List2A,black,woman,,,,null,,,,
9760,,,survey-text,179,790811,0.0-15.0-3.12,1284,List2A,black,woman,,,,,"{""Q0"":""kate and mike are kissing each other""}","<img src=""stim_listA/kiss4.gif""</stim_listA>",are kissing each other,
null,"<div style=""font-size:60px;"">+</div>",,html-keyboard-response,180,791312,0.0-15.0-0.13,1284,List2A,black,woman,,,,null,,,,
null,"<img src=""stim_listA/shout5.gif""</stim_listA>",,html-keyboard-response,181,793315,0.0-15.0-1.13,1284,List2A,black,woman,,,,null,,,,
null,is shouting at,,html-keyboard-response,182,795317,0.0-15.0-2.13,1284,List2A,black,woman,,,,null,,,,
7714,,,survey-text,183,803032,0.0-15.0-3.13,1284,List2A,black,woman,,,,,"{""Q0"":""luke is shouting at fred""}","<img src=""stim_listA/shout5.gif""</stim_listA>",is shouting at,
null,"<div style=""font-size:60px;"">+</div>",,html-keyboard-response,184,803534,0.0-15.0-0.14,1284,List2A,black,woman,,,,null,,,,
null,"<img src=""stim_listA/shout3.gif""</stim_listA>",,html-keyboard-response,185,805538,0.0-15.0-1.14,1284,List2A,black,woman,,,,null,,,,
null,is shouting at,,html-keyboard-response,186,807541,0.0-15.0-2.14,1284,List2A,black,woman,,,,null,,,,
8414,,,survey-text,187,815955,0.0-15.0-3.14,1284,List2A,black,woman,,,,,"{""Q0"":""beth is shouting at fred""}","<img src=""stim_listA/shout3.gif""</stim_listA>",is shouting at,
null,"<div style=""font-size:60px;"">+</div>",,html-keyboard-response,188,816458,0.0-15.0-0.15,1284,List2A,black,woman,,,,null,,,,
null,"<img src=""stim_listA/touch7.gif""</stim_listA>",,html-keyboard-response,189,818461,0.0-15.0-1.15,1284,List2A,black,woman,,,,null,,,,
null,is touching,,html-keyboard-response,190,820462,0.0-15.0-2.15,1284,List2A,black,woman,,,,null,,,,
4780,,,survey-text,191,825243,0.0-15.0-3.15,1284,List2A,black,woman,,,,,"{""Q0"":""jane is touching kate ""}","<img src=""stim_listA/touch7.gif""</stim_listA>",is touching,
null,"<div style=""font-size:60px;"">+</div>",,html-keyboard-response,192,825744,0.0-15.0-0.16,1284,List2A,black,woman,,,,null,,,,
null,"<img src=""stim_listA/meet4.gif""</stim_listA>",,html-keyboard-response,193,827746,0.0-15.0-1.16,1284,List2A,black,woman,,,,null,,,,
null,are meeting each other,,html-keyboard-response,194,829749,0.0-15.0-2.16,1284,List2A,black,woman,,,,null,,,,
14597,,,survey-text,195,844347,0.0-15.0-3.16,1284,List2A,black,woman,,,,,"{""Q0"":""beth and fred are meeting each other""}","<img src=""stim_listA/meet4.gif""</stim_listA>",are meeting each other,
null,"<div style=""font-size:60px;"">+</div>",,html-keyboard-response,196,844848,0.0-15.0-0.17,1284,List2A,black,woman,,,,null,,,,
null,"<img src=""stim_listA/touch8.gif""</stim_listA>",,html-keyboard-response,197,846850,0.0-15.0-1.17,1284,List2A,black,woman,,,,null,,,,
null,are touching each other,,html-keyboard-response,198,848851,0.0-15.0-2.17,1284,List2A,black,woman,,,,null,,,,
12743,,,survey-text,199,861595,0.0-15.0-3.17,1284,List2A,black,woman,,,,,"{""Q0"":""beth and ruth are touching each other""}","<img src=""stim_listA/touch8.gif""</stim_listA>",are touching each other,
null,"<div style=""font-size:60px;"">+</div>",,html-keyboard-response,200,862096,0.0-15.0-0.18,1284,List2A,black,woman,,,,null,,,,
null,"<img src=""stim_listA/fight7.gif""</stim_listA>",,html-keyboard-response,201,864099,0.0-15.0-1.18,1284,List2A,black,woman,,,,null,,,,
null,is fighting,,html-keyboard-response,202,866251,0.0-15.0-2.18,1284,List2A,black,woman,,,,null,,,,
11388,,,survey-text,203,877640,0.0-15.0-3.18,1284,List2A,black,woman,,,,,"{""Q0"":""jane is fighting kate""}","<img src=""stim_listA/fight7.gif""</stim_listA>",is fighting,
null,"<div style=""font-size:60px;"">+</div>",,html-keyboard-response,204,878142,0.0-15.0-0.19,1284,List2A,black,woman,,,,null,,,,
null,"<img src=""stim_listA/kiss6.gif""</stim_listA>",,html-keyboard-response,205,880146,0.0-15.0-1.19,1284,List2A,black,woman,,,,null,,,,
null,are kissing each other,,html-keyboard-response,206,882092,0.0-15.0-2.19,1284,List2A,black,woman,,,,null,,,,
10151,,,survey-text,207,892245,0.0-15.0-3.19,1284,List2A,black,woman,,,,,"{""Q0"":""dave and mike are kissing each other""}","<img src=""stim_listA/kiss6.gif""</stim_listA>",are kissing each other,
11731,"<img src='img/portrait_matrix_list2.JPG' style='width:900px;height:500px;''></img><p>If you have memorised all the portraits and names and are ready to start, press Continue.</p><p><strong>Please note: Your memory of these faces will be tested 4 times during this experiment.</strong></p>",0,html-button-response,208,903977,0.0-16.0-0.0,1284,List2A,black,woman,,,,,,,,
2764,"<img src=""portrait/BW2.jpg""style=""width:400px;height:400px;""></img>",2,html-button-response,209,907745,0.0-16.0-1.0,1284,List2A,black,woman,,TRUE,2,,,,,
null,CORRECT,,html-keyboard-response,210,909248,0.0-16.0-2.0-0.0,1284,List2A,black,woman,,,,null,,,,
279907,"<img src=""portrait/WM2.jpg""style=""width:400px;height:400px;""></img>",7,html-button-response,211,1189157,0.0-16.0-4.0,1284,List2A,black,woman,,TRUE,7,,,,,
null,CORRECT,,html-keyboard-response,212,1190663,0.0-16.0-5.0-0.0,1284,List2A,black,woman,,,,null,,,,
742,"<img src=""portrait/WW1.jpg""style=""width:400px;height:400px;""></img>",7,html-button-response,213,1191407,0.0-16.0-7.0,1284,List2A,black,woman,,TRUE,1,,,,,
7488,"<img src=""portrait/WW1.jpg""style=""width:400px;height:400px;""></img>",7,html-button-response,214,1199898,0.0-16.0-9.0-0.0,1284,List2A,black,woman,,FALSE,1,,,,,
null,INCORRECT,,html-keyboard-response,215,1201401,0.0-16.0-9.0-2.0-0.0,1284,List2A,black,woman,,,,null,,,,
56930,"<img src=""portrait/BW1.jpg""style=""width:400px;height:400px;""></img>",0,html-button-response,216,1258333,0.0-16.0-10.0,1284,List2A,black,woman,,TRUE,0,,,,,
null,CORRECT,,html-keyboard-response,217,1259838,0.0-16.0-11.0-0.0,1284,List2A,black,woman,,,,null,,,,
2394,"<img src=""portrait/BM1.jpg""style=""width:400px;height:400px;""></img>",4,html-button-response,218,1262233,0.0-16.0-13.0,1284,List2A,black,woman,,TRUE,4,,,,,
null,CORRECT,,html-keyboard-response,219,1263745,0.0-16.0-14.0-0.0,1284,List2A,black,woman,,,,null,,,,
2104,"<img src=""portrait/BM2.jpg""style=""width:400px;height:400px;""></img>",5,html-button-response,220,1265860,0.0-16.0-16.0,1284,List2A,black,woman,,TRUE,5,,,,,
null,CORRECT,,html-keyboard-response,221,1267361,0.0-16.0-17.0-0.0,1284,List2A,black,woman,,,,null,,,,
2358,"<img src=""portrait/WM1.jpg""style=""width:400px;height:400px;""></img>",6,html-button-response,222,1269720,0.0-16.0-19.0,1284,List2A,black,woman,,TRUE,6,,,,,
null,CORRECT,,html-keyboard-response,223,1271225,0.0-16.0-20.0-0.0,1284,List2A,black,woman,,,,null,,,,
4354,"<img src=""portrait/WW2.jpg""style=""width:400px;height:400px;""></img>",3,html-button-response,224,1275579,0.0-16.0-22.0,1284,List2A,black,woman,,TRUE,3,,,,,
null,CORRECT,,html-keyboard-response,225,1277085,0.0-16.0-23.0-0.0,1284,List2A,black,woman,,,,null,,,,
4547,<p>You got 7 out of 8 right first time. Press Continue.</p>,0,html-button-response,226,1281633,0.0-16.0-25.0,1284,List2A,black,woman,,,,,,,,
3399,"As you did not score 100%, the memory game will repeat. Press Continue.",0,html-button-response,227,1286033,0.0-16.0-26.0-0.0,1284,List2A,black,woman,,,,,,,,
3244,"<img src='img/portrait_matrix_list2.JPG' style='width:900px;height:500px;''></img><p>If you have memorised all the portraits and names and are ready to start, press Continue.</p><p><strong>Please note: Your memory of these faces will be tested 4 times during this experiment.</strong></p>",0,html-button-response,228,1290279,0.0-16.1-0.1,1284,List2A,black,woman,,,,,,,,
2037,"<img src=""portrait/BW2.jpg""style=""width:400px;height:400px;""></img>",2,html-button-response,229,1293333,0.0-16.1-1.1,1284,List2A,black,woman,,TRUE,2,,,,,
null,CORRECT,,html-keyboard-response,230,1294837,0.0-16.1-2.1-0.1,1284,List2A,black,woman,,,,null,,,,
1995,"<img src=""portrait/WM2.jpg""style=""width:400px;height:400px;""></img>",7,html-button-response,231,1296833,0.0-16.1-4.1,1284,List2A,black,woman,,TRUE,7,,,,,
null,CORRECT,,html-keyboard-response,232,1298337,0.0-16.1-5.1-0.1,1284,List2A,black,woman,,,,null,,,,
4094,"<img src=""portrait/WW1.jpg""style=""width:400px;height:400px;""></img>",1,html-button-response,233,1302433,0.0-16.1-7.1,1284,List2A,black,woman,,TRUE,1,,,,,
null,CORRECT,,html-keyboard-response,234,1303938,0.0-16.1-8.1-0.1,1284,List2A,black,woman,,,,null,,,,
2563,"<img src=""portrait/BW1.jpg""style=""width:400px;height:400px;""></img>",0,html-button-response,235,1306502,0.0-16.1-10.1,1284,List2A,black,woman,,TRUE,0,,,,,
null,CORRECT,,html-keyboard-response,236,1308006,0.0-16.1-11.1-0.1,1284,List2A,black,woman,,,,null,,,,
2928,"<img src=""portrait/BM1.jpg""style=""width:400px;height:400px;""></img>",4,html-button-response,237,1310935,0.0-16.1-13.1,1284,List2A,black,woman,,TRUE,4,,,,,
null,CORRECT,,html-keyboard-response,238,1312439,0.0-16.1-14.1-0.1,1284,List2A,black,woman,,,,null,,,,
1177,"<img src=""portrait/BM2.jpg""style=""width:400px;height:400px;""></img>",5,html-button-response,239,1313617,0.0-16.1-16.1,1284,List2A,black,woman,,TRUE,5,,,,,
null,CORRECT,,html-keyboard-response,240,1315119,0.0-16.1-17.1-0.1,1284,List2A,black,woman,,,,null,,,,
2394,"<img src=""portrait/WM1.jpg""style=""width:400px;height:400px;""></img>",6,html-button-response,241,1317514,0.0-16.1-19.1,1284,List2A,black,woman,,TRUE,6,,,,,
null,CORRECT,,html-keyboard-response,242,1319017,0.0-16.1-20.1-0.1,1284,List2A,black,woman,,,,null,,,,
3350,"<img src=""portrait/WW2.jpg""style=""width:400px;height:400px;""></img>",3,html-button-response,243,1322371,0.0-16.1-22.1,1284,List2A,black,woman,,TRUE,3,,,,,
null,CORRECT,,html-keyboard-response,244,1323874,0.0-16.1-23.1-0.1,1284,List2A,black,woman,,,,null,,,,
1475,<p>You got 8 out of 8 right first time. Press Continue.</p>,0,html-button-response,245,1325350,0.0-16.1-25.1,1284,List2A,black,woman,,,,,,,,
null,"<div style=""font-size:60px;"">+</div>",,html-keyboard-response,246,1326854,0.0-17.0-0.0,1284,List2A,black,woman,,,,null,,,,
null,"<img src=""stim_listA/dance8.gif""</stim_listA>",,html-keyboard-response,247,1328858,0.0-17.0-1.0,1284,List2A,black,woman,,,,null,,,,
null,are dancing with each other,,html-keyboard-response,248,1330864,0.0-17.0-2.0,1284,List2A,black,woman,,,,null,,,,
15264,,,survey-text,249,1346129,0.0-17.0-3.0,1284,List2A,black,woman,,,,,"{""Q0"":""beth and jane are dancing with each other""}","<img src=""stim_listA/dance8.gif""</stim_listA>",are dancing with each other,
null,"<div style=""font-size:60px;"">+</div>",,html-keyboard-response,250,1346632,0.0-17.0-0.1,1284,List2A,black,woman,,,,null,,,,
null,"<img src=""stim_listA/shout6.gif""</stim_listA>",,html-keyboard-response,251,1348635,0.0-17.0-1.1,1284,List2A,black,woman,,,,null,,,,
null,are shouting at each other,,html-keyboard-response,252,1350642,0.0-17.0-2.1,1284,List2A,black,woman,,,,null,,,,
10649,,,survey-text,253,1361291,0.0-17.0-3.1,1284,List2A,black,woman,,,,,"{""Q0"":""dave and mike are shouting at each other""}","<img src=""stim_listA/shout6.gif""</stim_listA>",are shouting at each other,
null,"<div style=""font-size:60px;"">+</div>",,html-keyboard-response,254,1361793,0.0-17.0-0.2,1284,List2A,black,woman,,,,null,,,,
null,"<img src=""stim_listA/meet3.gif""</stim_listA>",,html-keyboard-response,255,1363796,0.0-17.0-1.2,1284,List2A,black,woman,,,,null,,,,
null,is meeting,,html-keyboard-response,256,1365797,0.0-17.0-2.2,1284,List2A,black,woman,,,,null,,,,
8634,,,survey-text,257,1374433,0.0-17.0-3.2,1284,List2A,black,woman,,,,,"{""Q0"":""mike is meeting kate""}","<img src=""stim_listA/meet3.gif""</stim_listA>",is meeting,
null,"<div style=""font-size:60px;"">+</div>",,html-keyboard-response,258,1374934,0.0-17.0-0.3,1284,List2A,black,woman,,,,null,,,,
null,"<img src=""stim_listA/marry1.gif""</stim_listA>",,html-keyboard-response,259,1376936,0.0-17.0-1.3,1284,List2A,black,woman,,,,null,,,,
null,is marrying,,html-keyboard-response,260,1378939,0.0-17.0-2.3,1284,List2A,black,woman,,,,null,,,,
6933,,,survey-text,261,1385873,0.0-17.0-3.3,1284,List2A,black,woman,,,,,"{""Q0"":""ruth is marrying dave""}","<img src=""stim_listA/marry1.gif""</stim_listA>",is marrying,
null,"<div style=""font-size:60px;"">+</div>",,html-keyboard-response,262,1386379,0.0-17.0-0.4,1284,List2A,black,woman,,,,null,,,,
null,"<img src=""stim_listA/dance5.gif""</stim_listA>",,html-keyboard-response,263,1388381,0.0-17.0-1.4,1284,List2A,black,woman,,,,null,,,,
null,is dancing with,,html-keyboard-response,264,1390384,0.0-17.0-2.4,1284,List2A,black,woman,,,,null,,,,
9203,,,survey-text,265,1399587,0.0-17.0-3.4,1284,List2A,black,woman,,,,,"{""Q0"":""luke is dancing with mike""}","<img src=""stim_listA/dance5.gif""</stim_listA>",is dancing with,
null,"<div style=""font-size:60px;"">+</div>",,html-keyboard-response,266,1400089,0.0-17.0-0.5,1284,List2A,black,woman,,,,null,,,,
null,"<img src=""stim_listA/touch3.gif""</stim_listA>",,html-keyboard-response,267,1402092,0.0-17.0-1.5,1284,List2A,black,woman,,,,null,,,,
null,is touching,,html-keyboard-response,268,1404094,0.0-17.0-2.5,1284,List2A,black,woman,,,,null,,,,
9062,,,survey-text,269,1413158,0.0-17.0-3.5,1284,List2A,black,woman,,,,,"{""Q0"":""kate is touching mike""}","<img src=""stim_listA/touch3.gif""</stim_listA>",is touching,
null,"<div style=""font-size:60px;"">+</div>",,html-keyboard-response,270,1413661,0.0-17.0-0.6,1284,List2A,black,woman,,,,null,,,,
null,"<img src=""stim_listA/fight2.gif""</stim_listA>",,html-keyboard-response,271,1415664,0.0-17.0-1.6,1284,List2A,black,woman,,,,null,,,,
null,are fighting each other,,html-keyboard-response,272,1417666,0.0-17.0-2.6,1284,List2A,black,woman,,,,null,,,,
9618,,,survey-text,273,1427284,0.0-17.0-3.6,1284,List2A,black,woman,,,,,"{""Q0"":""ruth and luke are fighting each other""}","<img src=""stim_listA/fight2.gif""</stim_listA>",are fighting each other,
null,"<div style=""font-size:60px;"">+</div>",,html-keyboard-response,274,1427785,0.0-17.0-0.7,1284,List2A,black,woman,,,,null,,,,
null,"<img src=""stim_listA/hug3.gif""</stim_listA>",,html-keyboard-response,275,1429793,0.0-17.0-1.7,1284,List2A,black,woman,,,,null,,,,
null,is hugging,,html-keyboard-response,276,1431794,0.0-17.0-2.7,1284,List2A,black,woman,,,,null,,,,
7576,,,survey-text,277,1439372,0.0-17.0-3.7,1284,List2A,black,woman,,,,,"{""Q0"":""fred is hugging beth""}","<img src=""stim_listA/hug3.gif""</stim_listA>",is hugging,
null,"<div style=""font-size:60px;"">+</div>",,html-keyboard-response,278,1439873,0.0-17.0-0.8,1284,List2A,black,woman,,,,null,,,,
null,"<img src=""stim_listA/touch6.gif""</stim_listA>",,html-keyboard-response,279,1441880,0.0-17.0-1.8,1284,List2A,black,woman,,,,null,,,,
null,are touching each other,,html-keyboard-response,280,1443881,0.0-17.0-2.8,1284,List2A,black,woman,,,,null,,,,
7486,,,survey-text,281,1451369,0.0-17.0-3.8,1284,List2A,black,woman,,,,,"{""Q0"":""luke and fred are touching each other""}","<img src=""stim_listA/touch6.gif""</stim_listA>",are touching each other,
null,"<div style=""font-size:60px;"">+</div>",,html-keyboard-response,282,1451871,0.0-17.0-0.9,1284,List2A,black,woman,,,,null,,,,
null,"<img src=""stim_listA/hug4.gif""</stim_listA>",,html-keyboard-response,283,1453874,0.0-17.0-1.9,1284,List2A,black,woman,,,,null,,,,
null,are hugging each other,,html-keyboard-response,284,1455875,0.0-17.0-2.9,1284,List2A,black,woman,,,,null,,,,
7661,,,survey-text,285,1463537,0.0-17.0-3.9,1284,List2A,black,woman,,,,,"{""Q0"":""kate and mike are hugging each other""}","<img src=""stim_listA/hug4.gif""</stim_listA>",are hugging each other,
null,"<div style=""font-size:60px;"">+</div>",,html-keyboard-response,286,1464040,0.0-17.0-0.10,1284,List2A,black,woman,,,,null,,,,
null,"<img src=""stim_listA/talk3.gif""</stim_listA>",,html-keyboard-response,287,1466043,0.0-17.0-1.10,1284,List2A,black,woman,,,,null,,,,
null,is talking to,,html-keyboard-response,288,1468045,0.0-17.0-2.10,1284,List2A,black,woman,,,,null,,,,
5779,,,survey-text,289,1473825,0.0-17.0-3.10,1284,List2A,black,woman,,,,,"{""Q0"":""fred is talking to kate""}","<img src=""stim_listA/talk3.gif""</stim_listA>",is talking to,
null,"<div style=""font-size:60px;"">+</div>",,html-keyboard-response,290,1474327,0.0-17.0-0.11,1284,List2A,black,woman,,,,null,,,,
null,"<img src=""stim_listA/marry8.gif""</stim_listA>",,html-keyboard-response,291,1476329,0.0-17.0-1.11,1284,List2A,black,woman,,,,null,,,,
null,are marrying each other,,html-keyboard-response,292,1478330,0.0-17.0-2.11,1284,List2A,black,woman,,,,null,,,,
13921,,,survey-text,293,1492252,0.0-17.0-3.11,1284,List2A,black,woman,,,,,"{""Q0"":""ruth and kate are marrying each other""}","<img src=""stim_listA/marry8.gif""</stim_listA>",are marrying each other,
null,"<div style=""font-size:60px;"">+</div>",,html-keyboard-response,294,1492753,0.0-17.0-0.12,1284,List2A,black,woman,,,,null,,,,
null,"<img src=""stim_listA/talk1.gif""</stim_listA>",,html-keyboard-response,295,1494845,0.0-17.0-1.12,1284,List2A,black,woman,,,,null,,,,
null,is talking to,,html-keyboard-response,296,1496848,0.0-17.0-2.12,1284,List2A,black,woman,,,,null,,,,
5877,,,survey-text,297,1502727,0.0-17.0-3.12,1284,List2A,black,woman,,,,,"{""Q0"":""luke is talking to jane""}","<img src=""stim_listA/talk1.gif""</stim_listA>",is talking to,
null,"<div style=""font-size:60px;"">+</div>",,html-keyboard-response,298,1503228,0.0-17.0-0.13,1284,List2A,black,woman,,,,null,,,,
null,"<img src=""stim_listA/fight5.gif""</stim_listA>",,html-keyboard-response,299,1505230,0.0-17.0-1.13,1284,List2A,black,woman,,,,null,,,,
null,is fighting,,html-keyboard-response,300,1507232,0.0-17.0-2.13,1284,List2A,black,woman,,,,null,,,,
6852,,,survey-text,301,1514086,0.0-17.0-3.13,1284,List2A,black,woman,,,,,"{""Q0"":""dave is fighting mike""}","<img src=""stim_listA/fight5.gif""</stim_listA>",is fighting,
null,"<div style=""font-size:60px;"">+</div>",,html-keyboard-response,302,1514588,0.0-17.0-0.14,1284,List2A,black,woman,,,,null,,,,
null,"<img src=""stim_listA/shout7.gif""</stim_listA>",,html-keyboard-response,303,1516591,0.0-17.0-1.14,1284,List2A,black,woman,,,,null,,,,
null,is shouting at,,html-keyboard-response,304,1518596,0.0-17.0-2.14,1284,List2A,black,woman,,,,null,,,,
4727,,,survey-text,305,1523325,0.0-17.0-3.14,1284,List2A,black,woman,,,,,"{""Q0"":""ruth is shouting at beth""}","<img src=""stim_listA/shout7.gif""</stim_listA>",is shouting at,
null,"<div style=""font-size:60px;"">+</div>",,html-keyboard-response,306,1523828,0.0-17.0-0.15,1284,List2A,black,woman,,,,null,,,,
null,"<img src=""stim_listA/meet7.gif""</stim_listA>",,html-keyboard-response,307,1525836,0.0-17.0-1.15,1284,List2A,black,woman,,,,null,,,,
null,is meeting,,html-keyboard-response,308,1527843,0.0-17.0-2.15,1284,List2A,black,woman,,,,null,,,,
9550,,,survey-text,309,1537395,0.0-17.0-3.15,1284,List2A,black,woman,,,,,"{""Q0"":""kate is meeting jane""}","<img src=""stim_listA/meet7.gif""</stim_listA>",is meeting,
null,"<div style=""font-size:60px;"">+</div>",,html-keyboard-response,310,1537897,0.0-17.0-0.16,1284,List2A,black,woman,,,,null,,,,
null,"<img src=""stim_listA/marry7.gif""</stim_listA>",,html-keyboard-response,311,1539900,0.0-17.0-1.16,1284,List2A,black,woman,,,,null,,,,
null,is marrying,,html-keyboard-response,312,1541901,0.0-17.0-2.16,1284,List2A,black,woman,,,,null,,,,
6371,,,survey-text,313,1548274,0.0-17.0-3.16,1284,List2A,black,woman,,,,,"{""Q0"":""beth is marrying jane""}","<img src=""stim_listA/marry7.gif""</stim_listA>",is marrying,
null,"<div style=""font-size:60px;"">+</div>",,html-keyboard-response,314,1548777,0.0-17.0-0.17,1284,List2A,black,woman,,,,null,,,,
null,"<img src=""stim_listA/touch2.gif""</stim_listA>",,html-keyboard-response,315,1550780,0.0-17.0-1.17,1284,List2A,black,woman,,,,null,,,,
null,are touching each other,,html-keyboard-response,316,1552782,0.0-17.0-2.17,1284,List2A,black,woman,,,,null,,,,
58416,,,survey-text,317,1611200,0.0-17.0-3.17,1284,List2A,black,woman,,,,,"{""Q0"":""""}","<img src=""stim_listA/touch2.gif""</stim_listA>",are touching each other,
null,"<div style=""font-size:60px;"">+</div>",,html-keyboard-response,318,1611701,0.0-17.0-0.18,1284,List2A,black,woman,,,,null,,,,
null,"<img src=""stim_listA/touch5.gif""</stim_listA>",,html-keyboard-response,319,1613706,0.0-17.0-1.18,1284,List2A,black,woman,,,,null,,,,
null,is touching,,html-keyboard-response,320,1615709,0.0-17.0-2.18,1284,List2A,black,woman,,,,null,,,,
11345,,,survey-text,321,1627055,0.0-17.0-3.18,1284,List2A,black,woman,,,,,"{""Q0"":""mike is touching dave""}","<img src=""stim_listA/touch5.gif""</stim_listA>",is touching,
null,"<div style=""font-size:60px;"">+</div>",,html-keyboard-response,322,1627557,0.0-17.0-0.19,1284,List2A,black,woman,,,,null,,,,
null,"<img src=""stim_listA/hug1.gif""</stim_listA>",,html-keyboard-response,323,1629562,0.0-17.0-1.19,1284,List2A,black,woman,,,,null,,,,
null,is hugging,,html-keyboard-response,324,1631567,0.0-17.0-2.19,1284,List2A,black,woman,,,,null,,,,
14590,,,survey-text,325,1646166,0.0-17.0-3.19,1284,List2A,black,woman,,,,,"{""Q0"":""jane is hugging luke""}","<img src=""stim_listA/hug1.gif""</stim_listA>",is hugging,
6035,"<img src='img/portrait_matrix_list2.JPG' style='width:900px;height:500px;''></img><p>If you have memorised all the portraits and names and are ready to start, press Continue.</p><p><strong>Please note: Your memory of these faces will be tested 4 times during this experiment.</strong></p>",0,html-button-response,326,1652202,0.0-18.0-0.0,1284,List2A,black,woman,,,,,,,,
152968,"<img src=""portrait/BM2.jpg""style=""width:400px;height:400px;""></img>",5,html-button-response,327,1806173,0.0-18.0-1.0,1284,List2A,black,woman,,TRUE,5,,,,,
null,CORRECT,,html-keyboard-response,328,1807682,0.0-18.0-2.0-0.0,1284,List2A,black,woman,,,,null,,,,
3380,"<img src=""portrait/WM2.jpg""style=""width:400px;height:400px;""></img>",7,html-button-response,329,1811063,0.0-18.0-4.0,1284,List2A,black,woman,,TRUE,7,,,,,
null,CORRECT,,html-keyboard-response,330,1812567,0.0-18.0-5.0-0.0,1284,List2A,black,woman,,,,null,,,,
1933,"<img src=""portrait/BW1.jpg""style=""width:400px;height:400px;""></img>",0,html-button-response,331,1814502,0.0-18.0-7.0,1284,List2A,black,woman,,TRUE,0,,,,,
null,CORRECT,,html-keyboard-response,332,1816006,0.0-18.0-8.0-0.0,1284,List2A,black,woman,,,,null,,,,
2026,"<img src=""portrait/BW2.jpg""style=""width:400px;height:400px;""></img>",2,html-button-response,333,1818035,0.0-18.0-10.0,1284,List2A,black,woman,,TRUE,2,,,,,
null,CORRECT,,html-keyboard-response,334,1819538,0.0-18.0-11.0-0.0,1284,List2A,black,woman,,,,null,,,,
41463,"<img src=""portrait/BM1.jpg""style=""width:400px;height:400px;""></img>",4,html-button-response,335,1861002,0.0-18.0-13.0,1284,List2A,black,woman,,TRUE,4,,,,,
null,CORRECT,,html-keyboard-response,336,1862508,0.0-18.0-14.0-0.0,1284,List2A,black,woman,,,,null,,,,
30023,"<img src=""portrait/WM1.jpg""style=""width:400px;height:400px;""></img>",6,html-button-response,337,1892533,0.0-18.0-16.0,1284,List2A,black,woman,,TRUE,6,,,,,
null,CORRECT,,html-keyboard-response,338,1894036,0.0-18.0-17.0-0.0,1284,List2A,black,woman,,,,null,,,,
31401,"<img src=""portrait/WW1.jpg""style=""width:400px;height:400px;""></img>",1,html-button-response,339,1925439,0.0-18.0-19.0,1284,List2A,black,woman,,TRUE,1,,,,,
null,CORRECT,,html-keyboard-response,340,1926950,0.0-18.0-20.0-0.0,1284,List2A,black,woman,,,,null,,,,
2219,"<img src=""portrait/WW2.jpg""style=""width:400px;height:400px;""></img>",3,html-button-response,341,1929172,0.0-18.0-22.0,1284,List2A,black,woman,,TRUE,3,,,,,
null,CORRECT,,html-keyboard-response,342,1930679,0.0-18.0-23.0-0.0,1284,List2A,black,woman,,,,null,,,,
125900,<p>You got 8 out of 8 right first time. Press Continue.</p>,0,html-button-response,343,2056586,0.0-18.0-25.0,1284,List2A,black,woman,,,,,,,,
null,"<div style=""font-size:60px;"">+</div>",,html-keyboard-response,344,2058092,0.0-19.0-0.0,1284,List2A,black,woman,,,,null,,,,
null,"<img src=""stim_listA/touch1.gif""</stim_listA>",,html-keyboard-response,345,2060095,0.0-19.0-1.0,1284,List2A,black,woman,,,,null,,,,
null,is touching,,html-keyboard-response,346,2062096,0.0-19.0-2.0,1284,List2A,black,woman,,,,null,,,,
7169,,,survey-text,347,2069266,0.0-19.0-3.0,1284,List2A,black,woman,,,,,"{""Q0"":""jane is touching dave""}","<img src=""stim_listA/touch1.gif""</stim_listA>",is touching,
null,"<div style=""font-size:60px;"">+</div>",,html-keyboard-response,348,2069767,0.0-19.0-0.1,1284,List2A,black,woman,,,,null,,,,
null,"<img src=""stim_listA/hug5.gif""</stim_listA>",,html-keyboard-response,349,2071769,0.0-19.0-1.1,1284,List2A,black,woman,,,,null,,,,
null,is hugging,,html-keyboard-response,350,2073773,0.0-19.0-2.1,1284,List2A,black,woman,,,,null,,,,
5611,,,survey-text,351,2079385,0.0-19.0-3.1,1284,List2A,black,woman,,,,,"{""Q0"":""luke is hugging fred""}","<img src=""stim_listA/hug5.gif""</stim_listA>",is hugging,
null,"<div style=""font-size:60px;"">+</div>",,html-keyboard-response,352,2079888,0.0-19.0-0.2,1284,List2A,black,woman,,,,null,,,,
null,"<img src=""stim_listA/marry5.gif""</stim_listA>",,html-keyboard-response,353,2081894,0.0-19.0-1.2,1284,List2A,black,woman,,,,null,,,,
null,is marrying,,html-keyboard-response,354,2083895,0.0-19.0-2.2,1284,List2A,black,woman,,,,null,,,,
7759,,,survey-text,355,2091655,0.0-19.0-3.2,1284,List2A,black,woman,,,,,"{""Q0"":""mike is marrying dave""}","<img src=""stim_listA/marry5.gif""</stim_listA>",is marrying,
null,"<div style=""font-size:60px;"">+</div>",,html-keyboard-response,356,2092156,0.0-19.0-0.3,1284,List2A,black,woman,,,,null,,,,
null,"<img src=""stim_listA/dance1.gif""</stim_listA>",,html-keyboard-response,357,2094159,0.0-19.0-1.3,1284,List2A,black,woman,,,,null,,,,
null,is dancing with,,html-keyboard-response,358,2096161,0.0-19.0-2.3,1284,List2A,black,woman,,,,null,,,,
8367,,,survey-text,359,2104528,0.0-19.0-3.3,1284,List2A,black,woman,,,,,"{""Q0"":""luke is dancing with jane""}","<img src=""stim_listA/dance1.gif""</stim_listA>",is dancing with,
null,"<div style=""font-size:60px;"">+</div>",,html-keyboard-response,360,2105030,0.0-19.0-0.4,1284,List2A,black,woman,,,,null,,,,
null,"<img src=""stim_listA/kiss1.gif""</stim_listA>",,html-keyboard-response,361,2107032,0.0-19.0-1.4,1284,List2A,black,woman,,,,null,,,,
null,is kissing,,html-keyboard-response,362,2109033,0.0-19.0-2.4,1284,List2A,black,woman,,,,null,,,,
4194,,,survey-text,363,2113228,0.0-19.0-3.4,1284,List2A,black,woman,,,,,"{""Q0"":""luke is kissing ruth""}","<img src=""stim_listA/kiss1.gif""</stim_listA>",is kissing,
null,"<div style=""font-size:60px;"">+</div>",,html-keyboard-response,364,2113729,0.0-19.0-0.5,1284,List2A,black,woman,,,,null,,,,
null,"<img src=""stim_listA/hug2.gif""</stim_listA>",,html-keyboard-response,365,2115713,0.0-19.0-1.5,1284,List2A,black,woman,,,,null,,,,
null,are hugging each other,,html-keyboard-response,366,2117719,0.0-19.0-2.5,1284,List2A,black,woman,,,,null,,,,
9516,,,survey-text,367,2127236,0.0-19.0-3.5,1284,List2A,black,woman,,,,,"{""Q0"":""jane and dave are hugging each other""}","<img src=""stim_listA/hug2.gif""</stim_listA>",are hugging each other,
null,"<div style=""font-size:60px;"">+</div>",,html-keyboard-response,368,2127737,0.0-19.0-0.6,1284,List2A,black,woman,,,,null,,,,
null,"<img src=""stim_listA/meet6.gif""</stim_listA>",,html-keyboard-response,369,2129740,0.0-19.0-1.6,1284,List2A,black,woman,,,,null,,,,
null,are meeting each other,,html-keyboard-response,370,2131742,0.0-19.0-2.6,1284,List2A,black,woman,,,,null,,,,
12348,,,survey-text,371,2144092,0.0-19.0-3.6,1284,List2A,black,woman,,,,,"{""Q0"":""luke and fred are meeting each other""}","<img src=""stim_listA/meet6.gif""</stim_listA>",are meeting each other,
null,"<div style=""font-size:60px;"">+</div>",,html-keyboard-response,372,2144593,0.0-19.0-0.7,1284,List2A,black,woman,,,,null,,,,
null,"<img src=""stim_listA/dance4.gif""</stim_listA>",,html-keyboard-response,373,2146595,0.0-19.0-1.7,1284,List2A,black,woman,,,,null,,,,
null,are dancing with each other,,html-keyboard-response,374,2148597,0.0-19.0-2.7,1284,List2A,black,woman,,,,null,,,,
9705,,,survey-text,375,2158303,0.0-19.0-3.7,1284,List2A,black,woman,,,,,"{""Q0"":""beth and mike are dancing with each other""}","<img src=""stim_listA/dance4.gif""</stim_listA>",are dancing with each other,
null,"<div style=""font-size:60px;"">+</div>",,html-keyboard-response,376,2158806,0.0-19.0-0.8,1284,List2A,black,woman,,,,null,,,,
null,"<img src=""stim_listA/talk2.gif""</stim_listA>",,html-keyboard-response,377,2160808,0.0-19.0-1.8,1284,List2A,black,woman,,,,null,,,,
null,are talking to each other,,html-keyboard-response,378,2162810,0.0-19.0-2.8,1284,List2A,black,woman,,,,null,,,,
12193,,,survey-text,379,2175004,0.0-19.0-3.8,1284,List2A,black,woman,,,,,"{""Q0"":""dave and ruth are talking to each other""}","<img src=""stim_listA/talk2.gif""</stim_listA>",are talking to each other,
null,"<div style=""font-size:60px;"">+</div>",,html-keyboard-response,380,2175507,0.0-19.0-0.9,1284,List2A,black,woman,,,,null,,,,
null,"<img src=""stim_listA/marry6.gif""</stim_listA>",,html-keyboard-response,381,2177495,0.0-19.0-1.9,1284,List2A,black,woman,,,,null,,,,
null,are marrying each other,,html-keyboard-response,382,2179497,0.0-19.0-2.9,1284,List2A,black,woman,,,,null,,,,
6888,,,survey-text,383,2186387,0.0-19.0-3.9,1284,List2A,black,woman,,,,,"{""Q0"":""luke and mike are marrying each other""}","<img src=""stim_listA/marry6.gif""</stim_listA>",are marrying each other,
null,"<div style=""font-size:60px;"">+</div>",,html-keyboard-response,384,2186889,0.0-19.0-0.10,1284,List2A,black,woman,,,,null,,,,
null,"<img src=""stim_listA/argue4.gif""</stim_listA>",,html-keyboard-response,385,2188891,0.0-19.0-1.10,1284,List2A,black,woman,,,,null,,,,
null,are arguing with each other,,html-keyboard-response,386,2190895,0.0-19.0-2.10,1284,List2A,black,woman,,,,null,,,,
14019,,,survey-text,387,2204916,0.0-19.0-3.10,1284,List2A,black,woman,,,,,"{""Q0"":""kate and fred are arguing with each other""}","<img src=""stim_listA/argue4.gif""</stim_listA>",are arguing with each other,
null,"<div style=""font-size:60px;"">+</div>",,html-keyboard-response,388,2205418,0.0-19.0-0.11,1284,List2A,black,woman,,,,null,,,,
null,"<img src=""stim_listA/meet1.gif""</stim_listA>",,html-keyboard-response,389,2207421,0.0-19.0-1.11,1284,List2A,black,woman,,,,null,,,,
null,is meeting,,html-keyboard-response,390,2209422,0.0-19.0-2.11,1284,List2A,black,woman,,,,null,,,,
6063,,,survey-text,391,2215486,0.0-19.0-3.11,1284,List2A,black,woman,,,,,"{""Q0"":""dave is meeting jane""}","<img src=""stim_listA/meet1.gif""</stim_listA>",is meeting,
null,"<div style=""font-size:60px;"">+</div>",,html-keyboard-response,392,2215988,0.0-19.0-0.12,1284,List2A,black,woman,,,,null,,,,
null,"<img src=""stim_listA/hug8.gif""</stim_listA>",,html-keyboard-response,393,2217990,0.0-19.0-1.12,1284,List2A,black,woman,,,,null,,,,
null,are hugging each other,,html-keyboard-response,394,2219992,0.0-19.0-2.12,1284,List2A,black,woman,,,,null,,,,
16137,,,survey-text,395,2236130,0.0-19.0-3.12,1284,List2A,black,woman,,,,,"{""Q0"":""jane is hugging kate""}","<img src=""stim_listA/hug8.gif""</stim_listA>",are hugging each other,
null,"<div style=""font-size:60px;"">+</div>",,html-keyboard-response,396,2236632,0.0-19.0-0.13,1284,List2A,black,woman,,,,null,,,,
null,"<img src=""stim_listA/talk6.gif""</stim_listA>",,html-keyboard-response,397,2238634,0.0-19.0-1.13,1284,List2A,black,woman,,,,null,,,,
null,are talking to each other,,html-keyboard-response,398,2240636,0.0-19.0-2.13,1284,List2A,black,woman,,,,null,,,,
8262,,,survey-text,399,2248899,0.0-19.0-3.13,1284,List2A,black,woman,,,,,"{""Q0"":""fred and dave are talking to each other""}","<img src=""stim_listA/talk6.gif""</stim_listA>",are talking to each other,
null,"<div style=""font-size:60px;"">+</div>",,html-keyboard-response,400,2249401,0.0-19.0-0.14,1284,List2A,black,woman,,,,null,,,,
null,"<img src=""stim_listA/fight6.gif""</stim_listA>",,html-keyboard-response,401,2251408,0.0-19.0-1.14,1284,List2A,black,woman,,,,null,,,,
null,are fighting each other,,html-keyboard-response,402,2253409,0.0-19.0-2.14,1284,List2A,black,woman,,,,null,,,,
59788,,,survey-text,403,2313198,0.0-19.0-3.14,1284,List2A,black,woman,,,,,"{""Q0"":""luke and fred are fighting each other""}","<img src=""stim_listA/fight6.gif""</stim_listA>",are fighting each other,
null,"<div style=""font-size:60px;"">+</div>",,html-keyboard-response,404,2313703,0.0-19.0-0.15,1284,List2A,black,woman,,,,null,,,,
null,"<img src=""stim_listA/meet8.gif""</stim_listA>",,html-keyboard-response,405,2315715,0.0-19.0-1.15,1284,List2A,black,woman,,,,null,,,,
null,are meeting each other,,html-keyboard-response,406,2317717,0.0-19.0-2.15,1284,List2A,black,woman,,,,null,,,,
12875,,,survey-text,407,2330592,0.0-19.0-3.15,1284,List2A,black,woman,,,,,"{""Q0"":""beth and ruth are meeting each other""}","<img src=""stim_listA/meet8.gif""</stim_listA>",are meeting each other,
null,"<div style=""font-size:60px;"">+</div>",,html-keyboard-response,408,2331101,0.0-19.0-0.16,1284,List2A,black,woman,,,,null,,,,
null,"<img src=""stim_listA/kiss8.gif""</stim_listA>",,html-keyboard-response,409,2333122,0.0-19.0-1.16,1284,List2A,black,woman,,,,null,,,,
null,are kissing each other,,html-keyboard-response,410,2335126,0.0-19.0-2.16,1284,List2A,black,woman,,,,null,,,,
9080,,,survey-text,411,2344206,0.0-19.0-3.16,1284,List2A,black,woman,,,,,"{""Q0"":""kate and jane are kissing each other""}","<img src=""stim_listA/kiss8.gif""</stim_listA>",are kissing each other,
null,"<div style=""font-size:60px;"">+</div>",,html-keyboard-response,412,2344716,0.0-19.0-0.17,1284,List2A,black,woman,,,,null,,,,
null,"<img src=""stim_listA/kiss7.gif""</stim_listA>",,html-keyboard-response,413,2346719,0.0-19.0-1.17,1284,List2A,black,woman,,,,null,,,,
null,is kissing,,html-keyboard-response,414,2348721,0.0-19.0-2.17,1284,List2A,black,woman,,,,null,,,,
12827,,,survey-text,415,2361549,0.0-19.0-3.17,1284,List2A,black,woman,,,,,"{""Q0"":""beth is kissing ruth""}","<img src=""stim_listA/kiss7.gif""</stim_listA>",is kissing,
null,"<div style=""font-size:60px;"">+</div>",,html-keyboard-response,416,2362051,0.0-19.0-0.18,1284,List2A,black,woman,,,,null,,,,
null,"<img src=""stim_listA/argue3.gif""</stim_listA>",,html-keyboard-response,417,2364055,0.0-19.0-1.18,1284,List2A,black,woman,,,,null,,,,
null,is arguing with,,html-keyboard-response,418,2366057,0.0-19.0-2.18,1284,List2A,black,woman,,,,null,,,,
10136,,,survey-text,419,2376198,0.0-19.0-3.18,1284,List2A,black,woman,,,,,"{""Q0"":""beth is arguing with mike""}","<img src=""stim_listA/argue3.gif""</stim_listA>",is arguing with,
null,"<div style=""font-size:60px;"">+</div>",,html-keyboard-response,420,2376701,0.0-19.0-0.19,1284,List2A,black,woman,,,,null,,,,
null,"<img src=""stim_listA/dance2.gif""</stim_listA>",,html-keyboard-response,421,2378703,0.0-19.0-1.19,1284,List2A,black,woman,,,,null,,,,
null,are dancing with each other,,html-keyboard-response,422,2380705,0.0-19.0-2.19,1284,List2A,black,woman,,,,null,,,,
9634,,,survey-text,423,2390340,0.0-19.0-3.19,1284,List2A,black,woman,,,,,"{""Q0"":""dave and ruth are dancing with each other""}","<img src=""stim_listA/dance2.gif""</stim_listA>",are dancing with each other,
2874,<p>Thank you for completing that task.</p><p>The final part of this session is a short questionnaire.</p><p>Press Continue.</p>,0,html-button-response,424,2393215,0.0-20.0,1284,List2A,black,woman,,,,,,,,
33972,,,survey-text,425,2428192,0.0-21.0,1284,List2A,black,woman,,,,,"{""Q0"":""27"",""Q1"":""english"",""Q2"":""english"",""Q3"":""united kingdom"",""Q4"":""black british"",""Q5"":""female""}",,,demographics
52568,,,survey-likert,426,2480765,0.0-22.0,1284,List2A,black,woman,,,,,"{""Q0"":6,""Q1"":6,""Q2"":5,""Q3"":5,""Q4"":5,""Q5"":1,""Q6"":5,""Q7"":6,""Q8"":"""",""Q9"":6,""Q10"":5,""Q11"":5,""Q12"":5,""Q13"":4}",,,likert_race
36884,,,survey-likert,427,2517654,0.0-23.0,1284,List2A,black,woman,,,,,"{""Q0"":6,""Q1"":6,""Q2"":6,""Q3"":6,""Q4"":6,""Q5"":2,""Q6"":5,""Q7"":6,""Q8"":5,""Q9"":5,""Q10"":5,""Q11"":5,""Q12"":5,""Q13"":2}",,,likert_gender
10598,,,survey-text,428,2528254,0.0-24.0,1284,List2A,black,woman,,,,,"{""Q0"":""ccc""}",,,worker_id
10618,,,external-html,429,2538913,0.0-25.0,1284,List2A,black,woman,debrief.html,,,,,,,
