rt,stimulus,button_pressed,trial_type,trial_index,time_elapsed,internal_node_id,subject,list,ppt_race,ppt_gender,url,first_guess,correct,key_press,responses,image_type,phrase_type,test_part
1591,Welcome to the experiment. Press Continue to begin.,0,html-button-response,0,1598,0.0-0.0,15077,List1B,white,woman,,,,,,,,
63145,,,external-html,1,65792,0.0-1.0,15077,List1B,white,woman,consent.html,,,,,,,
9200,"<p>On the next page, you will see portraits of 8 people and their names.</p><p>Your first task is to take a few minutes to memorise the names of these people.</p><p>You will have to recall their names during the rest of the experiment, so it is</p><p>essential that you try to memorise these people and their names as best as you can.</p><br><p><strong>You will then be tested on your memory of these names and portraits.</strong></p><br><p>The experiment will start after you have completed this memory test.</p><br><p>Ready?</p>",0,html-button-response,2,74993,0.0-2.0,15077,List1B,white,woman,,,,,,,,
38104,"<img src='img/portrait_matrix_list1.JPG' style='width:900px;height:500px;''></img><p>If you have memorised all the portraits and names and are ready to start, press Continue.</p><p><strong>Please note: Your memory of these faces will be tested 4 times during this experiment.</strong></p>",0,html-button-response,3,114106,0.0-3.0-0.0,15077,List1B,white,woman,,,,,,,,
3429,"<img src=""portrait/WM1.jpg""style=""width:400px;height:400px;""></img>",6,html-button-response,4,118548,0.0-3.0-1.0,15077,List1B,white,woman,,TRUE,6,,,,,
null,CORRECT,,html-keyboard-response,5,120079,0.0-3.0-2.0-0.0,15077,List1B,white,woman,,,,null,,,,
3691,"<img src=""portrait/WW1.jpg""style=""width:400px;height:400px;""></img>",1,html-button-response,6,123778,0.0-3.0-4.0,15077,List1B,white,woman,,TRUE,1,,,,,
null,CORRECT,,html-keyboard-response,7,125294,0.0-3.0-5.0-0.0,15077,List1B,white,woman,,,,null,,,,
2573,"<img src=""portrait/WW2.jpg""style=""width:400px;height:400px;""></img>",3,html-button-response,8,127873,0.0-3.0-7.0,15077,List1B,white,woman,,TRUE,3,,,,,
null,CORRECT,,html-keyboard-response,9,129392,0.0-3.0-8.0-0.0,15077,List1B,white,woman,,,,null,,,,
4895,"<img src=""portrait/WM2.jpg""style=""width:400px;height:400px;""></img>",7,html-button-response,10,134294,0.0-3.0-10.0,15077,List1B,white,woman,,TRUE,7,,,,,
null,CORRECT,,html-keyboard-response,11,135824,0.0-3.0-11.0-0.0,15077,List1B,white,woman,,,,null,,,,
4146,"<img src=""portrait/BM2.jpg""style=""width:400px;height:400px;""></img>",5,html-button-response,12,139975,0.0-3.0-13.0,15077,List1B,white,woman,,TRUE,5,,,,,
null,CORRECT,,html-keyboard-response,13,141505,0.0-3.0-14.0-0.0,15077,List1B,white,woman,,,,null,,,,
6715,"<img src=""portrait/BW1.jpg""style=""width:400px;height:400px;""></img>",0,html-button-response,14,148226,0.0-3.0-16.0,15077,List1B,white,woman,,TRUE,0,,,,,
null,CORRECT,,html-keyboard-response,15,149752,0.0-3.0-17.0-0.0,15077,List1B,white,woman,,,,null,,,,
5865,"<img src=""portrait/BM1.jpg""style=""width:400px;height:400px;""></img>",4,html-button-response,16,155623,0.0-3.0-19.0,15077,List1B,white,woman,,TRUE,4,,,,,
null,CORRECT,,html-keyboard-response,17,157150,0.0-3.0-20.0-0.0,15077,List1B,white,woman,,,,null,,,,
3351,"<img src=""portrait/BW2.jpg""style=""width:400px;height:400px;""></img>",2,html-button-response,18,160506,0.0-3.0-22.0,15077,List1B,white,woman,,TRUE,2,,,,,
null,CORRECT,,html-keyboard-response,19,162031,0.0-3.0-23.0-0.0,15077,List1B,white,woman,,,,null,,,,
1614,<p>You got 8 out of 8 right first time. Press Continue.</p>,0,html-button-response,20,163649,0.0-3.0-25.0,15077,List1B,white,woman,,,,,,,,
54932,"<p>In this experiment, you will view photographs of the people from the memory game interacting.</p><p>By using the <strong>exact</strong> phrase given <i>after</i> the photograph appears and recalling the correct names of the people in the photographs, form a sentence describing the interaction. You do not need to capitalise names.</p><p>Type your answer in the space provided. Please complete every sentence before moving onto the next trial.</p><p>You will only have a few seconds to memorise each given photograph and phrase before you can respond, so try your best to focus.</p><p>An example is given below. Press 'Continue' when you are ready.</p><img src='img/speaking_example_v2.jpg' style='width:800px;height:460px;''></img>",0,html-button-response,21,219604,0.0-4.0,15077,List1B,white,woman,,,,,,,,
1854,"<p>Before the experiment starts, you will watch two example trials. Press 'Continue'.</p>",0,html-button-response,22,222467,0.0-5.0,15077,List1B,white,woman,,,,,,,,
null,<img src='img/speaking_WW.gif'></img>,,html-keyboard-response,23,225485,0.0-6.0,15077,List1B,white,woman,,,,null,,,,
null,<p>is speaking to</p>,,html-keyboard-response,24,227493,0.0-7.0,15077,List1B,white,woman,,,,null,,,,
10698,<p><b>Answer:</b> kate is speaking to beth</p>,0,html-button-response,25,238192,0.0-8.0,15077,List1B,white,woman,,,,,,,,
null,<img src='img/pointing_BM.gif'></img>,,html-keyboard-response,26,241217,0.0-9.0,15077,List1B,white,woman,,,,null,,,,
null,<p>are pointing at each other</p>,,html-keyboard-response,27,243222,0.0-10.0,15077,List1B,white,woman,,,,null,,,,
3914,<p><b>Answer:</b> luke and dave are pointing at each other</p>,0,html-button-response,28,247138,0.0-11.0,15077,List1B,white,woman,,,,,,,,
14937,"<p>Ready to start the experiment?</p><br><p><strong>Remember to describe the picture using a full sentence,</strong></p><p><strong>that combines the names of the people with the given phrase.</strong></p><p><strong>If you do not do this correctly you will not be paid.</strong></p><p><strong> You do not need to capitalise names or use punctuation.</strong></p><br><p>Press 'Continue' to begin.</p>",0,html-button-response,29,263092,0.0-12.0,15077,List1B,white,woman,,,,,,,,
null,"<div style=""font-size:60px;"">+</div>",,html-keyboard-response,30,264613,0.0-13.0-0.0,15077,List1B,white,woman,,,,null,,,,
null,"<img src=""stim_listB/touch7.gif""</stim_listB>",,html-keyboard-response,31,266626,0.0-13.0-1.0,15077,List1B,white,woman,,,,null,,,,
null,is touching,,html-keyboard-response,32,268630,0.0-13.0-2.0,15077,List1B,white,woman,,,,null,,,,
7293,,,survey-text,33,275925,0.0-13.0-3.0,15077,List1B,white,woman,,,,,"{""Q0"":""jane is touching kate""}","<img src=""stim_listB/touch7.gif""</stim_listB>",is touching,
null,"<div style=""font-size:60px;"">+</div>",,html-keyboard-response,34,276443,0.0-13.0-0.1,15077,List1B,white,woman,,,,null,,,,
null,"<img src=""stim_listB/meet6.gif""</stim_listB>",,html-keyboard-response,35,278454,0.0-13.0-1.1,15077,List1B,white,woman,,,,null,,,,
null,are meeting each other,,html-keyboard-response,36,280458,0.0-13.0-2.1,15077,List1B,white,woman,,,,null,,,,
11711,,,survey-text,37,292171,0.0-13.0-3.1,15077,List1B,white,woman,,,,,"{""Q0"":""fred and luke are meeting each other ""}","<img src=""stim_listB/meet6.gif""</stim_listB>",are meeting each other,
null,"<div style=""font-size:60px;"">+</div>",,html-keyboard-response,38,292687,0.0-13.0-0.2,15077,List1B,white,woman,,,,null,,,,
null,"<img src=""stim_listB/hug3.gif""</stim_listB>",,html-keyboard-response,39,294694,0.0-13.0-1.2,15077,List1B,white,woman,,,,null,,,,
null,is hugging,,html-keyboard-response,40,296703,0.0-13.0-2.2,15077,List1B,white,woman,,,,null,,,,
10289,,,survey-text,41,306994,0.0-13.0-3.2,15077,List1B,white,woman,,,,,"{""Q0"":""ruth is hugging luke""}","<img src=""stim_listB/hug3.gif""</stim_listB>",is hugging,
null,"<div style=""font-size:60px;"">+</div>",,html-keyboard-response,42,307505,0.0-13.0-0.3,15077,List1B,white,woman,,,,null,,,,
null,"<img src=""stim_listB/dance2.gif""</stim_listB>",,html-keyboard-response,43,309510,0.0-13.0-1.3,15077,List1B,white,woman,,,,null,,,,
null,are dancing with each other,,html-keyboard-response,44,311514,0.0-13.0-2.3,15077,List1B,white,woman,,,,null,,,,
12273,,,survey-text,45,323790,0.0-13.0-3.3,15077,List1B,white,woman,,,,,"{""Q0"":""mike and beth are dancing with eachother""}","<img src=""stim_listB/dance2.gif""</stim_listB>",are dancing with each other,
null,"<div style=""font-size:60px;"">+</div>",,html-keyboard-response,46,324294,0.0-13.0-0.4,15077,List1B,white,woman,,,,null,,,,
null,"<img src=""stim_listB/fight4.gif""</stim_listB>",,html-keyboard-response,47,326305,0.0-13.0-1.4,15077,List1B,white,woman,,,,null,,,,
null,are fighting each other,,html-keyboard-response,48,328309,0.0-13.0-2.4,15077,List1B,white,woman,,,,null,,,,
10205,,,survey-text,49,338515,0.0-13.0-3.4,15077,List1B,white,woman,,,,,"{""Q0"":""luke and ruth are fighting eachother""}","<img src=""stim_listB/fight4.gif""</stim_listB>",are fighting each other,
null,"<div style=""font-size:60px;"">+</div>",,html-keyboard-response,50,339022,0.0-13.0-0.5,15077,List1B,white,woman,,,,null,,,,
null,"<img src=""stim_listB/meet2.gif""</stim_listB>",,html-keyboard-response,51,341033,0.0-13.0-1.5,15077,List1B,white,woman,,,,null,,,,
null,are meeting each other,,html-keyboard-response,52,343037,0.0-13.0-2.5,15077,List1B,white,woman,,,,null,,,,
13022,,,survey-text,53,356061,0.0-13.0-3.5,15077,List1B,white,woman,,,,,"{""Q0"":""fred and beth are meeting eachother""}","<img src=""stim_listB/meet2.gif""</stim_listB>",are meeting each other,
null,"<div style=""font-size:60px;"">+</div>",,html-keyboard-response,54,356583,0.0-13.0-0.6,15077,List1B,white,woman,,,,null,,,,
null,"<img src=""stim_listB/dance8.gif""</stim_listB>",,html-keyboard-response,55,358586,0.0-13.0-1.6,15077,List1B,white,woman,,,,null,,,,
null,are dancing with each other,,html-keyboard-response,56,360600,0.0-13.0-2.6,15077,List1B,white,woman,,,,null,,,,
16120,,,survey-text,57,376721,0.0-13.0-3.6,15077,List1B,white,woman,,,,,"{""Q0"":""kate and ruth are dancing with eachother""}","<img src=""stim_listB/dance8.gif""</stim_listB>",are dancing with each other,
null,"<div style=""font-size:60px;"">+</div>",,html-keyboard-response,58,377233,0.0-13.0-0.7,15077,List1B,white,woman,,,,null,,,,
null,"<img src=""stim_listB/shout6.gif""</stim_listB>",,html-keyboard-response,59,379239,0.0-13.0-1.7,15077,List1B,white,woman,,,,null,,,,
null,are shouting at each other,,html-keyboard-response,60,381242,0.0-13.0-2.7,15077,List1B,white,woman,,,,null,,,,
12998,,,survey-text,61,394242,0.0-13.0-3.7,15077,List1B,white,woman,,,,,"{""Q0"":""mike and dave are shouting at eachother""}","<img src=""stim_listB/shout6.gif""</stim_listB>",are shouting at each other,
null,"<div style=""font-size:60px;"">+</div>",,html-keyboard-response,62,394753,0.0-13.0-0.8,15077,List1B,white,woman,,,,null,,,,
null,"<img src=""stim_listB/talk6.gif""</stim_listB>",,html-keyboard-response,63,396762,0.0-13.0-1.8,15077,List1B,white,woman,,,,null,,,,
null,are talking to each other,,html-keyboard-response,64,398760,0.0-13.0-2.8,15077,List1B,white,woman,,,,null,,,,
11908,,,survey-text,65,410671,0.0-13.0-3.8,15077,List1B,white,woman,,,,,"{""Q0"":""luke and mike are talking to eachother""}","<img src=""stim_listB/talk6.gif""</stim_listB>",are talking to each other,
null,"<div style=""font-size:60px;"">+</div>",,html-keyboard-response,66,411182,0.0-13.0-0.9,15077,List1B,white,woman,,,,null,,,,
null,"<img src=""stim_listB/marry6.gif""</stim_listB>",,html-keyboard-response,67,413189,0.0-13.0-1.9,15077,List1B,white,woman,,,,null,,,,
null,are marrying each other,,html-keyboard-response,68,415190,0.0-13.0-2.9,15077,List1B,white,woman,,,,null,,,,
9311,,,survey-text,69,424503,0.0-13.0-3.9,15077,List1B,white,woman,,,,,"{""Q0"":""dave and fred are marrying eachother""}","<img src=""stim_listB/marry6.gif""</stim_listB>",are marrying each other,
null,"<div style=""font-size:60px;"">+</div>",,html-keyboard-response,70,425009,0.0-13.0-0.10,15077,List1B,white,woman,,,,null,,,,
null,"<img src=""stim_listB/talk3.gif""</stim_listB>",,html-keyboard-response,71,427018,0.0-13.0-1.10,15077,List1B,white,woman,,,,null,,,,
null,is talking to,,html-keyboard-response,72,429015,0.0-13.0-2.10,15077,List1B,white,woman,,,,null,,,,
10367,,,survey-text,73,439385,0.0-13.0-3.10,15077,List1B,white,woman,,,,,"{""Q0"":""jane is talking to luke""}","<img src=""stim_listB/talk3.gif""</stim_listB>",is talking to,
null,"<div style=""font-size:60px;"">+</div>",,html-keyboard-response,74,439894,0.0-13.0-0.11,15077,List1B,white,woman,,,,null,,,,
null,"<img src=""stim_listB/fight8.gif""</stim_listB>",,html-keyboard-response,75,441896,0.0-13.0-1.11,15077,List1B,white,woman,,,,null,,,,
null,are fighting each other,,html-keyboard-response,76,443903,0.0-13.0-2.11,15077,List1B,white,woman,,,,null,,,,
11664,,,survey-text,77,455569,0.0-13.0-3.11,15077,List1B,white,woman,,,,,"{""Q0"":""beth and ruth are fighting eachother""}","<img src=""stim_listB/fight8.gif""</stim_listB>",are fighting each other,
null,"<div style=""font-size:60px;"">+</div>",,html-keyboard-response,78,456073,0.0-13.0-0.12,15077,List1B,white,woman,,,,null,,,,
null,"<img src=""stim_listB/hug1.gif""</stim_listB>",,html-keyboard-response,79,458089,0.0-13.0-1.12,15077,List1B,white,woman,,,,null,,,,
null,is hugging,,html-keyboard-response,80,460077,0.0-13.0-2.12,15077,List1B,white,woman,,,,null,,,,
11237,,,survey-text,81,471315,0.0-13.0-3.12,15077,List1B,white,woman,,,,,"{""Q0"":""fred is hugging beth""}","<img src=""stim_listB/hug1.gif""</stim_listB>",is hugging,
null,"<div style=""font-size:60px;"">+</div>",,html-keyboard-response,82,471827,0.0-13.0-0.13,15077,List1B,white,woman,,,,null,,,,
null,"<img src=""stim_listB/touch5.gif""</stim_listB>",,html-keyboard-response,83,473835,0.0-13.0-1.13,15077,List1B,white,woman,,,,null,,,,
null,is touching,,html-keyboard-response,84,475834,0.0-13.0-2.13,15077,List1B,white,woman,,,,null,,,,
8255,,,survey-text,85,484091,0.0-13.0-3.13,15077,List1B,white,woman,,,,,"{""Q0"":""dave is touching mike""}","<img src=""stim_listB/touch5.gif""</stim_listB>",is touching,
null,"<div style=""font-size:60px;"">+</div>",,html-keyboard-response,86,484596,0.0-13.0-0.14,15077,List1B,white,woman,,,,null,,,,
null,"<img src=""stim_listB/kiss3.gif""</stim_listB>",,html-keyboard-response,87,486605,0.0-13.0-1.14,15077,List1B,white,woman,,,,null,,,,
null,is kissing,,html-keyboard-response,88,488605,0.0-13.0-2.14,15077,List1B,white,woman,,,,null,,,,
6679,,,survey-text,89,495288,0.0-13.0-3.14,15077,List1B,white,woman,,,,,"{""Q0"":""luke is kissing ruth""}","<img src=""stim_listB/kiss3.gif""</stim_listB>",is kissing,
null,"<div style=""font-size:60px;"">+</div>",,html-keyboard-response,90,495802,0.0-13.0-0.15,15077,List1B,white,woman,,,,null,,,,
null,"<img src=""stim_listB/marry4.gif""</stim_listB>",,html-keyboard-response,91,497808,0.0-13.0-1.15,15077,List1B,white,woman,,,,null,,,,
null,are marrying each other,,html-keyboard-response,92,499818,0.0-13.0-2.15,15077,List1B,white,woman,,,,null,,,,
11155,,,survey-text,93,510974,0.0-13.0-3.15,15077,List1B,white,woman,,,,,"{""Q0"":""jane and luke are marrying eachother""}","<img src=""stim_listB/marry4.gif""</stim_listB>",are marrying each other,
null,"<div style=""font-size:60px;"">+</div>",,html-keyboard-response,94,511484,0.0-13.0-0.16,15077,List1B,white,woman,,,,null,,,,
null,"<img src=""stim_listB/marry3.gif""</stim_listB>",,html-keyboard-response,95,513489,0.0-13.0-1.16,15077,List1B,white,woman,,,,null,,,,
null,is marrying,,html-keyboard-response,96,515497,0.0-13.0-2.16,15077,List1B,white,woman,,,,null,,,,
13432,,,survey-text,97,528930,0.0-13.0-3.16,15077,List1B,white,woman,,,,,"{""Q0"":""dave is marrying kate""}","<img src=""stim_listB/marry3.gif""</stim_listB>",is marrying,
null,"<div style=""font-size:60px;"">+</div>",,html-keyboard-response,98,529447,0.0-13.0-0.17,15077,List1B,white,woman,,,,null,,,,
null,"<img src=""stim_listB/touch4.gif""</stim_listB>",,html-keyboard-response,99,531449,0.0-13.0-1.17,15077,List1B,white,woman,,,,null,,,,
null,are touching each other,,html-keyboard-response,100,533456,0.0-13.0-2.17,15077,List1B,white,woman,,,,null,,,,
8436,,,survey-text,101,541893,0.0-13.0-3.17,15077,List1B,white,woman,,,,,"{""Q0"":""luke and ruth are touching eachother""}","<img src=""stim_listB/touch4.gif""</stim_listB>",are touching each other,
null,"<div style=""font-size:60px;"">+</div>",,html-keyboard-response,102,542403,0.0-13.0-0.18,15077,List1B,white,woman,,,,null,,,,
null,"<img src=""stim_listB/talk4.gif""</stim_listB>",,html-keyboard-response,103,544411,0.0-13.0-1.18,15077,List1B,white,woman,,,,null,,,,
null,are talking to each other,,html-keyboard-response,104,546410,0.0-13.0-2.18,15077,List1B,white,woman,,,,null,,,,
7724,,,survey-text,105,554136,0.0-13.0-3.18,15077,List1B,white,woman,,,,,"{""Q0"":""dave and ruth are talking to eachother""}","<img src=""stim_listB/talk4.gif""</stim_listB>",are talking to each other,
null,"<div style=""font-size:60px;"">+</div>",,html-keyboard-response,106,554640,0.0-13.0-0.19,15077,List1B,white,woman,,,,null,,,,
null,"<img src=""stim_listB/shout5.gif""</stim_listB>",,html-keyboard-response,107,556657,0.0-13.0-1.19,15077,List1B,white,woman,,,,null,,,,
null,is shouting at,,html-keyboard-response,108,558647,0.0-13.0-2.19,15077,List1B,white,woman,,,,null,,,,
9353,,,survey-text,109,568003,0.0-13.0-3.19,15077,List1B,white,woman,,,,,"{""Q0"":""fred is shouting at luke""}","<img src=""stim_listB/shout5.gif""</stim_listB>",is shouting at,
7974,"<img src='img/portrait_matrix_list1.JPG' style='width:900px;height:500px;''></img><p>If you have memorised all the portraits and names and are ready to start, press Continue.</p><p><strong>Please note: Your memory of these faces will be tested 4 times during this experiment.</strong></p>",0,html-button-response,110,575979,0.0-14.0-0.0,15077,List1B,white,woman,,,,,,,,
3444,"<img src=""portrait/WW1.jpg""style=""width:400px;height:400px;""></img>",1,html-button-response,111,580428,0.0-14.0-1.0,15077,List1B,white,woman,,TRUE,1,,,,,
null,CORRECT,,html-keyboard-response,112,581956,0.0-14.0-2.0-0.0,15077,List1B,white,woman,,,,null,,,,
3176,"<img src=""portrait/BW1.jpg""style=""width:400px;height:400px;""></img>",0,html-button-response,113,585137,0.0-14.0-4.0,15077,List1B,white,woman,,TRUE,0,,,,,
null,CORRECT,,html-keyboard-response,114,586672,0.0-14.0-5.0-0.0,15077,List1B,white,woman,,,,null,,,,
1689,"<img src=""portrait/WM2.jpg""style=""width:400px;height:400px;""></img>",7,html-button-response,115,588365,0.0-14.0-7.0,15077,List1B,white,woman,,TRUE,7,,,,,
null,CORRECT,,html-keyboard-response,116,589904,0.0-14.0-8.0-0.0,15077,List1B,white,woman,,,,null,,,,
2205,"<img src=""portrait/BM1.jpg""style=""width:400px;height:400px;""></img>",4,html-button-response,117,592113,0.0-14.0-10.0,15077,List1B,white,woman,,TRUE,4,,,,,
null,CORRECT,,html-keyboard-response,118,593635,0.0-14.0-11.0-0.0,15077,List1B,white,woman,,,,null,,,,
2318,"<img src=""portrait/BM2.jpg""style=""width:400px;height:400px;""></img>",5,html-button-response,119,595956,0.0-14.0-13.0,15077,List1B,white,woman,,TRUE,5,,,,,
null,CORRECT,,html-keyboard-response,120,597470,0.0-14.0-14.0-0.0,15077,List1B,white,woman,,,,null,,,,
1751,"<img src=""portrait/WW2.jpg""style=""width:400px;height:400px;""></img>",3,html-button-response,121,599223,0.0-14.0-16.0,15077,List1B,white,woman,,TRUE,3,,,,,
null,CORRECT,,html-keyboard-response,122,600746,0.0-14.0-17.0-0.0,15077,List1B,white,woman,,,,null,,,,
2586,"<img src=""portrait/WM1.jpg""style=""width:400px;height:400px;""></img>",6,html-button-response,123,603335,0.0-14.0-19.0,15077,List1B,white,woman,,TRUE,6,,,,,
null,CORRECT,,html-keyboard-response,124,604865,0.0-14.0-20.0-0.0,15077,List1B,white,woman,,,,null,,,,
2147,"<img src=""portrait/BW2.jpg""style=""width:400px;height:400px;""></img>",2,html-button-response,125,607015,0.0-14.0-22.0,15077,List1B,white,woman,,TRUE,2,,,,,
null,CORRECT,,html-keyboard-response,126,608527,0.0-14.0-23.0-0.0,15077,List1B,white,woman,,,,null,,,,
1781,<p>You got 8 out of 8 right first time. Press Continue.</p>,0,html-button-response,127,610310,0.0-14.0-25.0,15077,List1B,white,woman,,,,,,,,
null,"<div style=""font-size:60px;"">+</div>",,html-keyboard-response,128,611815,0.0-15.0-0.0,15077,List1B,white,woman,,,,null,,,,
null,"<img src=""stim_listB/talk2.gif""</stim_listB>",,html-keyboard-response,129,613823,0.0-15.0-1.0,15077,List1B,white,woman,,,,null,,,,
null,are talking to each other,,html-keyboard-response,130,615828,0.0-15.0-2.0,15077,List1B,white,woman,,,,null,,,,
7330,,,survey-text,131,623160,0.0-15.0-3.0,15077,List1B,white,woman,,,,,"{""Q0"":""mike and beth are talking to eachother""}","<img src=""stim_listB/talk2.gif""</stim_listB>",are talking to each other,
null,"<div style=""font-size:60px;"">+</div>",,html-keyboard-response,132,623676,0.0-15.0-0.1,15077,List1B,white,woman,,,,null,,,,
null,"<img src=""stim_listB/argue1.gif""</stim_listB>",,html-keyboard-response,133,625684,0.0-15.0-1.1,15077,List1B,white,woman,,,,null,,,,
null,is arguing with,,html-keyboard-response,134,627682,0.0-15.0-2.1,15077,List1B,white,woman,,,,null,,,,
6696,,,survey-text,135,634379,0.0-15.0-3.1,15077,List1B,white,woman,,,,,"{""Q0"":""mike is arguing with beth""}","<img src=""stim_listB/argue1.gif""</stim_listB>",is arguing with,
null,"<div style=""font-size:60px;"">+</div>",,html-keyboard-response,136,634885,0.0-15.0-0.2,15077,List1B,white,woman,,,,null,,,,
null,"<img src=""stim_listB/touch6.gif""</stim_listB>",,html-keyboard-response,137,636896,0.0-15.0-1.2,15077,List1B,white,woman,,,,null,,,,
null,are touching each other,,html-keyboard-response,138,638889,0.0-15.0-2.2,15077,List1B,white,woman,,,,null,,,,
7892,,,survey-text,139,646783,0.0-15.0-3.2,15077,List1B,white,woman,,,,,"{""Q0"":""fred and luke are touching eachother""}","<img src=""stim_listB/touch6.gif""</stim_listB>",are touching each other,
null,"<div style=""font-size:60px;"">+</div>",,html-keyboard-response,140,647294,0.0-15.0-0.3,15077,List1B,white,woman,,,,null,,,,
null,"<img src=""stim_listB/shout4.gif""</stim_listB>",,html-keyboard-response,141,649301,0.0-15.0-1.3,15077,List1B,white,woman,,,,null,,,,
null,are shouting at each other,,html-keyboard-response,142,651301,0.0-15.0-2.3,15077,List1B,white,woman,,,,null,,,,
9431,,,survey-text,143,660733,0.0-15.0-3.3,15077,List1B,white,woman,,,,,"{""Q0"":""jane and dave are shouting at eachother""}","<img src=""stim_listB/shout4.gif""</stim_listB>",are shouting at each other,
null,"<div style=""font-size:60px;"">+</div>",,html-keyboard-response,144,661237,0.0-15.0-0.4,15077,List1B,white,woman,,,,null,,,,
null,"<img src=""stim_listB/kiss8.gif""</stim_listB>",,html-keyboard-response,145,663253,0.0-15.0-1.4,15077,List1B,white,woman,,,,null,,,,
null,are kissing each other,,html-keyboard-response,146,665245,0.0-15.0-2.4,15077,List1B,white,woman,,,,null,,,,
10327,,,survey-text,147,675574,0.0-15.0-3.4,15077,List1B,white,woman,,,,,"{""Q0"":""kate and jane are kissing eachother""}","<img src=""stim_listB/kiss8.gif""</stim_listB>",are kissing each other,
null,"<div style=""font-size:60px;"">+</div>",,html-keyboard-response,148,676092,0.0-15.0-0.5,15077,List1B,white,woman,,,,null,,,,
null,"<img src=""stim_listB/kiss5.gif""</stim_listB>",,html-keyboard-response,149,678099,0.0-15.0-1.5,15077,List1B,white,woman,,,,null,,,,
null,is kissing,,html-keyboard-response,150,680108,0.0-15.0-2.5,15077,List1B,white,woman,,,,null,,,,
6871,,,survey-text,151,686981,0.0-15.0-3.5,15077,List1B,white,woman,,,,,"{""Q0"":""fred is kissing luke""}","<img src=""stim_listB/kiss5.gif""</stim_listB>",is kissing,
null,"<div style=""font-size:60px;"">+</div>",,html-keyboard-response,152,687493,0.0-15.0-0.6,15077,List1B,white,woman,,,,null,,,,
null,"<img src=""stim_listB/talk5.gif""</stim_listB>",,html-keyboard-response,153,689496,0.0-15.0-1.6,15077,List1B,white,woman,,,,null,,,,
null,is talking to,,html-keyboard-response,154,691503,0.0-15.0-2.6,15077,List1B,white,woman,,,,null,,,,
8140,,,survey-text,155,699643,0.0-15.0-3.6,15077,List1B,white,woman,,,,,"{""Q0"":""dave is talking to fred""}","<img src=""stim_listB/talk5.gif""</stim_listB>",is talking to,
null,"<div style=""font-size:60px;"">+</div>",,html-keyboard-response,156,700155,0.0-15.0-0.7,15077,List1B,white,woman,,,,null,,,,
null,"<img src=""stim_listB/talk7.gif""</stim_listB>",,html-keyboard-response,157,702167,0.0-15.0-1.7,15077,List1B,white,woman,,,,null,,,,
null,is talking to,,html-keyboard-response,158,704167,0.0-15.0-2.7,15077,List1B,white,woman,,,,null,,,,
5802,,,survey-text,159,709971,0.0-15.0-3.7,15077,List1B,white,woman,,,,,"{""Q0"":""jane is talking to beth""}","<img src=""stim_listB/talk7.gif""</stim_listB>",is talking to,
null,"<div style=""font-size:60px;"">+</div>",,html-keyboard-response,160,710481,0.0-15.0-0.8,15077,List1B,white,woman,,,,null,,,,
null,"<img src=""stim_listB/fight7.gif""</stim_listB>",,html-keyboard-response,161,712489,0.0-15.0-1.8,15077,List1B,white,woman,,,,null,,,,
null,is fighting,,html-keyboard-response,162,714496,0.0-15.0-2.8,15077,List1B,white,woman,,,,null,,,,
7868,,,survey-text,163,722366,0.0-15.0-3.8,15077,List1B,white,woman,,,,,"{""Q0"":""jane is fighting kate""}","<img src=""stim_listB/fight7.gif""</stim_listB>",is fighting,
null,"<div style=""font-size:60px;"">+</div>",,html-keyboard-response,164,722876,0.0-15.0-0.9,15077,List1B,white,woman,,,,null,,,,
null,"<img src=""stim_listB/argue7.gif""</stim_listB>",,html-keyboard-response,165,724884,0.0-15.0-1.9,15077,List1B,white,woman,,,,null,,,,
null,is arguing with,,html-keyboard-response,166,726891,0.0-15.0-2.9,15077,List1B,white,woman,,,,null,,,,
7308,,,survey-text,167,734202,0.0-15.0-3.9,15077,List1B,white,woman,,,,,"{""Q0"":""ruth is arguing with kate""}","<img src=""stim_listB/argue7.gif""</stim_listB>",is arguing with,
null,"<div style=""font-size:60px;"">+</div>",,html-keyboard-response,168,734705,0.0-15.0-0.10,15077,List1B,white,woman,,,,null,,,,
null,"<img src=""stim_listB/touch3.gif""</stim_listB>",,html-keyboard-response,169,736715,0.0-15.0-1.10,15077,List1B,white,woman,,,,null,,,,
null,is touching,,html-keyboard-response,170,738715,0.0-15.0-2.10,15077,List1B,white,woman,,,,null,,,,
6043,,,survey-text,171,744759,0.0-15.0-3.10,15077,List1B,white,woman,,,,,"{""Q0"":""jane is touching dave""}","<img src=""stim_listB/touch3.gif""</stim_listB>",is touching,
null,"<div style=""font-size:60px;"">+</div>",,html-keyboard-response,172,745270,0.0-15.0-0.11,15077,List1B,white,woman,,,,null,,,,
null,"<img src=""stim_listB/kiss6.gif""</stim_listB>",,html-keyboard-response,173,747277,0.0-15.0-1.11,15077,List1B,white,woman,,,,null,,,,
null,are kissing each other,,html-keyboard-response,174,749300,0.0-15.0-2.11,15077,List1B,white,woman,,,,null,,,,
10411,,,survey-text,175,759712,0.0-15.0-3.11,15077,List1B,white,woman,,,,,"{""Q0"":""mike and dave are kissing eachother""}","<img src=""stim_listB/kiss6.gif""</stim_listB>",are kissing each other,
null,"<div style=""font-size:60px;"">+</div>",,html-keyboard-response,176,760229,0.0-15.0-0.12,15077,List1B,white,woman,,,,null,,,,
null,"<img src=""stim_listB/marry5.gif""</stim_listB>",,html-keyboard-response,177,762240,0.0-15.0-1.12,15077,List1B,white,woman,,,,null,,,,
null,is marrying,,html-keyboard-response,178,764245,0.0-15.0-2.12,15077,List1B,white,woman,,,,null,,,,
5511,,,survey-text,179,769758,0.0-15.0-3.12,15077,List1B,white,woman,,,,,"{""Q0"":""luke is marrying mike""}","<img src=""stim_listB/marry5.gif""</stim_listB>",is marrying,
null,"<div style=""font-size:60px;"">+</div>",,html-keyboard-response,180,770269,0.0-15.0-0.13,15077,List1B,white,woman,,,,null,,,,
null,"<img src=""stim_listB/fight6.gif""</stim_listB>",,html-keyboard-response,181,772276,0.0-15.0-1.13,15077,List1B,white,woman,,,,null,,,,
null,are fighting each other,,html-keyboard-response,182,774278,0.0-15.0-2.13,15077,List1B,white,woman,,,,null,,,,
7659,,,survey-text,183,781938,0.0-15.0-3.13,15077,List1B,white,woman,,,,,"{""Q0"":""fred and luke are fighting eachother ""}","<img src=""stim_listB/fight6.gif""</stim_listB>",are fighting each other,
null,"<div style=""font-size:60px;"">+</div>",,html-keyboard-response,184,782439,0.0-15.0-0.14,15077,List1B,white,woman,,,,null,,,,
null,"<img src=""stim_listB/meet1.gif""</stim_listB>",,html-keyboard-response,185,784448,0.0-15.0-1.14,15077,List1B,white,woman,,,,null,,,,
null,is meeting,,html-keyboard-response,186,786454,0.0-15.0-2.14,15077,List1B,white,woman,,,,null,,,,
4797,,,survey-text,187,791254,0.0-15.0-3.14,15077,List1B,white,woman,,,,,"{""Q0"":""mike is meeting kate""}","<img src=""stim_listB/meet1.gif""</stim_listB>",is meeting,
null,"<div style=""font-size:60px;"">+</div>",,html-keyboard-response,188,791752,0.0-15.0-0.15,15077,List1B,white,woman,,,,null,,,,
null,"<img src=""stim_listB/fight3.gif""</stim_listB>",,html-keyboard-response,189,793761,0.0-15.0-1.15,15077,List1B,white,woman,,,,null,,,,
null,is fighting,,html-keyboard-response,190,795768,0.0-15.0-2.15,15077,List1B,white,woman,,,,null,,,,
6600,,,survey-text,191,802370,0.0-15.0-3.15,15077,List1B,white,woman,,,,,"{""Q0"":""jane is fighting dave""}","<img src=""stim_listB/fight3.gif""</stim_listB>",is fighting,
null,"<div style=""font-size:60px;"">+</div>",,html-keyboard-response,192,802877,0.0-15.0-0.16,15077,List1B,white,woman,,,,null,,,,
null,"<img src=""stim_listB/talk1.gif""</stim_listB>",,html-keyboard-response,193,804891,0.0-15.0-1.16,15077,List1B,white,woman,,,,null,,,,
null,is talking to,,html-keyboard-response,194,806883,0.0-15.0-2.16,15077,List1B,white,woman,,,,null,,,,
5527,,,survey-text,195,812412,0.0-15.0-3.16,15077,List1B,white,woman,,,,,"{""Q0"":""kate is talking to fred""}","<img src=""stim_listB/talk1.gif""</stim_listB>",is talking to,
null,"<div style=""font-size:60px;"">+</div>",,html-keyboard-response,196,812912,0.0-15.0-0.17,15077,List1B,white,woman,,,,null,,,,
null,"<img src=""stim_listB/shout1.gif""</stim_listB>",,html-keyboard-response,197,814920,0.0-15.0-1.17,15077,List1B,white,woman,,,,null,,,,
null,is shouting at,,html-keyboard-response,198,816928,0.0-15.0-2.17,15077,List1B,white,woman,,,,null,,,,
6194,,,survey-text,199,823124,0.0-15.0-3.17,15077,List1B,white,woman,,,,,"{""Q0"":""beth is shouting at fred""}","<img src=""stim_listB/shout1.gif""</stim_listB>",is shouting at,
null,"<div style=""font-size:60px;"">+</div>",,html-keyboard-response,200,823625,0.0-15.0-0.18,15077,List1B,white,woman,,,,null,,,,
null,"<img src=""stim_listB/meet7.gif""</stim_listB>",,html-keyboard-response,201,825634,0.0-15.0-1.18,15077,List1B,white,woman,,,,null,,,,
null,is meeting,,html-keyboard-response,202,827640,0.0-15.0-2.18,15077,List1B,white,woman,,,,null,,,,
6328,,,survey-text,203,833970,0.0-15.0-3.18,15077,List1B,white,woman,,,,,"{""Q0"":""jane is meeting kate""}","<img src=""stim_listB/meet7.gif""</stim_listB>",is meeting,
null,"<div style=""font-size:60px;"">+</div>",,html-keyboard-response,204,834473,0.0-15.0-0.19,15077,List1B,white,woman,,,,null,,,,
null,"<img src=""stim_listB/argue2.gif""</stim_listB>",,html-keyboard-response,205,836481,0.0-15.0-1.19,15077,List1B,white,woman,,,,null,,,,
null,are arguing with each other,,html-keyboard-response,206,838486,0.0-15.0-2.19,15077,List1B,white,woman,,,,null,,,,
11028,,,survey-text,207,849515,0.0-15.0-3.19,15077,List1B,white,woman,,,,,"{""Q0"":""fred and kate are arguing with eachother ""}","<img src=""stim_listB/argue2.gif""</stim_listB>",are arguing with each other,
7379,"<img src='img/portrait_matrix_list1.JPG' style='width:900px;height:500px;''></img><p>If you have memorised all the portraits and names and are ready to start, press Continue.</p><p><strong>Please note: Your memory of these faces will be tested 4 times during this experiment.</strong></p>",0,html-button-response,208,856896,0.0-16.0-0.0,15077,List1B,white,woman,,,,,,,,
2823,"<img src=""portrait/BM2.jpg""style=""width:400px;height:400px;""></img>",5,html-button-response,209,860725,0.0-16.0-1.0,15077,List1B,white,woman,,TRUE,5,,,,,
null,CORRECT,,html-keyboard-response,210,862246,0.0-16.0-2.0-0.0,15077,List1B,white,woman,,,,null,,,,
2455,"<img src=""portrait/BW2.jpg""style=""width:400px;height:400px;""></img>",2,html-button-response,211,864703,0.0-16.0-4.0,15077,List1B,white,woman,,TRUE,2,,,,,
null,CORRECT,,html-keyboard-response,212,866212,0.0-16.0-5.0-0.0,15077,List1B,white,woman,,,,null,,,,
4213,"<img src=""portrait/WM1.jpg""style=""width:400px;height:400px;""></img>",6,html-button-response,213,870429,0.0-16.0-7.0,15077,List1B,white,woman,,TRUE,6,,,,,
null,CORRECT,,html-keyboard-response,214,871943,0.0-16.0-8.0-0.0,15077,List1B,white,woman,,,,null,,,,
2633,"<img src=""portrait/WM2.jpg""style=""width:400px;height:400px;""></img>",7,html-button-response,215,874579,0.0-16.0-10.0,15077,List1B,white,woman,,TRUE,7,,,,,
null,CORRECT,,html-keyboard-response,216,876108,0.0-16.0-11.0-0.0,15077,List1B,white,woman,,,,null,,,,
2733,"<img src=""portrait/BW1.jpg""style=""width:400px;height:400px;""></img>",0,html-button-response,217,878844,0.0-16.0-13.0,15077,List1B,white,woman,,TRUE,0,,,,,
null,CORRECT,,html-keyboard-response,218,880373,0.0-16.0-14.0-0.0,15077,List1B,white,woman,,,,null,,,,
3176,"<img src=""portrait/BM1.jpg""style=""width:400px;height:400px;""></img>",4,html-button-response,219,883550,0.0-16.0-16.0,15077,List1B,white,woman,,TRUE,4,,,,,
null,CORRECT,,html-keyboard-response,220,885071,0.0-16.0-17.0-0.0,15077,List1B,white,woman,,,,null,,,,
2587,"<img src=""portrait/WW1.jpg""style=""width:400px;height:400px;""></img>",1,html-button-response,221,887662,0.0-16.0-19.0,15077,List1B,white,woman,,TRUE,1,,,,,
null,CORRECT,,html-keyboard-response,222,889182,0.0-16.0-20.0-0.0,15077,List1B,white,woman,,,,null,,,,
1847,"<img src=""portrait/WW2.jpg""style=""width:400px;height:400px;""></img>",3,html-button-response,223,891034,0.0-16.0-22.0,15077,List1B,white,woman,,TRUE,3,,,,,
null,CORRECT,,html-keyboard-response,224,892549,0.0-16.0-23.0-0.0,15077,List1B,white,woman,,,,null,,,,
1191,<p>You got 8 out of 8 right first time. Press Continue.</p>,0,html-button-response,225,893742,0.0-16.0-25.0,15077,List1B,white,woman,,,,,,,,
null,"<div style=""font-size:60px;"">+</div>",,html-keyboard-response,226,895284,0.0-17.0-0.0,15077,List1B,white,woman,,,,null,,,,
null,"<img src=""stim_listB/shout8.gif""</stim_listB>",,html-keyboard-response,227,897293,0.0-17.0-1.0,15077,List1B,white,woman,,,,null,,,,
null,are shouting at each other,,html-keyboard-response,228,899294,0.0-17.0-2.0,15077,List1B,white,woman,,,,null,,,,
10663,,,survey-text,229,909959,0.0-17.0-3.0,15077,List1B,white,woman,,,,,"{""Q0"":""kate and jane are shouting at eachother ""}","<img src=""stim_listB/shout8.gif""</stim_listB>",are shouting at each other,
null,"<div style=""font-size:60px;"">+</div>",,html-keyboard-response,230,910462,0.0-17.0-0.1,15077,List1B,white,woman,,,,null,,,,
null,"<img src=""stim_listB/dance7.gif""</stim_listB>",,html-keyboard-response,231,912478,0.0-17.0-1.1,15077,List1B,white,woman,,,,null,,,,
null,is dancing with,,html-keyboard-response,232,914471,0.0-17.0-2.1,15077,List1B,white,woman,,,,null,,,,
9984,,,survey-text,233,924456,0.0-17.0-3.1,15077,List1B,white,woman,,,,,"{""Q0"":""kate and beth are dancing with eachother ""}","<img src=""stim_listB/dance7.gif""</stim_listB>",is dancing with,
null,"<div style=""font-size:60px;"">+</div>",,html-keyboard-response,234,924974,0.0-17.0-0.2,15077,List1B,white,woman,,,,null,,,,
null,"<img src=""stim_listB/touch1.gif""</stim_listB>",,html-keyboard-response,235,926983,0.0-17.0-1.2,15077,List1B,white,woman,,,,null,,,,
null,is touching,,html-keyboard-response,236,928990,0.0-17.0-2.2,15077,List1B,white,woman,,,,null,,,,
4575,,,survey-text,237,933568,0.0-17.0-3.2,15077,List1B,white,woman,,,,,"{""Q0"":""kate is touching mike""}","<img src=""stim_listB/touch1.gif""</stim_listB>",is touching,
null,"<div style=""font-size:60px;"">+</div>",,html-keyboard-response,238,934088,0.0-17.0-0.3,15077,List1B,white,woman,,,,null,,,,
null,"<img src=""stim_listB/dance6.gif""</stim_listB>",,html-keyboard-response,239,936096,0.0-17.0-1.3,15077,List1B,white,woman,,,,null,,,,
null,are dancing with each other,,html-keyboard-response,240,938097,0.0-17.0-2.3,15077,List1B,white,woman,,,,null,,,,
9195,,,survey-text,241,947294,0.0-17.0-3.3,15077,List1B,white,woman,,,,,"{""Q0"":""mike and luke are dancing with eachother ""}","<img src=""stim_listB/dance6.gif""</stim_listB>",are dancing with each other,
null,"<div style=""font-size:60px;"">+</div>",,html-keyboard-response,242,947801,0.0-17.0-0.4,15077,List1B,white,woman,,,,null,,,,
null,"<img src=""stim_listB/meet3.gif""</stim_listB>",,html-keyboard-response,243,949812,0.0-17.0-1.4,15077,List1B,white,woman,,,,null,,,,
null,is meeting,,html-keyboard-response,244,951806,0.0-17.0-2.4,15077,List1B,white,woman,,,,null,,,,
5167,,,survey-text,245,956975,0.0-17.0-3.4,15077,List1B,white,woman,,,,,"{""Q0"":""jane is meeting dave""}","<img src=""stim_listB/meet3.gif""</stim_listB>",is meeting,
null,"<div style=""font-size:60px;"">+</div>",,html-keyboard-response,246,957480,0.0-17.0-0.5,15077,List1B,white,woman,,,,null,,,,
null,"<img src=""stim_listB/kiss2.gif""</stim_listB>",,html-keyboard-response,247,959489,0.0-17.0-1.5,15077,List1B,white,woman,,,,null,,,,
null,are kissing each other,,html-keyboard-response,248,961487,0.0-17.0-2.5,15077,List1B,white,woman,,,,null,,,,
9803,,,survey-text,249,971293,0.0-17.0-3.5,15077,List1B,white,woman,,,,,"{""Q0"":""mike and kate are kissing eachother""}","<img src=""stim_listB/kiss2.gif""</stim_listB>",are kissing each other,
null,"<div style=""font-size:60px;"">+</div>",,html-keyboard-response,250,971808,0.0-17.0-0.6,15077,List1B,white,woman,,,,null,,,,
null,"<img src=""stim_listB/shout3.gif""</stim_listB>",,html-keyboard-response,251,973820,0.0-17.0-1.6,15077,List1B,white,woman,,,,null,,,,
null,is shouting at,,html-keyboard-response,252,975824,0.0-17.0-2.6,15077,List1B,white,woman,,,,null,,,,
14560,,,survey-text,253,990386,0.0-17.0-3.6,15077,List1B,white,woman,,,,,"{""Q0"":""ruth is shouting at luke ""}","<img src=""stim_listB/shout3.gif""</stim_listB>",is shouting at,
null,"<div style=""font-size:60px;"">+</div>",,html-keyboard-response,254,990902,0.0-17.0-0.7,15077,List1B,white,woman,,,,null,,,,
null,"<img src=""stim_listB/touch2.gif""</stim_listB>",,html-keyboard-response,255,992912,0.0-17.0-1.7,15077,List1B,white,woman,,,,null,,,,
null,are touching each other,,html-keyboard-response,256,994905,0.0-17.0-2.7,15077,List1B,white,woman,,,,null,,,,
6873,,,survey-text,257,1001780,0.0-17.0-3.7,15077,List1B,white,woman,,,,,"{""Q0"":""fred and beth are touching eachother""}","<img src=""stim_listB/touch2.gif""</stim_listB>",are touching each other,
null,"<div style=""font-size:60px;"">+</div>",,html-keyboard-response,258,1002284,0.0-17.0-0.8,15077,List1B,white,woman,,,,null,,,,
null,"<img src=""stim_listB/dance1.gif""</stim_listB>",,html-keyboard-response,259,1004291,0.0-17.0-1.8,15077,List1B,white,woman,,,,null,,,,
null,is dancing with,,html-keyboard-response,260,1006314,0.0-17.0-2.8,15077,List1B,white,woman,,,,null,,,,
6544,,,survey-text,261,1012860,0.0-17.0-3.8,15077,List1B,white,woman,,,,,"{""Q0"":""fred is dancing with kate""}","<img src=""stim_listB/dance1.gif""</stim_listB>",is dancing with,
null,"<div style=""font-size:60px;"">+</div>",,html-keyboard-response,262,1013361,0.0-17.0-0.9,15077,List1B,white,woman,,,,null,,,,
null,"<img src=""stim_listB/hug7.gif""</stim_listB>",,html-keyboard-response,263,1015370,0.0-17.0-1.9,15077,List1B,white,woman,,,,null,,,,
null,is hugging,,html-keyboard-response,264,1017376,0.0-17.0-2.9,15077,List1B,white,woman,,,,null,,,,
7176,,,survey-text,265,1024555,0.0-17.0-3.9,15077,List1B,white,woman,,,,,"{""Q0"":""ruth is hugging beth""}","<img src=""stim_listB/hug7.gif""</stim_listB>",is hugging,
null,"<div style=""font-size:60px;"">+</div>",,html-keyboard-response,266,1025063,0.0-17.0-0.10,15077,List1B,white,woman,,,,null,,,,
null,"<img src=""stim_listB/marry7.gif""</stim_listB>",,html-keyboard-response,267,1027067,0.0-17.0-1.10,15077,List1B,white,woman,,,,null,,,,
null,is marrying,,html-keyboard-response,268,1029078,0.0-17.0-2.10,15077,List1B,white,woman,,,,null,,,,
5539,,,survey-text,269,1034618,0.0-17.0-3.10,15077,List1B,white,woman,,,,,"{""Q0"":""ruth is marrying kate""}","<img src=""stim_listB/marry7.gif""</stim_listB>",is marrying,
null,"<div style=""font-size:60px;"">+</div>",,html-keyboard-response,270,1035123,0.0-17.0-0.11,15077,List1B,white,woman,,,,null,,,,
null,"<img src=""stim_listB/talk8.gif""</stim_listB>",,html-keyboard-response,271,1037130,0.0-17.0-1.11,15077,List1B,white,woman,,,,null,,,,
null,are talking to each other,,html-keyboard-response,272,1039132,0.0-17.0-2.11,15077,List1B,white,woman,,,,null,,,,
8231,,,survey-text,273,1047365,0.0-17.0-3.11,15077,List1B,white,woman,,,,,"{""Q0"":""ruth and kate are talking to eachother ""}","<img src=""stim_listB/talk8.gif""</stim_listB>",are talking to each other,
null,"<div style=""font-size:60px;"">+</div>",,html-keyboard-response,274,1047879,0.0-17.0-0.12,15077,List1B,white,woman,,,,null,,,,
null,"<img src=""stim_listB/argue6.gif""</stim_listB>",,html-keyboard-response,275,1049885,0.0-17.0-1.12,15077,List1B,white,woman,,,,null,,,,
null,are arguing with each other,,html-keyboard-response,276,1051883,0.0-17.0-2.12,15077,List1B,white,woman,,,,null,,,,
11061,,,survey-text,277,1062946,0.0-17.0-3.12,15077,List1B,white,woman,,,,,"{""Q0"":""fred and dave are arguing with each other ""}","<img src=""stim_listB/argue6.gif""</stim_listB>",are arguing with each other,
null,"<div style=""font-size:60px;"">+</div>",,html-keyboard-response,278,1063461,0.0-17.0-0.13,15077,List1B,white,woman,,,,null,,,,
null,"<img src=""stim_listB/argue4.gif""</stim_listB>",,html-keyboard-response,279,1065469,0.0-17.0-1.13,15077,List1B,white,woman,,,,null,,,,
null,are arguing with each other,,html-keyboard-response,280,1067476,0.0-17.0-2.13,15077,List1B,white,woman,,,,null,,,,
11776,,,survey-text,281,1079255,0.0-17.0-3.13,15077,List1B,white,woman,,,,,"{""Q0"":""luke and jane are arguing with each other ""}","<img src=""stim_listB/argue4.gif""</stim_listB>",are arguing with each other,
null,"<div style=""font-size:60px;"">+</div>",,html-keyboard-response,282,1079765,0.0-17.0-0.14,15077,List1B,white,woman,,,,null,,,,
null,"<img src=""stim_listB/meet8.gif""</stim_listB>",,html-keyboard-response,283,1081780,0.0-17.0-1.14,15077,List1B,white,woman,,,,null,,,,
null,are meeting each other,,html-keyboard-response,284,1083774,0.0-17.0-2.14,15077,List1B,white,woman,,,,null,,,,
8908,,,survey-text,285,1092683,0.0-17.0-3.14,15077,List1B,white,woman,,,,,"{""Q0"":""ruth and beth are meeting each other ""}","<img src=""stim_listB/meet8.gif""</stim_listB>",are meeting each other,
null,"<div style=""font-size:60px;"">+</div>",,html-keyboard-response,286,1093195,0.0-17.0-0.15,15077,List1B,white,woman,,,,null,,,,
null,"<img src=""stim_listB/dance3.gif""</stim_listB>",,html-keyboard-response,287,1095210,0.0-17.0-1.15,15077,List1B,white,woman,,,,null,,,,
null,is dancing with,,html-keyboard-response,288,1097201,0.0-17.0-2.15,15077,List1B,white,woman,,,,null,,,,
8644,,,survey-text,289,1105848,0.0-17.0-3.15,15077,List1B,white,woman,,,,,"{""Q0"":""jane is dancing with Luke""}","<img src=""stim_listB/dance3.gif""</stim_listB>",is dancing with,
null,"<div style=""font-size:60px;"">+</div>",,html-keyboard-response,290,1106364,0.0-17.0-0.16,15077,List1B,white,woman,,,,null,,,,
null,"<img src=""stim_listB/hug5.gif""</stim_listB>",,html-keyboard-response,291,1108376,0.0-17.0-1.16,15077,List1B,white,woman,,,,null,,,,
null,is hugging,,html-keyboard-response,292,1110371,0.0-17.0-2.16,15077,List1B,white,woman,,,,null,,,,
9218,,,survey-text,293,1119591,0.0-17.0-3.16,15077,List1B,white,woman,,,,,"{""Q0"":""fred is hugging luke""}","<img src=""stim_listB/hug5.gif""</stim_listB>",is hugging,
null,"<div style=""font-size:60px;"">+</div>",,html-keyboard-response,294,1120109,0.0-17.0-0.17,15077,List1B,white,woman,,,,null,,,,
null,"<img src=""stim_listB/dance5.gif""</stim_listB>",,html-keyboard-response,295,1122123,0.0-17.0-1.17,15077,List1B,white,woman,,,,null,,,,
null,is dancing with,,html-keyboard-response,296,1124111,0.0-17.0-2.17,15077,List1B,white,woman,,,,null,,,,
8224,,,survey-text,297,1132336,0.0-17.0-3.17,15077,List1B,white,woman,,,,,"{""Q0"":""dave is dancing with fred""}","<img src=""stim_listB/dance5.gif""</stim_listB>",is dancing with,
null,"<div style=""font-size:60px;"">+</div>",,html-keyboard-response,298,1132850,0.0-17.0-0.18,15077,List1B,white,woman,,,,null,,,,
null,"<img src=""stim_listB/marry1.gif""</stim_listB>",,html-keyboard-response,299,1134863,0.0-17.0-1.18,15077,List1B,white,woman,,,,null,,,,
null,is marrying,,html-keyboard-response,300,1136856,0.0-17.0-2.18,15077,List1B,white,woman,,,,null,,,,
11280,,,survey-text,301,1148138,0.0-17.0-3.18,15077,List1B,white,woman,,,,,"{""Q0"":""mike is marrying beth""}","<img src=""stim_listB/marry1.gif""</stim_listB>",is marrying,
null,"<div style=""font-size:60px;"">+</div>",,html-keyboard-response,302,1148642,0.0-17.0-0.19,15077,List1B,white,woman,,,,null,,,,
null,"<img src=""stim_listB/argue8.gif""</stim_listB>",,html-keyboard-response,303,1150659,0.0-17.0-1.19,15077,List1B,white,woman,,,,null,,,,
null,are arguing with each other,,html-keyboard-response,304,1152649,0.0-17.0-2.19,15077,List1B,white,woman,,,,null,,,,
11658,,,survey-text,305,1164309,0.0-17.0-3.19,15077,List1B,white,woman,,,,,"{""Q0"":""beth and jane are arguing with each other ""}","<img src=""stim_listB/argue8.gif""</stim_listB>",are arguing with each other,
5762,"<img src='img/portrait_matrix_list1.JPG' style='width:900px;height:500px;''></img><p>If you have memorised all the portraits and names and are ready to start, press Continue.</p><p><strong>Please note: Your memory of these faces will be tested 4 times during this experiment.</strong></p>",0,html-button-response,306,1170075,0.0-18.0-0.0,15077,List1B,white,woman,,,,,,,,
2118,"<img src=""portrait/WM2.jpg""style=""width:400px;height:400px;""></img>",7,html-button-response,307,1173196,0.0-18.0-1.0,15077,List1B,white,woman,,TRUE,7,,,,,
null,CORRECT,,html-keyboard-response,308,1174724,0.0-18.0-2.0-0.0,15077,List1B,white,woman,,,,null,,,,
1342,"<img src=""portrait/WW2.jpg""style=""width:400px;height:400px;""></img>",3,html-button-response,309,1176067,0.0-18.0-4.0,15077,List1B,white,woman,,TRUE,3,,,,,
null,CORRECT,,html-keyboard-response,310,1177585,0.0-18.0-5.0-0.0,15077,List1B,white,woman,,,,null,,,,
3511,"<img src=""portrait/WM1.jpg""style=""width:400px;height:400px;""></img>",6,html-button-response,311,1181101,0.0-18.0-7.0,15077,List1B,white,woman,,TRUE,6,,,,,
null,CORRECT,,html-keyboard-response,312,1182622,0.0-18.0-8.0-0.0,15077,List1B,white,woman,,,,null,,,,
3000,"<img src=""portrait/BW1.jpg""style=""width:400px;height:400px;""></img>",0,html-button-response,313,1185624,0.0-18.0-10.0,15077,List1B,white,woman,,TRUE,0,,,,,
null,CORRECT,,html-keyboard-response,314,1187152,0.0-18.0-11.0-0.0,15077,List1B,white,woman,,,,null,,,,
2127,"<img src=""portrait/BM2.jpg""style=""width:400px;height:400px;""></img>",5,html-button-response,315,1189284,0.0-18.0-13.0,15077,List1B,white,woman,,TRUE,5,,,,,
null,CORRECT,,html-keyboard-response,316,1190798,0.0-18.0-14.0-0.0,15077,List1B,white,woman,,,,null,,,,
4408,"<img src=""portrait/WW1.jpg""style=""width:400px;height:400px;""></img>",1,html-button-response,317,1195209,0.0-18.0-16.0,15077,List1B,white,woman,,TRUE,1,,,,,
null,CORRECT,,html-keyboard-response,318,1196732,0.0-18.0-17.0-0.0,15077,List1B,white,woman,,,,null,,,,
2190,"<img src=""portrait/BW2.jpg""style=""width:400px;height:400px;""></img>",2,html-button-response,319,1198926,0.0-18.0-19.0,15077,List1B,white,woman,,TRUE,2,,,,,
null,CORRECT,,html-keyboard-response,320,1200444,0.0-18.0-20.0-0.0,15077,List1B,white,woman,,,,null,,,,
2368,"<img src=""portrait/BM1.jpg""style=""width:400px;height:400px;""></img>",5,html-button-response,321,1202815,0.0-18.0-22.0,15077,List1B,white,woman,,TRUE,4,,,,,
4874,"<img src=""portrait/BM1.jpg""style=""width:400px;height:400px;""></img>",4,html-button-response,322,1208693,0.0-18.0-24.0-0.0,15077,List1B,white,woman,,FALSE,4,,,,,
null,CORRECT,,html-keyboard-response,323,1210212,0.0-18.0-24.0-1.0-0.0,15077,List1B,white,woman,,,,null,,,,
1176,<p>You got 7 out of 8 right first time. Press Continue.</p>,0,html-button-response,324,1211391,0.0-18.0-25.0,15077,List1B,white,woman,,,,,,,,
2461,"As you did not score 100%, the memory game will repeat. Press Continue.",0,html-button-response,325,1214858,0.0-18.0-26.0-0.0,15077,List1B,white,woman,,,,,,,,
4564,"<img src='img/portrait_matrix_list1.JPG' style='width:900px;height:500px;''></img><p>If you have memorised all the portraits and names and are ready to start, press Continue.</p><p><strong>Please note: Your memory of these faces will be tested 4 times during this experiment.</strong></p>",0,html-button-response,326,1220428,0.0-18.1-0.1,15077,List1B,white,woman,,,,,,,,
2191,"<img src=""portrait/WM2.jpg""style=""width:400px;height:400px;""></img>",7,html-button-response,327,1223636,0.0-18.1-1.1,15077,List1B,white,woman,,TRUE,7,,,,,
null,CORRECT,,html-keyboard-response,328,1225143,0.0-18.1-2.1-0.1,15077,List1B,white,woman,,,,null,,,,
1725,"<img src=""portrait/WW2.jpg""style=""width:400px;height:400px;""></img>",3,html-button-response,329,1226872,0.0-18.1-4.1,15077,List1B,white,woman,,TRUE,3,,,,,
null,CORRECT,,html-keyboard-response,330,1228385,0.0-18.1-5.1-0.1,15077,List1B,white,woman,,,,null,,,,
2431,"<img src=""portrait/WM1.jpg""style=""width:400px;height:400px;""></img>",6,html-button-response,331,1230820,0.0-18.1-7.1,15077,List1B,white,woman,,TRUE,6,,,,,
null,CORRECT,,html-keyboard-response,332,1232338,0.0-18.1-8.1-0.1,15077,List1B,white,woman,,,,null,,,,
3367,"<img src=""portrait/BW1.jpg""style=""width:400px;height:400px;""></img>",0,html-button-response,333,1235707,0.0-18.1-10.1,15077,List1B,white,woman,,TRUE,0,,,,,
null,CORRECT,,html-keyboard-response,334,1237218,0.0-18.1-11.1-0.1,15077,List1B,white,woman,,,,null,,,,
1963,"<img src=""portrait/BM2.jpg""style=""width:400px;height:400px;""></img>",5,html-button-response,335,1239183,0.0-18.1-13.1,15077,List1B,white,woman,,TRUE,5,,,,,
null,CORRECT,,html-keyboard-response,336,1240702,0.0-18.1-14.1-0.1,15077,List1B,white,woman,,,,null,,,,
2925,"<img src=""portrait/WW1.jpg""style=""width:400px;height:400px;""></img>",1,html-button-response,337,1243630,0.0-18.1-16.1,15077,List1B,white,woman,,TRUE,1,,,,,
null,CORRECT,,html-keyboard-response,338,1245151,0.0-18.1-17.1-0.1,15077,List1B,white,woman,,,,null,,,,
2019,"<img src=""portrait/BW2.jpg""style=""width:400px;height:400px;""></img>",2,html-button-response,339,1247173,0.0-18.1-19.1,15077,List1B,white,woman,,TRUE,2,,,,,
null,CORRECT,,html-keyboard-response,340,1248699,0.0-18.1-20.1-0.1,15077,List1B,white,woman,,,,null,,,,
3944,"<img src=""portrait/BM1.jpg""style=""width:400px;height:400px;""></img>",4,html-button-response,341,1252648,0.0-18.1-22.1,15077,List1B,white,woman,,TRUE,4,,,,,
null,CORRECT,,html-keyboard-response,342,1254163,0.0-18.1-23.1-0.1,15077,List1B,white,woman,,,,null,,,,
949,<p>You got 8 out of 8 right first time. Press Continue.</p>,0,html-button-response,343,1255115,0.0-18.1-25.1,15077,List1B,white,woman,,,,,,,,
null,"<div style=""font-size:60px;"">+</div>",,html-keyboard-response,344,1256647,0.0-19.0-0.0,15077,List1B,white,woman,,,,null,,,,
null,"<img src=""stim_listB/hug8.gif""</stim_listB>",,html-keyboard-response,345,1258660,0.0-19.0-1.0,15077,List1B,white,woman,,,,null,,,,
null,are hugging each other,,html-keyboard-response,346,1260656,0.0-19.0-2.0,15077,List1B,white,woman,,,,null,,,,
10248,,,survey-text,347,1270907,0.0-19.0-3.0,15077,List1B,white,woman,,,,,"{""Q0"":""jane and kate are hugging each other ""}","<img src=""stim_listB/hug8.gif""</stim_listB>",are hugging each other,
null,"<div style=""font-size:60px;"">+</div>",,html-keyboard-response,348,1271425,0.0-19.0-0.1,15077,List1B,white,woman,,,,null,,,,
null,"<img src=""stim_listB/argue5.gif""</stim_listB>",,html-keyboard-response,349,1273436,0.0-19.0-1.1,15077,List1B,white,woman,,,,null,,,,
null,is arguing with,,html-keyboard-response,350,1275442,0.0-19.0-2.1,15077,List1B,white,woman,,,,null,,,,
7591,,,survey-text,351,1283036,0.0-19.0-3.1,15077,List1B,white,woman,,,,,"{""Q0"":""mike is arguing with luke ""}","<img src=""stim_listB/argue5.gif""</stim_listB>",is arguing with,
null,"<div style=""font-size:60px;"">+</div>",,html-keyboard-response,352,1283537,0.0-19.0-0.2,15077,List1B,white,woman,,,,null,,,,
null,"<img src=""stim_listB/touch8.gif""</stim_listB>",,html-keyboard-response,353,1285553,0.0-19.0-1.2,15077,List1B,white,woman,,,,null,,,,
null,are touching each other,,html-keyboard-response,354,1287554,0.0-19.0-2.2,15077,List1B,white,woman,,,,null,,,,
11275,,,survey-text,355,1298831,0.0-19.0-3.2,15077,List1B,white,woman,,,,,"{""Q0"":""beth are ruth are touching each other ""}","<img src=""stim_listB/touch8.gif""</stim_listB>",are touching each other,
null,"<div style=""font-size:60px;"">+</div>",,html-keyboard-response,356,1299348,0.0-19.0-0.3,15077,List1B,white,woman,,,,null,,,,
null,"<img src=""stim_listB/marry8.gif""</stim_listB>",,html-keyboard-response,357,1301361,0.0-19.0-1.3,15077,List1B,white,woman,,,,null,,,,
null,are marrying each other,,html-keyboard-response,358,1303351,0.0-19.0-2.3,15077,List1B,white,woman,,,,null,,,,
12857,,,survey-text,359,1316210,0.0-19.0-3.3,15077,List1B,white,woman,,,,,"{""Q0"":""jane and beth are marrying each other ""}","<img src=""stim_listB/marry8.gif""</stim_listB>",are marrying each other,
null,"<div style=""font-size:60px;"">+</div>",,html-keyboard-response,360,1316712,0.0-19.0-0.4,15077,List1B,white,woman,,,,null,,,,
null,"<img src=""stim_listB/argue3.gif""</stim_listB>",,html-keyboard-response,361,1318719,0.0-19.0-1.4,15077,List1B,white,woman,,,,null,,,,
null,is arguing with,,html-keyboard-response,362,1320720,0.0-19.0-2.4,15077,List1B,white,woman,,,,null,,,,
7582,,,survey-text,363,1328305,0.0-19.0-3.4,15077,List1B,white,woman,,,,,"{""Q0"":""ruth is arguing with dave""}","<img src=""stim_listB/argue3.gif""</stim_listB>",is arguing with,
null,"<div style=""font-size:60px;"">+</div>",,html-keyboard-response,364,1328818,0.0-19.0-0.5,15077,List1B,white,woman,,,,null,,,,
null,"<img src=""stim_listB/marry2.gif""</stim_listB>",,html-keyboard-response,365,1330830,0.0-19.0-1.5,15077,List1B,white,woman,,,,null,,,,
null,are marrying each other,,html-keyboard-response,366,1332822,0.0-19.0-2.5,15077,List1B,white,woman,,,,null,,,,
11160,,,survey-text,367,1343983,0.0-19.0-3.5,15077,List1B,white,woman,,,,,"{""Q0"":""fred and kate are marrying eachother ""}","<img src=""stim_listB/marry2.gif""</stim_listB>",are marrying each other,
null,"<div style=""font-size:60px;"">+</div>",,html-keyboard-response,368,1344485,0.0-19.0-0.6,15077,List1B,white,woman,,,,null,,,,
null,"<img src=""stim_listB/dance4.gif""</stim_listB>",,html-keyboard-response,369,1346500,0.0-19.0-1.6,15077,List1B,white,woman,,,,null,,,,
null,are dancing with each other,,html-keyboard-response,370,1348511,0.0-19.0-2.6,15077,List1B,white,woman,,,,null,,,,
13713,,,survey-text,371,1362226,0.0-19.0-3.6,15077,List1B,white,woman,,,,,"{""Q0"":""ruth and dave are dancing with each other ""}","<img src=""stim_listB/dance4.gif""</stim_listB>",are dancing with each other,
null,"<div style=""font-size:60px;"">+</div>",,html-keyboard-response,372,1362740,0.0-19.0-0.7,15077,List1B,white,woman,,,,null,,,,
null,"<img src=""stim_listB/hug4.gif""</stim_listB>",,html-keyboard-response,373,1364756,0.0-19.0-1.7,15077,List1B,white,woman,,,,null,,,,
null,are hugging each other,,html-keyboard-response,374,1366743,0.0-19.0-2.7,15077,List1B,white,woman,,,,null,,,,
9193,,,survey-text,375,1375937,0.0-19.0-3.7,15077,List1B,white,woman,,,,,"{""Q0"":""dave and jane are hugging each other ""}","<img src=""stim_listB/hug4.gif""</stim_listB>",are hugging each other,
null,"<div style=""font-size:60px;"">+</div>",,html-keyboard-response,376,1376441,0.0-19.0-0.8,15077,List1B,white,woman,,,,null,,,,
null,"<img src=""stim_listB/kiss1.gif""</stim_listB>",,html-keyboard-response,377,1378452,0.0-19.0-1.8,15077,List1B,white,woman,,,,null,,,,
null,is kissing,,html-keyboard-response,378,1380444,0.0-19.0-2.8,15077,List1B,white,woman,,,,null,,,,
6406,,,survey-text,379,1386853,0.0-19.0-3.8,15077,List1B,white,woman,,,,,"{""Q0"":""fred is kissing beth""}","<img src=""stim_listB/kiss1.gif""</stim_listB>",is kissing,
null,"<div style=""font-size:60px;"">+</div>",,html-keyboard-response,380,1387369,0.0-19.0-0.9,15077,List1B,white,woman,,,,null,,,,
null,"<img src=""stim_listB/hug2.gif""</stim_listB>",,html-keyboard-response,381,1389379,0.0-19.0-1.9,15077,List1B,white,woman,,,,null,,,,
null,are hugging each other,,html-keyboard-response,382,1391384,0.0-19.0-2.9,15077,List1B,white,woman,,,,null,,,,
10361,,,survey-text,383,1401747,0.0-19.0-3.9,15077,List1B,white,woman,,,,,"{""Q0"":""mike and kate are hugging each other ""}","<img src=""stim_listB/hug2.gif""</stim_listB>",are hugging each other,
null,"<div style=""font-size:60px;"">+</div>",,html-keyboard-response,384,1402265,0.0-19.0-0.10,15077,List1B,white,woman,,,,null,,,,
null,"<img src=""stim_listB/fight5.gif""</stim_listB>",,html-keyboard-response,385,1404274,0.0-19.0-1.10,15077,List1B,white,woman,,,,null,,,,
null,is fighting,,html-keyboard-response,386,1406280,0.0-19.0-2.10,15077,List1B,white,woman,,,,null,,,,
8098,,,survey-text,387,1414380,0.0-19.0-3.10,15077,List1B,white,woman,,,,,"{""Q0"":""mike is fighting dave""}","<img src=""stim_listB/fight5.gif""</stim_listB>",is fighting,
null,"<div style=""font-size:60px;"">+</div>",,html-keyboard-response,388,1414883,0.0-19.0-0.11,15077,List1B,white,woman,,,,null,,,,
null,"<img src=""stim_listB/fight1.gif""</stim_listB>",,html-keyboard-response,389,1416888,0.0-19.0-1.11,15077,List1B,white,woman,,,,null,,,,
null,is fighting,,html-keyboard-response,390,1418908,0.0-19.0-2.11,15077,List1B,white,woman,,,,null,,,,
6155,,,survey-text,391,1425066,0.0-19.0-3.11,15077,List1B,white,woman,,,,,"{""Q0"":""mike is fighting kate ""}","<img src=""stim_listB/fight1.gif""</stim_listB>",is fighting,
null,"<div style=""font-size:60px;"">+</div>",,html-keyboard-response,392,1425575,0.0-19.0-0.12,15077,List1B,white,woman,,,,null,,,,
null,"<img src=""stim_listB/hug6.gif""</stim_listB>",,html-keyboard-response,393,1427589,0.0-19.0-1.12,15077,List1B,white,woman,,,,null,,,,
null,are hugging each other,,html-keyboard-response,394,1429589,0.0-19.0-2.12,15077,List1B,white,woman,,,,null,,,,
8062,,,survey-text,395,1437653,0.0-19.0-3.12,15077,List1B,white,woman,,,,,"{""Q0"":""mike and dave are hugging each other ""}","<img src=""stim_listB/hug6.gif""</stim_listB>",are hugging each other,
null,"<div style=""font-size:60px;"">+</div>",,html-keyboard-response,396,1438159,0.0-19.0-0.13,15077,List1B,white,woman,,,,null,,,,
null,"<img src=""stim_listB/kiss4.gif""</stim_listB>",,html-keyboard-response,397,1440168,0.0-19.0-1.13,15077,List1B,white,woman,,,,null,,,,
null,are kissing each other,,html-keyboard-response,398,1442172,0.0-19.0-2.13,15077,List1B,white,woman,,,,null,,,,
8442,,,survey-text,399,1450615,0.0-19.0-3.13,15077,List1B,white,woman,,,,,"{""Q0"":""jane and dave are kissing each other""}","<img src=""stim_listB/kiss4.gif""</stim_listB>",are kissing each other,
null,"<div style=""font-size:60px;"">+</div>",,html-keyboard-response,400,1451131,0.0-19.0-0.14,15077,List1B,white,woman,,,,null,,,,
null,"<img src=""stim_listB/kiss7.gif""</stim_listB>",,html-keyboard-response,401,1453139,0.0-19.0-1.14,15077,List1B,white,woman,,,,null,,,,
null,is kissing,,html-keyboard-response,402,1455138,0.0-19.0-2.14,15077,List1B,white,woman,,,,null,,,,
7043,,,survey-text,403,1462182,0.0-19.0-3.14,15077,List1B,white,woman,,,,,"{""Q0"":""ruth is kissing beth""}","<img src=""stim_listB/kiss7.gif""</stim_listB>",is kissing,
null,"<div style=""font-size:60px;"">+</div>",,html-keyboard-response,404,1462699,0.0-19.0-0.15,15077,List1B,white,woman,,,,null,,,,
null,"<img src=""stim_listB/shout7.gif""</stim_listB>",,html-keyboard-response,405,1464704,0.0-19.0-1.15,15077,List1B,white,woman,,,,null,,,,
null,is shouting at,,html-keyboard-response,406,1466709,0.0-19.0-2.15,15077,List1B,white,woman,,,,null,,,,
8176,,,survey-text,407,1474887,0.0-19.0-3.15,15077,List1B,white,woman,,,,,"{""Q0"":""ruth is shouting at beth""}","<img src=""stim_listB/shout7.gif""</stim_listB>",is shouting at,
null,"<div style=""font-size:60px;"">+</div>",,html-keyboard-response,408,1475390,0.0-19.0-0.16,15077,List1B,white,woman,,,,null,,,,
null,"<img src=""stim_listB/meet5.gif""</stim_listB>",,html-keyboard-response,409,1477398,0.0-19.0-1.16,15077,List1B,white,woman,,,,null,,,,
null,is meeting,,html-keyboard-response,410,1479405,0.0-19.0-2.16,15077,List1B,white,woman,,,,null,,,,
5895,,,survey-text,411,1485302,0.0-19.0-3.16,15077,List1B,white,woman,,,,,"{""Q0"":""mike is meeting dave""}","<img src=""stim_listB/meet5.gif""</stim_listB>",is meeting,
null,"<div style=""font-size:60px;"">+</div>",,html-keyboard-response,412,1485819,0.0-19.0-0.17,15077,List1B,white,woman,,,,null,,,,
null,"<img src=""stim_listB/shout2.gif""</stim_listB>",,html-keyboard-response,413,1487832,0.0-19.0-1.17,15077,List1B,white,woman,,,,null,,,,
null,are shouting at each other,,html-keyboard-response,414,1489835,0.0-19.0-2.17,15077,List1B,white,woman,,,,null,,,,
12742,,,survey-text,415,1502579,0.0-19.0-3.17,15077,List1B,white,woman,,,,,"{""Q0"":""mike and kate are shouting at each other ""}","<img src=""stim_listB/shout2.gif""</stim_listB>",are shouting at each other,
null,"<div style=""font-size:60px;"">+</div>",,html-keyboard-response,416,1503092,0.0-19.0-0.18,15077,List1B,white,woman,,,,null,,,,
null,"<img src=""stim_listB/meet4.gif""</stim_listB>",,html-keyboard-response,417,1505106,0.0-19.0-1.18,15077,List1B,white,woman,,,,null,,,,
null,are meeting each other,,html-keyboard-response,418,1507096,0.0-19.0-2.18,15077,List1B,white,woman,,,,null,,,,
9010,,,survey-text,419,1516109,0.0-19.0-3.18,15077,List1B,white,woman,,,,,"{""Q0"":""ruth and luke are meeting each other ""}","<img src=""stim_listB/meet4.gif""</stim_listB>",are meeting each other,
null,"<div style=""font-size:60px;"">+</div>",,html-keyboard-response,420,1516618,0.0-19.0-0.19,15077,List1B,white,woman,,,,null,,,,
null,"<img src=""stim_listB/fight2.gif""</stim_listB>",,html-keyboard-response,421,1518633,0.0-19.0-1.19,15077,List1B,white,woman,,,,null,,,,
null,are fighting each other,,html-keyboard-response,422,1520625,0.0-19.0-2.19,15077,List1B,white,woman,,,,null,,,,
8358,,,survey-text,423,1528986,0.0-19.0-3.19,15077,List1B,white,woman,,,,,"{""Q0"":""beth and fred are fighting each other ""}","<img src=""stim_listB/fight2.gif""</stim_listB>",are fighting each other,
2163,<p>Thank you for completing that task.</p><p>The final part of this session is a short questionnaire.</p><p>Press Continue.</p>,0,html-button-response,424,1531153,0.0-20.0,15077,List1B,white,woman,,,,,,,,
23734,,,survey-text,425,1555895,0.0-21.0,15077,List1B,white,woman,,,,,"{""Q0"":""21"",""Q1"":""english "",""Q2"":""english "",""Q3"":""wales"",""Q4"":""British "",""Q5"":""female""}",,,demographics
49757,,,survey-likert,426,1605662,0.0-22.0,15077,List1B,white,woman,,,,,"{""Q0"":5,""Q1"":5,""Q2"":3,""Q3"":3,""Q4"":3,""Q5"":5,""Q6"":5,""Q7"":2,""Q8"":5,""Q9"":2,""Q10"":4,""Q11"":4,""Q12"":3,""Q13"":3}",,,likert_race
42862,,,survey-likert,427,1648532,0.0-23.0,15077,List1B,white,woman,,,,,"{""Q0"":5,""Q1"":5,""Q2"":5,""Q3"":5,""Q4"":5,""Q5"":2,""Q6"":5,""Q7"":5,""Q8"":"""",""Q9"":5,""Q10"":4,""Q11"":4,""Q12"":4,""Q13"":4}",,,likert_gender
21584,,,survey-text,428,1670121,0.0-24.0,15077,List1B,white,woman,,,,,"{""Q0"":""ccc""}",,,worker_id
26005,,,external-html,429,1696232,0.0-25.0,15077,List1B,white,woman,debrief.html,,,,,,,
