rt,stimulus,button_pressed,trial_type,trial_index,time_elapsed,internal_node_id,subject,list,ppt_race,ppt_gender,url,first_guess,correct,key_press,responses,image_type,phrase_type,test_part
1888,Welcome to the experiment. Press Continue to begin.,0,html-button-response,0,1896,0.0-0.0,15835,List1A,white,woman,,,,,,,,
27138,,,external-html,1,30102,0.0-1.0,15835,List1A,white,woman,consent.html,,,,,,,
11899,"<p>On the next page, you will see portraits of 8 people and their names.</p><p>Your first task is to take a few minutes to memorise the names of these people.</p><p>You will have to recall their names during the rest of the experiment, so it is</p><p>essential that you try to memorise these people and their names as best as you can.</p><br><p><strong>You will then be tested on your memory of these names and portraits.</strong></p><br><p>The experiment will start after you have completed this memory test.</p><br><p>Ready?</p>",0,html-button-response,2,42003,0.0-2.0,15835,List1A,white,woman,,,,,,,,
66486,"<img src='img/portrait_matrix_list1.JPG' style='width:900px;height:500px;''></img><p>If you have memorised all the portraits and names and are ready to start, press Continue.</p><p><strong>Please note: Your memory of these faces will be tested 4 times during this experiment.</strong></p>",0,html-button-response,3,109503,0.0-3.0-0.0,15835,List1A,white,woman,,,,,,,,
2804,"<img src=""portrait/BM1.jpg""style=""width:400px;height:400px;""></img>",4,html-button-response,4,113315,0.0-3.0-1.0,15835,List1A,white,woman,,TRUE,4,,,,,
null,CORRECT,,html-keyboard-response,5,114835,0.0-3.0-2.0-0.0,15835,List1A,white,woman,,,,null,,,,
4131,"<img src=""portrait/BW2.jpg""style=""width:400px;height:400px;""></img>",2,html-button-response,6,118969,0.0-3.0-4.0,15835,List1A,white,woman,,TRUE,2,,,,,
null,CORRECT,,html-keyboard-response,7,120506,0.0-3.0-5.0-0.0,15835,List1A,white,woman,,,,null,,,,
4073,"<img src=""portrait/WM2.jpg""style=""width:400px;height:400px;""></img>",7,html-button-response,8,124583,0.0-3.0-7.0,15835,List1A,white,woman,,TRUE,7,,,,,
null,CORRECT,,html-keyboard-response,9,126105,0.0-3.0-8.0-0.0,15835,List1A,white,woman,,,,null,,,,
2056,"<img src=""portrait/WM1.jpg""style=""width:400px;height:400px;""></img>",6,html-button-response,10,128165,0.0-3.0-10.0,15835,List1A,white,woman,,TRUE,6,,,,,
null,CORRECT,,html-keyboard-response,11,129684,0.0-3.0-11.0-0.0,15835,List1A,white,woman,,,,null,,,,
2131,"<img src=""portrait/WW2.jpg""style=""width:400px;height:400px;""></img>",3,html-button-response,12,131817,0.0-3.0-13.0,15835,List1A,white,woman,,TRUE,3,,,,,
null,CORRECT,,html-keyboard-response,13,133338,0.0-3.0-14.0-0.0,15835,List1A,white,woman,,,,null,,,,
2963,"<img src=""portrait/BM2.jpg""style=""width:400px;height:400px;""></img>",5,html-button-response,14,136305,0.0-3.0-16.0,15835,List1A,white,woman,,TRUE,5,,,,,
null,CORRECT,,html-keyboard-response,15,137812,0.0-3.0-17.0-0.0,15835,List1A,white,woman,,,,null,,,,
2062,"<img src=""portrait/WW1.jpg""style=""width:400px;height:400px;""></img>",1,html-button-response,16,139876,0.0-3.0-19.0,15835,List1A,white,woman,,TRUE,1,,,,,
null,CORRECT,,html-keyboard-response,17,141403,0.0-3.0-20.0-0.0,15835,List1A,white,woman,,,,null,,,,
2281,"<img src=""portrait/BW1.jpg""style=""width:400px;height:400px;""></img>",0,html-button-response,18,143688,0.0-3.0-22.0,15835,List1A,white,woman,,TRUE,0,,,,,
null,CORRECT,,html-keyboard-response,19,145199,0.0-3.0-23.0-0.0,15835,List1A,white,woman,,,,null,,,,
1584,<p>You got 8 out of 8 right first time. Press Continue.</p>,0,html-button-response,20,146786,0.0-3.0-25.0,15835,List1A,white,woman,,,,,,,,
32480,"<p>In this experiment, you will view photographs of the people from the memory game interacting.</p><p>By using the <strong>exact</strong> phrase given <i>after</i> the photograph appears and recalling the correct names of the people in the photographs, form a sentence describing the interaction. You do not need to capitalise names.</p><p>Type your answer in the space provided. Please complete every sentence before moving onto the next trial.</p><p>You will only have a few seconds to memorise each given photograph and phrase before you can respond, so try your best to focus.</p><p>An example is given below. Press 'Continue' when you are ready.</p><img src='img/speaking_example_v2.jpg' style='width:800px;height:460px;''></img>",0,html-button-response,21,180275,0.0-4.0,15835,List1A,white,woman,,,,,,,,
2143,"<p>Before the experiment starts, you will watch two example trials. Press 'Continue'.</p>",0,html-button-response,22,183424,0.0-5.0,15835,List1A,white,woman,,,,,,,,
null,<img src='img/speaking_WW.gif'></img>,,html-keyboard-response,23,186449,0.0-6.0,15835,List1A,white,woman,,,,null,,,,
null,<p>is speaking to</p>,,html-keyboard-response,24,188437,0.0-7.0,15835,List1A,white,woman,,,,null,,,,
2437,<p><b>Answer:</b> kate is speaking to beth</p>,0,html-button-response,25,190877,0.0-8.0,15835,List1A,white,woman,,,,,,,,
null,<img src='img/pointing_BM.gif'></img>,,html-keyboard-response,26,193890,0.0-9.0,15835,List1A,white,woman,,,,null,,,,
null,<p>are pointing at each other</p>,,html-keyboard-response,27,195896,0.0-10.0,15835,List1A,white,woman,,,,null,,,,
2281,<p><b>Answer:</b> luke and dave are pointing at each other</p>,0,html-button-response,28,198178,0.0-11.0,15835,List1A,white,woman,,,,,,,,
12964,"<p>Ready to start the experiment?</p><br><p><strong>Remember to describe the picture using a full sentence,</strong></p><p><strong> that combines the names of the people with the given phrase.</strong></p><p><strong> You do not need to capitalise names or use punctuation.</strong></p><br><p>Press 'Continue' to begin.</p>",0,html-button-response,29,212157,0.0-12.0,15835,List1A,white,woman,,,,,,,,
null,"<div style=""font-size:60px;"">+</div>",,html-keyboard-response,30,213674,0.0-13.0-0.0,15835,List1A,white,woman,,,,null,,,,
null,"<img src=""stim_listA/talk1.gif""</stim_listA>",,html-keyboard-response,31,215685,0.0-13.0-1.0,15835,List1A,white,woman,,,,null,,,,
null,is talking to,,html-keyboard-response,32,217688,0.0-13.0-2.0,15835,List1A,white,woman,,,,null,,,,
7080,,,survey-text,33,224772,0.0-13.0-3.0,15835,List1A,white,woman,,,,,"{""Q0"":""fred is talking to kate""}","<img src=""stim_listA/talk1.gif""</stim_listA>",is talking to,
null,"<div style=""font-size:60px;"">+</div>",,html-keyboard-response,34,225281,0.0-13.0-0.1,15835,List1A,white,woman,,,,null,,,,
null,"<img src=""stim_listA/marry6.gif""</stim_listA>",,html-keyboard-response,35,227288,0.0-13.0-1.1,15835,List1A,white,woman,,,,null,,,,
null,are marrying each other,,html-keyboard-response,36,229296,0.0-13.0-2.1,15835,List1A,white,woman,,,,null,,,,
13181,,,survey-text,37,242480,0.0-13.0-3.1,15835,List1A,white,woman,,,,,"{""Q0"":""dave and fred are marrying each other""}","<img src=""stim_listA/marry6.gif""</stim_listA>",are marrying each other,
null,"<div style=""font-size:60px;"">+</div>",,html-keyboard-response,38,242987,0.0-13.0-0.2,15835,List1A,white,woman,,,,null,,,,
null,"<img src=""stim_listA/talk6.gif""</stim_listA>",,html-keyboard-response,39,245000,0.0-13.0-1.2,15835,List1A,white,woman,,,,null,,,,
null,are talking to each other,,html-keyboard-response,40,246991,0.0-13.0-2.2,15835,List1A,white,woman,,,,null,,,,
9608,,,survey-text,41,256603,0.0-13.0-3.2,15835,List1A,white,woman,,,,,"{""Q0"":""luke and mike are talking to each other""}","<img src=""stim_listA/talk6.gif""</stim_listA>",are talking to each other,
null,"<div style=""font-size:60px;"">+</div>",,html-keyboard-response,42,257110,0.0-13.0-0.3,15835,List1A,white,woman,,,,null,,,,
null,"<img src=""stim_listA/dance8.gif""</stim_listA>",,html-keyboard-response,43,259122,0.0-13.0-1.3,15835,List1A,white,woman,,,,null,,,,
null,are dancing with each other,,html-keyboard-response,44,261123,0.0-13.0-2.3,15835,List1A,white,woman,,,,null,,,,
10053,,,survey-text,45,271178,0.0-13.0-3.3,15835,List1A,white,woman,,,,,"{""Q0"":""kate and ruth are dancing with each other""}","<img src=""stim_listA/dance8.gif""</stim_listA>",are dancing with each other,
null,"<div style=""font-size:60px;"">+</div>",,html-keyboard-response,46,271690,0.0-13.0-0.4,15835,List1A,white,woman,,,,null,,,,
null,"<img src=""stim_listA/argue4.gif""</stim_listA>",,html-keyboard-response,47,273705,0.0-13.0-1.4,15835,List1A,white,woman,,,,null,,,,
null,are arguing with each other,,html-keyboard-response,48,275707,0.0-13.0-2.4,15835,List1A,white,woman,,,,null,,,,
10061,,,survey-text,49,285771,0.0-13.0-3.4,15835,List1A,white,woman,,,,,"{""Q0"":""jane and luke are arguing with each other""}","<img src=""stim_listA/argue4.gif""</stim_listA>",are arguing with each other,
null,"<div style=""font-size:60px;"">+</div>",,html-keyboard-response,50,286276,0.0-13.0-0.5,15835,List1A,white,woman,,,,null,,,,
null,"<img src=""stim_listA/hug8.gif""</stim_listA>",,html-keyboard-response,51,288286,0.0-13.0-1.5,15835,List1A,white,woman,,,,null,,,,
null,are hugging each other,,html-keyboard-response,52,290278,0.0-13.0-2.5,15835,List1A,white,woman,,,,null,,,,
9482,,,survey-text,53,299763,0.0-13.0-3.5,15835,List1A,white,woman,,,,,"{""Q0"":""jane and kate are hugging each other""}","<img src=""stim_listA/hug8.gif""</stim_listA>",are hugging each other,
null,"<div style=""font-size:60px;"">+</div>",,html-keyboard-response,54,300277,0.0-13.0-0.6,15835,List1A,white,woman,,,,null,,,,
null,"<img src=""stim_listA/hug6.gif""</stim_listA>",,html-keyboard-response,55,302288,0.0-13.0-1.6,15835,List1A,white,woman,,,,null,,,,
null,are hugging each other,,html-keyboard-response,56,304288,0.0-13.0-2.6,15835,List1A,white,woman,,,,null,,,,
7606,,,survey-text,57,311897,0.0-13.0-3.6,15835,List1A,white,woman,,,,,"{""Q0"":""dave and mike are hugging each other""}","<img src=""stim_listA/hug6.gif""</stim_listA>",are hugging each other,
null,"<div style=""font-size:60px;"">+</div>",,html-keyboard-response,58,312400,0.0-13.0-0.7,15835,List1A,white,woman,,,,null,,,,
null,"<img src=""stim_listA/kiss6.gif""</stim_listA>",,html-keyboard-response,59,314407,0.0-13.0-1.7,15835,List1A,white,woman,,,,null,,,,
null,are kissing each other,,html-keyboard-response,60,316407,0.0-13.0-2.7,15835,List1A,white,woman,,,,null,,,,
9498,,,survey-text,61,325907,0.0-13.0-3.7,15835,List1A,white,woman,,,,,"{""Q0"":""dave and mike are kissing each other""}","<img src=""stim_listA/kiss6.gif""</stim_listA>",are kissing each other,
null,"<div style=""font-size:60px;"">+</div>",,html-keyboard-response,62,326416,0.0-13.0-0.8,15835,List1A,white,woman,,,,null,,,,
null,"<img src=""stim_listA/shout4.gif""</stim_listA>",,html-keyboard-response,63,328425,0.0-13.0-1.8,15835,List1A,white,woman,,,,null,,,,
null,are shouting at each other,,html-keyboard-response,64,330436,0.0-13.0-2.8,15835,List1A,white,woman,,,,null,,,,
8697,,,survey-text,65,339135,0.0-13.0-3.8,15835,List1A,white,woman,,,,,"{""Q0"":""ruth and dave are shouting at each other""}","<img src=""stim_listA/shout4.gif""</stim_listA>",are shouting at each other,
null,"<div style=""font-size:60px;"">+</div>",,html-keyboard-response,66,339652,0.0-13.0-0.9,15835,List1A,white,woman,,,,null,,,,
null,"<img src=""stim_listA/hug4.gif""</stim_listA>",,html-keyboard-response,67,341662,0.0-13.0-1.9,15835,List1A,white,woman,,,,null,,,,
null,are hugging each other,,html-keyboard-response,68,343668,0.0-13.0-2.9,15835,List1A,white,woman,,,,null,,,,
8355,,,survey-text,69,352023,0.0-13.0-3.9,15835,List1A,white,woman,,,,,"{""Q0"":""dave and jane are hugging each other""}","<img src=""stim_listA/hug4.gif""</stim_listA>",are hugging each other,
null,"<div style=""font-size:60px;"">+</div>",,html-keyboard-response,70,352534,0.0-13.0-0.10,15835,List1A,white,woman,,,,null,,,,
null,"<img src=""stim_listA/meet1.gif""</stim_listA>",,html-keyboard-response,71,354543,0.0-13.0-1.10,15835,List1A,white,woman,,,,null,,,,
null,is meeting,,html-keyboard-response,72,356546,0.0-13.0-2.10,15835,List1A,white,woman,,,,null,,,,
5031,,,survey-text,73,361578,0.0-13.0-3.10,15835,List1A,white,woman,,,,,"{""Q0"":""kate is meeting mike""}","<img src=""stim_listA/meet1.gif""</stim_listA>",is meeting,
null,"<div style=""font-size:60px;"">+</div>",,html-keyboard-response,74,362085,0.0-13.0-0.11,15835,List1A,white,woman,,,,null,,,,
null,"<img src=""stim_listA/fight6.gif""</stim_listA>",,html-keyboard-response,75,364089,0.0-13.0-1.11,15835,List1A,white,woman,,,,null,,,,
null,are fighting each other,,html-keyboard-response,76,366086,0.0-13.0-2.11,15835,List1A,white,woman,,,,null,,,,
8364,,,survey-text,77,374453,0.0-13.0-3.11,15835,List1A,white,woman,,,,,"{""Q0"":""luke and fred are fighting each other""}","<img src=""stim_listA/fight6.gif""</stim_listA>",are fighting each other,
null,"<div style=""font-size:60px;"">+</div>",,html-keyboard-response,78,374962,0.0-13.0-0.12,15835,List1A,white,woman,,,,null,,,,
null,"<img src=""stim_listA/touch3.gif""</stim_listA>",,html-keyboard-response,79,376974,0.0-13.0-1.12,15835,List1A,white,woman,,,,null,,,,
null,is touching,,html-keyboard-response,80,378971,0.0-13.0-2.12,15835,List1A,white,woman,,,,null,,,,
5890,,,survey-text,81,384864,0.0-13.0-3.12,15835,List1A,white,woman,,,,,"{""Q0"":""dave is touching jane""}","<img src=""stim_listA/touch3.gif""</stim_listA>",is touching,
null,"<div style=""font-size:60px;"">+</div>",,html-keyboard-response,82,385370,0.0-13.0-0.13,15835,List1A,white,woman,,,,null,,,,
null,"<img src=""stim_listA/marry8.gif""</stim_listA>",,html-keyboard-response,83,387378,0.0-13.0-1.13,15835,List1A,white,woman,,,,null,,,,
null,are marrying each other,,html-keyboard-response,84,389378,0.0-13.0-2.13,15835,List1A,white,woman,,,,null,,,,
7785,,,survey-text,85,397166,0.0-13.0-3.13,15835,List1A,white,woman,,,,,"{""Q0"":""jane and beth are marrying each other""}","<img src=""stim_listA/marry8.gif""</stim_listA>",are marrying each other,
null,"<div style=""font-size:60px;"">+</div>",,html-keyboard-response,86,397672,0.0-13.0-0.14,15835,List1A,white,woman,,,,null,,,,
null,"<img src=""stim_listA/touch6.gif""</stim_listA>",,html-keyboard-response,87,399684,0.0-13.0-1.14,15835,List1A,white,woman,,,,null,,,,
null,are touching each other,,html-keyboard-response,88,401680,0.0-13.0-2.14,15835,List1A,white,woman,,,,null,,,,
10714,,,survey-text,89,412399,0.0-13.0-3.14,15835,List1A,white,woman,,,,,"{""Q0"":""fred and luke are touching each other""}","<img src=""stim_listA/touch6.gif""</stim_listA>",are touching each other,
null,"<div style=""font-size:60px;"">+</div>",,html-keyboard-response,90,412905,0.0-13.0-0.15,15835,List1A,white,woman,,,,null,,,,
null,"<img src=""stim_listA/talk5.gif""</stim_listA>",,html-keyboard-response,91,414917,0.0-13.0-1.15,15835,List1A,white,woman,,,,null,,,,
null,is talking to,,html-keyboard-response,92,416913,0.0-13.0-2.15,15835,List1A,white,woman,,,,null,,,,
7995,,,survey-text,93,424909,0.0-13.0-3.15,15835,List1A,white,woman,,,,,"{""Q0"":""fred is talking to dave""}","<img src=""stim_listA/talk5.gif""</stim_listA>",is talking to,
null,"<div style=""font-size:60px;"">+</div>",,html-keyboard-response,94,425425,0.0-13.0-0.16,15835,List1A,white,woman,,,,null,,,,
null,"<img src=""stim_listA/argue6.gif""</stim_listA>",,html-keyboard-response,95,427435,0.0-13.0-1.16,15835,List1A,white,woman,,,,null,,,,
null,are arguing with each other,,html-keyboard-response,96,429437,0.0-13.0-2.16,15835,List1A,white,woman,,,,null,,,,
9624,,,survey-text,97,439065,0.0-13.0-3.16,15835,List1A,white,woman,,,,,"{""Q0"":""dave and fred are arguing with each other""}","<img src=""stim_listA/argue6.gif""</stim_listA>",are arguing with each other,
null,"<div style=""font-size:60px;"">+</div>",,html-keyboard-response,98,439574,0.0-13.0-0.17,15835,List1A,white,woman,,,,null,,,,
null,"<img src=""stim_listA/meet6.gif""</stim_listA>",,html-keyboard-response,99,441588,0.0-13.0-1.17,15835,List1A,white,woman,,,,null,,,,
null,are meeting each other,,html-keyboard-response,100,443592,0.0-13.0-2.17,15835,List1A,white,woman,,,,null,,,,
8376,,,survey-text,101,451971,0.0-13.0-3.17,15835,List1A,white,woman,,,,,"{""Q0"":""luke and fred are meeting each other""}","<img src=""stim_listA/meet6.gif""</stim_listA>",are meeting each other,
null,"<div style=""font-size:60px;"">+</div>",,html-keyboard-response,102,452474,0.0-13.0-0.18,15835,List1A,white,woman,,,,null,,,,
null,"<img src=""stim_listA/argue1.gif""</stim_listA>",,html-keyboard-response,103,454480,0.0-13.0-1.18,15835,List1A,white,woman,,,,null,,,,
null,is arguing with,,html-keyboard-response,104,456482,0.0-13.0-2.18,15835,List1A,white,woman,,,,null,,,,
7409,,,survey-text,105,463893,0.0-13.0-3.18,15835,List1A,white,woman,,,,,"{""Q0"":""kate is arguing with mike""}","<img src=""stim_listA/argue1.gif""</stim_listA>",is arguing with,
null,"<div style=""font-size:60px;"">+</div>",,html-keyboard-response,106,464395,0.0-13.0-0.19,15835,List1A,white,woman,,,,null,,,,
null,"<img src=""stim_listA/talk8.gif""</stim_listA>",,html-keyboard-response,107,466403,0.0-13.0-1.19,15835,List1A,white,woman,,,,null,,,,
null,are talking to each other,,html-keyboard-response,108,468405,0.0-13.0-2.19,15835,List1A,white,woman,,,,null,,,,
7839,,,survey-text,109,476248,0.0-13.0-3.19,15835,List1A,white,woman,,,,,"{""Q0"":""ruth and kate are talking to each other""}","<img src=""stim_listA/talk8.gif""</stim_listA>",are talking to each other,
13138,"<img src='img/portrait_matrix_list1.JPG' style='width:900px;height:500px;''></img><p>If you have memorised all the portraits and names and are ready to start, press Continue.</p><p><strong>Please note: Your memory of these faces will be tested 4 times during this experiment.</strong></p>",0,html-button-response,110,489387,0.0-14.0-0.0,15835,List1A,white,woman,,,,,,,,
2599,"<img src=""portrait/WW1.jpg""style=""width:400px;height:400px;""></img>",1,html-button-response,111,492991,0.0-14.0-1.0,15835,List1A,white,woman,,TRUE,1,,,,,
null,CORRECT,,html-keyboard-response,112,494515,0.0-14.0-2.0-0.0,15835,List1A,white,woman,,,,null,,,,
2144,"<img src=""portrait/WM1.jpg""style=""width:400px;height:400px;""></img>",6,html-button-response,113,496661,0.0-14.0-4.0,15835,List1A,white,woman,,TRUE,6,,,,,
null,CORRECT,,html-keyboard-response,114,498178,0.0-14.0-5.0-0.0,15835,List1A,white,woman,,,,null,,,,
2444,"<img src=""portrait/BW2.jpg""style=""width:400px;height:400px;""></img>",2,html-button-response,115,500625,0.0-14.0-7.0,15835,List1A,white,woman,,TRUE,2,,,,,
null,CORRECT,,html-keyboard-response,116,502141,0.0-14.0-8.0-0.0,15835,List1A,white,woman,,,,null,,,,
1591,"<img src=""portrait/BM1.jpg""style=""width:400px;height:400px;""></img>",4,html-button-response,117,503734,0.0-14.0-10.0,15835,List1A,white,woman,,TRUE,4,,,,,
null,CORRECT,,html-keyboard-response,118,505252,0.0-14.0-11.0-0.0,15835,List1A,white,woman,,,,null,,,,
2121,"<img src=""portrait/BW1.jpg""style=""width:400px;height:400px;""></img>",0,html-button-response,119,507375,0.0-14.0-13.0,15835,List1A,white,woman,,TRUE,0,,,,,
null,CORRECT,,html-keyboard-response,120,508885,0.0-14.0-14.0-0.0,15835,List1A,white,woman,,,,null,,,,
1927,"<img src=""portrait/BM2.jpg""style=""width:400px;height:400px;""></img>",5,html-button-response,121,510816,0.0-14.0-16.0,15835,List1A,white,woman,,TRUE,5,,,,,
null,CORRECT,,html-keyboard-response,122,512346,0.0-14.0-17.0-0.0,15835,List1A,white,woman,,,,null,,,,
1746,"<img src=""portrait/WM2.jpg""style=""width:400px;height:400px;""></img>",7,html-button-response,123,514097,0.0-14.0-19.0,15835,List1A,white,woman,,TRUE,7,,,,,
null,CORRECT,,html-keyboard-response,124,515621,0.0-14.0-20.0-0.0,15835,List1A,white,woman,,,,null,,,,
1771,"<img src=""portrait/WW2.jpg""style=""width:400px;height:400px;""></img>",3,html-button-response,125,517396,0.0-14.0-22.0,15835,List1A,white,woman,,TRUE,3,,,,,
null,CORRECT,,html-keyboard-response,126,518901,0.0-14.0-23.0-0.0,15835,List1A,white,woman,,,,null,,,,
1539,<p>You got 8 out of 8 right first time. Press Continue.</p>,0,html-button-response,127,520444,0.0-14.0-25.0,15835,List1A,white,woman,,,,,,,,
null,"<div style=""font-size:60px;"">+</div>",,html-keyboard-response,128,521954,0.0-15.0-0.0,15835,List1A,white,woman,,,,null,,,,
null,"<img src=""stim_listA/fight5.gif""</stim_listA>",,html-keyboard-response,129,523964,0.0-15.0-1.0,15835,List1A,white,woman,,,,null,,,,
null,is fighting,,html-keyboard-response,130,525960,0.0-15.0-2.0,15835,List1A,white,woman,,,,null,,,,
8408,,,survey-text,131,534372,0.0-15.0-3.0,15835,List1A,white,woman,,,,,"{""Q0"":""mike is fighting dave""}","<img src=""stim_listA/fight5.gif""</stim_listA>",is fighting,
null,"<div style=""font-size:60px;"">+</div>",,html-keyboard-response,132,534884,0.0-15.0-0.1,15835,List1A,white,woman,,,,null,,,,
null,"<img src=""stim_listA/kiss7.gif""</stim_listA>",,html-keyboard-response,133,536897,0.0-15.0-1.1,15835,List1A,white,woman,,,,null,,,,
null,is kissing,,html-keyboard-response,134,538894,0.0-15.0-2.1,15835,List1A,white,woman,,,,null,,,,
5475,,,survey-text,135,544374,0.0-15.0-3.1,15835,List1A,white,woman,,,,,"{""Q0"":""beth is kissing ruth""}","<img src=""stim_listA/kiss7.gif""</stim_listA>",is kissing,
null,"<div style=""font-size:60px;"">+</div>",,html-keyboard-response,136,544876,0.0-15.0-0.2,15835,List1A,white,woman,,,,null,,,,
null,"<img src=""stim_listA/fight2.gif""</stim_listA>",,html-keyboard-response,137,546884,0.0-15.0-1.2,15835,List1A,white,woman,,,,null,,,,
null,are fighting each other,,html-keyboard-response,138,548885,0.0-15.0-2.2,15835,List1A,white,woman,,,,null,,,,
9141,,,survey-text,139,558027,0.0-15.0-3.2,15835,List1A,white,woman,,,,,"{""Q0"":""beth and fred are fighting each other""}","<img src=""stim_listA/fight2.gif""</stim_listA>",are fighting each other,
null,"<div style=""font-size:60px;"">+</div>",,html-keyboard-response,140,558542,0.0-15.0-0.3,15835,List1A,white,woman,,,,null,,,,
null,"<img src=""stim_listA/touch2.gif""</stim_listA>",,html-keyboard-response,141,560558,0.0-15.0-1.3,15835,List1A,white,woman,,,,null,,,,
null,are touching each other,,html-keyboard-response,142,562554,0.0-15.0-2.3,15835,List1A,white,woman,,,,null,,,,
7608,,,survey-text,143,570162,0.0-15.0-3.3,15835,List1A,white,woman,,,,,"{""Q0"":""beth and fred are touching each other""}","<img src=""stim_listA/touch2.gif""</stim_listA>",are touching each other,
null,"<div style=""font-size:60px;"">+</div>",,html-keyboard-response,144,570665,0.0-15.0-0.4,15835,List1A,white,woman,,,,null,,,,
null,"<img src=""stim_listA/meet2.gif""</stim_listA>",,html-keyboard-response,145,572672,0.0-15.0-1.4,15835,List1A,white,woman,,,,null,,,,
null,are meeting each other,,html-keyboard-response,146,574680,0.0-15.0-2.4,15835,List1A,white,woman,,,,null,,,,
7735,,,survey-text,147,582419,0.0-15.0-3.4,15835,List1A,white,woman,,,,,"{""Q0"":""beth and fred are meeting each other""}","<img src=""stim_listA/meet2.gif""</stim_listA>",are meeting each other,
null,"<div style=""font-size:60px;"">+</div>",,html-keyboard-response,148,582930,0.0-15.0-0.5,15835,List1A,white,woman,,,,null,,,,
null,"<img src=""stim_listA/kiss3.gif""</stim_listA>",,html-keyboard-response,149,584943,0.0-15.0-1.5,15835,List1A,white,woman,,,,null,,,,
null,is kissing,,html-keyboard-response,150,586942,0.0-15.0-2.5,15835,List1A,white,woman,,,,null,,,,
4819,,,survey-text,151,591764,0.0-15.0-3.5,15835,List1A,white,woman,,,,,"{""Q0"":""luke is kissing ruth""}","<img src=""stim_listA/kiss3.gif""</stim_listA>",is kissing,
null,"<div style=""font-size:60px;"">+</div>",,html-keyboard-response,152,592270,0.0-15.0-0.6,15835,List1A,white,woman,,,,null,,,,
null,"<img src=""stim_listA/meet4.gif""</stim_listA>",,html-keyboard-response,153,594281,0.0-15.0-1.6,15835,List1A,white,woman,,,,null,,,,
null,are meeting each other,,html-keyboard-response,154,596282,0.0-15.0-2.6,15835,List1A,white,woman,,,,null,,,,
6964,,,survey-text,155,603252,0.0-15.0-3.6,15835,List1A,white,woman,,,,,"{""Q0"":""ruth and luke are meeting each other""}","<img src=""stim_listA/meet4.gif""</stim_listA>",are meeting each other,
null,"<div style=""font-size:60px;"">+</div>",,html-keyboard-response,156,603760,0.0-15.0-0.7,15835,List1A,white,woman,,,,null,,,,
null,"<img src=""stim_listA/marry2.gif""</stim_listA>",,html-keyboard-response,157,605772,0.0-15.0-1.7,15835,List1A,white,woman,,,,null,,,,
null,are marrying each other,,html-keyboard-response,158,607770,0.0-15.0-2.7,15835,List1A,white,woman,,,,null,,,,
7411,,,survey-text,159,615183,0.0-15.0-3.7,15835,List1A,white,woman,,,,,"{""Q0"":""kate and fred are marrying each other""}","<img src=""stim_listA/marry2.gif""</stim_listA>",are marrying each other,
null,"<div style=""font-size:60px;"">+</div>",,html-keyboard-response,160,615705,0.0-15.0-0.8,15835,List1A,white,woman,,,,null,,,,
null,"<img src=""stim_listA/talk7.gif""</stim_listA>",,html-keyboard-response,161,617707,0.0-15.0-1.8,15835,List1A,white,woman,,,,null,,,,
null,is talking to,,html-keyboard-response,162,619707,0.0-15.0-2.8,15835,List1A,white,woman,,,,null,,,,
5592,,,survey-text,163,625302,0.0-15.0-3.8,15835,List1A,white,woman,,,,,"{""Q0"":""beth is talking to jane""}","<img src=""stim_listA/talk7.gif""</stim_listA>",is talking to,
null,"<div style=""font-size:60px;"">+</div>",,html-keyboard-response,164,625821,0.0-15.0-0.9,15835,List1A,white,woman,,,,null,,,,
null,"<img src=""stim_listA/shout7.gif""</stim_listA>",,html-keyboard-response,165,627829,0.0-15.0-1.9,15835,List1A,white,woman,,,,null,,,,
null,is shouting at,,html-keyboard-response,166,629831,0.0-15.0-2.9,15835,List1A,white,woman,,,,null,,,,
6103,,,survey-text,167,635937,0.0-15.0-3.9,15835,List1A,white,woman,,,,,"{""Q0"":""beth is shouting at ruth""}","<img src=""stim_listA/shout7.gif""</stim_listA>",is shouting at,
null,"<div style=""font-size:60px;"">+</div>",,html-keyboard-response,168,636444,0.0-15.0-0.10,15835,List1A,white,woman,,,,null,,,,
null,"<img src=""stim_listA/hug3.gif""</stim_listA>",,html-keyboard-response,169,638450,0.0-15.0-1.10,15835,List1A,white,woman,,,,null,,,,
null,is hugging,,html-keyboard-response,170,640452,0.0-15.0-2.10,15835,List1A,white,woman,,,,null,,,,
6751,,,survey-text,171,647204,0.0-15.0-3.10,15835,List1A,white,woman,,,,,"{""Q0"":""luke is hugging ruth""}","<img src=""stim_listA/hug3.gif""</stim_listA>",is hugging,
null,"<div style=""font-size:60px;"">+</div>",,html-keyboard-response,172,647715,0.0-15.0-0.11,15835,List1A,white,woman,,,,null,,,,
null,"<img src=""stim_listA/argue7.gif""</stim_listA>",,html-keyboard-response,173,649721,0.0-15.0-1.11,15835,List1A,white,woman,,,,null,,,,
null,is arguing with,,html-keyboard-response,174,651721,0.0-15.0-2.11,15835,List1A,white,woman,,,,null,,,,
6084,,,survey-text,175,657807,0.0-15.0-3.11,15835,List1A,white,woman,,,,,"{""Q0"":""kate is arguing with ruth""}","<img src=""stim_listA/argue7.gif""</stim_listA>",is arguing with,
null,"<div style=""font-size:60px;"">+</div>",,html-keyboard-response,176,658313,0.0-15.0-0.12,15835,List1A,white,woman,,,,null,,,,
null,"<img src=""stim_listA/meet8.gif""</stim_listA>",,html-keyboard-response,177,660329,0.0-15.0-1.12,15835,List1A,white,woman,,,,null,,,,
null,are meeting each other,,html-keyboard-response,178,662325,0.0-15.0-2.12,15835,List1A,white,woman,,,,null,,,,
7623,,,survey-text,179,669950,0.0-15.0-3.12,15835,List1A,white,woman,,,,,"{""Q0"":""ruth and beth are meeting each other""}","<img src=""stim_listA/meet8.gif""</stim_listA>",are meeting each other,
null,"<div style=""font-size:60px;"">+</div>",,html-keyboard-response,180,670454,0.0-15.0-0.13,15835,List1A,white,woman,,,,null,,,,
null,"<img src=""stim_listA/shout6.gif""</stim_listA>",,html-keyboard-response,181,672464,0.0-15.0-1.13,15835,List1A,white,woman,,,,null,,,,
null,are shouting at each other,,html-keyboard-response,182,674464,0.0-15.0-2.13,15835,List1A,white,woman,,,,null,,,,
7828,,,survey-text,183,682294,0.0-15.0-3.13,15835,List1A,white,woman,,,,,"{""Q0"":""dave and mike are shouting at each other""}","<img src=""stim_listA/shout6.gif""</stim_listA>",are shouting at each other,
null,"<div style=""font-size:60px;"">+</div>",,html-keyboard-response,184,682804,0.0-15.0-0.14,15835,List1A,white,woman,,,,null,,,,
null,"<img src=""stim_listA/fight4.gif""</stim_listA>",,html-keyboard-response,185,684817,0.0-15.0-1.14,15835,List1A,white,woman,,,,null,,,,
null,are fighting each other,,html-keyboard-response,186,686811,0.0-15.0-2.14,15835,List1A,white,woman,,,,null,,,,
8231,,,survey-text,187,695044,0.0-15.0-3.14,15835,List1A,white,woman,,,,,"{""Q0"":""ruth and luke are fighting each other""}","<img src=""stim_listA/fight4.gif""</stim_listA>",are fighting each other,
null,"<div style=""font-size:60px;"">+</div>",,html-keyboard-response,188,695560,0.0-15.0-0.15,15835,List1A,white,woman,,,,null,,,,
null,"<img src=""stim_listA/talk2.gif""</stim_listA>",,html-keyboard-response,189,697574,0.0-15.0-1.15,15835,List1A,white,woman,,,,null,,,,
null,are talking to each other,,html-keyboard-response,190,699568,0.0-15.0-2.15,15835,List1A,white,woman,,,,null,,,,
9212,,,survey-text,191,708783,0.0-15.0-3.15,15835,List1A,white,woman,,,,,"{""Q0"":""beth and mike are talking to each other""}","<img src=""stim_listA/talk2.gif""</stim_listA>",are talking to each other,
null,"<div style=""font-size:60px;"">+</div>",,html-keyboard-response,192,709292,0.0-15.0-0.16,15835,List1A,white,woman,,,,null,,,,
null,"<img src=""stim_listA/shout2.gif""</stim_listA>",,html-keyboard-response,193,711303,0.0-15.0-1.16,15835,List1A,white,woman,,,,null,,,,
null,are shouting at each other,,html-keyboard-response,194,713302,0.0-15.0-2.16,15835,List1A,white,woman,,,,null,,,,
7610,,,survey-text,195,720913,0.0-15.0-3.16,15835,List1A,white,woman,,,,,"{""Q0"":""kate and mike are shouting at each other""}","<img src=""stim_listA/shout2.gif""</stim_listA>",are shouting at each other,
null,"<div style=""font-size:60px;"">+</div>",,html-keyboard-response,196,721427,0.0-15.0-0.17,15835,List1A,white,woman,,,,null,,,,
null,"<img src=""stim_listA/kiss2.gif""</stim_listA>",,html-keyboard-response,197,723444,0.0-15.0-1.17,15835,List1A,white,woman,,,,null,,,,
null,are kissing each other,,html-keyboard-response,198,725440,0.0-15.0-2.17,15835,List1A,white,woman,,,,null,,,,
8619,,,survey-text,199,734062,0.0-15.0-3.17,15835,List1A,white,woman,,,,,"{""Q0"":""kate and mike are kissing each other""}","<img src=""stim_listA/kiss2.gif""</stim_listA>",are kissing each other,
null,"<div style=""font-size:60px;"">+</div>",,html-keyboard-response,200,734567,0.0-15.0-0.18,15835,List1A,white,woman,,,,null,,,,
null,"<img src=""stim_listA/shout5.gif""</stim_listA>",,html-keyboard-response,201,736579,0.0-15.0-1.18,15835,List1A,white,woman,,,,null,,,,
null,is shouting at,,html-keyboard-response,202,738578,0.0-15.0-2.18,15835,List1A,white,woman,,,,null,,,,
6642,,,survey-text,203,745225,0.0-15.0-3.18,15835,List1A,white,woman,,,,,"{""Q0"":""fred is shouting at luke""}","<img src=""stim_listA/shout5.gif""</stim_listA>",is shouting at,
null,"<div style=""font-size:60px;"">+</div>",,html-keyboard-response,204,745737,0.0-15.0-0.19,15835,List1A,white,woman,,,,null,,,,
null,"<img src=""stim_listA/argue8.gif""</stim_listA>",,html-keyboard-response,205,747748,0.0-15.0-1.19,15835,List1A,white,woman,,,,null,,,,
null,are arguing with each other,,html-keyboard-response,206,749747,0.0-15.0-2.19,15835,List1A,white,woman,,,,null,,,,
11196,,,survey-text,207,760946,0.0-15.0-3.19,15835,List1A,white,woman,,,,,"{""Q0"":""jane and beth are arguing with each other""}","<img src=""stim_listA/argue8.gif""</stim_listA>",are arguing with each other,
2180,"<img src='img/portrait_matrix_list1.JPG' style='width:900px;height:500px;''></img><p>If you have memorised all the portraits and names and are ready to start, press Continue.</p><p><strong>Please note: Your memory of these faces will be tested 4 times during this experiment.</strong></p>",0,html-button-response,208,763127,0.0-16.0-0.0,15835,List1A,white,woman,,,,,,,,
1955,"<img src=""portrait/WW2.jpg""style=""width:400px;height:400px;""></img>",3,html-button-response,209,766094,0.0-16.0-1.0,15835,List1A,white,woman,,TRUE,3,,,,,
null,CORRECT,,html-keyboard-response,210,767609,0.0-16.0-2.0-0.0,15835,List1A,white,woman,,,,null,,,,
2837,"<img src=""portrait/WM1.jpg""style=""width:400px;height:400px;""></img>",6,html-button-response,211,770448,0.0-16.0-4.0,15835,List1A,white,woman,,TRUE,6,,,,,
null,CORRECT,,html-keyboard-response,212,771976,0.0-16.0-5.0-0.0,15835,List1A,white,woman,,,,null,,,,
2322,"<img src=""portrait/BM2.jpg""style=""width:400px;height:400px;""></img>",5,html-button-response,213,774302,0.0-16.0-7.0,15835,List1A,white,woman,,TRUE,5,,,,,
null,CORRECT,,html-keyboard-response,214,775811,0.0-16.0-8.0-0.0,15835,List1A,white,woman,,,,null,,,,
1898,"<img src=""portrait/BW2.jpg""style=""width:400px;height:400px;""></img>",2,html-button-response,215,777711,0.0-16.0-10.0,15835,List1A,white,woman,,TRUE,2,,,,,
null,CORRECT,,html-keyboard-response,216,779219,0.0-16.0-11.0-0.0,15835,List1A,white,woman,,,,null,,,,
1907,"<img src=""portrait/BM1.jpg""style=""width:400px;height:400px;""></img>",4,html-button-response,217,781130,0.0-16.0-13.0,15835,List1A,white,woman,,TRUE,4,,,,,
null,CORRECT,,html-keyboard-response,218,782650,0.0-16.0-14.0-0.0,15835,List1A,white,woman,,,,null,,,,
1774,"<img src=""portrait/WM2.jpg""style=""width:400px;height:400px;""></img>",7,html-button-response,219,784429,0.0-16.0-16.0,15835,List1A,white,woman,,TRUE,7,,,,,
null,CORRECT,,html-keyboard-response,220,785941,0.0-16.0-17.0-0.0,15835,List1A,white,woman,,,,null,,,,
2439,"<img src=""portrait/BW1.jpg""style=""width:400px;height:400px;""></img>",0,html-button-response,221,788383,0.0-16.0-19.0,15835,List1A,white,woman,,TRUE,0,,,,,
null,CORRECT,,html-keyboard-response,222,789885,0.0-16.0-20.0-0.0,15835,List1A,white,woman,,,,null,,,,
1771,"<img src=""portrait/WW1.jpg""style=""width:400px;height:400px;""></img>",1,html-button-response,223,791661,0.0-16.0-22.0,15835,List1A,white,woman,,TRUE,1,,,,,
null,CORRECT,,html-keyboard-response,224,793170,0.0-16.0-23.0-0.0,15835,List1A,white,woman,,,,null,,,,
1494,<p>You got 8 out of 8 right first time. Press Continue.</p>,0,html-button-response,225,794669,0.0-16.0-25.0,15835,List1A,white,woman,,,,,,,,
null,"<div style=""font-size:60px;"">+</div>",,html-keyboard-response,226,796201,0.0-17.0-0.0,15835,List1A,white,woman,,,,null,,,,
null,"<img src=""stim_listA/meet5.gif""</stim_listA>",,html-keyboard-response,227,798209,0.0-17.0-1.0,15835,List1A,white,woman,,,,null,,,,
null,is meeting,,html-keyboard-response,228,800208,0.0-17.0-2.0,15835,List1A,white,woman,,,,null,,,,
6832,,,survey-text,229,807043,0.0-17.0-3.0,15835,List1A,white,woman,,,,,"{""Q0"":""mike is meeting dave""}","<img src=""stim_listA/meet5.gif""</stim_listA>",is meeting,
null,"<div style=""font-size:60px;"">+</div>",,html-keyboard-response,230,807554,0.0-17.0-0.1,15835,List1A,white,woman,,,,null,,,,
null,"<img src=""stim_listA/talk4.gif""</stim_listA>",,html-keyboard-response,231,809566,0.0-17.0-1.1,15835,List1A,white,woman,,,,null,,,,
null,are talking to each other,,html-keyboard-response,232,811562,0.0-17.0-2.1,15835,List1A,white,woman,,,,null,,,,
7981,,,survey-text,233,819546,0.0-17.0-3.1,15835,List1A,white,woman,,,,,"{""Q0"":""ruth and dave are talking to each other""}","<img src=""stim_listA/talk4.gif""</stim_listA>",are talking to each other,
null,"<div style=""font-size:60px;"">+</div>",,html-keyboard-response,234,820057,0.0-17.0-0.2,15835,List1A,white,woman,,,,null,,,,
null,"<img src=""stim_listA/talk3.gif""</stim_listA>",,html-keyboard-response,235,822068,0.0-17.0-1.2,15835,List1A,white,woman,,,,null,,,,
null,is talking to,,html-keyboard-response,236,824074,0.0-17.0-2.2,15835,List1A,white,woman,,,,null,,,,
6323,,,survey-text,237,830399,0.0-17.0-3.2,15835,List1A,white,woman,,,,,"{""Q0"":""luke is talking to jane""}","<img src=""stim_listA/talk3.gif""</stim_listA>",is talking to,
null,"<div style=""font-size:60px;"">+</div>",,html-keyboard-response,238,830907,0.0-17.0-0.3,15835,List1A,white,woman,,,,null,,,,
null,"<img src=""stim_listA/hug2.gif""</stim_listA>",,html-keyboard-response,239,832922,0.0-17.0-1.3,15835,List1A,white,woman,,,,null,,,,
null,are hugging each other,,html-keyboard-response,240,834918,0.0-17.0-2.3,15835,List1A,white,woman,,,,null,,,,
8140,,,survey-text,241,843064,0.0-17.0-3.3,15835,List1A,white,woman,,,,,"{""Q0"":""kate and mike are hugging each other""}","<img src=""stim_listA/hug2.gif""</stim_listA>",are hugging each other,
null,"<div style=""font-size:60px;"">+</div>",,html-keyboard-response,242,843578,0.0-17.0-0.4,15835,List1A,white,woman,,,,null,,,,
null,"<img src=""stim_listA/dance6.gif""</stim_listA>",,html-keyboard-response,243,845591,0.0-17.0-1.4,15835,List1A,white,woman,,,,null,,,,
null,are dancing with each other,,html-keyboard-response,244,847583,0.0-17.0-2.4,15835,List1A,white,woman,,,,null,,,,
8672,,,survey-text,245,856260,0.0-17.0-3.4,15835,List1A,white,woman,,,,,"{""Q0"":""luke and mike are dancing with each other""}","<img src=""stim_listA/dance6.gif""</stim_listA>",are dancing with each other,
null,"<div style=""font-size:60px;"">+</div>",,html-keyboard-response,246,856762,0.0-17.0-0.5,15835,List1A,white,woman,,,,null,,,,
null,"<img src=""stim_listA/kiss4.gif""</stim_listA>",,html-keyboard-response,247,858775,0.0-17.0-1.5,15835,List1A,white,woman,,,,null,,,,
null,are kissing each other,,html-keyboard-response,248,860774,0.0-17.0-2.5,15835,List1A,white,woman,,,,null,,,,
6556,,,survey-text,249,867335,0.0-17.0-3.5,15835,List1A,white,woman,,,,,"{""Q0"":""jane and dave are kissing each other""}","<img src=""stim_listA/kiss4.gif""</stim_listA>",are kissing each other,
null,"<div style=""font-size:60px;"">+</div>",,html-keyboard-response,250,867840,0.0-17.0-0.6,15835,List1A,white,woman,,,,null,,,,
null,"<img src=""stim_listA/hug1.gif""</stim_listA>",,html-keyboard-response,251,869845,0.0-17.0-1.6,15835,List1A,white,woman,,,,null,,,,
null,is hugging,,html-keyboard-response,252,871844,0.0-17.0-2.6,15835,List1A,white,woman,,,,null,,,,
5455,,,survey-text,253,877301,0.0-17.0-3.6,15835,List1A,white,woman,,,,,"{""Q0"":""fred is hugging beth""}","<img src=""stim_listA/hug1.gif""</stim_listA>",is hugging,
null,"<div style=""font-size:60px;"">+</div>",,html-keyboard-response,254,877811,0.0-17.0-0.7,15835,List1A,white,woman,,,,null,,,,
null,"<img src=""stim_listA/dance5.gif""</stim_listA>",,html-keyboard-response,255,879817,0.0-17.0-1.7,15835,List1A,white,woman,,,,null,,,,
null,is dancing with,,html-keyboard-response,256,881819,0.0-17.0-2.7,15835,List1A,white,woman,,,,null,,,,
7196,,,survey-text,257,889017,0.0-17.0-3.7,15835,List1A,white,woman,,,,,"{""Q0"":""fred is dancing with dave""}","<img src=""stim_listA/dance5.gif""</stim_listA>",is dancing with,
null,"<div style=""font-size:60px;"">+</div>",,html-keyboard-response,258,889531,0.0-17.0-0.8,15835,List1A,white,woman,,,,null,,,,
null,"<img src=""stim_listA/argue5.gif""</stim_listA>",,html-keyboard-response,259,891539,0.0-17.0-1.8,15835,List1A,white,woman,,,,null,,,,
null,is arguing with,,html-keyboard-response,260,893546,0.0-17.0-2.8,15835,List1A,white,woman,,,,null,,,,
10743,,,survey-text,261,904292,0.0-17.0-3.8,15835,List1A,white,woman,,,,,"{""Q0"":""mike is arguing with luke""}","<img src=""stim_listA/argue5.gif""</stim_listA>",is arguing with,
null,"<div style=""font-size:60px;"">+</div>",,html-keyboard-response,262,904795,0.0-17.0-0.9,15835,List1A,white,woman,,,,null,,,,
null,"<img src=""stim_listA/touch4.gif""</stim_listA>",,html-keyboard-response,263,906809,0.0-17.0-1.9,15835,List1A,white,woman,,,,null,,,,
null,are touching each other,,html-keyboard-response,264,908805,0.0-17.0-2.9,15835,List1A,white,woman,,,,null,,,,
7082,,,survey-text,265,915890,0.0-17.0-3.9,15835,List1A,white,woman,,,,,"{""Q0"":""ruth and luke are touching each other""}","<img src=""stim_listA/touch4.gif""</stim_listA>",are touching each other,
null,"<div style=""font-size:60px;"">+</div>",,html-keyboard-response,266,916400,0.0-17.0-0.10,15835,List1A,white,woman,,,,null,,,,
null,"<img src=""stim_listA/meet7.gif""</stim_listA>",,html-keyboard-response,267,918411,0.0-17.0-1.10,15835,List1A,white,woman,,,,null,,,,
null,is meeting,,html-keyboard-response,268,920419,0.0-17.0-2.10,15835,List1A,white,woman,,,,null,,,,
4533,,,survey-text,269,924954,0.0-17.0-3.10,15835,List1A,white,woman,,,,,"{""Q0"":""kate is meeting jane""}","<img src=""stim_listA/meet7.gif""</stim_listA>",is meeting,
null,"<div style=""font-size:60px;"">+</div>",,html-keyboard-response,270,925470,0.0-17.0-0.11,15835,List1A,white,woman,,,,null,,,,
null,"<img src=""stim_listA/argue3.gif""</stim_listA>",,html-keyboard-response,271,927478,0.0-17.0-1.11,15835,List1A,white,woman,,,,null,,,,
null,is arguing with,,html-keyboard-response,272,929482,0.0-17.0-2.11,15835,List1A,white,woman,,,,null,,,,
6649,,,survey-text,273,936134,0.0-17.0-3.11,15835,List1A,white,woman,,,,,"{""Q0"":""ruth is arguing with dave""}","<img src=""stim_listA/argue3.gif""</stim_listA>",is arguing with,
null,"<div style=""font-size:60px;"">+</div>",,html-keyboard-response,274,936644,0.0-17.0-0.12,15835,List1A,white,woman,,,,null,,,,
null,"<img src=""stim_listA/touch1.gif""</stim_listA>",,html-keyboard-response,275,938657,0.0-17.0-1.12,15835,List1A,white,woman,,,,null,,,,
null,is touching,,html-keyboard-response,276,940654,0.0-17.0-2.12,15835,List1A,white,woman,,,,null,,,,
7531,,,survey-text,277,948187,0.0-17.0-3.12,15835,List1A,white,woman,,,,,"{""Q0"":""kate is touching mike""}","<img src=""stim_listA/touch1.gif""</stim_listA>",is touching,
null,"<div style=""font-size:60px;"">+</div>",,html-keyboard-response,278,948694,0.0-17.0-0.13,15835,List1A,white,woman,,,,null,,,,
null,"<img src=""stim_listA/meet3.gif""</stim_listA>",,html-keyboard-response,279,950709,0.0-17.0-1.13,15835,List1A,white,woman,,,,null,,,,
null,is meeting,,html-keyboard-response,280,952701,0.0-17.0-2.13,15835,List1A,white,woman,,,,null,,,,
4841,,,survey-text,281,957546,0.0-17.0-3.13,15835,List1A,white,woman,,,,,"{""Q0"":""dave is meeting jane""}","<img src=""stim_listA/meet3.gif""</stim_listA>",is meeting,
null,"<div style=""font-size:60px;"">+</div>",,html-keyboard-response,282,958052,0.0-17.0-0.14,15835,List1A,white,woman,,,,null,,,,
null,"<img src=""stim_listA/fight1.gif""</stim_listA>",,html-keyboard-response,283,960061,0.0-17.0-1.14,15835,List1A,white,woman,,,,null,,,,
null,is fighting,,html-keyboard-response,284,962062,0.0-17.0-2.14,15835,List1A,white,woman,,,,null,,,,
4862,,,survey-text,285,966929,0.0-17.0-3.14,15835,List1A,white,woman,,,,,"{""Q0"":""mike is fighting kate""}","<img src=""stim_listA/fight1.gif""</stim_listA>",is fighting,
null,"<div style=""font-size:60px;"">+</div>",,html-keyboard-response,286,967440,0.0-17.0-0.15,15835,List1A,white,woman,,,,null,,,,
null,"<img src=""stim_listA/dance4.gif""</stim_listA>",,html-keyboard-response,287,969456,0.0-17.0-1.15,15835,List1A,white,woman,,,,null,,,,
null,are dancing with each other,,html-keyboard-response,288,971452,0.0-17.0-2.15,15835,List1A,white,woman,,,,null,,,,
10545,,,survey-text,289,982001,0.0-17.0-3.15,15835,List1A,white,woman,,,,,"{""Q0"":""ruth and dave are dancing with each other""}","<img src=""stim_listA/dance4.gif""</stim_listA>",are dancing with each other,
null,"<div style=""font-size:60px;"">+</div>",,html-keyboard-response,290,982507,0.0-17.0-0.16,15835,List1A,white,woman,,,,null,,,,
null,"<img src=""stim_listA/marry4.gif""</stim_listA>",,html-keyboard-response,291,984519,0.0-17.0-1.16,15835,List1A,white,woman,,,,null,,,,
null,are marrying each other,,html-keyboard-response,292,986521,0.0-17.0-2.16,15835,List1A,white,woman,,,,null,,,,
7409,,,survey-text,293,993933,0.0-17.0-3.16,15835,List1A,white,woman,,,,,"{""Q0"":""jane and luke are marrying each other""}","<img src=""stim_listA/marry4.gif""</stim_listA>",are marrying each other,
null,"<div style=""font-size:60px;"">+</div>",,html-keyboard-response,294,994448,0.0-17.0-0.17,15835,List1A,white,woman,,,,null,,,,
null,"<img src=""stim_listA/marry7.gif""</stim_listA>",,html-keyboard-response,295,996457,0.0-17.0-1.17,15835,List1A,white,woman,,,,null,,,,
null,is marrying,,html-keyboard-response,296,998456,0.0-17.0-2.17,15835,List1A,white,woman,,,,null,,,,
5616,,,survey-text,297,1004074,0.0-17.0-3.17,15835,List1A,white,woman,,,,,"{""Q0"":""kate is marrying ruth""}","<img src=""stim_listA/marry7.gif""</stim_listA>",is marrying,
null,"<div style=""font-size:60px;"">+</div>",,html-keyboard-response,298,1004583,0.0-17.0-0.18,15835,List1A,white,woman,,,,null,,,,
null,"<img src=""stim_listA/kiss5.gif""</stim_listA>",,html-keyboard-response,299,1006596,0.0-17.0-1.18,15835,List1A,white,woman,,,,null,,,,
null,is kissing,,html-keyboard-response,300,1008593,0.0-17.0-2.18,15835,List1A,white,woman,,,,null,,,,
6463,,,survey-text,301,1015064,0.0-17.0-3.18,15835,List1A,white,woman,,,,,"{""Q0"":""fred is kissing luke""}","<img src=""stim_listA/kiss5.gif""</stim_listA>",is kissing,
null,"<div style=""font-size:60px;"">+</div>",,html-keyboard-response,302,1015571,0.0-17.0-0.19,15835,List1A,white,woman,,,,null,,,,
null,"<img src=""stim_listA/fight3.gif""</stim_listA>",,html-keyboard-response,303,1017586,0.0-17.0-1.19,15835,List1A,white,woman,,,,null,,,,
null,is fighting,,html-keyboard-response,304,1019583,0.0-17.0-2.19,15835,List1A,white,woman,,,,null,,,,
4473,,,survey-text,305,1024058,0.0-17.0-3.19,15835,List1A,white,woman,,,,,"{""Q0"":""dave is fighting jane""}","<img src=""stim_listA/fight3.gif""</stim_listA>",is fighting,
1779,"<img src='img/portrait_matrix_list1.JPG' style='width:900px;height:500px;''></img><p>If you have memorised all the portraits and names and are ready to start, press Continue.</p><p><strong>Please note: Your memory of these faces will be tested 4 times during this experiment.</strong></p>",0,html-button-response,306,1025840,0.0-18.0-0.0,15835,List1A,white,woman,,,,,,,,
2573,"<img src=""portrait/BM2.jpg""style=""width:400px;height:400px;""></img>",5,html-button-response,307,1029423,0.0-18.0-1.0,15835,List1A,white,woman,,TRUE,5,,,,,
null,CORRECT,,html-keyboard-response,308,1030935,0.0-18.0-2.0-0.0,15835,List1A,white,woman,,,,null,,,,
1884,"<img src=""portrait/BM1.jpg""style=""width:400px;height:400px;""></img>",4,html-button-response,309,1032824,0.0-18.0-4.0,15835,List1A,white,woman,,TRUE,4,,,,,
null,CORRECT,,html-keyboard-response,310,1034339,0.0-18.0-5.0-0.0,15835,List1A,white,woman,,,,null,,,,
2285,"<img src=""portrait/BW2.jpg""style=""width:400px;height:400px;""></img>",2,html-button-response,311,1036627,0.0-18.0-7.0,15835,List1A,white,woman,,TRUE,2,,,,,
null,CORRECT,,html-keyboard-response,312,1038151,0.0-18.0-8.0-0.0,15835,List1A,white,woman,,,,null,,,,
2429,"<img src=""portrait/BW1.jpg""style=""width:400px;height:400px;""></img>",0,html-button-response,313,1040583,0.0-18.0-10.0,15835,List1A,white,woman,,TRUE,0,,,,,
null,CORRECT,,html-keyboard-response,314,1042110,0.0-18.0-11.0-0.0,15835,List1A,white,woman,,,,null,,,,
2172,"<img src=""portrait/WM1.jpg""style=""width:400px;height:400px;""></img>",6,html-button-response,315,1044288,0.0-18.0-13.0,15835,List1A,white,woman,,TRUE,6,,,,,
null,CORRECT,,html-keyboard-response,316,1045807,0.0-18.0-14.0-0.0,15835,List1A,white,woman,,,,null,,,,
1786,"<img src=""portrait/WW2.jpg""style=""width:400px;height:400px;""></img>",3,html-button-response,317,1047596,0.0-18.0-16.0,15835,List1A,white,woman,,TRUE,3,,,,,
null,CORRECT,,html-keyboard-response,318,1049121,0.0-18.0-17.0-0.0,15835,List1A,white,woman,,,,null,,,,
1720,"<img src=""portrait/WW1.jpg""style=""width:400px;height:400px;""></img>",1,html-button-response,319,1050846,0.0-18.0-19.0,15835,List1A,white,woman,,TRUE,1,,,,,
null,CORRECT,,html-keyboard-response,320,1052363,0.0-18.0-20.0-0.0,15835,List1A,white,woman,,,,null,,,,
1722,"<img src=""portrait/WM2.jpg""style=""width:400px;height:400px;""></img>",7,html-button-response,321,1054089,0.0-18.0-22.0,15835,List1A,white,woman,,TRUE,7,,,,,
null,CORRECT,,html-keyboard-response,322,1055615,0.0-18.0-23.0-0.0,15835,List1A,white,woman,,,,null,,,,
1315,<p>You got 8 out of 8 right first time. Press Continue.</p>,0,html-button-response,323,1056934,0.0-18.0-25.0,15835,List1A,white,woman,,,,,,,,
null,"<div style=""font-size:60px;"">+</div>",,html-keyboard-response,324,1058458,0.0-19.0-0.0,15835,List1A,white,woman,,,,null,,,,
null,"<img src=""stim_listA/marry5.gif""</stim_listA>",,html-keyboard-response,325,1060470,0.0-19.0-1.0,15835,List1A,white,woman,,,,null,,,,
null,is marrying,,html-keyboard-response,326,1062470,0.0-19.0-2.0,15835,List1A,white,woman,,,,null,,,,
7690,,,survey-text,327,1070166,0.0-19.0-3.0,15835,List1A,white,woman,,,,,"{""Q0"":""mike is marrying luke""}","<img src=""stim_listA/marry5.gif""</stim_listA>",is marrying,
null,"<div style=""font-size:60px;"">+</div>",,html-keyboard-response,328,1070682,0.0-19.0-0.1,15835,List1A,white,woman,,,,null,,,,
null,"<img src=""stim_listA/marry3.gif""</stim_listA>",,html-keyboard-response,329,1072690,0.0-19.0-1.1,15835,List1A,white,woman,,,,null,,,,
null,is marrying,,html-keyboard-response,330,1074689,0.0-19.0-2.1,15835,List1A,white,woman,,,,null,,,,
6314,,,survey-text,331,1081005,0.0-19.0-3.1,15835,List1A,white,woman,,,,,"{""Q0"":""dave is marrying ruth""}","<img src=""stim_listA/marry3.gif""</stim_listA>",is marrying,
null,"<div style=""font-size:60px;"">+</div>",,html-keyboard-response,332,1081514,0.0-19.0-0.2,15835,List1A,white,woman,,,,null,,,,
null,"<img src=""stim_listA/hug7.gif""</stim_listA>",,html-keyboard-response,333,1083529,0.0-19.0-1.2,15835,List1A,white,woman,,,,null,,,,
null,is hugging,,html-keyboard-response,334,1085519,0.0-19.0-2.2,15835,List1A,white,woman,,,,null,,,,
5335,,,survey-text,335,1090857,0.0-19.0-3.2,15835,List1A,white,woman,,,,,"{""Q0"":""beth is hugging ruth""}","<img src=""stim_listA/hug7.gif""</stim_listA>",is hugging,
null,"<div style=""font-size:60px;"">+</div>",,html-keyboard-response,336,1091372,0.0-19.0-0.3,15835,List1A,white,woman,,,,null,,,,
null,"<img src=""stim_listA/kiss8.gif""</stim_listA>",,html-keyboard-response,337,1093378,0.0-19.0-1.3,15835,List1A,white,woman,,,,null,,,,
null,are kissing each other,,html-keyboard-response,338,1095383,0.0-19.0-2.3,15835,List1A,white,woman,,,,null,,,,
6733,,,survey-text,339,1102117,0.0-19.0-3.3,15835,List1A,white,woman,,,,,"{""Q0"":""kate and jane are kissing each other""}","<img src=""stim_listA/kiss8.gif""</stim_listA>",are kissing each other,
null,"<div style=""font-size:60px;"">+</div>",,html-keyboard-response,340,1102623,0.0-19.0-0.4,15835,List1A,white,woman,,,,null,,,,
null,"<img src=""stim_listA/marry1.gif""</stim_listA>",,html-keyboard-response,341,1104640,0.0-19.0-1.4,15835,List1A,white,woman,,,,null,,,,
null,is marrying,,html-keyboard-response,342,1106639,0.0-19.0-2.4,15835,List1A,white,woman,,,,null,,,,
5267,,,survey-text,343,1111909,0.0-19.0-3.4,15835,List1A,white,woman,,,,,"{""Q0"":""mike is marrying beth""}","<img src=""stim_listA/marry1.gif""</stim_listA>",is marrying,
null,"<div style=""font-size:60px;"">+</div>",,html-keyboard-response,344,1112417,0.0-19.0-0.5,15835,List1A,white,woman,,,,null,,,,
null,"<img src=""stim_listA/kiss1.gif""</stim_listA>",,html-keyboard-response,345,1114424,0.0-19.0-1.5,15835,List1A,white,woman,,,,null,,,,
null,is kissing,,html-keyboard-response,346,1116432,0.0-19.0-2.5,15835,List1A,white,woman,,,,null,,,,
5518,,,survey-text,347,1121950,0.0-19.0-3.5,15835,List1A,white,woman,,,,,"{""Q0"":""fred is kissing beth""}","<img src=""stim_listA/kiss1.gif""</stim_listA>",is kissing,
null,"<div style=""font-size:60px;"">+</div>",,html-keyboard-response,348,1122456,0.0-19.0-0.6,15835,List1A,white,woman,,,,null,,,,
null,"<img src=""stim_listA/fight7.gif""</stim_listA>",,html-keyboard-response,349,1124466,0.0-19.0-1.6,15835,List1A,white,woman,,,,null,,,,
null,is fighting,,html-keyboard-response,350,1126464,0.0-19.0-2.6,15835,List1A,white,woman,,,,null,,,,
5607,,,survey-text,351,1132073,0.0-19.0-3.6,15835,List1A,white,woman,,,,,"{""Q0"":""kate is fighting jane""}","<img src=""stim_listA/fight7.gif""</stim_listA>",is fighting,
null,"<div style=""font-size:60px;"">+</div>",,html-keyboard-response,352,1132578,0.0-19.0-0.7,15835,List1A,white,woman,,,,null,,,,
null,"<img src=""stim_listA/shout3.gif""</stim_listA>",,html-keyboard-response,353,1134588,0.0-19.0-1.7,15835,List1A,white,woman,,,,null,,,,
null,is shouting at,,html-keyboard-response,354,1136587,0.0-19.0-2.7,15835,List1A,white,woman,,,,null,,,,
5675,,,survey-text,355,1142268,0.0-19.0-3.7,15835,List1A,white,woman,,,,,"{""Q0"":""ruth is shouting at luke""}","<img src=""stim_listA/shout3.gif""</stim_listA>",is shouting at,
null,"<div style=""font-size:60px;"">+</div>",,html-keyboard-response,356,1142783,0.0-19.0-0.8,15835,List1A,white,woman,,,,null,,,,
null,"<img src=""stim_listA/dance3.gif""</stim_listA>",,html-keyboard-response,357,1144795,0.0-19.0-1.8,15835,List1A,white,woman,,,,null,,,,
null,is dancing with,,html-keyboard-response,358,1146792,0.0-19.0-2.8,15835,List1A,white,woman,,,,null,,,,
5787,,,survey-text,359,1152583,0.0-19.0-3.8,15835,List1A,white,woman,,,,,"{""Q0"":""jane is dancing with luke""}","<img src=""stim_listA/dance3.gif""</stim_listA>",is dancing with,
null,"<div style=""font-size:60px;"">+</div>",,html-keyboard-response,360,1153089,0.0-19.0-0.9,15835,List1A,white,woman,,,,null,,,,
null,"<img src=""stim_listA/touch8.gif""</stim_listA>",,html-keyboard-response,361,1155101,0.0-19.0-1.9,15835,List1A,white,woman,,,,null,,,,
null,are touching each other,,html-keyboard-response,362,1157102,0.0-19.0-2.9,15835,List1A,white,woman,,,,null,,,,
6968,,,survey-text,363,1164076,0.0-19.0-3.9,15835,List1A,white,woman,,,,,"{""Q0"":""ruth and beth are toughing each other""}","<img src=""stim_listA/touch8.gif""</stim_listA>",are touching each other,
null,"<div style=""font-size:60px;"">+</div>",,html-keyboard-response,364,1164590,0.0-19.0-0.10,15835,List1A,white,woman,,,,null,,,,
null,"<img src=""stim_listA/dance1.gif""</stim_listA>",,html-keyboard-response,365,1166607,0.0-19.0-1.10,15835,List1A,white,woman,,,,null,,,,
null,is dancing with,,html-keyboard-response,366,1168603,0.0-19.0-2.10,15835,List1A,white,woman,,,,null,,,,
5204,,,survey-text,367,1173807,0.0-19.0-3.10,15835,List1A,white,woman,,,,,"{""Q0"":""fred is dancing with kate""}","<img src=""stim_listA/dance1.gif""</stim_listA>",is dancing with,
null,"<div style=""font-size:60px;"">+</div>",,html-keyboard-response,368,1174311,0.0-19.0-0.11,15835,List1A,white,woman,,,,null,,,,
null,"<img src=""stim_listA/dance7.gif""</stim_listA>",,html-keyboard-response,369,1176321,0.0-19.0-1.11,15835,List1A,white,woman,,,,null,,,,
null,is dancing with,,html-keyboard-response,370,1178315,0.0-19.0-2.11,15835,List1A,white,woman,,,,null,,,,
5061,,,survey-text,371,1183379,0.0-19.0-3.11,15835,List1A,white,woman,,,,,"{""Q0"":""beth is dancing with jane""}","<img src=""stim_listA/dance7.gif""</stim_listA>",is dancing with,
null,"<div style=""font-size:60px;"">+</div>",,html-keyboard-response,372,1183885,0.0-19.0-0.12,15835,List1A,white,woman,,,,null,,,,
null,"<img src=""stim_listA/touch7.gif""</stim_listA>",,html-keyboard-response,373,1185901,0.0-19.0-1.12,15835,List1A,white,woman,,,,null,,,,
null,is touching,,html-keyboard-response,374,1187897,0.0-19.0-2.12,15835,List1A,white,woman,,,,null,,,,
5786,,,survey-text,375,1193685,0.0-19.0-3.12,15835,List1A,white,woman,,,,,"{""Q0"":""kate is touching jane""}","<img src=""stim_listA/touch7.gif""</stim_listA>",is touching,
null,"<div style=""font-size:60px;"">+</div>",,html-keyboard-response,376,1194196,0.0-19.0-0.13,15835,List1A,white,woman,,,,null,,,,
null,"<img src=""stim_listA/dance2.gif""</stim_listA>",,html-keyboard-response,377,1196203,0.0-19.0-1.13,15835,List1A,white,woman,,,,null,,,,
null,are dancing with each other,,html-keyboard-response,378,1198203,0.0-19.0-2.13,15835,List1A,white,woman,,,,null,,,,
8213,,,survey-text,379,1206417,0.0-19.0-3.13,15835,List1A,white,woman,,,,,"{""Q0"":""beth and mike are dancing with each other""}","<img src=""stim_listA/dance2.gif""</stim_listA>",are dancing with each other,
null,"<div style=""font-size:60px;"">+</div>",,html-keyboard-response,380,1206929,0.0-19.0-0.14,15835,List1A,white,woman,,,,null,,,,
null,"<img src=""stim_listA/fight8.gif""</stim_listA>",,html-keyboard-response,381,1208939,0.0-19.0-1.14,15835,List1A,white,woman,,,,null,,,,
null,are fighting each other,,html-keyboard-response,382,1210938,0.0-19.0-2.14,15835,List1A,white,woman,,,,null,,,,
7051,,,survey-text,383,1217991,0.0-19.0-3.14,15835,List1A,white,woman,,,,,"{""Q0"":""beth and ruth are fighting each other""}","<img src=""stim_listA/fight8.gif""</stim_listA>",are fighting each other,
null,"<div style=""font-size:60px;"">+</div>",,html-keyboard-response,384,1218497,0.0-19.0-0.15,15835,List1A,white,woman,,,,null,,,,
null,"<img src=""stim_listA/argue2.gif""</stim_listA>",,html-keyboard-response,385,1220510,0.0-19.0-1.15,15835,List1A,white,woman,,,,null,,,,
null,are arguing with each other,,html-keyboard-response,386,1222515,0.0-19.0-2.15,15835,List1A,white,woman,,,,null,,,,
11070,,,survey-text,387,1233588,0.0-19.0-3.15,15835,List1A,white,woman,,,,,"{""Q0"":""fred and kate are arguing with each other""}","<img src=""stim_listA/argue2.gif""</stim_listA>",are arguing with each other,
null,"<div style=""font-size:60px;"">+</div>",,html-keyboard-response,388,1234097,0.0-19.0-0.16,15835,List1A,white,woman,,,,null,,,,
null,"<img src=""stim_listA/shout8.gif""</stim_listA>",,html-keyboard-response,389,1236113,0.0-19.0-1.16,15835,List1A,white,woman,,,,null,,,,
null,are shouting at each other,,html-keyboard-response,390,1238101,0.0-19.0-2.16,15835,List1A,white,woman,,,,null,,,,
7642,,,survey-text,391,1245746,0.0-19.0-3.16,15835,List1A,white,woman,,,,,"{""Q0"":""kate and jane are shouting at each other""}","<img src=""stim_listA/shout8.gif""</stim_listA>",are shouting at each other,
null,"<div style=""font-size:60px;"">+</div>",,html-keyboard-response,392,1246249,0.0-19.0-0.17,15835,List1A,white,woman,,,,null,,,,
null,"<img src=""stim_listA/hug5.gif""</stim_listA>",,html-keyboard-response,393,1248265,0.0-19.0-1.17,15835,List1A,white,woman,,,,null,,,,
null,is hugging,,html-keyboard-response,394,1250254,0.0-19.0-2.17,15835,List1A,white,woman,,,,null,,,,
6085,,,survey-text,395,1256342,0.0-19.0-3.17,15835,List1A,white,woman,,,,,"{""Q0"":""fred is hugging luke""}","<img src=""stim_listA/hug5.gif""</stim_listA>",is hugging,
null,"<div style=""font-size:60px;"">+</div>",,html-keyboard-response,396,1256850,0.0-19.0-0.18,15835,List1A,white,woman,,,,null,,,,
null,"<img src=""stim_listA/shout1.gif""</stim_listA>",,html-keyboard-response,397,1258860,0.0-19.0-1.18,15835,List1A,white,woman,,,,null,,,,
null,is shouting at,,html-keyboard-response,398,1260850,0.0-19.0-2.18,15835,List1A,white,woman,,,,null,,,,
6769,,,survey-text,399,1267623,0.0-19.0-3.18,15835,List1A,white,woman,,,,,"{""Q0"":""fred is shouting at beth""}","<img src=""stim_listA/shout1.gif""</stim_listA>",is shouting at,
null,"<div style=""font-size:60px;"">+</div>",,html-keyboard-response,400,1268129,0.0-19.0-0.19,15835,List1A,white,woman,,,,null,,,,
null,"<img src=""stim_listA/touch5.gif""</stim_listA>",,html-keyboard-response,401,1270138,0.0-19.0-1.19,15835,List1A,white,woman,,,,null,,,,
null,is touching,,html-keyboard-response,402,1272134,0.0-19.0-2.19,15835,List1A,white,woman,,,,null,,,,
8064,,,survey-text,403,1280201,0.0-19.0-3.19,15835,List1A,white,woman,,,,,"{""Q0"":""mike is touching dave""}","<img src=""stim_listA/touch5.gif""</stim_listA>",is touching,
3138,<p>Thank you for completing that task.</p><p>The final part of this session is a short questionnaire.</p><p>Press Continue.</p>,0,html-button-response,404,1283342,0.0-20.0,15835,List1A,white,woman,,,,,,,,
29945,,,survey-text,405,1314301,0.0-21.0,15835,List1A,white,woman,,,,,"{""Q0"":""25"",""Q1"":""English"",""Q2"":""English"",""Q3"":""England"",""Q4"":""British White"",""Q5"":""Female""}",,,demographics
35096,,,survey-likert,406,1349405,0.0-22.0,15835,List1A,white,woman,,,,,"{""Q0"":3,""Q1"":3,""Q2"":3,""Q3"":3,""Q4"":3,""Q5"":3,""Q6"":3,""Q7"":3,""Q8"":2,""Q9"":3,""Q10"":3,""Q11"":3,""Q12"":3,""Q13"":3}",,,likert_race
41604,,,survey-likert,407,1391019,0.0-23.0,15835,List1A,white,woman,,,,,"{""Q0"":4,""Q1"":4,""Q2"":6,""Q3"":5,""Q4"":6,""Q5"":5,""Q6"":4,""Q7"":3,""Q8"":6,""Q9"":5,""Q10"":4,""Q11"":3,""Q12"":4,""Q13"":3}",,,likert_gender
3691,,,survey-text,408,1394717,0.0-24.0,15835,List1A,white,woman,,,,,"{""Q0"":""ccc""}",,,worker_id
16002,,,external-html,409,1410819,0.0-25.0,15835,List1A,white,woman,debrief.html,,,,,,,
