rt,stimulus,button_pressed,trial_type,trial_index,time_elapsed,internal_node_id,subject,list,ppt_race,ppt_gender,url,first_guess,correct,key_press,responses,image_type,phrase_type,test_part
5332,Welcome to the experiment. Press Continue to begin.,0,html-button-response,0,5336,0.0-0.0,15833,List1A,white,woman,,,,,,,,
15724,,,external-html,1,22351,0.0-1.0,15833,List1A,white,woman,consent.html,,,,,,,
18595,"<p>On the next page, you will see portraits of 8 people and their names.</p><p>Your first task is to take a few minutes to memorise the names of these people.</p><p>You will have to recall their names during the rest of the experiment, so it is</p><p>essential that you try to memorise these people and their names as best as you can.</p><br><p><strong>You will then be tested on your memory of these names and portraits.</strong></p><br><p>The experiment will start after you have completed this memory test.</p><br><p>Ready?</p>",0,html-button-response,2,40952,0.0-2.0,15833,List1A,white,woman,,,,,,,,
71582,"<img src='img/portrait_matrix_list1.JPG' style='width:900px;height:500px;''></img><p>If you have memorised all the portraits and names and are ready to start, press Continue.</p><p><strong>Please note: Your memory of these faces will be tested 4 times during this experiment.</strong></p>",0,html-button-response,3,113539,0.0-3.0-0.0,15833,List1A,white,woman,,,,,,,,
16912,"<img src=""portrait/WW1.jpg""style=""width:400px;height:400px;""></img>",1,html-button-response,4,131454,0.0-3.0-1.0,15833,List1A,white,woman,,TRUE,1,,,,,
null,CORRECT,,html-keyboard-response,5,132964,0.0-3.0-2.0-0.0,15833,List1A,white,woman,,,,null,,,,
8236,"<img src=""portrait/WM2.jpg""style=""width:400px;height:400px;""></img>",4,html-button-response,6,141204,0.0-3.0-4.0,15833,List1A,white,woman,,TRUE,7,,,,,
10460,"<img src=""portrait/WM2.jpg""style=""width:400px;height:400px;""></img>",7,html-button-response,7,152673,0.0-3.0-6.0-0.0,15833,List1A,white,woman,,FALSE,7,,,,,
null,CORRECT,,html-keyboard-response,8,154179,0.0-3.0-6.0-1.0-0.0,15833,List1A,white,woman,,,,null,,,,
4805,"<img src=""portrait/WW2.jpg""style=""width:400px;height:400px;""></img>",3,html-button-response,9,158988,0.0-3.0-7.0,15833,List1A,white,woman,,TRUE,3,,,,,
null,CORRECT,,html-keyboard-response,10,160493,0.0-3.0-8.0-0.0,15833,List1A,white,woman,,,,null,,,,
4459,"<img src=""portrait/BM1.jpg""style=""width:400px;height:400px;""></img>",4,html-button-response,11,164956,0.0-3.0-10.0,15833,List1A,white,woman,,TRUE,4,,,,,
null,CORRECT,,html-keyboard-response,12,166460,0.0-3.0-11.0-0.0,15833,List1A,white,woman,,,,null,,,,
4309,"<img src=""portrait/BW2.jpg""style=""width:400px;height:400px;""></img>",2,html-button-response,13,170773,0.0-3.0-13.0,15833,List1A,white,woman,,TRUE,2,,,,,
null,CORRECT,,html-keyboard-response,14,172278,0.0-3.0-14.0-0.0,15833,List1A,white,woman,,,,null,,,,
4124,"<img src=""portrait/BM2.jpg""style=""width:400px;height:400px;""></img>",5,html-button-response,15,176406,0.0-3.0-16.0,15833,List1A,white,woman,,TRUE,5,,,,,
null,CORRECT,,html-keyboard-response,16,177910,0.0-3.0-17.0-0.0,15833,List1A,white,woman,,,,null,,,,
3574,"<img src=""portrait/WM1.jpg""style=""width:400px;height:400px;""></img>",6,html-button-response,17,181490,0.0-3.0-19.0,15833,List1A,white,woman,,TRUE,6,,,,,
null,CORRECT,,html-keyboard-response,18,182994,0.0-3.0-20.0-0.0,15833,List1A,white,woman,,,,null,,,,
5009,"<img src=""portrait/BW1.jpg""style=""width:400px;height:400px;""></img>",0,html-button-response,19,188007,0.0-3.0-22.0,15833,List1A,white,woman,,TRUE,0,,,,,
null,CORRECT,,html-keyboard-response,20,189511,0.0-3.0-23.0-0.0,15833,List1A,white,woman,,,,null,,,,
2242,<p>You got 7 out of 8 right first time. Press Continue.</p>,0,html-button-response,21,191757,0.0-3.0-25.0,15833,List1A,white,woman,,,,,,,,
3313,"As you did not score 100%, the memory game will repeat. Press Continue.",0,html-button-response,22,196074,0.0-3.0-26.0-0.0,15833,List1A,white,woman,,,,,,,,
6795,"<img src='img/portrait_matrix_list1.JPG' style='width:900px;height:500px;''></img><p>If you have memorised all the portraits and names and are ready to start, press Continue.</p><p><strong>Please note: Your memory of these faces will be tested 4 times during this experiment.</strong></p>",0,html-button-response,23,203875,0.0-3.1-0.1,15833,List1A,white,woman,,,,,,,,
3041,"<img src=""portrait/WW1.jpg""style=""width:400px;height:400px;""></img>",1,html-button-response,24,207923,0.0-3.1-1.1,15833,List1A,white,woman,,TRUE,1,,,,,
null,CORRECT,,html-keyboard-response,25,209427,0.0-3.1-2.1-0.1,15833,List1A,white,woman,,,,null,,,,
2542,"<img src=""portrait/WM2.jpg""style=""width:400px;height:400px;""></img>",7,html-button-response,26,211975,0.0-3.1-4.1,15833,List1A,white,woman,,TRUE,7,,,,,
null,CORRECT,,html-keyboard-response,27,213480,0.0-3.1-5.1-0.1,15833,List1A,white,woman,,,,null,,,,
3639,"<img src=""portrait/WW2.jpg""style=""width:400px;height:400px;""></img>",3,html-button-response,28,217123,0.0-3.1-7.1,15833,List1A,white,woman,,TRUE,3,,,,,
null,CORRECT,,html-keyboard-response,29,218627,0.0-3.1-8.1-0.1,15833,List1A,white,woman,,,,null,,,,
3157,"<img src=""portrait/BM1.jpg""style=""width:400px;height:400px;""></img>",4,html-button-response,30,221789,0.0-3.1-10.1,15833,List1A,white,woman,,TRUE,4,,,,,
null,CORRECT,,html-keyboard-response,31,223293,0.0-3.1-11.1-0.1,15833,List1A,white,woman,,,,null,,,,
3363,"<img src=""portrait/BW2.jpg""style=""width:400px;height:400px;""></img>",2,html-button-response,32,226660,0.0-3.1-13.1,15833,List1A,white,woman,,TRUE,2,,,,,
null,CORRECT,,html-keyboard-response,33,228165,0.0-3.1-14.1-0.1,15833,List1A,white,woman,,,,null,,,,
3723,"<img src=""portrait/BM2.jpg""style=""width:400px;height:400px;""></img>",5,html-button-response,34,231892,0.0-3.1-16.1,15833,List1A,white,woman,,TRUE,5,,,,,
null,CORRECT,,html-keyboard-response,35,233396,0.0-3.1-17.1-0.1,15833,List1A,white,woman,,,,null,,,,
3072,"<img src=""portrait/WM1.jpg""style=""width:400px;height:400px;""></img>",6,html-button-response,36,236471,0.0-3.1-19.1,15833,List1A,white,woman,,TRUE,6,,,,,
null,CORRECT,,html-keyboard-response,37,237975,0.0-3.1-20.1-0.1,15833,List1A,white,woman,,,,null,,,,
3745,"<img src=""portrait/BW1.jpg""style=""width:400px;height:400px;""></img>",0,html-button-response,38,241724,0.0-3.1-22.1,15833,List1A,white,woman,,TRUE,0,,,,,
null,CORRECT,,html-keyboard-response,39,243229,0.0-3.1-23.1-0.1,15833,List1A,white,woman,,,,null,,,,
2558,<p>You got 8 out of 8 right first time. Press Continue.</p>,0,html-button-response,40,245791,0.0-3.1-25.1,15833,List1A,white,woman,,,,,,,,
35881,"<p>In this experiment, you will view photographs of the people from the memory game interacting.</p><p>By using the <strong>exact</strong> phrase given <i>after</i> the photograph appears and recalling the correct names of the people in the photographs, form a sentence describing the interaction. You do not need to capitalise names.</p><p>Type your answer in the space provided. Please complete every sentence before moving onto the next trial.</p><p>You will only have a few seconds to memorise each given photograph and phrase before you can respond, so try your best to focus.</p><p>An example is given below. Press 'Continue' when you are ready.</p><img src='img/speaking_example_v2.jpg' style='width:800px;height:460px;''></img>",0,html-button-response,41,282678,0.0-4.0,15833,List1A,white,woman,,,,,,,,
3528,"<p>Before the experiment starts, you will watch two example trials. Press 'Continue'.</p>",0,html-button-response,42,287210,0.0-5.0,15833,List1A,white,woman,,,,,,,,
null,<img src='img/speaking_WW.gif'></img>,,html-keyboard-response,43,290215,0.0-6.0,15833,List1A,white,woman,,,,null,,,,
null,<p>is speaking to</p>,,html-keyboard-response,44,292219,0.0-7.0,15833,List1A,white,woman,,,,null,,,,
8873,<p><b>Answer:</b> kate is speaking to beth</p>,0,html-button-response,45,301094,0.0-8.0,15833,List1A,white,woman,,,,,,,,
null,<img src='img/pointing_BM.gif'></img>,,html-keyboard-response,46,304099,0.0-9.0,15833,List1A,white,woman,,,,null,,,,
null,<p>are pointing at each other</p>,,html-keyboard-response,47,306101,0.0-10.0,15833,List1A,white,woman,,,,null,,,,
2973,<p><b>Answer:</b> luke and dave are pointing at each other</p>,0,html-button-response,48,309077,0.0-11.0,15833,List1A,white,woman,,,,,,,,
7197,"<p>Ready to start the experiment?</p><br><p><strong>Remember to describe the picture using a full sentence,</strong></p><p><strong> that combines the names of the people with the given phrase.</strong></p><p><strong> You do not need to capitalise names or use punctuation.</strong></p><br><p>Press 'Continue' to begin.</p>",0,html-button-response,49,317278,0.0-12.0,15833,List1A,white,woman,,,,,,,,
null,"<div style=""font-size:60px;"">+</div>",,html-keyboard-response,50,318782,0.0-13.0-0.0,15833,List1A,white,woman,,,,null,,,,
null,"<img src=""stim_listA/fight3.gif""</stim_listA>",,html-keyboard-response,51,320788,0.0-13.0-1.0,15833,List1A,white,woman,,,,null,,,,
null,is fighting,,html-keyboard-response,52,322792,0.0-13.0-2.0,15833,List1A,white,woman,,,,null,,,,
17490,,,survey-text,53,340287,0.0-13.0-3.0,15833,List1A,white,woman,,,,,"{""Q0"":""Dave is fighting jane""}","<img src=""stim_listA/fight3.gif""</stim_listA>",is fighting,
null,"<div style=""font-size:60px;"">+</div>",,html-keyboard-response,54,340791,0.0-13.0-0.1,15833,List1A,white,woman,,,,null,,,,
null,"<img src=""stim_listA/talk6.gif""</stim_listA>",,html-keyboard-response,55,342796,0.0-13.0-1.1,15833,List1A,white,woman,,,,null,,,,
null,are talking to each other,,html-keyboard-response,56,344799,0.0-13.0-2.1,15833,List1A,white,woman,,,,null,,,,
24964,,,survey-text,57,369767,0.0-13.0-3.1,15833,List1A,white,woman,,,,,"{""Q0"":""Luke is talking to mike""}","<img src=""stim_listA/talk6.gif""</stim_listA>",are talking to each other,
null,"<div style=""font-size:60px;"">+</div>",,html-keyboard-response,58,370271,0.0-13.0-0.2,15833,List1A,white,woman,,,,null,,,,
null,"<img src=""stim_listA/marry3.gif""</stim_listA>",,html-keyboard-response,59,372277,0.0-13.0-1.2,15833,List1A,white,woman,,,,null,,,,
null,is marrying,,html-keyboard-response,60,374285,0.0-13.0-2.2,15833,List1A,white,woman,,,,null,,,,
13916,,,survey-text,61,388205,0.0-13.0-3.2,15833,List1A,white,woman,,,,,"{""Q0"":""Dave is marrying ruth""}","<img src=""stim_listA/marry3.gif""</stim_listA>",is marrying,
null,"<div style=""font-size:60px;"">+</div>",,html-keyboard-response,62,388709,0.0-13.0-0.3,15833,List1A,white,woman,,,,null,,,,
null,"<img src=""stim_listA/meet7.gif""</stim_listA>",,html-keyboard-response,63,390712,0.0-13.0-1.3,15833,List1A,white,woman,,,,null,,,,
null,is meeting,,html-keyboard-response,64,392716,0.0-13.0-2.3,15833,List1A,white,woman,,,,null,,,,
10068,,,survey-text,65,402786,0.0-13.0-3.3,15833,List1A,white,woman,,,,,"{""Q0"":""Kate is meeting beth""}","<img src=""stim_listA/meet7.gif""</stim_listA>",is meeting,
null,"<div style=""font-size:60px;"">+</div>",,html-keyboard-response,66,403289,0.0-13.0-0.4,15833,List1A,white,woman,,,,null,,,,
null,"<img src=""stim_listA/hug4.gif""</stim_listA>",,html-keyboard-response,67,405294,0.0-13.0-1.4,15833,List1A,white,woman,,,,null,,,,
null,are hugging each other,,html-keyboard-response,68,407298,0.0-13.0-2.4,15833,List1A,white,woman,,,,null,,,,
20586,,,survey-text,69,427887,0.0-13.0-3.4,15833,List1A,white,woman,,,,,"{""Q0"":""Ruth and Dave are hugging each other""}","<img src=""stim_listA/hug4.gif""</stim_listA>",are hugging each other,
null,"<div style=""font-size:60px;"">+</div>",,html-keyboard-response,70,428391,0.0-13.0-0.5,15833,List1A,white,woman,,,,null,,,,
null,"<img src=""stim_listA/dance2.gif""</stim_listA>",,html-keyboard-response,71,430395,0.0-13.0-1.5,15833,List1A,white,woman,,,,null,,,,
null,are dancing with each other,,html-keyboard-response,72,432399,0.0-13.0-2.5,15833,List1A,white,woman,,,,null,,,,
25589,,,survey-text,73,457992,0.0-13.0-3.5,15833,List1A,white,woman,,,,,"{""Q0"":""Mike and Kate are dancing with each other""}","<img src=""stim_listA/dance2.gif""</stim_listA>",are dancing with each other,
null,"<div style=""font-size:60px;"">+</div>",,html-keyboard-response,74,458495,0.0-13.0-0.6,15833,List1A,white,woman,,,,null,,,,
null,"<img src=""stim_listA/talk1.gif""</stim_listA>",,html-keyboard-response,75,460499,0.0-13.0-1.6,15833,List1A,white,woman,,,,null,,,,
null,is talking to,,html-keyboard-response,76,462503,0.0-13.0-2.6,15833,List1A,white,woman,,,,null,,,,
12436,,,survey-text,77,474942,0.0-13.0-3.6,15833,List1A,white,woman,,,,,"{""Q0"":""Kate is talking to fred""}","<img src=""stim_listA/talk1.gif""</stim_listA>",is talking to,
null,"<div style=""font-size:60px;"">+</div>",,html-keyboard-response,78,475445,0.0-13.0-0.7,15833,List1A,white,woman,,,,null,,,,
null,"<img src=""stim_listA/dance4.gif""</stim_listA>",,html-keyboard-response,79,477449,0.0-13.0-1.7,15833,List1A,white,woman,,,,null,,,,
null,are dancing with each other,,html-keyboard-response,80,479453,0.0-13.0-2.7,15833,List1A,white,woman,,,,null,,,,
21066,,,survey-text,81,500523,0.0-13.0-3.7,15833,List1A,white,woman,,,,,"{""Q0"":""Ruth and Dave are dancing with each other""}","<img src=""stim_listA/dance4.gif""</stim_listA>",are dancing with each other,
null,"<div style=""font-size:60px;"">+</div>",,html-keyboard-response,82,501028,0.0-13.0-0.8,15833,List1A,white,woman,,,,null,,,,
null,"<img src=""stim_listA/fight4.gif""</stim_listA>",,html-keyboard-response,83,503032,0.0-13.0-1.8,15833,List1A,white,woman,,,,null,,,,
null,are fighting each other,,html-keyboard-response,84,505036,0.0-13.0-2.8,15833,List1A,white,woman,,,,null,,,,
12386,,,survey-text,85,517426,0.0-13.0-3.8,15833,List1A,white,woman,,,,,"{""Q0"":""Ruth is fighting with luke""}","<img src=""stim_listA/fight4.gif""</stim_listA>",are fighting each other,
null,"<div style=""font-size:60px;"">+</div>",,html-keyboard-response,86,517929,0.0-13.0-0.9,15833,List1A,white,woman,,,,null,,,,
null,"<img src=""stim_listA/marry7.gif""</stim_listA>",,html-keyboard-response,87,519934,0.0-13.0-1.9,15833,List1A,white,woman,,,,null,,,,
null,is marrying,,html-keyboard-response,88,521938,0.0-13.0-2.9,15833,List1A,white,woman,,,,null,,,,
7087,,,survey-text,89,529028,0.0-13.0-3.9,15833,List1A,white,woman,,,,,"{""Q0"":""Kate is marrying ruth""}","<img src=""stim_listA/marry7.gif""</stim_listA>",is marrying,
null,"<div style=""font-size:60px;"">+</div>",,html-keyboard-response,90,529531,0.0-13.0-0.10,15833,List1A,white,woman,,,,null,,,,
null,"<img src=""stim_listA/touch4.gif""</stim_listA>",,html-keyboard-response,91,531535,0.0-13.0-1.10,15833,List1A,white,woman,,,,null,,,,
null,are touching each other,,html-keyboard-response,92,533539,0.0-13.0-2.10,15833,List1A,white,woman,,,,null,,,,
6433,,,survey-text,93,539975,0.0-13.0-3.10,15833,List1A,white,woman,,,,,"{""Q0"":""""}","<img src=""stim_listA/touch4.gif""</stim_listA>",are touching each other,
null,"<div style=""font-size:60px;"">+</div>",,html-keyboard-response,94,540478,0.0-13.0-0.11,15833,List1A,white,woman,,,,null,,,,
null,"<img src=""stim_listA/argue2.gif""</stim_listA>",,html-keyboard-response,95,542488,0.0-13.0-1.11,15833,List1A,white,woman,,,,null,,,,
null,are arguing with each other,,html-keyboard-response,96,544493,0.0-13.0-2.11,15833,List1A,white,woman,,,,null,,,,
9198,,,survey-text,97,553694,0.0-13.0-3.11,15833,List1A,white,woman,,,,,"{""Q0"":""Kate is arguing with fred""}","<img src=""stim_listA/argue2.gif""</stim_listA>",are arguing with each other,
null,"<div style=""font-size:60px;"">+</div>",,html-keyboard-response,98,554198,0.0-13.0-0.12,15833,List1A,white,woman,,,,null,,,,
null,"<img src=""stim_listA/shout2.gif""</stim_listA>",,html-keyboard-response,99,556202,0.0-13.0-1.12,15833,List1A,white,woman,,,,null,,,,
null,are shouting at each other,,html-keyboard-response,100,558206,0.0-13.0-2.12,15833,List1A,white,woman,,,,null,,,,
899,,,survey-text,101,559108,0.0-13.0-3.12,15833,List1A,white,woman,,,,,"{""Q0"":""""}","<img src=""stim_listA/shout2.gif""</stim_listA>",are shouting at each other,
null,"<div style=""font-size:60px;"">+</div>",,html-keyboard-response,102,559611,0.0-13.0-0.13,15833,List1A,white,woman,,,,null,,,,
null,"<img src=""stim_listA/touch7.gif""</stim_listA>",,html-keyboard-response,103,561615,0.0-13.0-1.13,15833,List1A,white,woman,,,,null,,,,
null,is touching,,html-keyboard-response,104,563618,0.0-13.0-2.13,15833,List1A,white,woman,,,,null,,,,
9301,,,survey-text,105,572929,0.0-13.0-3.13,15833,List1A,white,woman,,,,,"{""Q0"":""Kate is touching jane""}","<img src=""stim_listA/touch7.gif""</stim_listA>",is touching,
null,"<div style=""font-size:60px;"">+</div>",,html-keyboard-response,106,573433,0.0-13.0-0.14,15833,List1A,white,woman,,,,null,,,,
null,"<img src=""stim_listA/talk5.gif""</stim_listA>",,html-keyboard-response,107,575438,0.0-13.0-1.14,15833,List1A,white,woman,,,,null,,,,
null,is talking to,,html-keyboard-response,108,577442,0.0-13.0-2.14,15833,List1A,white,woman,,,,null,,,,
9018,,,survey-text,109,586463,0.0-13.0-3.14,15833,List1A,white,woman,,,,,"{""Q0"":""Fred is talking to dave""}","<img src=""stim_listA/talk5.gif""</stim_listA>",is talking to,
null,"<div style=""font-size:60px;"">+</div>",,html-keyboard-response,110,586966,0.0-13.0-0.15,15833,List1A,white,woman,,,,null,,,,
null,"<img src=""stim_listA/marry8.gif""</stim_listA>",,html-keyboard-response,111,588971,0.0-13.0-1.15,15833,List1A,white,woman,,,,null,,,,
null,are marrying each other,,html-keyboard-response,112,590974,0.0-13.0-2.15,15833,List1A,white,woman,,,,null,,,,
8115,,,survey-text,113,599098,0.0-13.0-3.15,15833,List1A,white,woman,,,,,"{""Q0"":""Jane is marrying beth""}","<img src=""stim_listA/marry8.gif""</stim_listA>",are marrying each other,
null,"<div style=""font-size:60px;"">+</div>",,html-keyboard-response,114,599602,0.0-13.0-0.16,15833,List1A,white,woman,,,,null,,,,
null,"<img src=""stim_listA/kiss2.gif""</stim_listA>",,html-keyboard-response,115,601606,0.0-13.0-1.16,15833,List1A,white,woman,,,,null,,,,
null,are kissing each other,,html-keyboard-response,116,603610,0.0-13.0-2.16,15833,List1A,white,woman,,,,null,,,,
9019,,,survey-text,117,612632,0.0-13.0-3.16,15833,List1A,white,woman,,,,,"{""Q0"":""Kate is kissing mike""}","<img src=""stim_listA/kiss2.gif""</stim_listA>",are kissing each other,
null,"<div style=""font-size:60px;"">+</div>",,html-keyboard-response,118,613135,0.0-13.0-0.17,15833,List1A,white,woman,,,,null,,,,
null,"<img src=""stim_listA/kiss1.gif""</stim_listA>",,html-keyboard-response,119,615139,0.0-13.0-1.17,15833,List1A,white,woman,,,,null,,,,
null,is kissing,,html-keyboard-response,120,617143,0.0-13.0-2.17,15833,List1A,white,woman,,,,null,,,,
9136,,,survey-text,121,626282,0.0-13.0-3.17,15833,List1A,white,woman,,,,,"{""Q0"":""Fred is kissing jane""}","<img src=""stim_listA/kiss1.gif""</stim_listA>",is kissing,
null,"<div style=""font-size:60px;"">+</div>",,html-keyboard-response,122,626786,0.0-13.0-0.18,15833,List1A,white,woman,,,,null,,,,
null,"<img src=""stim_listA/hug3.gif""</stim_listA>",,html-keyboard-response,123,628790,0.0-13.0-1.18,15833,List1A,white,woman,,,,null,,,,
null,is hugging,,html-keyboard-response,124,630793,0.0-13.0-2.18,15833,List1A,white,woman,,,,null,,,,
15685,,,survey-text,125,646482,0.0-13.0-3.18,15833,List1A,white,woman,,,,,"{""Q0"":""Jane is hugging luke""}","<img src=""stim_listA/hug3.gif""</stim_listA>",is hugging,
null,"<div style=""font-size:60px;"">+</div>",,html-keyboard-response,126,646985,0.0-13.0-0.19,15833,List1A,white,woman,,,,null,,,,
null,"<img src=""stim_listA/fight1.gif""</stim_listA>",,html-keyboard-response,127,648990,0.0-13.0-1.19,15833,List1A,white,woman,,,,null,,,,
null,is fighting,,html-keyboard-response,128,650994,0.0-13.0-2.19,15833,List1A,white,woman,,,,null,,,,
6503,,,survey-text,129,657501,0.0-13.0-3.19,15833,List1A,white,woman,,,,,"{""Q0"":""Kate is fighting mike""}","<img src=""stim_listA/fight1.gif""</stim_listA>",is fighting,
23975,"<img src='img/portrait_matrix_list1.JPG' style='width:900px;height:500px;''></img><p>If you have memorised all the portraits and names and are ready to start, press Continue.</p><p><strong>Please note: Your memory of these faces will be tested 4 times during this experiment.</strong></p>",0,html-button-response,130,681480,0.0-14.0-0.0,15833,List1A,white,woman,,,,,,,,
2859,"<img src=""portrait/WM2.jpg""style=""width:400px;height:400px;""></img>",7,html-button-response,131,685347,0.0-14.0-1.0,15833,List1A,white,woman,,TRUE,7,,,,,
null,CORRECT,,html-keyboard-response,132,686851,0.0-14.0-2.0-0.0,15833,List1A,white,woman,,,,null,,,,
3855,"<img src=""portrait/BM1.jpg""style=""width:400px;height:400px;""></img>",4,html-button-response,133,690712,0.0-14.0-4.0,15833,List1A,white,woman,,TRUE,4,,,,,
null,CORRECT,,html-keyboard-response,134,692216,0.0-14.0-5.0-0.0,15833,List1A,white,woman,,,,null,,,,
5491,"<img src=""portrait/WW1.jpg""style=""width:400px;height:400px;""></img>",1,html-button-response,135,697714,0.0-14.0-7.0,15833,List1A,white,woman,,TRUE,1,,,,,
null,CORRECT,,html-keyboard-response,136,699230,0.0-14.0-8.0-0.0,15833,List1A,white,woman,,,,null,,,,
3443,"<img src=""portrait/BW1.jpg""style=""width:400px;height:400px;""></img>",0,html-button-response,137,702681,0.0-14.0-10.0,15833,List1A,white,woman,,TRUE,0,,,,,
null,CORRECT,,html-keyboard-response,138,704185,0.0-14.0-11.0-0.0,15833,List1A,white,woman,,,,null,,,,
17224,"<img src=""portrait/WM1.jpg""style=""width:400px;height:400px;""></img>",6,html-button-response,139,721416,0.0-14.0-13.0,15833,List1A,white,woman,,TRUE,6,,,,,
null,CORRECT,,html-keyboard-response,140,722920,0.0-14.0-14.0-0.0,15833,List1A,white,woman,,,,null,,,,
4371,"<img src=""portrait/BW2.jpg""style=""width:400px;height:400px;""></img>",2,html-button-response,141,727297,0.0-14.0-16.0,15833,List1A,white,woman,,TRUE,2,,,,,
null,CORRECT,,html-keyboard-response,142,728801,0.0-14.0-17.0-0.0,15833,List1A,white,woman,,,,null,,,,
3042,"<img src=""portrait/BM2.jpg""style=""width:400px;height:400px;""></img>",5,html-button-response,143,731849,0.0-14.0-19.0,15833,List1A,white,woman,,TRUE,5,,,,,
null,CORRECT,,html-keyboard-response,144,733353,0.0-14.0-20.0-0.0,15833,List1A,white,woman,,,,null,,,,
2659,"<img src=""portrait/WW2.jpg""style=""width:400px;height:400px;""></img>",3,html-button-response,145,736018,0.0-14.0-22.0,15833,List1A,white,woman,,TRUE,3,,,,,
null,CORRECT,,html-keyboard-response,146,737522,0.0-14.0-23.0-0.0,15833,List1A,white,woman,,,,null,,,,
1281,<p>You got 8 out of 8 right first time. Press Continue.</p>,0,html-button-response,147,738814,0.0-14.0-25.0,15833,List1A,white,woman,,,,,,,,
null,"<div style=""font-size:60px;"">+</div>",,html-keyboard-response,148,740321,0.0-15.0-0.0,15833,List1A,white,woman,,,,null,,,,
null,"<img src=""stim_listA/fight5.gif""</stim_listA>",,html-keyboard-response,149,742326,0.0-15.0-1.0,15833,List1A,white,woman,,,,null,,,,
null,is fighting,,html-keyboard-response,150,744329,0.0-15.0-2.0,15833,List1A,white,woman,,,,null,,,,
10771,,,survey-text,151,755104,0.0-15.0-3.0,15833,List1A,white,woman,,,,,"{""Q0"":""Mike is fighting dave""}","<img src=""stim_listA/fight5.gif""</stim_listA>",is fighting,
null,"<div style=""font-size:60px;"">+</div>",,html-keyboard-response,152,755608,0.0-15.0-0.1,15833,List1A,white,woman,,,,null,,,,
null,"<img src=""stim_listA/hug1.gif""</stim_listA>",,html-keyboard-response,153,757611,0.0-15.0-1.1,15833,List1A,white,woman,,,,null,,,,
null,is hugging,,html-keyboard-response,154,759615,0.0-15.0-2.1,15833,List1A,white,woman,,,,null,,,,
8967,,,survey-text,155,768586,0.0-15.0-3.1,15833,List1A,white,woman,,,,,"{""Q0"":""Fred is hugging beth""}","<img src=""stim_listA/hug1.gif""</stim_listA>",is hugging,
null,"<div style=""font-size:60px;"">+</div>",,html-keyboard-response,156,769089,0.0-15.0-0.2,15833,List1A,white,woman,,,,null,,,,
null,"<img src=""stim_listA/touch6.gif""</stim_listA>",,html-keyboard-response,157,771093,0.0-15.0-1.2,15833,List1A,white,woman,,,,null,,,,
null,are touching each other,,html-keyboard-response,158,773096,0.0-15.0-2.2,15833,List1A,white,woman,,,,null,,,,
22088,,,survey-text,159,795187,0.0-15.0-3.2,15833,List1A,white,woman,,,,,"{""Q0"":""Luke and Fred are touching each other""}","<img src=""stim_listA/touch6.gif""</stim_listA>",are touching each other,
null,"<div style=""font-size:60px;"">+</div>",,html-keyboard-response,160,795691,0.0-15.0-0.3,15833,List1A,white,woman,,,,null,,,,
null,"<img src=""stim_listA/talk3.gif""</stim_listA>",,html-keyboard-response,161,797696,0.0-15.0-1.3,15833,List1A,white,woman,,,,null,,,,
null,is talking to,,html-keyboard-response,162,799700,0.0-15.0-2.3,15833,List1A,white,woman,,,,null,,,,
12038,,,survey-text,163,811741,0.0-15.0-3.3,15833,List1A,white,woman,,,,,"{""Q0"":""Luke is talking to jane ""}","<img src=""stim_listA/talk3.gif""</stim_listA>",is talking to,
null,"<div style=""font-size:60px;"">+</div>",,html-keyboard-response,164,812246,0.0-15.0-0.4,15833,List1A,white,woman,,,,null,,,,
null,"<img src=""stim_listA/hug5.gif""</stim_listA>",,html-keyboard-response,165,814250,0.0-15.0-1.4,15833,List1A,white,woman,,,,null,,,,
null,is hugging,,html-keyboard-response,166,816254,0.0-15.0-2.4,15833,List1A,white,woman,,,,null,,,,
15919,,,survey-text,167,832176,0.0-15.0-3.4,15833,List1A,white,woman,,,,,"{""Q0"":""Fred is hugging luke ""}","<img src=""stim_listA/hug5.gif""</stim_listA>",is hugging,
null,"<div style=""font-size:60px;"">+</div>",,html-keyboard-response,168,832679,0.0-15.0-0.5,15833,List1A,white,woman,,,,null,,,,
null,"<img src=""stim_listA/dance8.gif""</stim_listA>",,html-keyboard-response,169,834684,0.0-15.0-1.5,15833,List1A,white,woman,,,,null,,,,
null,are dancing with each other,,html-keyboard-response,170,836688,0.0-15.0-2.5,15833,List1A,white,woman,,,,null,,,,
15428,,,survey-text,171,852125,0.0-15.0-3.5,15833,List1A,white,woman,,,,,"{""Q0"":""Ruth and Kate are dancing with each other""}","<img src=""stim_listA/dance8.gif""</stim_listA>",are dancing with each other,
null,"<div style=""font-size:60px;"">+</div>",,html-keyboard-response,172,852629,0.0-15.0-0.6,15833,List1A,white,woman,,,,null,,,,
null,"<img src=""stim_listA/meet8.gif""</stim_listA>",,html-keyboard-response,173,854634,0.0-15.0-1.6,15833,List1A,white,woman,,,,null,,,,
null,are meeting each other,,html-keyboard-response,174,856638,0.0-15.0-2.6,15833,List1A,white,woman,,,,null,,,,
14450,,,survey-text,175,871091,0.0-15.0-3.6,15833,List1A,white,woman,,,,,"{""Q0"":""Ruth and beth are meeting each other""}","<img src=""stim_listA/meet8.gif""</stim_listA>",are meeting each other,
null,"<div style=""font-size:60px;"">+</div>",,html-keyboard-response,176,871595,0.0-15.0-0.7,15833,List1A,white,woman,,,,null,,,,
null,"<img src=""stim_listA/shout4.gif""</stim_listA>",,html-keyboard-response,177,873600,0.0-15.0-1.7,15833,List1A,white,woman,,,,null,,,,
null,are shouting at each other,,html-keyboard-response,178,875604,0.0-15.0-2.7,15833,List1A,white,woman,,,,null,,,,
14286,,,survey-text,179,889894,0.0-15.0-3.7,15833,List1A,white,woman,,,,,"{""Q0"":""Jane and Dave are shouting at each other""}","<img src=""stim_listA/shout4.gif""</stim_listA>",are shouting at each other,
null,"<div style=""font-size:60px;"">+</div>",,html-keyboard-response,180,890398,0.0-15.0-0.8,15833,List1A,white,woman,,,,null,,,,
null,"<img src=""stim_listA/dance1.gif""</stim_listA>",,html-keyboard-response,181,892403,0.0-15.0-1.8,15833,List1A,white,woman,,,,null,,,,
null,is dancing with,,html-keyboard-response,182,894407,0.0-15.0-2.8,15833,List1A,white,woman,,,,null,,,,
11937,,,survey-text,183,906346,0.0-15.0-3.8,15833,List1A,white,woman,,,,,"{""Q0"":""Fred is dancing with Kate ""}","<img src=""stim_listA/dance1.gif""</stim_listA>",is dancing with,
null,"<div style=""font-size:60px;"">+</div>",,html-keyboard-response,184,906850,0.0-15.0-0.9,15833,List1A,white,woman,,,,null,,,,
null,"<img src=""stim_listA/kiss4.gif""</stim_listA>",,html-keyboard-response,185,908854,0.0-15.0-1.9,15833,List1A,white,woman,,,,null,,,,
null,are kissing each other,,html-keyboard-response,186,910857,0.0-15.0-2.9,15833,List1A,white,woman,,,,null,,,,
1104,,,survey-text,187,911964,0.0-15.0-3.9,15833,List1A,white,woman,,,,,"{""Q0"":""""}","<img src=""stim_listA/kiss4.gif""</stim_listA>",are kissing each other,
null,"<div style=""font-size:60px;"">+</div>",,html-keyboard-response,188,912469,0.0-15.0-0.10,15833,List1A,white,woman,,,,null,,,,
null,"<img src=""stim_listA/argue8.gif""</stim_listA>",,html-keyboard-response,189,914472,0.0-15.0-1.10,15833,List1A,white,woman,,,,null,,,,
null,are arguing with each other,,html-keyboard-response,190,916476,0.0-15.0-2.10,15833,List1A,white,woman,,,,null,,,,
12710,,,survey-text,191,929196,0.0-15.0-3.10,15833,List1A,white,woman,,,,,"{""Q0"":""Jane is arguing with beth""}","<img src=""stim_listA/argue8.gif""</stim_listA>",are arguing with each other,
null,"<div style=""font-size:60px;"">+</div>",,html-keyboard-response,192,929699,0.0-15.0-0.11,15833,List1A,white,woman,,,,null,,,,
null,"<img src=""stim_listA/touch3.gif""</stim_listA>",,html-keyboard-response,193,931707,0.0-15.0-1.11,15833,List1A,white,woman,,,,null,,,,
null,is touching,,html-keyboard-response,194,933711,0.0-15.0-2.11,15833,List1A,white,woman,,,,null,,,,
9313,,,survey-text,195,943027,0.0-15.0-3.11,15833,List1A,white,woman,,,,,"{""Q0"":""Dave is touching jane""}","<img src=""stim_listA/touch3.gif""</stim_listA>",is touching,
null,"<div style=""font-size:60px;"">+</div>",,html-keyboard-response,196,943530,0.0-15.0-0.12,15833,List1A,white,woman,,,,null,,,,
null,"<img src=""stim_listA/argue4.gif""</stim_listA>",,html-keyboard-response,197,945535,0.0-15.0-1.12,15833,List1A,white,woman,,,,null,,,,
null,are arguing with each other,,html-keyboard-response,198,947539,0.0-15.0-2.12,15833,List1A,white,woman,,,,null,,,,
15531,,,survey-text,199,963080,0.0-15.0-3.12,15833,List1A,white,woman,,,,,"{""Q0"":""Jane and Luke are arguing with each other ""}","<img src=""stim_listA/argue4.gif""</stim_listA>",are arguing with each other,
null,"<div style=""font-size:60px;"">+</div>",,html-keyboard-response,200,963584,0.0-15.0-0.13,15833,List1A,white,woman,,,,null,,,,
null,"<img src=""stim_listA/marry4.gif""</stim_listA>",,html-keyboard-response,201,965588,0.0-15.0-1.13,15833,List1A,white,woman,,,,null,,,,
null,are marrying each other,,html-keyboard-response,202,967591,0.0-15.0-2.13,15833,List1A,white,woman,,,,null,,,,
13086,,,survey-text,203,980680,0.0-15.0-3.13,15833,List1A,white,woman,,,,,"{""Q0"":""Luke and Jane are marring each other ""}","<img src=""stim_listA/marry4.gif""</stim_listA>",are marrying each other,
null,"<div style=""font-size:60px;"">+</div>",,html-keyboard-response,204,981184,0.0-15.0-0.14,15833,List1A,white,woman,,,,null,,,,
null,"<img src=""stim_listA/meet5.gif""</stim_listA>",,html-keyboard-response,205,983189,0.0-15.0-1.14,15833,List1A,white,woman,,,,null,,,,
null,is meeting,,html-keyboard-response,206,985192,0.0-15.0-2.14,15833,List1A,white,woman,,,,null,,,,
12734,,,survey-text,207,997930,0.0-15.0-3.14,15833,List1A,white,woman,,,,,"{""Q0"":""Mike is meeting dave""}","<img src=""stim_listA/meet5.gif""</stim_listA>",is meeting,
null,"<div style=""font-size:60px;"">+</div>",,html-keyboard-response,208,998439,0.0-15.0-0.15,15833,List1A,white,woman,,,,null,,,,
null,"<img src=""stim_listA/fight2.gif""</stim_listA>",,html-keyboard-response,209,1000444,0.0-15.0-1.15,15833,List1A,white,woman,,,,null,,,,
null,are fighting each other,,html-keyboard-response,210,1002447,0.0-15.0-2.15,15833,List1A,white,woman,,,,null,,,,
15414,,,survey-text,211,1017865,0.0-15.0-3.15,15833,List1A,white,woman,,,,,"{""Q0"":""Beth and Fred are fighting each other""}","<img src=""stim_listA/fight2.gif""</stim_listA>",are fighting each other,
null,"<div style=""font-size:60px;"">+</div>",,html-keyboard-response,212,1018368,0.0-15.0-0.16,15833,List1A,white,woman,,,,null,,,,
null,"<img src=""stim_listA/marry5.gif""</stim_listA>",,html-keyboard-response,213,1020372,0.0-15.0-1.16,15833,List1A,white,woman,,,,null,,,,
null,is marrying,,html-keyboard-response,214,1022376,0.0-15.0-2.16,15833,List1A,white,woman,,,,null,,,,
7738,,,survey-text,215,1030118,0.0-15.0-3.16,15833,List1A,white,woman,,,,,"{""Q0"":""Luke is marrying mike""}","<img src=""stim_listA/marry5.gif""</stim_listA>",is marrying,
null,"<div style=""font-size:60px;"">+</div>",,html-keyboard-response,216,1030622,0.0-15.0-0.17,15833,List1A,white,woman,,,,null,,,,
null,"<img src=""stim_listA/shout6.gif""</stim_listA>",,html-keyboard-response,217,1032627,0.0-15.0-1.17,15833,List1A,white,woman,,,,null,,,,
null,are shouting at each other,,html-keyboard-response,218,1034630,0.0-15.0-2.17,15833,List1A,white,woman,,,,null,,,,
1182,,,survey-text,219,1035816,0.0-15.0-3.17,15833,List1A,white,woman,,,,,"{""Q0"":""""}","<img src=""stim_listA/shout6.gif""</stim_listA>",are shouting at each other,
null,"<div style=""font-size:60px;"">+</div>",,html-keyboard-response,220,1036319,0.0-15.0-0.18,15833,List1A,white,woman,,,,null,,,,
null,"<img src=""stim_listA/kiss8.gif""</stim_listA>",,html-keyboard-response,221,1038324,0.0-15.0-1.18,15833,List1A,white,woman,,,,null,,,,
null,are kissing each other,,html-keyboard-response,222,1040327,0.0-15.0-2.18,15833,List1A,white,woman,,,,null,,,,
13104,,,survey-text,223,1053435,0.0-15.0-3.18,15833,List1A,white,woman,,,,,"{""Q0"":""Jane and Kate are kissing each other ""}","<img src=""stim_listA/kiss8.gif""</stim_listA>",are kissing each other,
null,"<div style=""font-size:60px;"">+</div>",,html-keyboard-response,224,1053940,0.0-15.0-0.19,15833,List1A,white,woman,,,,null,,,,
null,"<img src=""stim_listA/marry2.gif""</stim_listA>",,html-keyboard-response,225,1055945,0.0-15.0-1.19,15833,List1A,white,woman,,,,null,,,,
null,are marrying each other,,html-keyboard-response,226,1057948,0.0-15.0-2.19,15833,List1A,white,woman,,,,null,,,,
11833,,,survey-text,227,1069785,0.0-15.0-3.19,15833,List1A,white,woman,,,,,"{""Q0"":""Fred and Kate are marrying each otherr""}","<img src=""stim_listA/marry2.gif""</stim_listA>",are marrying each other,
19052,"<img src='img/portrait_matrix_list1.JPG' style='width:900px;height:500px;''></img><p>If you have memorised all the portraits and names and are ready to start, press Continue.</p><p><strong>Please note: Your memory of these faces will be tested 4 times during this experiment.</strong></p>",0,html-button-response,228,1088847,0.0-16.0-0.0,15833,List1A,white,woman,,,,,,,,
3846,"<img src=""portrait/WM1.jpg""style=""width:400px;height:400px;""></img>",6,html-button-response,229,1093701,0.0-16.0-1.0,15833,List1A,white,woman,,TRUE,6,,,,,
null,CORRECT,,html-keyboard-response,230,1095206,0.0-16.0-2.0-0.0,15833,List1A,white,woman,,,,null,,,,
1969,"<img src=""portrait/BM2.jpg""style=""width:400px;height:400px;""></img>",5,html-button-response,231,1097182,0.0-16.0-4.0,15833,List1A,white,woman,,TRUE,5,,,,,
null,CORRECT,,html-keyboard-response,232,1098686,0.0-16.0-5.0-0.0,15833,List1A,white,woman,,,,null,,,,
1723,"<img src=""portrait/WW1.jpg""style=""width:400px;height:400px;""></img>",1,html-button-response,233,1100415,0.0-16.0-7.0,15833,List1A,white,woman,,TRUE,1,,,,,
null,CORRECT,,html-keyboard-response,234,1101919,0.0-16.0-8.0-0.0,15833,List1A,white,woman,,,,null,,,,
4475,"<img src=""portrait/WM2.jpg""style=""width:400px;height:400px;""></img>",7,html-button-response,235,1106401,0.0-16.0-10.0,15833,List1A,white,woman,,TRUE,7,,,,,
null,CORRECT,,html-keyboard-response,236,1107906,0.0-16.0-11.0-0.0,15833,List1A,white,woman,,,,null,,,,
1438,"<img src=""portrait/BM1.jpg""style=""width:400px;height:400px;""></img>",4,html-button-response,237,1109350,0.0-16.0-13.0,15833,List1A,white,woman,,TRUE,4,,,,,
null,CORRECT,,html-keyboard-response,238,1110858,0.0-16.0-14.0-0.0,15833,List1A,white,woman,,,,null,,,,
5321,"<img src=""portrait/BW1.jpg""style=""width:400px;height:400px;""></img>",0,html-button-response,239,1116186,0.0-16.0-16.0,15833,List1A,white,woman,,TRUE,0,,,,,
null,CORRECT,,html-keyboard-response,240,1117690,0.0-16.0-17.0-0.0,15833,List1A,white,woman,,,,null,,,,
1654,"<img src=""portrait/WW2.jpg""style=""width:400px;height:400px;""></img>",3,html-button-response,241,1119350,0.0-16.0-19.0,15833,List1A,white,woman,,TRUE,3,,,,,
null,CORRECT,,html-keyboard-response,242,1120854,0.0-16.0-20.0-0.0,15833,List1A,white,woman,,,,null,,,,
2957,"<img src=""portrait/BW2.jpg""style=""width:400px;height:400px;""></img>",2,html-button-response,243,1123817,0.0-16.0-22.0,15833,List1A,white,woman,,TRUE,2,,,,,
null,CORRECT,,html-keyboard-response,244,1125321,0.0-16.0-23.0-0.0,15833,List1A,white,woman,,,,null,,,,
1527,<p>You got 8 out of 8 right first time. Press Continue.</p>,0,html-button-response,245,1126852,0.0-16.0-25.0,15833,List1A,white,woman,,,,,,,,
null,"<div style=""font-size:60px;"">+</div>",,html-keyboard-response,246,1128358,0.0-17.0-0.0,15833,List1A,white,woman,,,,null,,,,
null,"<img src=""stim_listA/dance3.gif""</stim_listA>",,html-keyboard-response,247,1130362,0.0-17.0-1.0,15833,List1A,white,woman,,,,null,,,,
null,is dancing with,,html-keyboard-response,248,1132364,0.0-17.0-2.0,15833,List1A,white,woman,,,,null,,,,
12521,,,survey-text,249,1144892,0.0-17.0-3.0,15833,List1A,white,woman,,,,,"{""Q0"":""Like is dancing with Jane ""}","<img src=""stim_listA/dance3.gif""</stim_listA>",is dancing with,
null,"<div style=""font-size:60px;"">+</div>",,html-keyboard-response,250,1145398,0.0-17.0-0.1,15833,List1A,white,woman,,,,null,,,,
null,"<img src=""stim_listA/shout5.gif""</stim_listA>",,html-keyboard-response,251,1147402,0.0-17.0-1.1,15833,List1A,white,woman,,,,null,,,,
null,is shouting at,,html-keyboard-response,252,1149406,0.0-17.0-2.1,15833,List1A,white,woman,,,,null,,,,
11094,,,survey-text,253,1160504,0.0-17.0-3.1,15833,List1A,white,woman,,,,,"{""Q0"":""Fred is shouting at luke""}","<img src=""stim_listA/shout5.gif""</stim_listA>",is shouting at,
null,"<div style=""font-size:60px;"">+</div>",,html-keyboard-response,254,1161008,0.0-17.0-0.2,15833,List1A,white,woman,,,,null,,,,
null,"<img src=""stim_listA/meet4.gif""</stim_listA>",,html-keyboard-response,255,1163013,0.0-17.0-1.2,15833,List1A,white,woman,,,,null,,,,
null,are meeting each other,,html-keyboard-response,256,1165017,0.0-17.0-2.2,15833,List1A,white,woman,,,,null,,,,
19402,,,survey-text,257,1184422,0.0-17.0-3.2,15833,List1A,white,woman,,,,,"{""Q0"":""Ruth and like are meeting each other""}","<img src=""stim_listA/meet4.gif""</stim_listA>",are meeting each other,
null,"<div style=""font-size:60px;"">+</div>",,html-keyboard-response,258,1184927,0.0-17.0-0.3,15833,List1A,white,woman,,,,null,,,,
null,"<img src=""stim_listA/marry6.gif""</stim_listA>",,html-keyboard-response,259,1186931,0.0-17.0-1.3,15833,List1A,white,woman,,,,null,,,,
null,are marrying each other,,html-keyboard-response,260,1188934,0.0-17.0-2.3,15833,List1A,white,woman,,,,null,,,,
16088,,,survey-text,261,1205030,0.0-17.0-3.3,15833,List1A,white,woman,,,,,"{""Q0"":""Fred and Dave are marrying each other""}","<img src=""stim_listA/marry6.gif""</stim_listA>",are marrying each other,
null,"<div style=""font-size:60px;"">+</div>",,html-keyboard-response,262,1205535,0.0-17.0-0.4,15833,List1A,white,woman,,,,null,,,,
null,"<img src=""stim_listA/argue5.gif""</stim_listA>",,html-keyboard-response,263,1207539,0.0-17.0-1.4,15833,List1A,white,woman,,,,null,,,,
null,is arguing with,,html-keyboard-response,264,1209543,0.0-17.0-2.4,15833,List1A,white,woman,,,,null,,,,
10875,,,survey-text,265,1220422,0.0-17.0-3.4,15833,List1A,white,woman,,,,,"{""Q0"":""Luke is arguing with mike""}","<img src=""stim_listA/argue5.gif""</stim_listA>",is arguing with,
null,"<div style=""font-size:60px;"">+</div>",,html-keyboard-response,266,1220924,0.0-17.0-0.5,15833,List1A,white,woman,,,,null,,,,
null,"<img src=""stim_listA/dance7.gif""</stim_listA>",,html-keyboard-response,267,1222927,0.0-17.0-1.5,15833,List1A,white,woman,,,,null,,,,
null,is dancing with,,html-keyboard-response,268,1224930,0.0-17.0-2.5,15833,List1A,white,woman,,,,null,,,,
8709,,,survey-text,269,1233643,0.0-17.0-3.5,15833,List1A,white,woman,,,,,"{""Q0"":""Beth is dancing with jane""}","<img src=""stim_listA/dance7.gif""</stim_listA>",is dancing with,
null,"<div style=""font-size:60px;"">+</div>",,html-keyboard-response,270,1234147,0.0-17.0-0.6,15833,List1A,white,woman,,,,null,,,,
null,"<img src=""stim_listA/meet6.gif""</stim_listA>",,html-keyboard-response,271,1236150,0.0-17.0-1.6,15833,List1A,white,woman,,,,null,,,,
null,are meeting each other,,html-keyboard-response,272,1238154,0.0-17.0-2.6,15833,List1A,white,woman,,,,null,,,,
13969,,,survey-text,273,1252126,0.0-17.0-3.6,15833,List1A,white,woman,,,,,"{""Q0"":""Fred and Luke are meeting each other""}","<img src=""stim_listA/meet6.gif""</stim_listA>",are meeting each other,
null,"<div style=""font-size:60px;"">+</div>",,html-keyboard-response,274,1252630,0.0-17.0-0.7,15833,List1A,white,woman,,,,null,,,,
null,"<img src=""stim_listA/hug8.gif""</stim_listA>",,html-keyboard-response,275,1254636,0.0-17.0-1.7,15833,List1A,white,woman,,,,null,,,,
null,are hugging each other,,html-keyboard-response,276,1256640,0.0-17.0-2.7,15833,List1A,white,woman,,,,null,,,,
15467,,,survey-text,277,1272110,0.0-17.0-3.7,15833,List1A,white,woman,,,,,"{""Q0"":""Kate and Jane are hugging each other""}","<img src=""stim_listA/hug8.gif""</stim_listA>",are hugging each other,
null,"<div style=""font-size:60px;"">+</div>",,html-keyboard-response,278,1272614,0.0-17.0-0.8,15833,List1A,white,woman,,,,null,,,,
null,"<img src=""stim_listA/touch1.gif""</stim_listA>",,html-keyboard-response,279,1274619,0.0-17.0-1.8,15833,List1A,white,woman,,,,null,,,,
null,is touching,,html-keyboard-response,280,1276623,0.0-17.0-2.8,15833,List1A,white,woman,,,,null,,,,
13250,,,survey-text,281,1289880,0.0-17.0-3.8,15833,List1A,white,woman,,,,,"{""Q0"":""Kate is touching mike""}","<img src=""stim_listA/touch1.gif""</stim_listA>",is touching,
null,"<div style=""font-size:60px;"">+</div>",,html-keyboard-response,282,1290385,0.0-17.0-0.9,15833,List1A,white,woman,,,,null,,,,
null,"<img src=""stim_listA/argue6.gif""</stim_listA>",,html-keyboard-response,283,1292390,0.0-17.0-1.9,15833,List1A,white,woman,,,,null,,,,
null,are arguing with each other,,html-keyboard-response,284,1294394,0.0-17.0-2.9,15833,List1A,white,woman,,,,null,,,,
15582,,,survey-text,285,1309979,0.0-17.0-3.9,15833,List1A,white,woman,,,,,"{""Q0"":""Fred and dave are arguing with each other""}","<img src=""stim_listA/argue6.gif""</stim_listA>",are arguing with each other,
null,"<div style=""font-size:60px;"">+</div>",,html-keyboard-response,286,1310483,0.0-17.0-0.10,15833,List1A,white,woman,,,,null,,,,
null,"<img src=""stim_listA/kiss7.gif""</stim_listA>",,html-keyboard-response,287,1312488,0.0-17.0-1.10,15833,List1A,white,woman,,,,null,,,,
null,is kissing,,html-keyboard-response,288,1314492,0.0-17.0-2.10,15833,List1A,white,woman,,,,null,,,,
9937,,,survey-text,289,1324432,0.0-17.0-3.10,15833,List1A,white,woman,,,,,"{""Q0"":""Beth is kissing ruth""}","<img src=""stim_listA/kiss7.gif""</stim_listA>",is kissing,
null,"<div style=""font-size:60px;"">+</div>",,html-keyboard-response,290,1324935,0.0-17.0-0.11,15833,List1A,white,woman,,,,null,,,,
null,"<img src=""stim_listA/kiss6.gif""</stim_listA>",,html-keyboard-response,291,1326940,0.0-17.0-1.11,15833,List1A,white,woman,,,,null,,,,
null,are kissing each other,,html-keyboard-response,292,1328949,0.0-17.0-2.11,15833,List1A,white,woman,,,,null,,,,
10094,,,survey-text,293,1339047,0.0-17.0-3.11,15833,List1A,white,woman,,,,,"{""Q0"":""Dave and mike are kissing each other""}","<img src=""stim_listA/kiss6.gif""</stim_listA>",are kissing each other,
null,"<div style=""font-size:60px;"">+</div>",,html-keyboard-response,294,1339551,0.0-17.0-0.12,15833,List1A,white,woman,,,,null,,,,
null,"<img src=""stim_listA/hug2.gif""</stim_listA>",,html-keyboard-response,295,1341556,0.0-17.0-1.12,15833,List1A,white,woman,,,,null,,,,
null,are hugging each other,,html-keyboard-response,296,1343560,0.0-17.0-2.12,15833,List1A,white,woman,,,,null,,,,
11499,,,survey-text,297,1355063,0.0-17.0-3.12,15833,List1A,white,woman,,,,,"{""Q0"":""Late and mike are hugging each other ""}","<img src=""stim_listA/hug2.gif""</stim_listA>",are hugging each other,
null,"<div style=""font-size:60px;"">+</div>",,html-keyboard-response,298,1355567,0.0-17.0-0.13,15833,List1A,white,woman,,,,null,,,,
null,"<img src=""stim_listA/marry1.gif""</stim_listA>",,html-keyboard-response,299,1357571,0.0-17.0-1.13,15833,List1A,white,woman,,,,null,,,,
null,is marrying,,html-keyboard-response,300,1359575,0.0-17.0-2.13,15833,List1A,white,woman,,,,null,,,,
8536,,,survey-text,301,1368114,0.0-17.0-3.13,15833,List1A,white,woman,,,,,"{""Q0"":""Beth is marrying mike""}","<img src=""stim_listA/marry1.gif""</stim_listA>",is marrying,
null,"<div style=""font-size:60px;"">+</div>",,html-keyboard-response,302,1368617,0.0-17.0-0.14,15833,List1A,white,woman,,,,null,,,,
null,"<img src=""stim_listA/talk4.gif""</stim_listA>",,html-keyboard-response,303,1370622,0.0-17.0-1.14,15833,List1A,white,woman,,,,null,,,,
null,are talking to each other,,html-keyboard-response,304,1372625,0.0-17.0-2.14,15833,List1A,white,woman,,,,null,,,,
10889,,,survey-text,305,1383517,0.0-17.0-3.14,15833,List1A,white,woman,,,,,"{""Q0"":""Dave and Ruth are talking to each other""}","<img src=""stim_listA/talk4.gif""</stim_listA>",are talking to each other,
null,"<div style=""font-size:60px;"">+</div>",,html-keyboard-response,306,1384021,0.0-17.0-0.15,15833,List1A,white,woman,,,,null,,,,
null,"<img src=""stim_listA/dance6.gif""</stim_listA>",,html-keyboard-response,307,1386025,0.0-17.0-1.15,15833,List1A,white,woman,,,,null,,,,
null,are dancing with each other,,html-keyboard-response,308,1388029,0.0-17.0-2.15,15833,List1A,white,woman,,,,null,,,,
19097,,,survey-text,309,1407135,0.0-17.0-3.15,15833,List1A,white,woman,,,,,"{""Q0"":""Mike and Luke are dancing with each other ""}","<img src=""stim_listA/dance6.gif""</stim_listA>",are dancing with each other,
null,"<div style=""font-size:60px;"">+</div>",,html-keyboard-response,310,1407639,0.0-17.0-0.16,15833,List1A,white,woman,,,,null,,,,
null,"<img src=""stim_listA/shout3.gif""</stim_listA>",,html-keyboard-response,311,1409644,0.0-17.0-1.16,15833,List1A,white,woman,,,,null,,,,
null,is shouting at,,html-keyboard-response,312,1411648,0.0-17.0-2.16,15833,List1A,white,woman,,,,null,,,,
11947,,,survey-text,313,1423598,0.0-17.0-3.16,15833,List1A,white,woman,,,,,"{""Q0"":""Ruth is shouting at luke""}","<img src=""stim_listA/shout3.gif""</stim_listA>",is shouting at,
null,"<div style=""font-size:60px;"">+</div>",,html-keyboard-response,314,1424102,0.0-17.0-0.17,15833,List1A,white,woman,,,,null,,,,
null,"<img src=""stim_listA/touch2.gif""</stim_listA>",,html-keyboard-response,315,1426106,0.0-17.0-1.17,15833,List1A,white,woman,,,,null,,,,
null,are touching each other,,html-keyboard-response,316,1428109,0.0-17.0-2.17,15833,List1A,white,woman,,,,null,,,,
9986,,,survey-text,317,1438099,0.0-17.0-3.17,15833,List1A,white,woman,,,,,"{""Q0"":""Beth and Fred are touching each other ""}","<img src=""stim_listA/touch2.gif""</stim_listA>",are touching each other,
null,"<div style=""font-size:60px;"">+</div>",,html-keyboard-response,318,1438603,0.0-17.0-0.18,15833,List1A,white,woman,,,,null,,,,
null,"<img src=""stim_listA/talk2.gif""</stim_listA>",,html-keyboard-response,319,1440607,0.0-17.0-1.18,15833,List1A,white,woman,,,,null,,,,
null,are talking to each other,,html-keyboard-response,320,1442609,0.0-17.0-2.18,15833,List1A,white,woman,,,,null,,,,
12003,,,survey-text,321,1454614,0.0-17.0-3.18,15833,List1A,white,woman,,,,,"{""Q0"":""Beth and mike are talking to each other""}","<img src=""stim_listA/talk2.gif""</stim_listA>",are talking to each other,
null,"<div style=""font-size:60px;"">+</div>",,html-keyboard-response,322,1455118,0.0-17.0-0.19,15833,List1A,white,woman,,,,null,,,,
null,"<img src=""stim_listA/fight6.gif""</stim_listA>",,html-keyboard-response,323,1457123,0.0-17.0-1.19,15833,List1A,white,woman,,,,null,,,,
null,are fighting each other,,html-keyboard-response,324,1459132,0.0-17.0-2.19,15833,List1A,white,woman,,,,null,,,,
10977,,,survey-text,325,1470113,0.0-17.0-3.19,15833,List1A,white,woman,,,,,"{""Q0"":""Fred and like are fighting each other ""}","<img src=""stim_listA/fight6.gif""</stim_listA>",are fighting each other,
38702,"<img src='img/portrait_matrix_list1.JPG' style='width:900px;height:500px;''></img><p>If you have memorised all the portraits and names and are ready to start, press Continue.</p><p><strong>Please note: Your memory of these faces will be tested 4 times during this experiment.</strong></p>",0,html-button-response,326,1508821,0.0-18.0-0.0,15833,List1A,white,woman,,,,,,,,
3518,"<img src=""portrait/BM1.jpg""style=""width:400px;height:400px;""></img>",4,html-button-response,327,1513349,0.0-18.0-1.0,15833,List1A,white,woman,,TRUE,4,,,,,
null,CORRECT,,html-keyboard-response,328,1514854,0.0-18.0-2.0-0.0,15833,List1A,white,woman,,,,null,,,,
3153,"<img src=""portrait/BW1.jpg""style=""width:400px;height:400px;""></img>",0,html-button-response,329,1518015,0.0-18.0-4.0,15833,List1A,white,woman,,TRUE,0,,,,,
null,CORRECT,,html-keyboard-response,330,1519520,0.0-18.0-5.0-0.0,15833,List1A,white,woman,,,,null,,,,
4539,"<img src=""portrait/WM2.jpg""style=""width:400px;height:400px;""></img>",7,html-button-response,331,1524065,0.0-18.0-7.0,15833,List1A,white,woman,,TRUE,7,,,,,
null,CORRECT,,html-keyboard-response,332,1525569,0.0-18.0-8.0-0.0,15833,List1A,white,woman,,,,null,,,,
4155,"<img src=""portrait/BM2.jpg""style=""width:400px;height:400px;""></img>",5,html-button-response,333,1529732,0.0-18.0-10.0,15833,List1A,white,woman,,TRUE,5,,,,,
null,CORRECT,,html-keyboard-response,334,1531237,0.0-18.0-11.0-0.0,15833,List1A,white,woman,,,,null,,,,
5473,"<img src=""portrait/WM1.jpg""style=""width:400px;height:400px;""></img>",6,html-button-response,335,1536717,0.0-18.0-13.0,15833,List1A,white,woman,,TRUE,6,,,,,
null,CORRECT,,html-keyboard-response,336,1538221,0.0-18.0-14.0-0.0,15833,List1A,white,woman,,,,null,,,,
2131,"<img src=""portrait/WW2.jpg""style=""width:400px;height:400px;""></img>",3,html-button-response,337,1540366,0.0-18.0-16.0,15833,List1A,white,woman,,TRUE,3,,,,,
null,CORRECT,,html-keyboard-response,338,1541870,0.0-18.0-17.0-0.0,15833,List1A,white,woman,,,,null,,,,
5639,"<img src=""portrait/BW2.jpg""style=""width:400px;height:400px;""></img>",2,html-button-response,339,1547517,0.0-18.0-19.0,15833,List1A,white,woman,,TRUE,2,,,,,
null,CORRECT,,html-keyboard-response,340,1549021,0.0-18.0-20.0-0.0,15833,List1A,white,woman,,,,null,,,,
7086,"<img src=""portrait/WW1.jpg""style=""width:400px;height:400px;""></img>",1,html-button-response,341,1556115,0.0-18.0-22.0,15833,List1A,white,woman,,TRUE,1,,,,,
null,CORRECT,,html-keyboard-response,342,1557619,0.0-18.0-23.0-0.0,15833,List1A,white,woman,,,,null,,,,
1545,<p>You got 8 out of 8 right first time. Press Continue.</p>,0,html-button-response,343,1559168,0.0-18.0-25.0,15833,List1A,white,woman,,,,,,,,
null,"<div style=""font-size:60px;"">+</div>",,html-keyboard-response,344,1560676,0.0-19.0-0.0,15833,List1A,white,woman,,,,null,,,,
null,"<img src=""stim_listA/shout8.gif""</stim_listA>",,html-keyboard-response,345,1562681,0.0-19.0-1.0,15833,List1A,white,woman,,,,null,,,,
null,are shouting at each other,,html-keyboard-response,346,1564685,0.0-19.0-2.0,15833,List1A,white,woman,,,,null,,,,
12314,,,survey-text,347,1577003,0.0-19.0-3.0,15833,List1A,white,woman,,,,,"{""Q0"":""Kate and Jane are shouting at each other""}","<img src=""stim_listA/shout8.gif""</stim_listA>",are shouting at each other,
null,"<div style=""font-size:60px;"">+</div>",,html-keyboard-response,348,1577507,0.0-19.0-0.1,15833,List1A,white,woman,,,,null,,,,
null,"<img src=""stim_listA/kiss3.gif""</stim_listA>",,html-keyboard-response,349,1579512,0.0-19.0-1.1,15833,List1A,white,woman,,,,null,,,,
null,is kissing,,html-keyboard-response,350,1581516,0.0-19.0-2.1,15833,List1A,white,woman,,,,null,,,,
15368,,,survey-text,351,1596888,0.0-19.0-3.1,15833,List1A,white,woman,,,,,"{""Q0"":""Ruth is kissing luke ""}","<img src=""stim_listA/kiss3.gif""</stim_listA>",is kissing,
null,"<div style=""font-size:60px;"">+</div>",,html-keyboard-response,352,1597393,0.0-19.0-0.2,15833,List1A,white,woman,,,,null,,,,
null,"<img src=""stim_listA/meet1.gif""</stim_listA>",,html-keyboard-response,353,1599398,0.0-19.0-1.2,15833,List1A,white,woman,,,,null,,,,
null,is meeting,,html-keyboard-response,354,1601402,0.0-19.0-2.2,15833,List1A,white,woman,,,,null,,,,
7318,,,survey-text,355,1608729,0.0-19.0-3.2,15833,List1A,white,woman,,,,,"{""Q0"":""Mike is meeting kate""}","<img src=""stim_listA/meet1.gif""</stim_listA>",is meeting,
null,"<div style=""font-size:60px;"">+</div>",,html-keyboard-response,356,1609232,0.0-19.0-0.3,15833,List1A,white,woman,,,,null,,,,
null,"<img src=""stim_listA/shout1.gif""</stim_listA>",,html-keyboard-response,357,1611237,0.0-19.0-1.3,15833,List1A,white,woman,,,,null,,,,
null,is shouting at,,html-keyboard-response,358,1613241,0.0-19.0-2.3,15833,List1A,white,woman,,,,null,,,,
11314,,,survey-text,359,1624557,0.0-19.0-3.3,15833,List1A,white,woman,,,,,"{""Q0"":""Fred is shouting at beth""}","<img src=""stim_listA/shout1.gif""</stim_listA>",is shouting at,
null,"<div style=""font-size:60px;"">+</div>",,html-keyboard-response,360,1625061,0.0-19.0-0.4,15833,List1A,white,woman,,,,null,,,,
null,"<img src=""stim_listA/hug7.gif""</stim_listA>",,html-keyboard-response,361,1627065,0.0-19.0-1.4,15833,List1A,white,woman,,,,null,,,,
null,is hugging,,html-keyboard-response,362,1629069,0.0-19.0-2.4,15833,List1A,white,woman,,,,null,,,,
9118,,,survey-text,363,1638191,0.0-19.0-3.4,15833,List1A,white,woman,,,,,"{""Q0"":""Ruth is hugging beth""}","<img src=""stim_listA/hug7.gif""</stim_listA>",is hugging,
null,"<div style=""font-size:60px;"">+</div>",,html-keyboard-response,364,1638695,0.0-19.0-0.5,15833,List1A,white,woman,,,,null,,,,
null,"<img src=""stim_listA/talk7.gif""</stim_listA>",,html-keyboard-response,365,1640700,0.0-19.0-1.5,15833,List1A,white,woman,,,,null,,,,
null,is talking to,,html-keyboard-response,366,1642703,0.0-19.0-2.5,15833,List1A,white,woman,,,,null,,,,
7851,,,survey-text,367,1650558,0.0-19.0-3.5,15833,List1A,white,woman,,,,,"{""Q0"":""Beth is talking to jane""}","<img src=""stim_listA/talk7.gif""</stim_listA>",is talking to,
null,"<div style=""font-size:60px;"">+</div>",,html-keyboard-response,368,1651063,0.0-19.0-0.6,15833,List1A,white,woman,,,,null,,,,
null,"<img src=""stim_listA/argue3.gif""</stim_listA>",,html-keyboard-response,369,1653067,0.0-19.0-1.6,15833,List1A,white,woman,,,,null,,,,
null,is arguing with,,html-keyboard-response,370,1655071,0.0-19.0-2.6,15833,List1A,white,woman,,,,null,,,,
16235,,,survey-text,371,1671310,0.0-19.0-3.6,15833,List1A,white,woman,,,,,"{""Q0"":""Ruth is arguing with Dave ""}","<img src=""stim_listA/argue3.gif""</stim_listA>",is arguing with,
null,"<div style=""font-size:60px;"">+</div>",,html-keyboard-response,372,1671815,0.0-19.0-0.7,15833,List1A,white,woman,,,,null,,,,
null,"<img src=""stim_listA/dance5.gif""</stim_listA>",,html-keyboard-response,373,1673819,0.0-19.0-1.7,15833,List1A,white,woman,,,,null,,,,
null,is dancing with,,html-keyboard-response,374,1675823,0.0-19.0-2.7,15833,List1A,white,woman,,,,null,,,,
9382,,,survey-text,375,1685209,0.0-19.0-3.7,15833,List1A,white,woman,,,,,"{""Q0"":""Fred is dancing with Dave ""}","<img src=""stim_listA/dance5.gif""</stim_listA>",is dancing with,
null,"<div style=""font-size:60px;"">+</div>",,html-keyboard-response,376,1685712,0.0-19.0-0.8,15833,List1A,white,woman,,,,null,,,,
null,"<img src=""stim_listA/hug6.gif""</stim_listA>",,html-keyboard-response,377,1687717,0.0-19.0-1.8,15833,List1A,white,woman,,,,null,,,,
null,are hugging each other,,html-keyboard-response,378,1689721,0.0-19.0-2.8,15833,List1A,white,woman,,,,null,,,,
9701,,,survey-text,379,1699425,0.0-19.0-3.8,15833,List1A,white,woman,,,,,"{""Q0"":""Dave and mike are hugging each other""}","<img src=""stim_listA/hug6.gif""</stim_listA>",are hugging each other,
null,"<div style=""font-size:60px;"">+</div>",,html-keyboard-response,380,1699930,0.0-19.0-0.9,15833,List1A,white,woman,,,,null,,,,
null,"<img src=""stim_listA/meet2.gif""</stim_listA>",,html-keyboard-response,381,1701935,0.0-19.0-1.9,15833,List1A,white,woman,,,,null,,,,
null,are meeting each other,,html-keyboard-response,382,1703939,0.0-19.0-2.9,15833,List1A,white,woman,,,,null,,,,
13719,,,survey-text,383,1717661,0.0-19.0-3.9,15833,List1A,white,woman,,,,,"{""Q0"":""Fred and Beth are meeting each other ""}","<img src=""stim_listA/meet2.gif""</stim_listA>",are meeting each other,
null,"<div style=""font-size:60px;"">+</div>",,html-keyboard-response,384,1718165,0.0-19.0-0.10,15833,List1A,white,woman,,,,null,,,,
null,"<img src=""stim_listA/talk8.gif""</stim_listA>",,html-keyboard-response,385,1720170,0.0-19.0-1.10,15833,List1A,white,woman,,,,null,,,,
null,are talking to each other,,html-keyboard-response,386,1722173,0.0-19.0-2.10,15833,List1A,white,woman,,,,null,,,,
15846,,,survey-text,387,1738029,0.0-19.0-3.10,15833,List1A,white,woman,,,,,"{""Q0"":""Ruth and Kate are talking to each other""}","<img src=""stim_listA/talk8.gif""</stim_listA>",are talking to each other,
null,"<div style=""font-size:60px;"">+</div>",,html-keyboard-response,388,1738532,0.0-19.0-0.11,15833,List1A,white,woman,,,,null,,,,
null,"<img src=""stim_listA/argue7.gif""</stim_listA>",,html-keyboard-response,389,1740538,0.0-19.0-1.11,15833,List1A,white,woman,,,,null,,,,
null,is arguing with,,html-keyboard-response,390,1742542,0.0-19.0-2.11,15833,List1A,white,woman,,,,null,,,,
8085,,,survey-text,391,1750630,0.0-19.0-3.11,15833,List1A,white,woman,,,,,"{""Q0"":""Ruth is arguing with kate""}","<img src=""stim_listA/argue7.gif""</stim_listA>",is arguing with,
null,"<div style=""font-size:60px;"">+</div>",,html-keyboard-response,392,1751134,0.0-19.0-0.12,15833,List1A,white,woman,,,,null,,,,
null,"<img src=""stim_listA/argue1.gif""</stim_listA>",,html-keyboard-response,393,1753138,0.0-19.0-1.12,15833,List1A,white,woman,,,,null,,,,
null,is arguing with,,html-keyboard-response,394,1755142,0.0-19.0-2.12,15833,List1A,white,woman,,,,null,,,,
7930,,,survey-text,395,1763080,0.0-19.0-3.12,15833,List1A,white,woman,,,,,"{""Q0"":""Beth is arguing with mike""}","<img src=""stim_listA/argue1.gif""</stim_listA>",is arguing with,
null,"<div style=""font-size:60px;"">+</div>",,html-keyboard-response,396,1763585,0.0-19.0-0.13,15833,List1A,white,woman,,,,null,,,,
null,"<img src=""stim_listA/touch8.gif""</stim_listA>",,html-keyboard-response,397,1765589,0.0-19.0-1.13,15833,List1A,white,woman,,,,null,,,,
null,are touching each other,,html-keyboard-response,398,1767593,0.0-19.0-2.13,15833,List1A,white,woman,,,,null,,,,
713,,,survey-text,399,1768310,0.0-19.0-3.13,15833,List1A,white,woman,,,,,"{""Q0"":""""}","<img src=""stim_listA/touch8.gif""</stim_listA>",are touching each other,
null,"<div style=""font-size:60px;"">+</div>",,html-keyboard-response,400,1768813,0.0-19.0-0.14,15833,List1A,white,woman,,,,null,,,,
null,"<img src=""stim_listA/shout7.gif""</stim_listA>",,html-keyboard-response,401,1770818,0.0-19.0-1.14,15833,List1A,white,woman,,,,null,,,,
null,is shouting at,,html-keyboard-response,402,1772822,0.0-19.0-2.14,15833,List1A,white,woman,,,,null,,,,
8057,,,survey-text,403,1780883,0.0-19.0-3.14,15833,List1A,white,woman,,,,,"{""Q0"":""Beth is shouting at ruth""}","<img src=""stim_listA/shout7.gif""</stim_listA>",is shouting at,
null,"<div style=""font-size:60px;"">+</div>",,html-keyboard-response,404,1781391,0.0-19.0-0.15,15833,List1A,white,woman,,,,null,,,,
null,"<img src=""stim_listA/meet3.gif""</stim_listA>",,html-keyboard-response,405,1783395,0.0-19.0-1.15,15833,List1A,white,woman,,,,null,,,,
null,is meeting,,html-keyboard-response,406,1785399,0.0-19.0-2.15,15833,List1A,white,woman,,,,null,,,,
28244,,,survey-text,407,1813649,0.0-19.0-3.15,15833,List1A,white,woman,,,,,"{""Q0"":""Dave is meeting Jane ""}","<img src=""stim_listA/meet3.gif""</stim_listA>",is meeting,
null,"<div style=""font-size:60px;"">+</div>",,html-keyboard-response,408,1814152,0.0-19.0-0.16,15833,List1A,white,woman,,,,null,,,,
null,"<img src=""stim_listA/touch5.gif""</stim_listA>",,html-keyboard-response,409,1816157,0.0-19.0-1.16,15833,List1A,white,woman,,,,null,,,,
null,is touching,,html-keyboard-response,410,1818160,0.0-19.0-2.16,15833,List1A,white,woman,,,,null,,,,
8970,,,survey-text,411,1827134,0.0-19.0-3.16,15833,List1A,white,woman,,,,,"{""Q0"":""Dave is touching mike ""}","<img src=""stim_listA/touch5.gif""</stim_listA>",is touching,
null,"<div style=""font-size:60px;"">+</div>",,html-keyboard-response,412,1827638,0.0-19.0-0.17,15833,List1A,white,woman,,,,null,,,,
null,"<img src=""stim_listA/fight8.gif""</stim_listA>",,html-keyboard-response,413,1829643,0.0-19.0-1.17,15833,List1A,white,woman,,,,null,,,,
null,are fighting each other,,html-keyboard-response,414,1831647,0.0-19.0-2.17,15833,List1A,white,woman,,,,null,,,,
13466,,,survey-text,415,1845116,0.0-19.0-3.17,15833,List1A,white,woman,,,,,"{""Q0"":""Ruth and Beth are fighting each other""}","<img src=""stim_listA/fight8.gif""</stim_listA>",are fighting each other,
null,"<div style=""font-size:60px;"">+</div>",,html-keyboard-response,416,1845620,0.0-19.0-0.18,15833,List1A,white,woman,,,,null,,,,
null,"<img src=""stim_listA/fight7.gif""</stim_listA>",,html-keyboard-response,417,1847624,0.0-19.0-1.18,15833,List1A,white,woman,,,,null,,,,
null,is fighting,,html-keyboard-response,418,1849627,0.0-19.0-2.18,15833,List1A,white,woman,,,,null,,,,
8072,,,survey-text,419,1857702,0.0-19.0-3.18,15833,List1A,white,woman,,,,,"{""Q0"":""Kate is fighting jane""}","<img src=""stim_listA/fight7.gif""</stim_listA>",is fighting,
null,"<div style=""font-size:60px;"">+</div>",,html-keyboard-response,420,1858205,0.0-19.0-0.19,15833,List1A,white,woman,,,,null,,,,
null,"<img src=""stim_listA/kiss5.gif""</stim_listA>",,html-keyboard-response,421,1860209,0.0-19.0-1.19,15833,List1A,white,woman,,,,null,,,,
null,is kissing,,html-keyboard-response,422,1862213,0.0-19.0-2.19,15833,List1A,white,woman,,,,null,,,,
9703,,,survey-text,423,1871919,0.0-19.0-3.19,15833,List1A,white,woman,,,,,"{""Q0"":""Fred is kissing luke""}","<img src=""stim_listA/kiss5.gif""</stim_listA>",is kissing,
3553,<p>Thank you for completing that task.</p><p>The final part of this session is a short questionnaire.</p><p>Press Continue.</p>,0,html-button-response,424,1875480,0.0-20.0,15833,List1A,white,woman,,,,,,,,
25950,,,survey-text,425,1902437,0.0-21.0,15833,List1A,white,woman,,,,,"{""Q0"":""34"",""Q1"":""English"",""Q2"":""English"",""Q3"":""Uk"",""Q4"":""White "",""Q5"":""Female""}",,,demographics
67224,,,survey-likert,426,1969687,0.0-22.0,15833,List1A,white,woman,,,,,"{""Q0"":3,""Q1"":3,""Q2"":3,""Q3"":4,""Q4"":2,""Q5"":3,""Q6"":3,""Q7"":3,""Q8"":3,""Q9"":3,""Q10"":3,""Q11"":5,""Q12"":5,""Q13"":5}",,,likert_race
71342,,,survey-likert,427,2041038,0.0-23.0,15833,List1A,white,woman,,,,,"{""Q0"":4,""Q1"":4,""Q2"":5,""Q3"":6,""Q4"":6,""Q5"":6,""Q6"":6,""Q7"":4,""Q8"":4,""Q9"":4,""Q10"":5,""Q11"":5,""Q12"":5,""Q13"":5}",,,likert_gender
21359,,,survey-text,428,2062402,0.0-24.0,15833,List1A,white,woman,,,,,"{""Q0"":""ccc""}",,,worker_id
42656,,,external-html,429,2105277,0.0-25.0,15833,List1A,white,woman,debrief.html,,,,,,,
