rt,stimulus,button_pressed,trial_type,trial_index,time_elapsed,internal_node_id,subject,list,ppt_race,ppt_gender,url,first_guess,correct,key_press,responses,image_type,phrase_type,test_part
3917,Welcome to the experiment. Press Continue to begin.,0,html-button-response,0,3921,0.0-0.0,20374,List1A,black,man,,,,,,,,
29089,,,external-html,1,34084,0.0-1.0,20374,List1A,black,man,consent.html,,,,,,,
12082,"<p>On the next page, you will see portraits of 8 people and their names.</p><p>Your first task is to take a few minutes to memorise the names of these people.</p><p>You will have to recall their names during the rest of the experiment, so it is</p><p>essential that you try to memorise these people and their names as best as you can.</p><br><p><strong>You will then be tested on your memory of these names and portraits.</strong></p><br><p>The experiment will start after you have completed this memory test.</p><br><p>Ready?</p>",0,html-button-response,2,46167,0.0-2.0,20374,List1A,black,man,,,,,,,,
43412,"<img src='img/portrait_matrix_list1.JPG' style='width:900px;height:500px;''></img><p>If you have memorised all the portraits and names and are ready to start, press Continue.</p><p><strong>Please note: Your memory of these faces will be tested 4 times during this experiment.</strong></p>",0,html-button-response,3,90599,0.0-3.0-0.0,20374,List1A,black,man,,,,,,,,
8069,"<img src=""portrait/BM2.jpg""style=""width:400px;height:400px;""></img>",5,html-button-response,4,99679,0.0-3.0-1.0,20374,List1A,black,man,,TRUE,5,,,,,
null,CORRECT,,html-keyboard-response,5,101201,0.0-3.0-2.0-0.0,20374,List1A,black,man,,,,null,,,,
5778,"<img src=""portrait/WW1.jpg""style=""width:400px;height:400px;""></img>",1,html-button-response,6,106981,0.0-3.0-4.0,20374,List1A,black,man,,TRUE,1,,,,,
null,CORRECT,,html-keyboard-response,7,108514,0.0-3.0-5.0-0.0,20374,List1A,black,man,,,,null,,,,
3232,"<img src=""portrait/BW2.jpg""style=""width:400px;height:400px;""></img>",2,html-button-response,8,111747,0.0-3.0-7.0,20374,List1A,black,man,,TRUE,2,,,,,
null,CORRECT,,html-keyboard-response,9,113259,0.0-3.0-8.0-0.0,20374,List1A,black,man,,,,null,,,,
3110,"<img src=""portrait/BW1.jpg""style=""width:400px;height:400px;""></img>",0,html-button-response,10,116372,0.0-3.0-10.0,20374,List1A,black,man,,TRUE,0,,,,,
null,CORRECT,,html-keyboard-response,11,117886,0.0-3.0-11.0-0.0,20374,List1A,black,man,,,,null,,,,
4896,"<img src=""portrait/WM1.jpg""style=""width:400px;height:400px;""></img>",6,html-button-response,12,122783,0.0-3.0-13.0,20374,List1A,black,man,,TRUE,6,,,,,
null,CORRECT,,html-keyboard-response,13,124308,0.0-3.0-14.0-0.0,20374,List1A,black,man,,,,null,,,,
2895,"<img src=""portrait/BM1.jpg""style=""width:400px;height:400px;""></img>",4,html-button-response,14,127205,0.0-3.0-16.0,20374,List1A,black,man,,TRUE,4,,,,,
null,CORRECT,,html-keyboard-response,15,128735,0.0-3.0-17.0-0.0,20374,List1A,black,man,,,,null,,,,
2787,"<img src=""portrait/WM2.jpg""style=""width:400px;height:400px;""></img>",7,html-button-response,16,131523,0.0-3.0-19.0,20374,List1A,black,man,,TRUE,7,,,,,
null,CORRECT,,html-keyboard-response,17,133030,0.0-3.0-20.0-0.0,20374,List1A,black,man,,,,null,,,,
2779,"<img src=""portrait/WW2.jpg""style=""width:400px;height:400px;""></img>",3,html-button-response,18,135812,0.0-3.0-22.0,20374,List1A,black,man,,TRUE,3,,,,,
null,CORRECT,,html-keyboard-response,19,137338,0.0-3.0-23.0-0.0,20374,List1A,black,man,,,,null,,,,
1702,<p>You got 8 out of 8 right first time. Press Continue.</p>,0,html-button-response,20,139042,0.0-3.0-25.0,20374,List1A,black,man,,,,,,,,
20392,"<p>In this experiment, you will view photographs of the people from the memory game interacting.</p><p>By using the <strong>exact</strong> phrase given <i>after</i> the photograph appears and recalling the correct names of the people in the photographs, form a sentence describing the interaction. You do not need to capitalise names.</p><p>Type your answer in the space provided. Please complete every sentence before moving onto the next trial.</p><p>You will only have a few seconds to memorise each given photograph and phrase before you can respond, so try your best to focus.</p><p>An example is given below. Press 'Continue' when you are ready.</p><img src='img/speaking_example_v2.jpg' style='width:800px;height:460px;''></img>",0,html-button-response,21,160452,0.0-4.0,20374,List1A,black,man,,,,,,,,
2840,"<p>Before the experiment starts, you will watch two example trials. Press 'Continue'.</p>",0,html-button-response,22,164303,0.0-5.0,20374,List1A,black,man,,,,,,,,
null,<img src='img/speaking_WW.gif'></img>,,html-keyboard-response,23,167317,0.0-6.0,20374,List1A,black,man,,,,null,,,,
null,<p>is speaking to</p>,,html-keyboard-response,24,169319,0.0-7.0,20374,List1A,black,man,,,,null,,,,
9034,<p><b>Answer:</b> kate is speaking to beth</p>,0,html-button-response,25,178353,0.0-8.0,20374,List1A,black,man,,,,,,,,
null,<img src='img/pointing_BM.gif'></img>,,html-keyboard-response,26,181370,0.0-9.0,20374,List1A,black,man,,,,null,,,,
null,<p>are pointing at each other</p>,,html-keyboard-response,27,183371,0.0-10.0,20374,List1A,black,man,,,,null,,,,
2291,<p><b>Answer:</b> luke and dave are pointing at each other</p>,0,html-button-response,28,185663,0.0-11.0,20374,List1A,black,man,,,,,,,,
8147,"<p>Ready to start the experiment?</p><br><p><strong>Remember to describe the picture using a full sentence,</strong></p><p><strong>that combines the names of the people with the given phrase.</strong></p><p><strong>If you do not do this correctly you will not be paid.</strong></p><p><strong> You do not need to capitalise names or use punctuation.</strong></p><br><p>Press 'Continue' to begin.</p>",0,html-button-response,29,194822,0.0-12.0,20374,List1A,black,man,,,,,,,,
null,"<div style=""font-size:60px;"">+</div>",,html-keyboard-response,30,196340,0.0-13.0-0.0,20374,List1A,black,man,,,,null,,,,
null,"<img src=""stim_listA/argue4.gif""</stim_listA>",,html-keyboard-response,31,198344,0.0-13.0-1.0,20374,List1A,black,man,,,,null,,,,
null,are arguing with each other,,html-keyboard-response,32,200352,0.0-13.0-2.0,20374,List1A,black,man,,,,null,,,,
15838,,,survey-text,33,216192,0.0-13.0-3.0,20374,List1A,black,man,,,,,"{""Q0"":""Jane is arguing with Luke""}","<img src=""stim_listA/argue4.gif""</stim_listA>",are arguing with each other,
null,"<div style=""font-size:60px;"">+</div>",,html-keyboard-response,34,216694,0.0-13.0-0.1,20374,List1A,black,man,,,,null,,,,
null,"<img src=""stim_listA/touch3.gif""</stim_listA>",,html-keyboard-response,35,218710,0.0-13.0-1.1,20374,List1A,black,man,,,,null,,,,
null,is touching,,html-keyboard-response,36,220733,0.0-13.0-2.1,20374,List1A,black,man,,,,null,,,,
8862,,,survey-text,37,229596,0.0-13.0-3.1,20374,List1A,black,man,,,,,"{""Q0"":""Jane is touching Dave""}","<img src=""stim_listA/touch3.gif""</stim_listA>",is touching,
null,"<div style=""font-size:60px;"">+</div>",,html-keyboard-response,38,230105,0.0-13.0-0.2,20374,List1A,black,man,,,,null,,,,
null,"<img src=""stim_listA/touch8.gif""</stim_listA>",,html-keyboard-response,39,232110,0.0-13.0-1.2,20374,List1A,black,man,,,,null,,,,
null,are touching each other,,html-keyboard-response,40,234112,0.0-13.0-2.2,20374,List1A,black,man,,,,null,,,,
16368,,,survey-text,41,250482,0.0-13.0-3.2,20374,List1A,black,man,,,,,"{""Q0"":""Beth and Ruth are touching each other""}","<img src=""stim_listA/touch8.gif""</stim_listA>",are touching each other,
null,"<div style=""font-size:60px;"">+</div>",,html-keyboard-response,42,250986,0.0-13.0-0.3,20374,List1A,black,man,,,,null,,,,
null,"<img src=""stim_listA/dance8.gif""</stim_listA>",,html-keyboard-response,43,252994,0.0-13.0-1.3,20374,List1A,black,man,,,,null,,,,
null,are dancing with each other,,html-keyboard-response,44,255010,0.0-13.0-2.3,20374,List1A,black,man,,,,null,,,,
14354,,,survey-text,45,269365,0.0-13.0-3.3,20374,List1A,black,man,,,,,"{""Q0"":""Kate and Jane are dancing with each other""}","<img src=""stim_listA/dance8.gif""</stim_listA>",are dancing with each other,
null,"<div style=""font-size:60px;"">+</div>",,html-keyboard-response,46,269879,0.0-13.0-0.4,20374,List1A,black,man,,,,null,,,,
null,"<img src=""stim_listA/meet1.gif""</stim_listA>",,html-keyboard-response,47,271884,0.0-13.0-1.4,20374,List1A,black,man,,,,null,,,,
null,is meeting,,html-keyboard-response,48,273893,0.0-13.0-2.4,20374,List1A,black,man,,,,null,,,,
12241,,,survey-text,49,286135,0.0-13.0-3.4,20374,List1A,black,man,,,,,"{""Q0"":""Kate and Mike are meeting""}","<img src=""stim_listA/meet1.gif""</stim_listA>",is meeting,
null,"<div style=""font-size:60px;"">+</div>",,html-keyboard-response,50,286644,0.0-13.0-0.5,20374,List1A,black,man,,,,null,,,,
null,"<img src=""stim_listA/marry5.gif""</stim_listA>",,html-keyboard-response,51,288651,0.0-13.0-1.5,20374,List1A,black,man,,,,null,,,,
null,is marrying,,html-keyboard-response,52,290658,0.0-13.0-2.5,20374,List1A,black,man,,,,null,,,,
15450,,,survey-text,53,306110,0.0-13.0-3.5,20374,List1A,black,man,,,,,"{""Q0"":""Mike and Luke are marrying""}","<img src=""stim_listA/marry5.gif""</stim_listA>",is marrying,
null,"<div style=""font-size:60px;"">+</div>",,html-keyboard-response,54,306614,0.0-13.0-0.6,20374,List1A,black,man,,,,null,,,,
null,"<img src=""stim_listA/touch7.gif""</stim_listA>",,html-keyboard-response,55,308632,0.0-13.0-1.6,20374,List1A,black,man,,,,null,,,,
null,is touching,,html-keyboard-response,56,310634,0.0-13.0-2.6,20374,List1A,black,man,,,,null,,,,
10315,,,survey-text,57,320950,0.0-13.0-3.6,20374,List1A,black,man,,,,,"{""Q0"":""Kate and Jane are touching""}","<img src=""stim_listA/touch7.gif""</stim_listA>",is touching,
null,"<div style=""font-size:60px;"">+</div>",,html-keyboard-response,58,321467,0.0-13.0-0.7,20374,List1A,black,man,,,,null,,,,
null,"<img src=""stim_listA/kiss4.gif""</stim_listA>",,html-keyboard-response,59,323472,0.0-13.0-1.7,20374,List1A,black,man,,,,null,,,,
null,are kissing each other,,html-keyboard-response,60,325475,0.0-13.0-2.7,20374,List1A,black,man,,,,null,,,,
9500,,,survey-text,61,334977,0.0-13.0-3.7,20374,List1A,black,man,,,,,"{""Q0"":""Jane and Dave are kissing each other""}","<img src=""stim_listA/kiss4.gif""</stim_listA>",are kissing each other,
null,"<div style=""font-size:60px;"">+</div>",,html-keyboard-response,62,335478,0.0-13.0-0.8,20374,List1A,black,man,,,,null,,,,
null,"<img src=""stim_listA/hug3.gif""</stim_listA>",,html-keyboard-response,63,337486,0.0-13.0-1.8,20374,List1A,black,man,,,,null,,,,
null,is hugging,,html-keyboard-response,64,339487,0.0-13.0-2.8,20374,List1A,black,man,,,,null,,,,
13501,,,survey-text,65,352989,0.0-13.0-3.8,20374,List1A,black,man,,,,,"{""Q0"":""Luke and Ruth are hugging ""}","<img src=""stim_listA/hug3.gif""</stim_listA>",is hugging,
null,"<div style=""font-size:60px;"">+</div>",,html-keyboard-response,66,353506,0.0-13.0-0.9,20374,List1A,black,man,,,,null,,,,
null,"<img src=""stim_listA/marry6.gif""</stim_listA>",,html-keyboard-response,67,355512,0.0-13.0-1.9,20374,List1A,black,man,,,,null,,,,
null,are marrying each other,,html-keyboard-response,68,357514,0.0-13.0-2.9,20374,List1A,black,man,,,,null,,,,
13277,,,survey-text,69,370791,0.0-13.0-3.9,20374,List1A,black,man,,,,,"{""Q0"":""Dave and Fred are marrying each other""}","<img src=""stim_listA/marry6.gif""</stim_listA>",are marrying each other,
null,"<div style=""font-size:60px;"">+</div>",,html-keyboard-response,70,371296,0.0-13.0-0.10,20374,List1A,black,man,,,,null,,,,
null,"<img src=""stim_listA/argue1.gif""</stim_listA>",,html-keyboard-response,71,373302,0.0-13.0-1.10,20374,List1A,black,man,,,,null,,,,
null,is arguing with,,html-keyboard-response,72,375312,0.0-13.0-2.10,20374,List1A,black,man,,,,null,,,,
9645,,,survey-text,73,384958,0.0-13.0-3.10,20374,List1A,black,man,,,,,"{""Q0"":""Beth is arguing with Mike""}","<img src=""stim_listA/argue1.gif""</stim_listA>",is arguing with,
null,"<div style=""font-size:60px;"">+</div>",,html-keyboard-response,74,385462,0.0-13.0-0.11,20374,List1A,black,man,,,,null,,,,
null,"<img src=""stim_listA/talk8.gif""</stim_listA>",,html-keyboard-response,75,387476,0.0-13.0-1.11,20374,List1A,black,man,,,,null,,,,
null,are talking to each other,,html-keyboard-response,76,389492,0.0-13.0-2.11,20374,List1A,black,man,,,,null,,,,
16304,,,survey-text,77,405797,0.0-13.0-3.11,20374,List1A,black,man,,,,,"{""Q0"":""Ruth and Kate are talking""}","<img src=""stim_listA/talk8.gif""</stim_listA>",are talking to each other,
null,"<div style=""font-size:60px;"">+</div>",,html-keyboard-response,78,406305,0.0-13.0-0.12,20374,List1A,black,man,,,,null,,,,
null,"<img src=""stim_listA/talk4.gif""</stim_listA>",,html-keyboard-response,79,408311,0.0-13.0-1.12,20374,List1A,black,man,,,,null,,,,
null,are talking to each other,,html-keyboard-response,80,410314,0.0-13.0-2.12,20374,List1A,black,man,,,,null,,,,
14065,,,survey-text,81,424381,0.0-13.0-3.12,20374,List1A,black,man,,,,,"{""Q0"":""Dave and Ruth are talking to each other""}","<img src=""stim_listA/talk4.gif""</stim_listA>",are talking to each other,
null,"<div style=""font-size:60px;"">+</div>",,html-keyboard-response,82,424882,0.0-13.0-0.13,20374,List1A,black,man,,,,null,,,,
null,"<img src=""stim_listA/hug1.gif""</stim_listA>",,html-keyboard-response,83,426888,0.0-13.0-1.13,20374,List1A,black,man,,,,null,,,,
null,is hugging,,html-keyboard-response,84,428891,0.0-13.0-2.13,20374,List1A,black,man,,,,null,,,,
8704,,,survey-text,85,437597,0.0-13.0-3.13,20374,List1A,black,man,,,,,"{""Q0"":""Fred and Beth is hugging""}","<img src=""stim_listA/hug1.gif""</stim_listA>",is hugging,
null,"<div style=""font-size:60px;"">+</div>",,html-keyboard-response,86,438111,0.0-13.0-0.14,20374,List1A,black,man,,,,null,,,,
null,"<img src=""stim_listA/argue5.gif""</stim_listA>",,html-keyboard-response,87,440118,0.0-13.0-1.14,20374,List1A,black,man,,,,null,,,,
null,is arguing with,,html-keyboard-response,88,442119,0.0-13.0-2.14,20374,List1A,black,man,,,,null,,,,
7226,,,survey-text,89,449346,0.0-13.0-3.14,20374,List1A,black,man,,,,,"{""Q0"":""Mike is arguing with Luke""}","<img src=""stim_listA/argue5.gif""</stim_listA>",is arguing with,
null,"<div style=""font-size:60px;"">+</div>",,html-keyboard-response,90,449863,0.0-13.0-0.15,20374,List1A,black,man,,,,null,,,,
null,"<img src=""stim_listA/dance1.gif""</stim_listA>",,html-keyboard-response,91,451881,0.0-13.0-1.15,20374,List1A,black,man,,,,null,,,,
null,is dancing with,,html-keyboard-response,92,453888,0.0-13.0-2.15,20374,List1A,black,man,,,,null,,,,
8617,,,survey-text,93,462506,0.0-13.0-3.15,20374,List1A,black,man,,,,,"{""Q0"":""Fred is dancing with Beth""}","<img src=""stim_listA/dance1.gif""</stim_listA>",is dancing with,
null,"<div style=""font-size:60px;"">+</div>",,html-keyboard-response,94,463015,0.0-13.0-0.16,20374,List1A,black,man,,,,null,,,,
null,"<img src=""stim_listA/kiss5.gif""</stim_listA>",,html-keyboard-response,95,465028,0.0-13.0-1.16,20374,List1A,black,man,,,,null,,,,
null,is kissing,,html-keyboard-response,96,467044,0.0-13.0-2.16,20374,List1A,black,man,,,,null,,,,
14689,,,survey-text,97,481733,0.0-13.0-3.16,20374,List1A,black,man,,,,,"{""Q0"":""Fred is kissing Luke""}","<img src=""stim_listA/kiss5.gif""</stim_listA>",is kissing,
null,"<div style=""font-size:60px;"">+</div>",,html-keyboard-response,98,482243,0.0-13.0-0.17,20374,List1A,black,man,,,,null,,,,
null,"<img src=""stim_listA/dance6.gif""</stim_listA>",,html-keyboard-response,99,484260,0.0-13.0-1.17,20374,List1A,black,man,,,,null,,,,
null,are dancing with each other,,html-keyboard-response,100,486262,0.0-13.0-2.17,20374,List1A,black,man,,,,null,,,,
10172,,,survey-text,101,496436,0.0-13.0-3.17,20374,List1A,black,man,,,,,"{""Q0"":""Fred and Mike are dancing with each other""}","<img src=""stim_listA/dance6.gif""</stim_listA>",are dancing with each other,
null,"<div style=""font-size:60px;"">+</div>",,html-keyboard-response,102,496942,0.0-13.0-0.18,20374,List1A,black,man,,,,null,,,,
null,"<img src=""stim_listA/hug2.gif""</stim_listA>",,html-keyboard-response,103,498953,0.0-13.0-1.18,20374,List1A,black,man,,,,null,,,,
null,are hugging each other,,html-keyboard-response,104,500955,0.0-13.0-2.18,20374,List1A,black,man,,,,null,,,,
7563,,,survey-text,105,508519,0.0-13.0-3.18,20374,List1A,black,man,,,,,"{""Q0"":""Mike and Beth are hugging each other""}","<img src=""stim_listA/hug2.gif""</stim_listA>",are hugging each other,
null,"<div style=""font-size:60px;"">+</div>",,html-keyboard-response,106,509028,0.0-13.0-0.19,20374,List1A,black,man,,,,null,,,,
null,"<img src=""stim_listA/meet3.gif""</stim_listA>",,html-keyboard-response,107,511038,0.0-13.0-1.19,20374,List1A,black,man,,,,null,,,,
null,is meeting,,html-keyboard-response,108,513051,0.0-13.0-2.19,20374,List1A,black,man,,,,null,,,,
4930,,,survey-text,109,517983,0.0-13.0-3.19,20374,List1A,black,man,,,,,"{""Q0"":""Dave is meeting Jane""}","<img src=""stim_listA/meet3.gif""</stim_listA>",is meeting,
14881,"<img src='img/portrait_matrix_list1.JPG' style='width:900px;height:500px;''></img><p>If you have memorised all the portraits and names and are ready to start, press Continue.</p><p><strong>Please note: Your memory of these faces will be tested 4 times during this experiment.</strong></p>",0,html-button-response,110,532866,0.0-14.0-0.0,20374,List1A,black,man,,,,,,,,
3189,"<img src=""portrait/BM2.jpg""style=""width:400px;height:400px;""></img>",5,html-button-response,111,537060,0.0-14.0-1.0,20374,List1A,black,man,,TRUE,5,,,,,
null,CORRECT,,html-keyboard-response,112,538562,0.0-14.0-2.0-0.0,20374,List1A,black,man,,,,null,,,,
2557,"<img src=""portrait/BW2.jpg""style=""width:400px;height:400px;""></img>",2,html-button-response,113,541121,0.0-14.0-4.0,20374,List1A,black,man,,TRUE,2,,,,,
null,CORRECT,,html-keyboard-response,114,542634,0.0-14.0-5.0-0.0,20374,List1A,black,man,,,,null,,,,
4526,"<img src=""portrait/WM1.jpg""style=""width:400px;height:400px;""></img>",6,html-button-response,115,547161,0.0-14.0-7.0,20374,List1A,black,man,,TRUE,6,,,,,
null,CORRECT,,html-keyboard-response,116,548676,0.0-14.0-8.0-0.0,20374,List1A,black,man,,,,null,,,,
2940,"<img src=""portrait/BM1.jpg""style=""width:400px;height:400px;""></img>",4,html-button-response,117,551618,0.0-14.0-10.0,20374,List1A,black,man,,TRUE,4,,,,,
null,CORRECT,,html-keyboard-response,118,553139,0.0-14.0-11.0-0.0,20374,List1A,black,man,,,,null,,,,
3798,"<img src=""portrait/WW1.jpg""style=""width:400px;height:400px;""></img>",1,html-button-response,119,556939,0.0-14.0-13.0,20374,List1A,black,man,,TRUE,1,,,,,
null,CORRECT,,html-keyboard-response,120,558456,0.0-14.0-14.0-0.0,20374,List1A,black,man,,,,null,,,,
5569,"<img src=""portrait/BW1.jpg""style=""width:400px;height:400px;""></img>",0,html-button-response,121,564026,0.0-14.0-16.0,20374,List1A,black,man,,TRUE,0,,,,,
null,CORRECT,,html-keyboard-response,122,565552,0.0-14.0-17.0-0.0,20374,List1A,black,man,,,,null,,,,
2493,"<img src=""portrait/WM2.jpg""style=""width:400px;height:400px;""></img>",7,html-button-response,123,568047,0.0-14.0-19.0,20374,List1A,black,man,,TRUE,7,,,,,
null,CORRECT,,html-keyboard-response,124,569565,0.0-14.0-20.0-0.0,20374,List1A,black,man,,,,null,,,,
2277,"<img src=""portrait/WW2.jpg""style=""width:400px;height:400px;""></img>",3,html-button-response,125,571843,0.0-14.0-22.0,20374,List1A,black,man,,TRUE,3,,,,,
null,CORRECT,,html-keyboard-response,126,573356,0.0-14.0-23.0-0.0,20374,List1A,black,man,,,,null,,,,
1725,<p>You got 8 out of 8 right first time. Press Continue.</p>,0,html-button-response,127,575082,0.0-14.0-25.0,20374,List1A,black,man,,,,,,,,
null,"<div style=""font-size:60px;"">+</div>",,html-keyboard-response,128,576614,0.0-15.0-0.0,20374,List1A,black,man,,,,null,,,,
null,"<img src=""stim_listA/shout7.gif""</stim_listA>",,html-keyboard-response,129,578630,0.0-15.0-1.0,20374,List1A,black,man,,,,null,,,,
null,is shouting at,,html-keyboard-response,130,580644,0.0-15.0-2.0,20374,List1A,black,man,,,,null,,,,
11297,,,survey-text,131,591942,0.0-15.0-3.0,20374,List1A,black,man,,,,,"{""Q0"":""Ruth is shouting at Beth""}","<img src=""stim_listA/shout7.gif""</stim_listA>",is shouting at,
null,"<div style=""font-size:60px;"">+</div>",,html-keyboard-response,132,592445,0.0-15.0-0.1,20374,List1A,black,man,,,,null,,,,
null,"<img src=""stim_listA/talk7.gif""</stim_listA>",,html-keyboard-response,133,594462,0.0-15.0-1.1,20374,List1A,black,man,,,,null,,,,
null,is talking to,,html-keyboard-response,134,596464,0.0-15.0-2.1,20374,List1A,black,man,,,,null,,,,
7274,,,survey-text,135,603739,0.0-15.0-3.1,20374,List1A,black,man,,,,,"{""Q0"":""Jane is talking to Beth""}","<img src=""stim_listA/talk7.gif""</stim_listA>",is talking to,
null,"<div style=""font-size:60px;"">+</div>",,html-keyboard-response,136,604241,0.0-15.0-0.2,20374,List1A,black,man,,,,null,,,,
null,"<img src=""stim_listA/touch6.gif""</stim_listA>",,html-keyboard-response,137,606248,0.0-15.0-1.2,20374,List1A,black,man,,,,null,,,,
null,are touching each other,,html-keyboard-response,138,608250,0.0-15.0-2.2,20374,List1A,black,man,,,,null,,,,
10496,,,survey-text,139,618746,0.0-15.0-3.2,20374,List1A,black,man,,,,,"{""Q0"":""Fred and Luke are touching each other""}","<img src=""stim_listA/touch6.gif""</stim_listA>",are touching each other,
null,"<div style=""font-size:60px;"">+</div>",,html-keyboard-response,140,619254,0.0-15.0-0.3,20374,List1A,black,man,,,,null,,,,
null,"<img src=""stim_listA/hug8.gif""</stim_listA>",,html-keyboard-response,141,621271,0.0-15.0-1.3,20374,List1A,black,man,,,,null,,,,
null,are hugging each other,,html-keyboard-response,142,623273,0.0-15.0-2.3,20374,List1A,black,man,,,,null,,,,
9534,,,survey-text,143,632808,0.0-15.0-3.3,20374,List1A,black,man,,,,,"{""Q0"":""Jane and Kate are hugging each other""}","<img src=""stim_listA/hug8.gif""</stim_listA>",are hugging each other,
null,"<div style=""font-size:60px;"">+</div>",,html-keyboard-response,144,633312,0.0-15.0-0.4,20374,List1A,black,man,,,,null,,,,
null,"<img src=""stim_listA/fight7.gif""</stim_listA>",,html-keyboard-response,145,635315,0.0-15.0-1.4,20374,List1A,black,man,,,,null,,,,
null,is fighting,,html-keyboard-response,146,637316,0.0-15.0-2.4,20374,List1A,black,man,,,,null,,,,
8861,,,survey-text,147,646179,0.0-15.0-3.4,20374,List1A,black,man,,,,,"{""Q0"":""Kate is fighting Jane""}","<img src=""stim_listA/fight7.gif""</stim_listA>",is fighting,
null,"<div style=""font-size:60px;"">+</div>",,html-keyboard-response,148,646696,0.0-15.0-0.5,20374,List1A,black,man,,,,null,,,,
null,"<img src=""stim_listA/fight6.gif""</stim_listA>",,html-keyboard-response,149,648701,0.0-15.0-1.5,20374,List1A,black,man,,,,null,,,,
null,are fighting each other,,html-keyboard-response,150,650721,0.0-15.0-2.5,20374,List1A,black,man,,,,null,,,,
9374,,,survey-text,151,660096,0.0-15.0-3.5,20374,List1A,black,man,,,,,"{""Q0"":""Fredand Luke are fighting each other""}","<img src=""stim_listA/fight6.gif""</stim_listA>",are fighting each other,
null,"<div style=""font-size:60px;"">+</div>",,html-keyboard-response,152,660607,0.0-15.0-0.6,20374,List1A,black,man,,,,null,,,,
null,"<img src=""stim_listA/meet7.gif""</stim_listA>",,html-keyboard-response,153,662612,0.0-15.0-1.6,20374,List1A,black,man,,,,null,,,,
null,is meeting,,html-keyboard-response,154,664614,0.0-15.0-2.6,20374,List1A,black,man,,,,null,,,,
6232,,,survey-text,155,670847,0.0-15.0-3.6,20374,List1A,black,man,,,,,"{""Q0"":""Jane is meeting Beth""}","<img src=""stim_listA/meet7.gif""</stim_listA>",is meeting,
null,"<div style=""font-size:60px;"">+</div>",,html-keyboard-response,156,671354,0.0-15.0-0.7,20374,List1A,black,man,,,,null,,,,
null,"<img src=""stim_listA/fight2.gif""</stim_listA>",,html-keyboard-response,157,673371,0.0-15.0-1.7,20374,List1A,black,man,,,,null,,,,
null,are fighting each other,,html-keyboard-response,158,675381,0.0-15.0-2.7,20374,List1A,black,man,,,,null,,,,
12055,,,survey-text,159,687437,0.0-15.0-3.7,20374,List1A,black,man,,,,,"{""Q0"":""Beth and Fred are fighting each other""}","<img src=""stim_listA/fight2.gif""</stim_listA>",are fighting each other,
null,"<div style=""font-size:60px;"">+</div>",,html-keyboard-response,160,687950,0.0-15.0-0.8,20374,List1A,black,man,,,,null,,,,
null,"<img src=""stim_listA/argue8.gif""</stim_listA>",,html-keyboard-response,161,689963,0.0-15.0-1.8,20374,List1A,black,man,,,,null,,,,
null,are arguing with each other,,html-keyboard-response,162,691978,0.0-15.0-2.8,20374,List1A,black,man,,,,null,,,,
13277,,,survey-text,163,705255,0.0-15.0-3.8,20374,List1A,black,man,,,,,"{""Q0"":""Jane and Beth are arguing with each other""}","<img src=""stim_listA/argue8.gif""</stim_listA>",are arguing with each other,
null,"<div style=""font-size:60px;"">+</div>",,html-keyboard-response,164,705763,0.0-15.0-0.9,20374,List1A,black,man,,,,null,,,,
null,"<img src=""stim_listA/meet4.gif""</stim_listA>",,html-keyboard-response,165,707773,0.0-15.0-1.9,20374,List1A,black,man,,,,null,,,,
null,are meeting each other,,html-keyboard-response,166,709780,0.0-15.0-2.9,20374,List1A,black,man,,,,null,,,,
15904,,,survey-text,167,725686,0.0-15.0-3.9,20374,List1A,black,man,,,,,"{""Q0"":""Luke and Ruth are meeting each other""}","<img src=""stim_listA/meet4.gif""</stim_listA>",are meeting each other,
null,"<div style=""font-size:60px;"">+</div>",,html-keyboard-response,168,726190,0.0-15.0-0.10,20374,List1A,black,man,,,,null,,,,
null,"<img src=""stim_listA/fight5.gif""</stim_listA>",,html-keyboard-response,169,728203,0.0-15.0-1.10,20374,List1A,black,man,,,,null,,,,
null,is fighting,,html-keyboard-response,170,730207,0.0-15.0-2.10,20374,List1A,black,man,,,,null,,,,
8411,,,survey-text,171,738620,0.0-15.0-3.10,20374,List1A,black,man,,,,,"{""Q0"":""Mike is fighting Dave""}","<img src=""stim_listA/fight5.gif""</stim_listA>",is fighting,
null,"<div style=""font-size:60px;"">+</div>",,html-keyboard-response,172,739135,0.0-15.0-0.11,20374,List1A,black,man,,,,null,,,,
null,"<img src=""stim_listA/fight4.gif""</stim_listA>",,html-keyboard-response,173,741152,0.0-15.0-1.11,20374,List1A,black,man,,,,null,,,,
null,are fighting each other,,html-keyboard-response,174,743154,0.0-15.0-2.11,20374,List1A,black,man,,,,null,,,,
7393,,,survey-text,175,750549,0.0-15.0-3.11,20374,List1A,black,man,,,,,"{""Q0"":""Ruth and Luke are fighting each other""}","<img src=""stim_listA/fight4.gif""</stim_listA>",are fighting each other,
null,"<div style=""font-size:60px;"">+</div>",,html-keyboard-response,176,751054,0.0-15.0-0.12,20374,List1A,black,man,,,,null,,,,
null,"<img src=""stim_listA/fight1.gif""</stim_listA>",,html-keyboard-response,177,753071,0.0-15.0-1.12,20374,List1A,black,man,,,,null,,,,
null,is fighting,,html-keyboard-response,178,755084,0.0-15.0-2.12,20374,List1A,black,man,,,,null,,,,
9309,,,survey-text,179,764395,0.0-15.0-3.12,20374,List1A,black,man,,,,,"{""Q0"":""Mike is fighting Kate""}","<img src=""stim_listA/fight1.gif""</stim_listA>",is fighting,
null,"<div style=""font-size:60px;"">+</div>",,html-keyboard-response,180,764901,0.0-15.0-0.13,20374,List1A,black,man,,,,null,,,,
null,"<img src=""stim_listA/talk1.gif""</stim_listA>",,html-keyboard-response,181,766916,0.0-15.0-1.13,20374,List1A,black,man,,,,null,,,,
null,is talking to,,html-keyboard-response,182,768927,0.0-15.0-2.13,20374,List1A,black,man,,,,null,,,,
7133,,,survey-text,183,776062,0.0-15.0-3.13,20374,List1A,black,man,,,,,"{""Q0"":""Fred is talking to Kate""}","<img src=""stim_listA/talk1.gif""</stim_listA>",is talking to,
null,"<div style=""font-size:60px;"">+</div>",,html-keyboard-response,184,776579,0.0-15.0-0.14,20374,List1A,black,man,,,,null,,,,
null,"<img src=""stim_listA/argue7.gif""</stim_listA>",,html-keyboard-response,185,778590,0.0-15.0-1.14,20374,List1A,black,man,,,,null,,,,
null,is arguing with,,html-keyboard-response,186,780592,0.0-15.0-2.14,20374,List1A,black,man,,,,null,,,,
11082,,,survey-text,187,791674,0.0-15.0-3.14,20374,List1A,black,man,,,,,"{""Q0"":""Kate is arguing with Ruth""}","<img src=""stim_listA/argue7.gif""</stim_listA>",is arguing with,
null,"<div style=""font-size:60px;"">+</div>",,html-keyboard-response,188,792175,0.0-15.0-0.15,20374,List1A,black,man,,,,null,,,,
null,"<img src=""stim_listA/touch2.gif""</stim_listA>",,html-keyboard-response,189,794184,0.0-15.0-1.15,20374,List1A,black,man,,,,null,,,,
null,are touching each other,,html-keyboard-response,190,796200,0.0-15.0-2.15,20374,List1A,black,man,,,,null,,,,
8699,,,survey-text,191,804900,0.0-15.0-3.15,20374,List1A,black,man,,,,,"{""Q0"":""Fred and Beth are touching each other""}","<img src=""stim_listA/touch2.gif""</stim_listA>",are touching each other,
null,"<div style=""font-size:60px;"">+</div>",,html-keyboard-response,192,805405,0.0-15.0-0.16,20374,List1A,black,man,,,,null,,,,
null,"<img src=""stim_listA/dance5.gif""</stim_listA>",,html-keyboard-response,193,807423,0.0-15.0-1.16,20374,List1A,black,man,,,,null,,,,
null,is dancing with,,html-keyboard-response,194,809428,0.0-15.0-2.16,20374,List1A,black,man,,,,null,,,,
5591,,,survey-text,195,815019,0.0-15.0-3.16,20374,List1A,black,man,,,,,"{""Q0"":""Fred is dancing with Dave""}","<img src=""stim_listA/dance5.gif""</stim_listA>",is dancing with,
null,"<div style=""font-size:60px;"">+</div>",,html-keyboard-response,196,815527,0.0-15.0-0.17,20374,List1A,black,man,,,,null,,,,
null,"<img src=""stim_listA/hug7.gif""</stim_listA>",,html-keyboard-response,197,817530,0.0-15.0-1.17,20374,List1A,black,man,,,,null,,,,
null,is hugging,,html-keyboard-response,198,819532,0.0-15.0-2.17,20374,List1A,black,man,,,,null,,,,
7119,,,survey-text,199,826653,0.0-15.0-3.17,20374,List1A,black,man,,,,,"{""Q0"":""Ruth is hugging Beth""}","<img src=""stim_listA/hug7.gif""</stim_listA>",is hugging,
null,"<div style=""font-size:60px;"">+</div>",,html-keyboard-response,200,827166,0.0-15.0-0.18,20374,List1A,black,man,,,,null,,,,
null,"<img src=""stim_listA/hug6.gif""</stim_listA>",,html-keyboard-response,201,829175,0.0-15.0-1.18,20374,List1A,black,man,,,,null,,,,
null,are hugging each other,,html-keyboard-response,202,831182,0.0-15.0-2.18,20374,List1A,black,man,,,,null,,,,
9994,,,survey-text,203,841177,0.0-15.0-3.18,20374,List1A,black,man,,,,,"{""Q0"":""Dave and Mike are hugging each other""}","<img src=""stim_listA/hug6.gif""</stim_listA>",are hugging each other,
null,"<div style=""font-size:60px;"">+</div>",,html-keyboard-response,204,841682,0.0-15.0-0.19,20374,List1A,black,man,,,,null,,,,
null,"<img src=""stim_listA/dance2.gif""</stim_listA>",,html-keyboard-response,205,843690,0.0-15.0-1.19,20374,List1A,black,man,,,,null,,,,
null,are dancing with each other,,html-keyboard-response,206,845697,0.0-15.0-2.19,20374,List1A,black,man,,,,null,,,,
8077,,,survey-text,207,853775,0.0-15.0-3.19,20374,List1A,black,man,,,,,"{""Q0"":""Beth and Mike are dancing with each other""}","<img src=""stim_listA/dance2.gif""</stim_listA>",are dancing with each other,
155302,"<img src='img/portrait_matrix_list1.JPG' style='width:900px;height:500px;''></img><p>If you have memorised all the portraits and names and are ready to start, press Continue.</p><p><strong>Please note: Your memory of these faces will be tested 4 times during this experiment.</strong></p>",0,html-button-response,208,1009078,0.0-16.0-0.0,20374,List1A,black,man,,,,,,,,
5313,"<img src=""portrait/WM2.jpg""style=""width:400px;height:400px;""></img>",7,html-button-response,209,1015399,0.0-16.0-1.0,20374,List1A,black,man,,TRUE,7,,,,,
null,CORRECT,,html-keyboard-response,210,1016911,0.0-16.0-2.0-0.0,20374,List1A,black,man,,,,null,,,,
3273,"<img src=""portrait/WM1.jpg""style=""width:400px;height:400px;""></img>",6,html-button-response,211,1020186,0.0-16.0-4.0,20374,List1A,black,man,,TRUE,6,,,,,
null,CORRECT,,html-keyboard-response,212,1021710,0.0-16.0-5.0-0.0,20374,List1A,black,man,,,,null,,,,
2426,"<img src=""portrait/BM2.jpg""style=""width:400px;height:400px;""></img>",5,html-button-response,213,1024138,0.0-16.0-7.0,20374,List1A,black,man,,TRUE,5,,,,,
null,CORRECT,,html-keyboard-response,214,1025662,0.0-16.0-8.0-0.0,20374,List1A,black,man,,,,null,,,,
2102,"<img src=""portrait/BW1.jpg""style=""width:400px;height:400px;""></img>",0,html-button-response,215,1027766,0.0-16.0-10.0,20374,List1A,black,man,,TRUE,0,,,,,
null,CORRECT,,html-keyboard-response,216,1029283,0.0-16.0-11.0-0.0,20374,List1A,black,man,,,,null,,,,
2981,"<img src=""portrait/BM1.jpg""style=""width:400px;height:400px;""></img>",4,html-button-response,217,1032266,0.0-16.0-13.0,20374,List1A,black,man,,TRUE,4,,,,,
null,CORRECT,,html-keyboard-response,218,1033781,0.0-16.0-14.0-0.0,20374,List1A,black,man,,,,null,,,,
2141,"<img src=""portrait/BW2.jpg""style=""width:400px;height:400px;""></img>",2,html-button-response,219,1035923,0.0-16.0-16.0,20374,List1A,black,man,,TRUE,2,,,,,
null,CORRECT,,html-keyboard-response,220,1037446,0.0-16.0-17.0-0.0,20374,List1A,black,man,,,,null,,,,
2803,"<img src=""portrait/WW1.jpg""style=""width:400px;height:400px;""></img>",1,html-button-response,221,1040250,0.0-16.0-19.0,20374,List1A,black,man,,TRUE,1,,,,,
null,CORRECT,,html-keyboard-response,222,1041764,0.0-16.0-20.0-0.0,20374,List1A,black,man,,,,null,,,,
3867,"<img src=""portrait/WW2.jpg""style=""width:400px;height:400px;""></img>",3,html-button-response,223,1045634,0.0-16.0-22.0,20374,List1A,black,man,,TRUE,3,,,,,
null,CORRECT,,html-keyboard-response,224,1047158,0.0-16.0-23.0-0.0,20374,List1A,black,man,,,,null,,,,
1665,<p>You got 8 out of 8 right first time. Press Continue.</p>,0,html-button-response,225,1048824,0.0-16.0-25.0,20374,List1A,black,man,,,,,,,,
null,"<div style=""font-size:60px;"">+</div>",,html-keyboard-response,226,1050347,0.0-17.0-0.0,20374,List1A,black,man,,,,null,,,,
null,"<img src=""stim_listA/marry7.gif""</stim_listA>",,html-keyboard-response,227,1052355,0.0-17.0-1.0,20374,List1A,black,man,,,,null,,,,
null,is marrying,,html-keyboard-response,228,1054360,0.0-17.0-2.0,20374,List1A,black,man,,,,null,,,,
6167,,,survey-text,229,1060528,0.0-17.0-3.0,20374,List1A,black,man,,,,,"{""Q0"":""Ruth is marrying Kate""}","<img src=""stim_listA/marry7.gif""</stim_listA>",is marrying,
null,"<div style=""font-size:60px;"">+</div>",,html-keyboard-response,230,1061043,0.0-17.0-0.1,20374,List1A,black,man,,,,null,,,,
null,"<img src=""stim_listA/shout5.gif""</stim_listA>",,html-keyboard-response,231,1063058,0.0-17.0-1.1,20374,List1A,black,man,,,,null,,,,
null,is shouting at,,html-keyboard-response,232,1065069,0.0-17.0-2.1,20374,List1A,black,man,,,,null,,,,
13383,,,survey-text,233,1078453,0.0-17.0-3.1,20374,List1A,black,man,,,,,"{""Q0"":""Fred is shouting at Luke""}","<img src=""stim_listA/shout5.gif""</stim_listA>",is shouting at,
null,"<div style=""font-size:60px;"">+</div>",,html-keyboard-response,234,1078965,0.0-17.0-0.2,20374,List1A,black,man,,,,null,,,,
null,"<img src=""stim_listA/marry8.gif""</stim_listA>",,html-keyboard-response,235,1080980,0.0-17.0-1.2,20374,List1A,black,man,,,,null,,,,
null,are marrying each other,,html-keyboard-response,236,1082995,0.0-17.0-2.2,20374,List1A,black,man,,,,null,,,,
10517,,,survey-text,237,1093513,0.0-17.0-3.2,20374,List1A,black,man,,,,,"{""Q0"":""Beth and Jane are marrying each other""}","<img src=""stim_listA/marry8.gif""</stim_listA>",are marrying each other,
null,"<div style=""font-size:60px;"">+</div>",,html-keyboard-response,238,1094021,0.0-17.0-0.3,20374,List1A,black,man,,,,null,,,,
null,"<img src=""stim_listA/shout3.gif""</stim_listA>",,html-keyboard-response,239,1096038,0.0-17.0-1.3,20374,List1A,black,man,,,,null,,,,
null,is shouting at,,html-keyboard-response,240,1098041,0.0-17.0-2.3,20374,List1A,black,man,,,,null,,,,
7128,,,survey-text,241,1105170,0.0-17.0-3.3,20374,List1A,black,man,,,,,"{""Q0"":""Luke is shouting at Ruth""}","<img src=""stim_listA/shout3.gif""</stim_listA>",is shouting at,
null,"<div style=""font-size:60px;"">+</div>",,html-keyboard-response,242,1105672,0.0-17.0-0.4,20374,List1A,black,man,,,,null,,,,
null,"<img src=""stim_listA/marry3.gif""</stim_listA>",,html-keyboard-response,243,1107686,0.0-17.0-1.4,20374,List1A,black,man,,,,null,,,,
null,is marrying,,html-keyboard-response,244,1109688,0.0-17.0-2.4,20374,List1A,black,man,,,,null,,,,
7382,,,survey-text,245,1117071,0.0-17.0-3.4,20374,List1A,black,man,,,,,"{""Q0"":""Ruth is marrying Dave""}","<img src=""stim_listA/marry3.gif""</stim_listA>",is marrying,
null,"<div style=""font-size:60px;"">+</div>",,html-keyboard-response,246,1117584,0.0-17.0-0.5,20374,List1A,black,man,,,,null,,,,
null,"<img src=""stim_listA/fight3.gif""</stim_listA>",,html-keyboard-response,247,1119588,0.0-17.0-1.5,20374,List1A,black,man,,,,null,,,,
null,is fighting,,html-keyboard-response,248,1121590,0.0-17.0-2.5,20374,List1A,black,man,,,,null,,,,
10658,,,survey-text,249,1132249,0.0-17.0-3.5,20374,List1A,black,man,,,,,"{""Q0"":""Dave is fighting Jane""}","<img src=""stim_listA/fight3.gif""</stim_listA>",is fighting,
null,"<div style=""font-size:60px;"">+</div>",,html-keyboard-response,250,1132753,0.0-17.0-0.6,20374,List1A,black,man,,,,null,,,,
null,"<img src=""stim_listA/dance3.gif""</stim_listA>",,html-keyboard-response,251,1134770,0.0-17.0-1.6,20374,List1A,black,man,,,,null,,,,
null,is dancing with,,html-keyboard-response,252,1136781,0.0-17.0-2.6,20374,List1A,black,man,,,,null,,,,
6819,,,survey-text,253,1143602,0.0-17.0-3.6,20374,List1A,black,man,,,,,"{""Q0"":""Jane is dancing with Luke""}","<img src=""stim_listA/dance3.gif""</stim_listA>",is dancing with,
null,"<div style=""font-size:60px;"">+</div>",,html-keyboard-response,254,1144115,0.0-17.0-0.7,20374,List1A,black,man,,,,null,,,,
null,"<img src=""stim_listA/touch5.gif""</stim_listA>",,html-keyboard-response,255,1146128,0.0-17.0-1.7,20374,List1A,black,man,,,,null,,,,
null,is touching,,html-keyboard-response,256,1148142,0.0-17.0-2.7,20374,List1A,black,man,,,,null,,,,
8232,,,survey-text,257,1156375,0.0-17.0-3.7,20374,List1A,black,man,,,,,"{""Q0"":""Dave is touching Mike""}","<img src=""stim_listA/touch5.gif""</stim_listA>",is touching,
null,"<div style=""font-size:60px;"">+</div>",,html-keyboard-response,258,1156882,0.0-17.0-0.8,20374,List1A,black,man,,,,null,,,,
null,"<img src=""stim_listA/kiss8.gif""</stim_listA>",,html-keyboard-response,259,1158896,0.0-17.0-1.8,20374,List1A,black,man,,,,null,,,,
null,are kissing each other,,html-keyboard-response,260,1160898,0.0-17.0-2.8,20374,List1A,black,man,,,,null,,,,
9377,,,survey-text,261,1170276,0.0-17.0-3.8,20374,List1A,black,man,,,,,"{""Q0"":""Beth and Kate are kissing each other""}","<img src=""stim_listA/kiss8.gif""</stim_listA>",are kissing each other,
null,"<div style=""font-size:60px;"">+</div>",,html-keyboard-response,262,1170779,0.0-17.0-0.9,20374,List1A,black,man,,,,null,,,,
null,"<img src=""stim_listA/hug5.gif""</stim_listA>",,html-keyboard-response,263,1172785,0.0-17.0-1.9,20374,List1A,black,man,,,,null,,,,
null,is hugging,,html-keyboard-response,264,1174800,0.0-17.0-2.9,20374,List1A,black,man,,,,null,,,,
6185,,,survey-text,265,1180985,0.0-17.0-3.9,20374,List1A,black,man,,,,,"{""Q0"":""Fred is hugging Luke""}","<img src=""stim_listA/hug5.gif""</stim_listA>",is hugging,
null,"<div style=""font-size:60px;"">+</div>",,html-keyboard-response,266,1181487,0.0-17.0-0.10,20374,List1A,black,man,,,,null,,,,
null,"<img src=""stim_listA/hug4.gif""</stim_listA>",,html-keyboard-response,267,1183492,0.0-17.0-1.10,20374,List1A,black,man,,,,null,,,,
null,are hugging each other,,html-keyboard-response,268,1185503,0.0-17.0-2.10,20374,List1A,black,man,,,,null,,,,
11197,,,survey-text,269,1196701,0.0-17.0-3.10,20374,List1A,black,man,,,,,"{""Q0"":""Dave and Jane are hugging each other""}","<img src=""stim_listA/hug4.gif""</stim_listA>",are hugging each other,
null,"<div style=""font-size:60px;"">+</div>",,html-keyboard-response,270,1197217,0.0-17.0-0.11,20374,List1A,black,man,,,,null,,,,
null,"<img src=""stim_listA/kiss1.gif""</stim_listA>",,html-keyboard-response,271,1199226,0.0-17.0-1.11,20374,List1A,black,man,,,,null,,,,
null,is kissing,,html-keyboard-response,272,1201233,0.0-17.0-2.11,20374,List1A,black,man,,,,null,,,,
8277,,,survey-text,273,1209511,0.0-17.0-3.11,20374,List1A,black,man,,,,,"{""Q0"":""Fred is kissing Beth""}","<img src=""stim_listA/kiss1.gif""</stim_listA>",is kissing,
null,"<div style=""font-size:60px;"">+</div>",,html-keyboard-response,274,1210028,0.0-17.0-0.12,20374,List1A,black,man,,,,null,,,,
null,"<img src=""stim_listA/meet8.gif""</stim_listA>",,html-keyboard-response,275,1212035,0.0-17.0-1.12,20374,List1A,black,man,,,,null,,,,
null,are meeting each other,,html-keyboard-response,276,1214037,0.0-17.0-2.12,20374,List1A,black,man,,,,null,,,,
9207,,,survey-text,277,1223246,0.0-17.0-3.12,20374,List1A,black,man,,,,,"{""Q0"":""Ruth and Kate are meeting each other""}","<img src=""stim_listA/meet8.gif""</stim_listA>",are meeting each other,
null,"<div style=""font-size:60px;"">+</div>",,html-keyboard-response,278,1223747,0.0-17.0-0.13,20374,List1A,black,man,,,,null,,,,
null,"<img src=""stim_listA/marry4.gif""</stim_listA>",,html-keyboard-response,279,1225761,0.0-17.0-1.13,20374,List1A,black,man,,,,null,,,,
null,are marrying each other,,html-keyboard-response,280,1227768,0.0-17.0-2.13,20374,List1A,black,man,,,,null,,,,
7666,,,survey-text,281,1235436,0.0-17.0-3.13,20374,List1A,black,man,,,,,"{""Q0"":""Jane and Luke are marrying each other""}","<img src=""stim_listA/marry4.gif""</stim_listA>",are marrying each other,
null,"<div style=""font-size:60px;"">+</div>",,html-keyboard-response,282,1235943,0.0-17.0-0.14,20374,List1A,black,man,,,,null,,,,
null,"<img src=""stim_listA/touch4.gif""</stim_listA>",,html-keyboard-response,283,1237961,0.0-17.0-1.14,20374,List1A,black,man,,,,null,,,,
null,are touching each other,,html-keyboard-response,284,1239976,0.0-17.0-2.14,20374,List1A,black,man,,,,null,,,,
10830,,,survey-text,285,1250807,0.0-17.0-3.14,20374,List1A,black,man,,,,,"{""Q0"":""Ruth and Luke are touching each other""}","<img src=""stim_listA/touch4.gif""</stim_listA>",are touching each other,
null,"<div style=""font-size:60px;"">+</div>",,html-keyboard-response,286,1251324,0.0-17.0-0.15,20374,List1A,black,man,,,,null,,,,
null,"<img src=""stim_listA/talk3.gif""</stim_listA>",,html-keyboard-response,287,1253339,0.0-17.0-1.15,20374,List1A,black,man,,,,null,,,,
null,is talking to,,html-keyboard-response,288,1255350,0.0-17.0-2.15,20374,List1A,black,man,,,,null,,,,
6489,,,survey-text,289,1261841,0.0-17.0-3.15,20374,List1A,black,man,,,,,"{""Q0"":""Luke is talking to Jane""}","<img src=""stim_listA/talk3.gif""</stim_listA>",is talking to,
null,"<div style=""font-size:60px;"">+</div>",,html-keyboard-response,290,1262343,0.0-17.0-0.16,20374,List1A,black,man,,,,null,,,,
null,"<img src=""stim_listA/argue2.gif""</stim_listA>",,html-keyboard-response,291,1264358,0.0-17.0-1.16,20374,List1A,black,man,,,,null,,,,
null,are arguing with each other,,html-keyboard-response,292,1266360,0.0-17.0-2.16,20374,List1A,black,man,,,,null,,,,
12502,,,survey-text,293,1278863,0.0-17.0-3.16,20374,List1A,black,man,,,,,"{""Q0"":""Fred and Kate are arguing with each other""}","<img src=""stim_listA/argue2.gif""</stim_listA>",are arguing with each other,
null,"<div style=""font-size:60px;"">+</div>",,html-keyboard-response,294,1279372,0.0-17.0-0.17,20374,List1A,black,man,,,,null,,,,
null,"<img src=""stim_listA/shout2.gif""</stim_listA>",,html-keyboard-response,295,1281376,0.0-17.0-1.17,20374,List1A,black,man,,,,null,,,,
null,are shouting at each other,,html-keyboard-response,296,1283378,0.0-17.0-2.17,20374,List1A,black,man,,,,null,,,,
7733,,,survey-text,297,1291113,0.0-17.0-3.17,20374,List1A,black,man,,,,,"{""Q0"":""Kate and Mike are shouting at each other""}","<img src=""stim_listA/shout2.gif""</stim_listA>",are shouting at each other,
null,"<div style=""font-size:60px;"">+</div>",,html-keyboard-response,298,1291615,0.0-17.0-0.18,20374,List1A,black,man,,,,null,,,,
null,"<img src=""stim_listA/dance7.gif""</stim_listA>",,html-keyboard-response,299,1293618,0.0-17.0-1.18,20374,List1A,black,man,,,,null,,,,
null,is dancing with,,html-keyboard-response,300,1295626,0.0-17.0-2.18,20374,List1A,black,man,,,,null,,,,
7194,,,survey-text,301,1302822,0.0-17.0-3.18,20374,List1A,black,man,,,,,"{""Q0"":""Beth is dancing with Jane""}","<img src=""stim_listA/dance7.gif""</stim_listA>",is dancing with,
null,"<div style=""font-size:60px;"">+</div>",,html-keyboard-response,302,1303334,0.0-17.0-0.19,20374,List1A,black,man,,,,null,,,,
null,"<img src=""stim_listA/kiss6.gif""</stim_listA>",,html-keyboard-response,303,1305349,0.0-17.0-1.19,20374,List1A,black,man,,,,null,,,,
null,are kissing each other,,html-keyboard-response,304,1307362,0.0-17.0-2.19,20374,List1A,black,man,,,,null,,,,
6802,,,survey-text,305,1314166,0.0-17.0-3.19,20374,List1A,black,man,,,,,"{""Q0"":""Dave and Mike are kissing each other""}","<img src=""stim_listA/kiss6.gif""</stim_listA>",are kissing each other,
44936,"<img src='img/portrait_matrix_list1.JPG' style='width:900px;height:500px;''></img><p>If you have memorised all the portraits and names and are ready to start, press Continue.</p><p><strong>Please note: Your memory of these faces will be tested 4 times during this experiment.</strong></p>",0,html-button-response,306,1359104,0.0-18.0-0.0,20374,List1A,black,man,,,,,,,,
3515,"<img src=""portrait/BW2.jpg""style=""width:400px;height:400px;""></img>",2,html-button-response,307,1363636,0.0-18.0-1.0,20374,List1A,black,man,,TRUE,2,,,,,
null,CORRECT,,html-keyboard-response,308,1365158,0.0-18.0-2.0-0.0,20374,List1A,black,man,,,,null,,,,
1982,"<img src=""portrait/BM1.jpg""style=""width:400px;height:400px;""></img>",4,html-button-response,309,1367141,0.0-18.0-4.0,20374,List1A,black,man,,TRUE,4,,,,,
null,CORRECT,,html-keyboard-response,310,1368653,0.0-18.0-5.0-0.0,20374,List1A,black,man,,,,null,,,,
3342,"<img src=""portrait/WM2.jpg""style=""width:400px;height:400px;""></img>",7,html-button-response,311,1371997,0.0-18.0-7.0,20374,List1A,black,man,,TRUE,7,,,,,
null,CORRECT,,html-keyboard-response,312,1373514,0.0-18.0-8.0-0.0,20374,List1A,black,man,,,,null,,,,
3033,"<img src=""portrait/WW2.jpg""style=""width:400px;height:400px;""></img>",3,html-button-response,313,1376548,0.0-18.0-10.0,20374,List1A,black,man,,TRUE,3,,,,,
null,CORRECT,,html-keyboard-response,314,1378061,0.0-18.0-11.0-0.0,20374,List1A,black,man,,,,null,,,,
3190,"<img src=""portrait/BW1.jpg""style=""width:400px;height:400px;""></img>",0,html-button-response,315,1381252,0.0-18.0-13.0,20374,List1A,black,man,,TRUE,0,,,,,
null,CORRECT,,html-keyboard-response,316,1382772,0.0-18.0-14.0-0.0,20374,List1A,black,man,,,,null,,,,
2743,"<img src=""portrait/BM2.jpg""style=""width:400px;height:400px;""></img>",5,html-button-response,317,1385517,0.0-18.0-16.0,20374,List1A,black,man,,TRUE,5,,,,,
null,CORRECT,,html-keyboard-response,318,1387028,0.0-18.0-17.0-0.0,20374,List1A,black,man,,,,null,,,,
2528,"<img src=""portrait/WM1.jpg""style=""width:400px;height:400px;""></img>",6,html-button-response,319,1389558,0.0-18.0-19.0,20374,List1A,black,man,,TRUE,6,,,,,
null,CORRECT,,html-keyboard-response,320,1391075,0.0-18.0-20.0-0.0,20374,List1A,black,man,,,,null,,,,
16000,"<img src=""portrait/WW1.jpg""style=""width:400px;height:400px;""></img>",1,html-button-response,321,1407076,0.0-18.0-22.0,20374,List1A,black,man,,TRUE,1,,,,,
null,CORRECT,,html-keyboard-response,322,1408602,0.0-18.0-23.0-0.0,20374,List1A,black,man,,,,null,,,,
14520,<p>You got 8 out of 8 right first time. Press Continue.</p>,0,html-button-response,323,1423124,0.0-18.0-25.0,20374,List1A,black,man,,,,,,,,
null,"<div style=""font-size:60px;"">+</div>",,html-keyboard-response,324,1424639,0.0-19.0-0.0,20374,List1A,black,man,,,,null,,,,
null,"<img src=""stim_listA/touch1.gif""</stim_listA>",,html-keyboard-response,325,1426657,0.0-19.0-1.0,20374,List1A,black,man,,,,null,,,,
null,is touching,,html-keyboard-response,326,1428672,0.0-19.0-2.0,20374,List1A,black,man,,,,null,,,,
9222,,,survey-text,327,1437896,0.0-19.0-3.0,20374,List1A,black,man,,,,,"{""Q0"":""Kate is touching Mike""}","<img src=""stim_listA/touch1.gif""</stim_listA>",is touching,
null,"<div style=""font-size:60px;"">+</div>",,html-keyboard-response,328,1438399,0.0-19.0-0.1,20374,List1A,black,man,,,,null,,,,
null,"<img src=""stim_listA/talk2.gif""</stim_listA>",,html-keyboard-response,329,1440409,0.0-19.0-1.1,20374,List1A,black,man,,,,null,,,,
null,are talking to each other,,html-keyboard-response,330,1442425,0.0-19.0-2.1,20374,List1A,black,man,,,,null,,,,
11253,,,survey-text,331,1453680,0.0-19.0-3.1,20374,List1A,black,man,,,,,"{""Q0"":""Beth and Mike are talking to each other""}","<img src=""stim_listA/talk2.gif""</stim_listA>",are talking to each other,
null,"<div style=""font-size:60px;"">+</div>",,html-keyboard-response,332,1454195,0.0-19.0-0.2,20374,List1A,black,man,,,,null,,,,
null,"<img src=""stim_listA/marry2.gif""</stim_listA>",,html-keyboard-response,333,1456203,0.0-19.0-1.2,20374,List1A,black,man,,,,null,,,,
null,are marrying each other,,html-keyboard-response,334,1458210,0.0-19.0-2.2,20374,List1A,black,man,,,,null,,,,
9534,,,survey-text,335,1467745,0.0-19.0-3.2,20374,List1A,black,man,,,,,"{""Q0"":""Kate and Fred are marrying each other""}","<img src=""stim_listA/marry2.gif""</stim_listA>",are marrying each other,
null,"<div style=""font-size:60px;"">+</div>",,html-keyboard-response,336,1468259,0.0-19.0-0.3,20374,List1A,black,man,,,,null,,,,
null,"<img src=""stim_listA/fight8.gif""</stim_listA>",,html-keyboard-response,337,1470273,0.0-19.0-1.3,20374,List1A,black,man,,,,null,,,,
null,are fighting each other,,html-keyboard-response,338,1472289,0.0-19.0-2.3,20374,List1A,black,man,,,,null,,,,
14252,,,survey-text,339,1486542,0.0-19.0-3.3,20374,List1A,black,man,,,,,"{""Q0"":""Ruth and Beth are fighting each other""}","<img src=""stim_listA/fight8.gif""</stim_listA>",are fighting each other,
null,"<div style=""font-size:60px;"">+</div>",,html-keyboard-response,340,1487052,0.0-19.0-0.4,20374,List1A,black,man,,,,null,,,,
null,"<img src=""stim_listA/argue6.gif""</stim_listA>",,html-keyboard-response,341,1489058,0.0-19.0-1.4,20374,List1A,black,man,,,,null,,,,
null,are arguing with each other,,html-keyboard-response,342,1491062,0.0-19.0-2.4,20374,List1A,black,man,,,,null,,,,
13705,,,survey-text,343,1504768,0.0-19.0-3.4,20374,List1A,black,man,,,,,"{""Q0"":""Dave and Fred are arguing with each other""}","<img src=""stim_listA/argue6.gif""</stim_listA>",are arguing with each other,
null,"<div style=""font-size:60px;"">+</div>",,html-keyboard-response,344,1505271,0.0-19.0-0.5,20374,List1A,black,man,,,,null,,,,
null,"<img src=""stim_listA/shout8.gif""</stim_listA>",,html-keyboard-response,345,1507286,0.0-19.0-1.5,20374,List1A,black,man,,,,null,,,,
null,are shouting at each other,,html-keyboard-response,346,1509287,0.0-19.0-2.5,20374,List1A,black,man,,,,null,,,,
38752,,,survey-text,347,1548040,0.0-19.0-3.5,20374,List1A,black,man,,,,,"{""Q0"":""Jane and Kate are shouting at each other""}","<img src=""stim_listA/shout8.gif""</stim_listA>",are shouting at each other,
null,"<div style=""font-size:60px;"">+</div>",,html-keyboard-response,348,1548550,0.0-19.0-0.6,20374,List1A,black,man,,,,null,,,,
null,"<img src=""stim_listA/dance4.gif""</stim_listA>",,html-keyboard-response,349,1550555,0.0-19.0-1.6,20374,List1A,black,man,,,,null,,,,
null,are dancing with each other,,html-keyboard-response,350,1552568,0.0-19.0-2.6,20374,List1A,black,man,,,,null,,,,
19138,,,survey-text,351,1571706,0.0-19.0-3.6,20374,List1A,black,man,,,,,"{""Q0"":""Dave and Ruth are dancing with each other""}","<img src=""stim_listA/dance4.gif""</stim_listA>",are dancing with each other,
null,"<div style=""font-size:60px;"">+</div>",,html-keyboard-response,352,1572212,0.0-19.0-0.7,20374,List1A,black,man,,,,null,,,,
null,"<img src=""stim_listA/shout4.gif""</stim_listA>",,html-keyboard-response,353,1574225,0.0-19.0-1.7,20374,List1A,black,man,,,,null,,,,
null,are shouting at each other,,html-keyboard-response,354,1576231,0.0-19.0-2.7,20374,List1A,black,man,,,,null,,,,
12298,,,survey-text,355,1588530,0.0-19.0-3.7,20374,List1A,black,man,,,,,"{""Q0"":""Jane and Dave are shouting at each other""}","<img src=""stim_listA/shout4.gif""</stim_listA>",are shouting at each other,
null,"<div style=""font-size:60px;"">+</div>",,html-keyboard-response,356,1589042,0.0-19.0-0.8,20374,List1A,black,man,,,,null,,,,
null,"<img src=""stim_listA/shout1.gif""</stim_listA>",,html-keyboard-response,357,1591052,0.0-19.0-1.8,20374,List1A,black,man,,,,null,,,,
null,is shouting at,,html-keyboard-response,358,1593062,0.0-19.0-2.8,20374,List1A,black,man,,,,null,,,,
8254,,,survey-text,359,1601318,0.0-19.0-3.8,20374,List1A,black,man,,,,,"{""Q0"":""Fred is shouting at Beth""}","<img src=""stim_listA/shout1.gif""</stim_listA>",is shouting at,
null,"<div style=""font-size:60px;"">+</div>",,html-keyboard-response,360,1601826,0.0-19.0-0.9,20374,List1A,black,man,,,,null,,,,
null,"<img src=""stim_listA/meet5.gif""</stim_listA>",,html-keyboard-response,361,1603837,0.0-19.0-1.9,20374,List1A,black,man,,,,null,,,,
null,is meeting,,html-keyboard-response,362,1605851,0.0-19.0-2.9,20374,List1A,black,man,,,,null,,,,
7847,,,survey-text,363,1613700,0.0-19.0-3.9,20374,List1A,black,man,,,,,"{""Q0"":""Dave is meeting Mike""}","<img src=""stim_listA/meet5.gif""</stim_listA>",is meeting,
null,"<div style=""font-size:60px;"">+</div>",,html-keyboard-response,364,1614214,0.0-19.0-0.10,20374,List1A,black,man,,,,null,,,,
null,"<img src=""stim_listA/shout6.gif""</stim_listA>",,html-keyboard-response,365,1616219,0.0-19.0-1.10,20374,List1A,black,man,,,,null,,,,
null,are shouting at each other,,html-keyboard-response,366,1618236,0.0-19.0-2.10,20374,List1A,black,man,,,,null,,,,
32552,,,survey-text,367,1650790,0.0-19.0-3.10,20374,List1A,black,man,,,,,"{""Q0"":""Dave and Beth are shouting at each other""}","<img src=""stim_listA/shout6.gif""</stim_listA>",are shouting at each other,
null,"<div style=""font-size:60px;"">+</div>",,html-keyboard-response,368,1651296,0.0-19.0-0.11,20374,List1A,black,man,,,,null,,,,
null,"<img src=""stim_listA/kiss7.gif""</stim_listA>",,html-keyboard-response,369,1653300,0.0-19.0-1.11,20374,List1A,black,man,,,,null,,,,
null,is kissing,,html-keyboard-response,370,1655301,0.0-19.0-2.11,20374,List1A,black,man,,,,null,,,,
24724,,,survey-text,371,1680027,0.0-19.0-3.11,20374,List1A,black,man,,,,,"{""Q0"":""Beth is kissing Ruth""}","<img src=""stim_listA/kiss7.gif""</stim_listA>",is kissing,
null,"<div style=""font-size:60px;"">+</div>",,html-keyboard-response,372,1680534,0.0-19.0-0.12,20374,List1A,black,man,,,,null,,,,
null,"<img src=""stim_listA/talk6.gif""</stim_listA>",,html-keyboard-response,373,1682546,0.0-19.0-1.12,20374,List1A,black,man,,,,null,,,,
null,are talking to each other,,html-keyboard-response,374,1684561,0.0-19.0-2.12,20374,List1A,black,man,,,,null,,,,
15890,,,survey-text,375,1700453,0.0-19.0-3.12,20374,List1A,black,man,,,,,"{""Q0"":""Luke and Mike are talking to each other""}","<img src=""stim_listA/talk6.gif""</stim_listA>",are talking to each other,
null,"<div style=""font-size:60px;"">+</div>",,html-keyboard-response,376,1700954,0.0-19.0-0.13,20374,List1A,black,man,,,,null,,,,
null,"<img src=""stim_listA/kiss3.gif""</stim_listA>",,html-keyboard-response,377,1702964,0.0-19.0-1.13,20374,List1A,black,man,,,,null,,,,
null,is kissing,,html-keyboard-response,378,1704966,0.0-19.0-2.13,20374,List1A,black,man,,,,null,,,,
6828,,,survey-text,379,1711796,0.0-19.0-3.13,20374,List1A,black,man,,,,,"{""Q0"":""Luke is kissing Ruth""}","<img src=""stim_listA/kiss3.gif""</stim_listA>",is kissing,
null,"<div style=""font-size:60px;"">+</div>",,html-keyboard-response,380,1712300,0.0-19.0-0.14,20374,List1A,black,man,,,,null,,,,
null,"<img src=""stim_listA/kiss2.gif""</stim_listA>",,html-keyboard-response,381,1714304,0.0-19.0-1.14,20374,List1A,black,man,,,,null,,,,
null,are kissing each other,,html-keyboard-response,382,1716314,0.0-19.0-2.14,20374,List1A,black,man,,,,null,,,,
74085,,,survey-text,383,1790401,0.0-19.0-3.14,20374,List1A,black,man,,,,,"{""Q0"":""Mike and Kate are kissing each other""}","<img src=""stim_listA/kiss2.gif""</stim_listA>",are kissing each other,
null,"<div style=""font-size:60px;"">+</div>",,html-keyboard-response,384,1790909,0.0-19.0-0.15,20374,List1A,black,man,,,,null,,,,
null,"<img src=""stim_listA/marry1.gif""</stim_listA>",,html-keyboard-response,385,1792912,0.0-19.0-1.15,20374,List1A,black,man,,,,null,,,,
null,is marrying,,html-keyboard-response,386,1794917,0.0-19.0-2.15,20374,List1A,black,man,,,,null,,,,
17698,,,survey-text,387,1812616,0.0-19.0-3.15,20374,List1A,black,man,,,,,"{""Q0"":""Beth is marrying Mike""}","<img src=""stim_listA/marry1.gif""</stim_listA>",is marrying,
null,"<div style=""font-size:60px;"">+</div>",,html-keyboard-response,388,1813123,0.0-19.0-0.16,20374,List1A,black,man,,,,null,,,,
null,"<img src=""stim_listA/meet6.gif""</stim_listA>",,html-keyboard-response,389,1815134,0.0-19.0-1.16,20374,List1A,black,man,,,,null,,,,
null,are meeting each other,,html-keyboard-response,390,1817150,0.0-19.0-2.16,20374,List1A,black,man,,,,null,,,,
8874,,,survey-text,391,1826026,0.0-19.0-3.16,20374,List1A,black,man,,,,,"{""Q0"":""Fred and Luke are meeting each other""}","<img src=""stim_listA/meet6.gif""</stim_listA>",are meeting each other,
null,"<div style=""font-size:60px;"">+</div>",,html-keyboard-response,392,1826537,0.0-19.0-0.17,20374,List1A,black,man,,,,null,,,,
null,"<img src=""stim_listA/argue3.gif""</stim_listA>",,html-keyboard-response,393,1828547,0.0-19.0-1.17,20374,List1A,black,man,,,,null,,,,
null,is arguing with,,html-keyboard-response,394,1830562,0.0-19.0-2.17,20374,List1A,black,man,,,,null,,,,
8078,,,survey-text,395,1838641,0.0-19.0-3.17,20374,List1A,black,man,,,,,"{""Q0"":""Dave is arguing with Ruth""}","<img src=""stim_listA/argue3.gif""</stim_listA>",is arguing with,
null,"<div style=""font-size:60px;"">+</div>",,html-keyboard-response,396,1839154,0.0-19.0-0.18,20374,List1A,black,man,,,,null,,,,
null,"<img src=""stim_listA/talk5.gif""</stim_listA>",,html-keyboard-response,397,1841159,0.0-19.0-1.18,20374,List1A,black,man,,,,null,,,,
null,is talking to,,html-keyboard-response,398,1843173,0.0-19.0-2.18,20374,List1A,black,man,,,,null,,,,
9207,,,survey-text,399,1852381,0.0-19.0-3.18,20374,List1A,black,man,,,,,"{""Q0"":""Fred is talking to Dave""}","<img src=""stim_listA/talk5.gif""</stim_listA>",is talking to,
null,"<div style=""font-size:60px;"">+</div>",,html-keyboard-response,400,1852897,0.0-19.0-0.19,20374,List1A,black,man,,,,null,,,,
null,"<img src=""stim_listA/meet2.gif""</stim_listA>",,html-keyboard-response,401,1854915,0.0-19.0-1.19,20374,List1A,black,man,,,,null,,,,
null,are meeting each other,,html-keyboard-response,402,1856922,0.0-19.0-2.19,20374,List1A,black,man,,,,null,,,,
55934,,,survey-text,403,1912856,0.0-19.0-3.19,20374,List1A,black,man,,,,,"{""Q0"":""Fred and Beth are meeting each other""}","<img src=""stim_listA/meet2.gif""</stim_listA>",are meeting each other,
2073,<p>Thank you for completing that task.</p><p>The final part of this session is a short questionnaire.</p><p>Press Continue.</p>,0,html-button-response,404,1914931,0.0-20.0,20374,List1A,black,man,,,,,,,,
33432,,,survey-text,405,1949372,0.0-21.0,20374,List1A,black,man,,,,,"{""Q0"":""30"",""Q1"":""English"",""Q2"":""English"",""Q3"":""United Kingdon - England"",""Q4"":""Black"",""Q5"":""Male""}",,,demographics
31556,,,survey-likert,406,1980934,0.0-22.0,20374,List1A,black,man,,,,,"{""Q0"":6,""Q1"":6,""Q2"":"""",""Q3"":6,""Q4"":6,""Q5"":6,""Q6"":6,""Q7"":5,""Q8"":6,""Q9"":6,""Q10"":6,""Q11"":6,""Q12"":6,""Q13"":5}",,,likert_race
18765,,,survey-likert,407,1999704,0.0-23.0,20374,List1A,black,man,,,,,"{""Q0"":5,""Q1"":5,""Q2"":5,""Q3"":5,""Q4"":5,""Q5"":5,""Q6"":5,""Q7"":5,""Q8"":5,""Q9"":5,""Q10"":5,""Q11"":5,""Q12"":5,""Q13"":5}",,,likert_gender
7801,,,survey-text,408,2007506,0.0-24.0,20374,List1A,black,man,,,,,"{""Q0"":""ccc""}",,,worker_id
4949,,,external-html,409,2012663,0.0-25.0,20374,List1A,black,man,debrief.html,,,,,,,
