rt,stimulus,button_pressed,trial_type,trial_index,time_elapsed,internal_node_id,subject,list,ppt_race,ppt_gender,url,first_guess,correct,key_press,responses,image_type,phrase_type,test_part
3201,Welcome to the experiment. Press Continue to begin.,0,html-button-response,0,3217,0.0-0.0,20423,List1A,white,woman,,,,,,,,
20658,,,external-html,1,25072,0.0-1.0,20423,List1A,white,woman,consent.html,,,,,,,
80874,"<p>On the next page, you will see portraits of 8 people and their names.</p><p>Your first task is to take a few minutes to memorise the names of these people.</p><p>You will have to recall their names during the rest of the experiment, so it is</p><p>essential that you try to memorise these people and their names as best as you can.</p><br><p><strong>You will then be tested on your memory of these names and portraits.</strong></p><br><p>The experiment will start after you have completed this memory test.</p><br><p>Ready?</p>",0,html-button-response,2,105951,0.0-2.0,20423,List1A,white,woman,,,,,,,,
177629,"<img src='img/portrait_matrix_list1.JPG' style='width:900px;height:500px;''></img><p>If you have memorised all the portraits and names and are ready to start, press Continue.</p><p><strong>Please note: Your memory of these faces will be tested 4 times during this experiment.</strong></p>",0,html-button-response,3,284587,0.0-3.0-0.0,20423,List1A,white,woman,,,,,,,,
6269,"<img src=""portrait/WM1.jpg""style=""width:400px;height:400px;""></img>",6,html-button-response,4,291867,0.0-3.0-1.0,20423,List1A,white,woman,,TRUE,6,,,,,
null,CORRECT,,html-keyboard-response,5,293376,0.0-3.0-2.0-0.0,20423,List1A,white,woman,,,,null,,,,
7366,"<img src=""portrait/BM1.jpg""style=""width:400px;height:400px;""></img>",5,html-button-response,6,300753,0.0-3.0-4.0,20423,List1A,white,woman,,TRUE,4,,,,,
4566,"<img src=""portrait/BM1.jpg""style=""width:400px;height:400px;""></img>",4,html-button-response,7,306326,0.0-3.0-6.0-0.0,20423,List1A,white,woman,,FALSE,4,,,,,
null,CORRECT,,html-keyboard-response,8,307831,0.0-3.0-6.0-1.0-0.0,20423,List1A,white,woman,,,,null,,,,
11352,"<img src=""portrait/WM2.jpg""style=""width:400px;height:400px;""></img>",6,html-button-response,9,319191,0.0-3.0-7.0,20423,List1A,white,woman,,TRUE,7,,,,,
2183,"<img src=""portrait/WM2.jpg""style=""width:400px;height:400px;""></img>",7,html-button-response,10,322380,0.0-3.0-9.0-0.0,20423,List1A,white,woman,,FALSE,7,,,,,
null,CORRECT,,html-keyboard-response,11,323884,0.0-3.0-9.0-1.0-0.0,20423,List1A,white,woman,,,,null,,,,
4159,"<img src=""portrait/BW1.jpg""style=""width:400px;height:400px;""></img>",2,html-button-response,12,328051,0.0-3.0-10.0,20423,List1A,white,woman,,TRUE,0,,,,,
3964,"<img src=""portrait/BW1.jpg""style=""width:400px;height:400px;""></img>",0,html-button-response,13,333022,0.0-3.0-12.0-0.0,20423,List1A,white,woman,,FALSE,0,,,,,
null,CORRECT,,html-keyboard-response,14,334526,0.0-3.0-12.0-1.0-0.0,20423,List1A,white,woman,,,,null,,,,
7296,"<img src=""portrait/BW2.jpg""style=""width:400px;height:400px;""></img>",2,html-button-response,15,341829,0.0-3.0-13.0,20423,List1A,white,woman,,TRUE,2,,,,,
null,CORRECT,,html-keyboard-response,16,343333,0.0-3.0-14.0-0.0,20423,List1A,white,woman,,,,null,,,,
5306,"<img src=""portrait/WW2.jpg""style=""width:400px;height:400px;""></img>",1,html-button-response,17,348646,0.0-3.0-16.0,20423,List1A,white,woman,,TRUE,3,,,,,
2423,"<img src=""portrait/WW2.jpg""style=""width:400px;height:400px;""></img>",3,html-button-response,18,352075,0.0-3.0-18.0-0.0,20423,List1A,white,woman,,FALSE,3,,,,,
null,CORRECT,,html-keyboard-response,19,353579,0.0-3.0-18.0-1.0-0.0,20423,List1A,white,woman,,,,null,,,,
6633,"<img src=""portrait/BM2.jpg""style=""width:400px;height:400px;""></img>",7,html-button-response,20,360221,0.0-3.0-19.0,20423,List1A,white,woman,,TRUE,5,,,,,
1690,"<img src=""portrait/BM2.jpg""style=""width:400px;height:400px;""></img>",5,html-button-response,21,362915,0.0-3.0-21.0-0.0,20423,List1A,white,woman,,FALSE,5,,,,,
null,CORRECT,,html-keyboard-response,22,364421,0.0-3.0-21.0-1.0-0.0,20423,List1A,white,woman,,,,null,,,,
3887,"<img src=""portrait/WW1.jpg""style=""width:400px;height:400px;""></img>",3,html-button-response,23,368315,0.0-3.0-22.0,20423,List1A,white,woman,,TRUE,1,,,,,
2035,"<img src=""portrait/WW1.jpg""style=""width:400px;height:400px;""></img>",1,html-button-response,24,371358,0.0-3.0-24.0-0.0,20423,List1A,white,woman,,FALSE,1,,,,,
null,CORRECT,,html-keyboard-response,25,372864,0.0-3.0-24.0-1.0-0.0,20423,List1A,white,woman,,,,null,,,,
3319,<p>You got 2 out of 8 right first time. Press Continue.</p>,0,html-button-response,26,376189,0.0-3.0-25.0,20423,List1A,white,woman,,,,,,,,
3183,"As you did not score 100%, the memory game will repeat. Press Continue.",0,html-button-response,27,380376,0.0-3.0-26.0-0.0,20423,List1A,white,woman,,,,,,,,
18852,"<img src='img/portrait_matrix_list1.JPG' style='width:900px;height:500px;''></img><p>If you have memorised all the portraits and names and are ready to start, press Continue.</p><p><strong>Please note: Your memory of these faces will be tested 4 times during this experiment.</strong></p>",0,html-button-response,28,400236,0.0-3.1-0.1,20423,List1A,white,woman,,,,,,,,
3674,"<img src=""portrait/WM1.jpg""style=""width:400px;height:400px;""></img>",4,html-button-response,29,404916,0.0-3.1-1.1,20423,List1A,white,woman,,TRUE,6,,,,,
2062,"<img src=""portrait/WM1.jpg""style=""width:400px;height:400px;""></img>",6,html-button-response,30,407985,0.0-3.1-3.1-0.1,20423,List1A,white,woman,,FALSE,6,,,,,
null,CORRECT,,html-keyboard-response,31,409489,0.0-3.1-3.1-1.1-0.1,20423,List1A,white,woman,,,,null,,,,
5882,"<img src=""portrait/BM1.jpg""style=""width:400px;height:400px;""></img>",7,html-button-response,32,415379,0.0-3.1-4.1,20423,List1A,white,woman,,TRUE,4,,,,,
2289,"<img src=""portrait/BM1.jpg""style=""width:400px;height:400px;""></img>",4,html-button-response,33,418676,0.0-3.1-6.1-0.1,20423,List1A,white,woman,,FALSE,4,,,,,
null,CORRECT,,html-keyboard-response,34,420181,0.0-3.1-6.1-1.1-0.1,20423,List1A,white,woman,,,,null,,,,
4395,"<img src=""portrait/WM2.jpg""style=""width:400px;height:400px;""></img>",7,html-button-response,35,424581,0.0-3.1-7.1,20423,List1A,white,woman,,TRUE,7,,,,,
null,CORRECT,,html-keyboard-response,36,426086,0.0-3.1-8.1-0.1,20423,List1A,white,woman,,,,null,,,,
2139,"<img src=""portrait/BW1.jpg""style=""width:400px;height:400px;""></img>",2,html-button-response,37,428229,0.0-3.1-10.1,20423,List1A,white,woman,,TRUE,0,,,,,
2732,"<img src=""portrait/BW1.jpg""style=""width:400px;height:400px;""></img>",0,html-button-response,38,431967,0.0-3.1-12.1-0.1,20423,List1A,white,woman,,FALSE,0,,,,,
null,CORRECT,,html-keyboard-response,39,433471,0.0-3.1-12.1-1.1-0.1,20423,List1A,white,woman,,,,null,,,,
6126,"<img src=""portrait/BW2.jpg""style=""width:400px;height:400px;""></img>",2,html-button-response,40,439603,0.0-3.1-13.1,20423,List1A,white,woman,,TRUE,2,,,,,
null,CORRECT,,html-keyboard-response,41,441107,0.0-3.1-14.1-0.1,20423,List1A,white,woman,,,,null,,,,
4460,"<img src=""portrait/WW2.jpg""style=""width:400px;height:400px;""></img>",3,html-button-response,42,445572,0.0-3.1-16.1,20423,List1A,white,woman,,TRUE,3,,,,,
null,CORRECT,,html-keyboard-response,43,447076,0.0-3.1-17.1-0.1,20423,List1A,white,woman,,,,null,,,,
7911,"<img src=""portrait/BM2.jpg""style=""width:400px;height:400px;""></img>",5,html-button-response,44,454993,0.0-3.1-19.1,20423,List1A,white,woman,,TRUE,5,,,,,
null,CORRECT,,html-keyboard-response,45,456497,0.0-3.1-20.1-0.1,20423,List1A,white,woman,,,,null,,,,
2144,"<img src=""portrait/WW1.jpg""style=""width:400px;height:400px;""></img>",1,html-button-response,46,458648,0.0-3.1-22.1,20423,List1A,white,woman,,TRUE,1,,,,,
null,CORRECT,,html-keyboard-response,47,460152,0.0-3.1-23.1-0.1,20423,List1A,white,woman,,,,null,,,,
1971,<p>You got 5 out of 8 right first time. Press Continue.</p>,0,html-button-response,48,462127,0.0-3.1-25.1,20423,List1A,white,woman,,,,,,,,
1382,"As you did not score 100%, the memory game will repeat. Press Continue.",0,html-button-response,49,464514,0.0-3.1-26.1-0.1,20423,List1A,white,woman,,,,,,,,
6327,"<img src='img/portrait_matrix_list1.JPG' style='width:900px;height:500px;''></img><p>If you have memorised all the portraits and names and are ready to start, press Continue.</p><p><strong>Please note: Your memory of these faces will be tested 4 times during this experiment.</strong></p>",0,html-button-response,50,471848,0.0-3.2-0.2,20423,List1A,white,woman,,,,,,,,
2670,"<img src=""portrait/WM1.jpg""style=""width:400px;height:400px;""></img>",6,html-button-response,51,475523,0.0-3.2-1.2,20423,List1A,white,woman,,TRUE,6,,,,,
null,CORRECT,,html-keyboard-response,52,477028,0.0-3.2-2.2-0.2,20423,List1A,white,woman,,,,null,,,,
9980,"<img src=""portrait/BM1.jpg""style=""width:400px;height:400px;""></img>",4,html-button-response,53,487011,0.0-3.2-4.2,20423,List1A,white,woman,,TRUE,4,,,,,
null,CORRECT,,html-keyboard-response,54,488516,0.0-3.2-5.2-0.2,20423,List1A,white,woman,,,,null,,,,
5390,"<img src=""portrait/WM2.jpg""style=""width:400px;height:400px;""></img>",7,html-button-response,55,493912,0.0-3.2-7.2,20423,List1A,white,woman,,TRUE,7,,,,,
null,CORRECT,,html-keyboard-response,56,495416,0.0-3.2-8.2-0.2,20423,List1A,white,woman,,,,null,,,,
4308,"<img src=""portrait/BW1.jpg""style=""width:400px;height:400px;""></img>",0,html-button-response,57,499729,0.0-3.2-10.2,20423,List1A,white,woman,,TRUE,0,,,,,
null,CORRECT,,html-keyboard-response,58,501233,0.0-3.2-11.2-0.2,20423,List1A,white,woman,,,,null,,,,
5113,"<img src=""portrait/BW2.jpg""style=""width:400px;height:400px;""></img>",2,html-button-response,59,506351,0.0-3.2-13.2,20423,List1A,white,woman,,TRUE,2,,,,,
null,CORRECT,,html-keyboard-response,60,507855,0.0-3.2-14.2-0.2,20423,List1A,white,woman,,,,null,,,,
3207,"<img src=""portrait/WW2.jpg""style=""width:400px;height:400px;""></img>",3,html-button-response,61,511067,0.0-3.2-16.2,20423,List1A,white,woman,,TRUE,3,,,,,
null,CORRECT,,html-keyboard-response,62,512571,0.0-3.2-17.2-0.2,20423,List1A,white,woman,,,,null,,,,
2047,"<img src=""portrait/BM2.jpg""style=""width:400px;height:400px;""></img>",5,html-button-response,63,514623,0.0-3.2-19.2,20423,List1A,white,woman,,TRUE,5,,,,,
null,CORRECT,,html-keyboard-response,64,516128,0.0-3.2-20.2-0.2,20423,List1A,white,woman,,,,null,,,,
1914,"<img src=""portrait/WW1.jpg""style=""width:400px;height:400px;""></img>",1,html-button-response,65,518055,0.0-3.2-22.2,20423,List1A,white,woman,,TRUE,1,,,,,
null,CORRECT,,html-keyboard-response,66,519559,0.0-3.2-23.2-0.2,20423,List1A,white,woman,,,,null,,,,
1546,<p>You got 8 out of 8 right first time. Press Continue.</p>,0,html-button-response,67,521110,0.0-3.2-25.2,20423,List1A,white,woman,,,,,,,,
26042,"<p>In this experiment, you will view photographs of the people from the memory game interacting.</p><p>By using the <strong>exact</strong> phrase given <i>after</i> the photograph appears and recalling the correct names of the people in the photographs, form a sentence describing the interaction. You do not need to capitalise names.</p><p>Type your answer in the space provided. Please complete every sentence before moving onto the next trial.</p><p>You will only have a few seconds to memorise each given photograph and phrase before you can respond, so try your best to focus.</p><p>An example is given below. Press 'Continue' when you are ready.</p><img src='img/speaking_example_v2.jpg' style='width:800px;height:460px;''></img>",0,html-button-response,68,548160,0.0-4.0,20423,List1A,white,woman,,,,,,,,
2627,"<p>Before the experiment starts, you will watch two example trials. Press 'Continue'.</p>",0,html-button-response,69,551792,0.0-5.0,20423,List1A,white,woman,,,,,,,,
null,<img src='img/speaking_WW.gif'></img>,,html-keyboard-response,70,554799,0.0-6.0,20423,List1A,white,woman,,,,null,,,,
null,<p>is speaking to</p>,,html-keyboard-response,71,556803,0.0-7.0,20423,List1A,white,woman,,,,null,,,,
3123,<p><b>Answer:</b> kate is speaking to beth</p>,0,html-button-response,72,559928,0.0-8.0,20423,List1A,white,woman,,,,,,,,
null,<img src='img/pointing_BM.gif'></img>,,html-keyboard-response,73,562934,0.0-9.0,20423,List1A,white,woman,,,,null,,,,
null,<p>are pointing at each other</p>,,html-keyboard-response,74,564937,0.0-10.0,20423,List1A,white,woman,,,,null,,,,
1888,<p><b>Answer:</b> luke and dave are pointing at each other</p>,0,html-button-response,75,566828,0.0-11.0,20423,List1A,white,woman,,,,,,,,
3035,"<p>Ready to start the experiment?</p><br><p><strong>Remember to describe the picture using a full sentence,</strong></p><p><strong> that combines the names of the people with the given phrase.</strong></p><p><strong> You do not need to capitalise names or use punctuation.</strong></p><br><p>Press 'Continue' to begin.</p>",0,html-button-response,76,570868,0.0-12.0,20423,List1A,white,woman,,,,,,,,
null,"<div style=""font-size:60px;"">+</div>",,html-keyboard-response,77,572372,0.0-13.0-0.0,20423,List1A,white,woman,,,,null,,,,
null,"<img src=""stim_listA/argue1.gif""</stim_listA>",,html-keyboard-response,78,574381,0.0-13.0-1.0,20423,List1A,white,woman,,,,null,,,,
null,is arguing with,,html-keyboard-response,79,576385,0.0-13.0-2.0,20423,List1A,white,woman,,,,null,,,,
27952,,,survey-text,80,604350,0.0-13.0-3.0,20423,List1A,white,woman,,,,,"{""Q0"":""Mike is arguing with kate""}","<img src=""stim_listA/argue1.gif""</stim_listA>",is arguing with,
null,"<div style=""font-size:60px;"">+</div>",,html-keyboard-response,81,604867,0.0-13.0-0.1,20423,List1A,white,woman,,,,null,,,,
null,"<img src=""stim_listA/marry5.gif""</stim_listA>",,html-keyboard-response,82,606882,0.0-13.0-1.1,20423,List1A,white,woman,,,,null,,,,
null,is marrying,,html-keyboard-response,83,608886,0.0-13.0-2.1,20423,List1A,white,woman,,,,null,,,,
11847,,,survey-text,84,620740,0.0-13.0-3.1,20423,List1A,white,woman,,,,,"{""Q0"":""Mike is marrying luke""}","<img src=""stim_listA/marry5.gif""</stim_listA>",is marrying,
null,"<div style=""font-size:60px;"">+</div>",,html-keyboard-response,85,621245,0.0-13.0-0.2,20423,List1A,white,woman,,,,null,,,,
null,"<img src=""stim_listA/argue6.gif""</stim_listA>",,html-keyboard-response,86,623253,0.0-13.0-1.2,20423,List1A,white,woman,,,,null,,,,
null,are arguing with each other,,html-keyboard-response,87,625258,0.0-13.0-2.2,20423,List1A,white,woman,,,,null,,,,
12073,,,survey-text,88,637335,0.0-13.0-3.2,20423,List1A,white,woman,,,,,"{""Q0"":""Dave is arguing with fred""}","<img src=""stim_listA/argue6.gif""</stim_listA>",are arguing with each other,
null,"<div style=""font-size:60px;"">+</div>",,html-keyboard-response,89,637844,0.0-13.0-0.3,20423,List1A,white,woman,,,,null,,,,
null,"<img src=""stim_listA/talk8.gif""</stim_listA>",,html-keyboard-response,90,639850,0.0-13.0-1.3,20423,List1A,white,woman,,,,null,,,,
null,are talking to each other,,html-keyboard-response,91,641855,0.0-13.0-2.3,20423,List1A,white,woman,,,,null,,,,
12612,,,survey-text,92,654472,0.0-13.0-3.3,20423,List1A,white,woman,,,,,"{""Q0"":""Ruth is talking to kate""}","<img src=""stim_listA/talk8.gif""</stim_listA>",are talking to each other,
null,"<div style=""font-size:60px;"">+</div>",,html-keyboard-response,93,654978,0.0-13.0-0.4,20423,List1A,white,woman,,,,null,,,,
null,"<img src=""stim_listA/argue2.gif""</stim_listA>",,html-keyboard-response,94,656988,0.0-13.0-1.4,20423,List1A,white,woman,,,,null,,,,
null,are arguing with each other,,html-keyboard-response,95,658991,0.0-13.0-2.4,20423,List1A,white,woman,,,,null,,,,
13909,,,survey-text,96,672910,0.0-13.0-3.4,20423,List1A,white,woman,,,,,"{""Q0"":""Kate and Fred are arguing with each other""}","<img src=""stim_listA/argue2.gif""</stim_listA>",are arguing with each other,
null,"<div style=""font-size:60px;"">+</div>",,html-keyboard-response,97,673415,0.0-13.0-0.5,20423,List1A,white,woman,,,,null,,,,
null,"<img src=""stim_listA/meet4.gif""</stim_listA>",,html-keyboard-response,98,675422,0.0-13.0-1.5,20423,List1A,white,woman,,,,null,,,,
null,are meeting each other,,html-keyboard-response,99,677426,0.0-13.0-2.5,20423,List1A,white,woman,,,,null,,,,
16084,,,survey-text,100,693514,0.0-13.0-3.5,20423,List1A,white,woman,,,,,"{""Q0"":""Luke and Ruth are shaking hands""}","<img src=""stim_listA/meet4.gif""</stim_listA>",are meeting each other,
null,"<div style=""font-size:60px;"">+</div>",,html-keyboard-response,101,694018,0.0-13.0-0.6,20423,List1A,white,woman,,,,null,,,,
null,"<img src=""stim_listA/meet6.gif""</stim_listA>",,html-keyboard-response,102,696029,0.0-13.0-1.6,20423,List1A,white,woman,,,,null,,,,
null,are meeting each other,,html-keyboard-response,103,698035,0.0-13.0-2.6,20423,List1A,white,woman,,,,null,,,,
15163,,,survey-text,104,713201,0.0-13.0-3.6,20423,List1A,white,woman,,,,,"{""Q0"":""Fred and Luke are meeting each other""}","<img src=""stim_listA/meet6.gif""</stim_listA>",are meeting each other,
null,"<div style=""font-size:60px;"">+</div>",,html-keyboard-response,105,713705,0.0-13.0-0.7,20423,List1A,white,woman,,,,null,,,,
null,"<img src=""stim_listA/meet1.gif""</stim_listA>",,html-keyboard-response,106,715724,0.0-13.0-1.7,20423,List1A,white,woman,,,,null,,,,
null,is meeting,,html-keyboard-response,107,717727,0.0-13.0-2.7,20423,List1A,white,woman,,,,null,,,,
10151,,,survey-text,108,727881,0.0-13.0-3.7,20423,List1A,white,woman,,,,,"{""Q0"":""Mike and Kate are meeting each ithet""}","<img src=""stim_listA/meet1.gif""</stim_listA>",is meeting,
null,"<div style=""font-size:60px;"">+</div>",,html-keyboard-response,109,728388,0.0-13.0-0.8,20423,List1A,white,woman,,,,null,,,,
null,"<img src=""stim_listA/touch3.gif""</stim_listA>",,html-keyboard-response,110,730395,0.0-13.0-1.8,20423,List1A,white,woman,,,,null,,,,
null,is touching,,html-keyboard-response,111,732401,0.0-13.0-2.8,20423,List1A,white,woman,,,,null,,,,
8351,,,survey-text,112,740755,0.0-13.0-3.8,20423,List1A,white,woman,,,,,"{""Q0"":""Dave and Ruth are touching ""}","<img src=""stim_listA/touch3.gif""</stim_listA>",is touching,
null,"<div style=""font-size:60px;"">+</div>",,html-keyboard-response,113,741260,0.0-13.0-0.9,20423,List1A,white,woman,,,,null,,,,
null,"<img src=""stim_listA/shout3.gif""</stim_listA>",,html-keyboard-response,114,743268,0.0-13.0-1.9,20423,List1A,white,woman,,,,null,,,,
null,is shouting at,,html-keyboard-response,115,745272,0.0-13.0-2.9,20423,List1A,white,woman,,,,null,,,,
11834,,,survey-text,116,757110,0.0-13.0-3.9,20423,List1A,white,woman,,,,,"{""Q0"":""Ruth is shouting at luke""}","<img src=""stim_listA/shout3.gif""</stim_listA>",is shouting at,
null,"<div style=""font-size:60px;"">+</div>",,html-keyboard-response,117,757614,0.0-13.0-0.10,20423,List1A,white,woman,,,,null,,,,
null,"<img src=""stim_listA/kiss1.gif""</stim_listA>",,html-keyboard-response,118,759625,0.0-13.0-1.10,20423,List1A,white,woman,,,,null,,,,
null,is kissing,,html-keyboard-response,119,761630,0.0-13.0-2.10,20423,List1A,white,woman,,,,null,,,,
6845,,,survey-text,120,768478,0.0-13.0-3.10,20423,List1A,white,woman,,,,,"{""Q0"":""Fred is kissing beth""}","<img src=""stim_listA/kiss1.gif""</stim_listA>",is kissing,
null,"<div style=""font-size:60px;"">+</div>",,html-keyboard-response,121,768981,0.0-13.0-0.11,20423,List1A,white,woman,,,,null,,,,
null,"<img src=""stim_listA/talk4.gif""</stim_listA>",,html-keyboard-response,122,770985,0.0-13.0-1.11,20423,List1A,white,woman,,,,null,,,,
null,are talking to each other,,html-keyboard-response,123,772988,0.0-13.0-2.11,20423,List1A,white,woman,,,,null,,,,
10166,,,survey-text,124,783158,0.0-13.0-3.11,20423,List1A,white,woman,,,,,"{""Q0"":""Ruth and Dave are talking to each other""}","<img src=""stim_listA/talk4.gif""</stim_listA>",are talking to each other,
null,"<div style=""font-size:60px;"">+</div>",,html-keyboard-response,125,783663,0.0-13.0-0.12,20423,List1A,white,woman,,,,null,,,,
null,"<img src=""stim_listA/hug7.gif""</stim_listA>",,html-keyboard-response,126,785671,0.0-13.0-1.12,20423,List1A,white,woman,,,,null,,,,
null,is hugging,,html-keyboard-response,127,787675,0.0-13.0-2.12,20423,List1A,white,woman,,,,null,,,,
8997,,,survey-text,128,796676,0.0-13.0-3.12,20423,List1A,white,woman,,,,,"{""Q0"":""Ruth is hugging Beth""}","<img src=""stim_listA/hug7.gif""</stim_listA>",is hugging,
null,"<div style=""font-size:60px;"">+</div>",,html-keyboard-response,129,797180,0.0-13.0-0.13,20423,List1A,white,woman,,,,null,,,,
null,"<img src=""stim_listA/kiss6.gif""</stim_listA>",,html-keyboard-response,130,799187,0.0-13.0-1.13,20423,List1A,white,woman,,,,null,,,,
null,are kissing each other,,html-keyboard-response,131,801190,0.0-13.0-2.13,20423,List1A,white,woman,,,,null,,,,
9493,,,survey-text,132,810687,0.0-13.0-3.13,20423,List1A,white,woman,,,,,"{""Q0"":""Dave and mike are kissing each other""}","<img src=""stim_listA/kiss6.gif""</stim_listA>",are kissing each other,
null,"<div style=""font-size:60px;"">+</div>",,html-keyboard-response,133,811191,0.0-13.0-0.14,20423,List1A,white,woman,,,,null,,,,
null,"<img src=""stim_listA/fight4.gif""</stim_listA>",,html-keyboard-response,134,813199,0.0-13.0-1.14,20423,List1A,white,woman,,,,null,,,,
null,are fighting each other,,html-keyboard-response,135,815204,0.0-13.0-2.14,20423,List1A,white,woman,,,,null,,,,
13939,,,survey-text,136,829147,0.0-13.0-3.14,20423,List1A,white,woman,,,,,"{""Q0"":""Luke and Ruth are fighting each othet""}","<img src=""stim_listA/fight4.gif""</stim_listA>",are fighting each other,
null,"<div style=""font-size:60px;"">+</div>",,html-keyboard-response,137,829659,0.0-13.0-0.15,20423,List1A,white,woman,,,,null,,,,
null,"<img src=""stim_listA/fight2.gif""</stim_listA>",,html-keyboard-response,138,831666,0.0-13.0-1.15,20423,List1A,white,woman,,,,null,,,,
null,are fighting each other,,html-keyboard-response,139,833670,0.0-13.0-2.15,20423,List1A,white,woman,,,,null,,,,
11977,,,survey-text,140,845651,0.0-13.0-3.15,20423,List1A,white,woman,,,,,"{""Q0"":""Fred and Beth are fighting each other""}","<img src=""stim_listA/fight2.gif""</stim_listA>",are fighting each other,
null,"<div style=""font-size:60px;"">+</div>",,html-keyboard-response,141,846155,0.0-13.0-0.16,20423,List1A,white,woman,,,,null,,,,
null,"<img src=""stim_listA/shout8.gif""</stim_listA>",,html-keyboard-response,142,848161,0.0-13.0-1.16,20423,List1A,white,woman,,,,null,,,,
null,are shouting at each other,,html-keyboard-response,143,850167,0.0-13.0-2.16,20423,List1A,white,woman,,,,null,,,,
12623,,,survey-text,144,862794,0.0-13.0-3.16,20423,List1A,white,woman,,,,,"{""Q0"":""Kate and Ruth are shouting at each other""}","<img src=""stim_listA/shout8.gif""</stim_listA>",are shouting at each other,
null,"<div style=""font-size:60px;"">+</div>",,html-keyboard-response,145,863297,0.0-13.0-0.17,20423,List1A,white,woman,,,,null,,,,
null,"<img src=""stim_listA/fight8.gif""</stim_listA>",,html-keyboard-response,146,865304,0.0-13.0-1.17,20423,List1A,white,woman,,,,null,,,,
null,are fighting each other,,html-keyboard-response,147,867308,0.0-13.0-2.17,20423,List1A,white,woman,,,,null,,,,
10856,,,survey-text,148,878167,0.0-13.0-3.17,20423,List1A,white,woman,,,,,"{""Q0"":""Ruth and Beth are fighting each other""}","<img src=""stim_listA/fight8.gif""</stim_listA>",are fighting each other,
null,"<div style=""font-size:60px;"">+</div>",,html-keyboard-response,149,878671,0.0-13.0-0.18,20423,List1A,white,woman,,,,null,,,,
null,"<img src=""stim_listA/kiss7.gif""</stim_listA>",,html-keyboard-response,150,880682,0.0-13.0-1.18,20423,List1A,white,woman,,,,null,,,,
null,is kissing,,html-keyboard-response,151,882686,0.0-13.0-2.18,20423,List1A,white,woman,,,,null,,,,
7549,,,survey-text,152,890239,0.0-13.0-3.18,20423,List1A,white,woman,,,,,"{""Q0"":""Ruth is kissing beth""}","<img src=""stim_listA/kiss7.gif""</stim_listA>",is kissing,
null,"<div style=""font-size:60px;"">+</div>",,html-keyboard-response,153,890743,0.0-13.0-0.19,20423,List1A,white,woman,,,,null,,,,
null,"<img src=""stim_listA/shout2.gif""</stim_listA>",,html-keyboard-response,154,892750,0.0-13.0-1.19,20423,List1A,white,woman,,,,null,,,,
null,are shouting at each other,,html-keyboard-response,155,894755,0.0-13.0-2.19,20423,List1A,white,woman,,,,null,,,,
13507,,,survey-text,156,908265,0.0-13.0-3.19,20423,List1A,white,woman,,,,,"{""Q0"":""Mike and Kate are shouting at each other""}","<img src=""stim_listA/shout2.gif""</stim_listA>",are shouting at each other,
16205,"<img src='img/portrait_matrix_list1.JPG' style='width:900px;height:500px;''></img><p>If you have memorised all the portraits and names and are ready to start, press Continue.</p><p><strong>Please note: Your memory of these faces will be tested 4 times during this experiment.</strong></p>",0,html-button-response,157,924483,0.0-14.0-0.0,20423,List1A,white,woman,,,,,,,,
3002,"<img src=""portrait/WW1.jpg""style=""width:400px;height:400px;""></img>",1,html-button-response,158,928494,0.0-14.0-1.0,20423,List1A,white,woman,,TRUE,1,,,,,
null,CORRECT,,html-keyboard-response,159,930003,0.0-14.0-2.0-0.0,20423,List1A,white,woman,,,,null,,,,
2438,"<img src=""portrait/BW1.jpg""style=""width:400px;height:400px;""></img>",0,html-button-response,160,932448,0.0-14.0-4.0,20423,List1A,white,woman,,TRUE,0,,,,,
null,CORRECT,,html-keyboard-response,161,933953,0.0-14.0-5.0-0.0,20423,List1A,white,woman,,,,null,,,,
1730,"<img src=""portrait/BW2.jpg""style=""width:400px;height:400px;""></img>",2,html-button-response,162,935691,0.0-14.0-7.0,20423,List1A,white,woman,,TRUE,2,,,,,
null,CORRECT,,html-keyboard-response,163,937196,0.0-14.0-8.0-0.0,20423,List1A,white,woman,,,,null,,,,
2238,"<img src=""portrait/BM2.jpg""style=""width:400px;height:400px;""></img>",5,html-button-response,164,939442,0.0-14.0-10.0,20423,List1A,white,woman,,TRUE,5,,,,,
null,CORRECT,,html-keyboard-response,165,940947,0.0-14.0-11.0-0.0,20423,List1A,white,woman,,,,null,,,,
2151,"<img src=""portrait/WM2.jpg""style=""width:400px;height:400px;""></img>",7,html-button-response,166,943104,0.0-14.0-13.0,20423,List1A,white,woman,,TRUE,7,,,,,
null,CORRECT,,html-keyboard-response,167,944611,0.0-14.0-14.0-0.0,20423,List1A,white,woman,,,,null,,,,
6621,"<img src=""portrait/BM1.jpg""style=""width:400px;height:400px;""></img>",4,html-button-response,168,951241,0.0-14.0-16.0,20423,List1A,white,woman,,TRUE,4,,,,,
null,CORRECT,,html-keyboard-response,169,952747,0.0-14.0-17.0-0.0,20423,List1A,white,woman,,,,null,,,,
2285,"<img src=""portrait/WW2.jpg""style=""width:400px;height:400px;""></img>",3,html-button-response,170,955038,0.0-14.0-19.0,20423,List1A,white,woman,,TRUE,3,,,,,
null,CORRECT,,html-keyboard-response,171,956545,0.0-14.0-20.0-0.0,20423,List1A,white,woman,,,,null,,,,
2973,"<img src=""portrait/WM1.jpg""style=""width:400px;height:400px;""></img>",6,html-button-response,172,959524,0.0-14.0-22.0,20423,List1A,white,woman,,TRUE,6,,,,,
null,CORRECT,,html-keyboard-response,173,961028,0.0-14.0-23.0-0.0,20423,List1A,white,woman,,,,null,,,,
1494,<p>You got 8 out of 8 right first time. Press Continue.</p>,0,html-button-response,174,962526,0.0-14.0-25.0,20423,List1A,white,woman,,,,,,,,
null,"<div style=""font-size:60px;"">+</div>",,html-keyboard-response,175,964034,0.0-15.0-0.0,20423,List1A,white,woman,,,,null,,,,
null,"<img src=""stim_listA/touch8.gif""</stim_listA>",,html-keyboard-response,176,966041,0.0-15.0-1.0,20423,List1A,white,woman,,,,null,,,,
null,are touching each other,,html-keyboard-response,177,968049,0.0-15.0-2.0,20423,List1A,white,woman,,,,null,,,,
14183,,,survey-text,178,982236,0.0-15.0-3.0,20423,List1A,white,woman,,,,,"{""Q0"":""Ruth and Kate are touching each other""}","<img src=""stim_listA/touch8.gif""</stim_listA>",are touching each other,
null,"<div style=""font-size:60px;"">+</div>",,html-keyboard-response,179,982740,0.0-15.0-0.1,20423,List1A,white,woman,,,,null,,,,
null,"<img src=""stim_listA/hug1.gif""</stim_listA>",,html-keyboard-response,180,984751,0.0-15.0-1.1,20423,List1A,white,woman,,,,null,,,,
null,is hugging,,html-keyboard-response,181,986755,0.0-15.0-2.1,20423,List1A,white,woman,,,,null,,,,
7648,,,survey-text,182,994410,0.0-15.0-3.1,20423,List1A,white,woman,,,,,"{""Q0"":""Fred is hugging beth""}","<img src=""stim_listA/hug1.gif""</stim_listA>",is hugging,
null,"<div style=""font-size:60px;"">+</div>",,html-keyboard-response,183,994914,0.0-15.0-0.2,20423,List1A,white,woman,,,,null,,,,
null,"<img src=""stim_listA/kiss3.gif""</stim_listA>",,html-keyboard-response,184,996923,0.0-15.0-1.2,20423,List1A,white,woman,,,,null,,,,
null,is kissing,,html-keyboard-response,185,998927,0.0-15.0-2.2,20423,List1A,white,woman,,,,null,,,,
13838,,,survey-text,186,1012770,0.0-15.0-3.2,20423,List1A,white,woman,,,,,"{""Q0"":""Luke is kissing Ruth ""}","<img src=""stim_listA/kiss3.gif""</stim_listA>",is kissing,
null,"<div style=""font-size:60px;"">+</div>",,html-keyboard-response,187,1013278,0.0-15.0-0.3,20423,List1A,white,woman,,,,null,,,,
null,"<img src=""stim_listA/shout5.gif""</stim_listA>",,html-keyboard-response,188,1015286,0.0-15.0-1.3,20423,List1A,white,woman,,,,null,,,,
null,is shouting at,,html-keyboard-response,189,1017292,0.0-15.0-2.3,20423,List1A,white,woman,,,,null,,,,
8976,,,survey-text,190,1026272,0.0-15.0-3.3,20423,List1A,white,woman,,,,,"{""Q0"":""Fred is shouting at luke""}","<img src=""stim_listA/shout5.gif""</stim_listA>",is shouting at,
null,"<div style=""font-size:60px;"">+</div>",,html-keyboard-response,191,1026776,0.0-15.0-0.4,20423,List1A,white,woman,,,,null,,,,
null,"<img src=""stim_listA/fight3.gif""</stim_listA>",,html-keyboard-response,192,1028789,0.0-15.0-1.4,20423,List1A,white,woman,,,,null,,,,
null,is fighting,,html-keyboard-response,193,1030794,0.0-15.0-2.4,20423,List1A,white,woman,,,,null,,,,
7279,,,survey-text,194,1038078,0.0-15.0-3.4,20423,List1A,white,woman,,,,,"{""Q0"":""Dave is fighting Jane ""}","<img src=""stim_listA/fight3.gif""</stim_listA>",is fighting,
null,"<div style=""font-size:60px;"">+</div>",,html-keyboard-response,195,1038582,0.0-15.0-0.5,20423,List1A,white,woman,,,,null,,,,
null,"<img src=""stim_listA/fight6.gif""</stim_listA>",,html-keyboard-response,196,1040589,0.0-15.0-1.5,20423,List1A,white,woman,,,,null,,,,
null,are fighting each other,,html-keyboard-response,197,1042594,0.0-15.0-2.5,20423,List1A,white,woman,,,,null,,,,
9267,,,survey-text,198,1051864,0.0-15.0-3.5,20423,List1A,white,woman,,,,,"{""Q0"":""Fred and Luke are fighting each other""}","<img src=""stim_listA/fight6.gif""</stim_listA>",are fighting each other,
null,"<div style=""font-size:60px;"">+</div>",,html-keyboard-response,199,1052369,0.0-15.0-0.6,20423,List1A,white,woman,,,,null,,,,
null,"<img src=""stim_listA/kiss8.gif""</stim_listA>",,html-keyboard-response,200,1054376,0.0-15.0-1.6,20423,List1A,white,woman,,,,null,,,,
null,are kissing each other,,html-keyboard-response,201,1056379,0.0-15.0-2.6,20423,List1A,white,woman,,,,null,,,,
10343,,,survey-text,202,1066729,0.0-15.0-3.6,20423,List1A,white,woman,,,,,"{""Q0"":""Jane and Kate are kissing each other""}","<img src=""stim_listA/kiss8.gif""</stim_listA>",are kissing each other,
null,"<div style=""font-size:60px;"">+</div>",,html-keyboard-response,203,1067240,0.0-15.0-0.7,20423,List1A,white,woman,,,,null,,,,
null,"<img src=""stim_listA/shout1.gif""</stim_listA>",,html-keyboard-response,204,1069246,0.0-15.0-1.7,20423,List1A,white,woman,,,,null,,,,
null,is shouting at,,html-keyboard-response,205,1071252,0.0-15.0-2.7,20423,List1A,white,woman,,,,null,,,,
8758,,,survey-text,206,1080014,0.0-15.0-3.7,20423,List1A,white,woman,,,,,"{""Q0"":""Fred is shouting at Beth ""}","<img src=""stim_listA/shout1.gif""</stim_listA>",is shouting at,
null,"<div style=""font-size:60px;"">+</div>",,html-keyboard-response,207,1080520,0.0-15.0-0.8,20423,List1A,white,woman,,,,null,,,,
null,"<img src=""stim_listA/hug8.gif""</stim_listA>",,html-keyboard-response,208,1082532,0.0-15.0-1.8,20423,List1A,white,woman,,,,null,,,,
null,are hugging each other,,html-keyboard-response,209,1084535,0.0-15.0-2.8,20423,List1A,white,woman,,,,null,,,,
8899,,,survey-text,210,1093439,0.0-15.0-3.8,20423,List1A,white,woman,,,,,"{""Q0"":""Kate and Jane are hugging each other""}","<img src=""stim_listA/hug8.gif""</stim_listA>",are hugging each other,
null,"<div style=""font-size:60px;"">+</div>",,html-keyboard-response,211,1093944,0.0-15.0-0.9,20423,List1A,white,woman,,,,null,,,,
null,"<img src=""stim_listA/touch4.gif""</stim_listA>",,html-keyboard-response,212,1095957,0.0-15.0-1.9,20423,List1A,white,woman,,,,null,,,,
null,are touching each other,,html-keyboard-response,213,1097967,0.0-15.0-2.9,20423,List1A,white,woman,,,,null,,,,
17987,,,survey-text,214,1115963,0.0-15.0-3.9,20423,List1A,white,woman,,,,,"{""Q0"":""Ruth and Luke are touching ""}","<img src=""stim_listA/touch4.gif""</stim_listA>",are touching each other,
null,"<div style=""font-size:60px;"">+</div>",,html-keyboard-response,215,1116467,0.0-15.0-0.10,20423,List1A,white,woman,,,,null,,,,
null,"<img src=""stim_listA/hug5.gif""</stim_listA>",,html-keyboard-response,216,1118476,0.0-15.0-1.10,20423,List1A,white,woman,,,,null,,,,
null,is hugging,,html-keyboard-response,217,1120481,0.0-15.0-2.10,20423,List1A,white,woman,,,,null,,,,
8631,,,survey-text,218,1129116,0.0-15.0-3.10,20423,List1A,white,woman,,,,,"{""Q0"":""Luke is hugging Fred ""}","<img src=""stim_listA/hug5.gif""</stim_listA>",is hugging,
null,"<div style=""font-size:60px;"">+</div>",,html-keyboard-response,219,1129622,0.0-15.0-0.11,20423,List1A,white,woman,,,,null,,,,
null,"<img src=""stim_listA/fight1.gif""</stim_listA>",,html-keyboard-response,220,1131630,0.0-15.0-1.11,20423,List1A,white,woman,,,,null,,,,
null,is fighting,,html-keyboard-response,221,1133635,0.0-15.0-2.11,20423,List1A,white,woman,,,,null,,,,
9488,,,survey-text,222,1143132,0.0-15.0-3.11,20423,List1A,white,woman,,,,,"{""Q0"":""Mike is fighting Kate ""}","<img src=""stim_listA/fight1.gif""</stim_listA>",is fighting,
null,"<div style=""font-size:60px;"">+</div>",,html-keyboard-response,223,1143655,0.0-15.0-0.12,20423,List1A,white,woman,,,,null,,,,
null,"<img src=""stim_listA/shout7.gif""</stim_listA>",,html-keyboard-response,224,1145661,0.0-15.0-1.12,20423,List1A,white,woman,,,,null,,,,
null,is shouting at,,html-keyboard-response,225,1147664,0.0-15.0-2.12,20423,List1A,white,woman,,,,null,,,,
7697,,,survey-text,226,1155369,0.0-15.0-3.12,20423,List1A,white,woman,,,,,"{""Q0"":""Beth is shouting at Ruth ""}","<img src=""stim_listA/shout7.gif""</stim_listA>",is shouting at,
null,"<div style=""font-size:60px;"">+</div>",,html-keyboard-response,227,1155874,0.0-15.0-0.13,20423,List1A,white,woman,,,,null,,,,
null,"<img src=""stim_listA/hug2.gif""</stim_listA>",,html-keyboard-response,228,1157885,0.0-15.0-1.13,20423,List1A,white,woman,,,,null,,,,
null,are hugging each other,,html-keyboard-response,229,1159889,0.0-15.0-2.13,20423,List1A,white,woman,,,,null,,,,
9003,,,survey-text,230,1168895,0.0-15.0-3.13,20423,List1A,white,woman,,,,,"{""Q0"":""Kate and mike are hugging each other""}","<img src=""stim_listA/hug2.gif""</stim_listA>",are hugging each other,
null,"<div style=""font-size:60px;"">+</div>",,html-keyboard-response,231,1169409,0.0-15.0-0.14,20423,List1A,white,woman,,,,null,,,,
null,"<img src=""stim_listA/touch1.gif""</stim_listA>",,html-keyboard-response,232,1171423,0.0-15.0-1.14,20423,List1A,white,woman,,,,null,,,,
null,is touching,,html-keyboard-response,233,1173428,0.0-15.0-2.14,20423,List1A,white,woman,,,,null,,,,
5946,,,survey-text,234,1179379,0.0-15.0-3.14,20423,List1A,white,woman,,,,,"{""Q0"":""Kate is touching mike""}","<img src=""stim_listA/touch1.gif""</stim_listA>",is touching,
null,"<div style=""font-size:60px;"">+</div>",,html-keyboard-response,235,1179884,0.0-15.0-0.15,20423,List1A,white,woman,,,,null,,,,
null,"<img src=""stim_listA/marry7.gif""</stim_listA>",,html-keyboard-response,236,1181894,0.0-15.0-1.15,20423,List1A,white,woman,,,,null,,,,
null,is marrying,,html-keyboard-response,237,1183899,0.0-15.0-2.15,20423,List1A,white,woman,,,,null,,,,
7490,,,survey-text,238,1191393,0.0-15.0-3.15,20423,List1A,white,woman,,,,,"{""Q0"":""Ruth is marrying Kate ""}","<img src=""stim_listA/marry7.gif""</stim_listA>",is marrying,
null,"<div style=""font-size:60px;"">+</div>",,html-keyboard-response,239,1191898,0.0-15.0-0.16,20423,List1A,white,woman,,,,null,,,,
null,"<img src=""stim_listA/marry2.gif""</stim_listA>",,html-keyboard-response,240,1193906,0.0-15.0-1.16,20423,List1A,white,woman,,,,null,,,,
null,are marrying each other,,html-keyboard-response,241,1195911,0.0-15.0-2.16,20423,List1A,white,woman,,,,null,,,,
10417,,,survey-text,242,1206333,0.0-15.0-3.16,20423,List1A,white,woman,,,,,"{""Q0"":""Kate and Fred are marrying each other""}","<img src=""stim_listA/marry2.gif""</stim_listA>",are marrying each other,
null,"<div style=""font-size:60px;"">+</div>",,html-keyboard-response,243,1206837,0.0-15.0-0.17,20423,List1A,white,woman,,,,null,,,,
null,"<img src=""stim_listA/dance4.gif""</stim_listA>",,html-keyboard-response,244,1208843,0.0-15.0-1.17,20423,List1A,white,woman,,,,null,,,,
null,are dancing with each other,,html-keyboard-response,245,1210849,0.0-15.0-2.17,20423,List1A,white,woman,,,,null,,,,
14321,,,survey-text,246,1225176,0.0-15.0-3.17,20423,List1A,white,woman,,,,,"{""Q0"":""Ruth and Dave are dancing with each other""}","<img src=""stim_listA/dance4.gif""</stim_listA>",are dancing with each other,
null,"<div style=""font-size:60px;"">+</div>",,html-keyboard-response,247,1225684,0.0-15.0-0.18,20423,List1A,white,woman,,,,null,,,,
null,"<img src=""stim_listA/touch2.gif""</stim_listA>",,html-keyboard-response,248,1227692,0.0-15.0-1.18,20423,List1A,white,woman,,,,null,,,,
null,are touching each other,,html-keyboard-response,249,1229698,0.0-15.0-2.18,20423,List1A,white,woman,,,,null,,,,
8941,,,survey-text,250,1238643,0.0-15.0-3.18,20423,List1A,white,woman,,,,,"{""Q0"":""Fred and Beth are touching each other""}","<img src=""stim_listA/touch2.gif""</stim_listA>",are touching each other,
null,"<div style=""font-size:60px;"">+</div>",,html-keyboard-response,251,1239148,0.0-15.0-0.19,20423,List1A,white,woman,,,,null,,,,
null,"<img src=""stim_listA/marry8.gif""</stim_listA>",,html-keyboard-response,252,1241158,0.0-15.0-1.19,20423,List1A,white,woman,,,,null,,,,
null,are marrying each other,,html-keyboard-response,253,1243163,0.0-15.0-2.19,20423,List1A,white,woman,,,,null,,,,
8481,,,survey-text,254,1251647,0.0-15.0-3.19,20423,List1A,white,woman,,,,,"{""Q0"":""Jane and Beth are marrying each other""}","<img src=""stim_listA/marry8.gif""</stim_listA>",are marrying each other,
3123,"<img src='img/portrait_matrix_list1.JPG' style='width:900px;height:500px;''></img><p>If you have memorised all the portraits and names and are ready to start, press Continue.</p><p><strong>Please note: Your memory of these faces will be tested 4 times during this experiment.</strong></p>",0,html-button-response,255,1254776,0.0-16.0-0.0,20423,List1A,white,woman,,,,,,,,
2165,"<img src=""portrait/WM2.jpg""style=""width:400px;height:400px;""></img>",7,html-button-response,256,1257949,0.0-16.0-1.0,20423,List1A,white,woman,,TRUE,7,,,,,
null,CORRECT,,html-keyboard-response,257,1259455,0.0-16.0-2.0-0.0,20423,List1A,white,woman,,,,null,,,,
5092,"<img src=""portrait/BM1.jpg""style=""width:400px;height:400px;""></img>",4,html-button-response,258,1264556,0.0-16.0-4.0,20423,List1A,white,woman,,TRUE,4,,,,,
null,CORRECT,,html-keyboard-response,259,1266061,0.0-16.0-5.0-0.0,20423,List1A,white,woman,,,,null,,,,
2321,"<img src=""portrait/WW2.jpg""style=""width:400px;height:400px;""></img>",3,html-button-response,260,1268389,0.0-16.0-7.0,20423,List1A,white,woman,,TRUE,3,,,,,
null,CORRECT,,html-keyboard-response,261,1269896,0.0-16.0-8.0-0.0,20423,List1A,white,woman,,,,null,,,,
2678,"<img src=""portrait/BW1.jpg""style=""width:400px;height:400px;""></img>",0,html-button-response,262,1272579,0.0-16.0-10.0,20423,List1A,white,woman,,TRUE,0,,,,,
null,CORRECT,,html-keyboard-response,263,1274085,0.0-16.0-11.0-0.0,20423,List1A,white,woman,,,,null,,,,
2039,"<img src=""portrait/WW1.jpg""style=""width:400px;height:400px;""></img>",1,html-button-response,264,1276130,0.0-16.0-13.0,20423,List1A,white,woman,,TRUE,1,,,,,
null,CORRECT,,html-keyboard-response,265,1277635,0.0-16.0-14.0-0.0,20423,List1A,white,woman,,,,null,,,,
2538,"<img src=""portrait/BM2.jpg""style=""width:400px;height:400px;""></img>",5,html-button-response,266,1280180,0.0-16.0-16.0,20423,List1A,white,woman,,TRUE,5,,,,,
null,CORRECT,,html-keyboard-response,267,1281685,0.0-16.0-17.0-0.0,20423,List1A,white,woman,,,,null,,,,
1119,"<img src=""portrait/WM1.jpg""style=""width:400px;height:400px;""></img>",6,html-button-response,268,1282812,0.0-16.0-19.0,20423,List1A,white,woman,,TRUE,6,,,,,
null,CORRECT,,html-keyboard-response,269,1284317,0.0-16.0-20.0-0.0,20423,List1A,white,woman,,,,null,,,,
2291,"<img src=""portrait/BW2.jpg""style=""width:400px;height:400px;""></img>",2,html-button-response,270,1286616,0.0-16.0-22.0,20423,List1A,white,woman,,TRUE,2,,,,,
null,CORRECT,,html-keyboard-response,271,1288121,0.0-16.0-23.0-0.0,20423,List1A,white,woman,,,,null,,,,
1307,<p>You got 8 out of 8 right first time. Press Continue.</p>,0,html-button-response,272,1289437,0.0-16.0-25.0,20423,List1A,white,woman,,,,,,,,
null,"<div style=""font-size:60px;"">+</div>",,html-keyboard-response,273,1290947,0.0-17.0-0.0,20423,List1A,white,woman,,,,null,,,,
null,"<img src=""stim_listA/fight7.gif""</stim_listA>",,html-keyboard-response,274,1292954,0.0-17.0-1.0,20423,List1A,white,woman,,,,null,,,,
null,is fighting,,html-keyboard-response,275,1294959,0.0-17.0-2.0,20423,List1A,white,woman,,,,null,,,,
15534,,,survey-text,276,1310498,0.0-17.0-3.0,20423,List1A,white,woman,,,,,"{""Q0"":""Jane is fighting Kate.""}","<img src=""stim_listA/fight7.gif""</stim_listA>",is fighting,
null,"<div style=""font-size:60px;"">+</div>",,html-keyboard-response,277,1311007,0.0-17.0-0.1,20423,List1A,white,woman,,,,null,,,,
null,"<img src=""stim_listA/talk2.gif""</stim_listA>",,html-keyboard-response,278,1313012,0.0-17.0-1.1,20423,List1A,white,woman,,,,null,,,,
null,are talking to each other,,html-keyboard-response,279,1315014,0.0-17.0-2.1,20423,List1A,white,woman,,,,null,,,,
18334,,,survey-text,280,1333353,0.0-17.0-3.1,20423,List1A,white,woman,,,,,"{""Q0"":""Beth and Mike are talking to each other.""}","<img src=""stim_listA/talk2.gif""</stim_listA>",are talking to each other,
null,"<div style=""font-size:60px;"">+</div>",,html-keyboard-response,281,1333856,0.0-17.0-0.2,20423,List1A,white,woman,,,,null,,,,
null,"<img src=""stim_listA/touch5.gif""</stim_listA>",,html-keyboard-response,282,1335863,0.0-17.0-1.2,20423,List1A,white,woman,,,,null,,,,
null,is touching,,html-keyboard-response,283,1337868,0.0-17.0-2.2,20423,List1A,white,woman,,,,null,,,,
7773,,,survey-text,284,1345645,0.0-17.0-3.2,20423,List1A,white,woman,,,,,"{""Q0"":""Dave is touching Mike.""}","<img src=""stim_listA/touch5.gif""</stim_listA>",is touching,
null,"<div style=""font-size:60px;"">+</div>",,html-keyboard-response,285,1346147,0.0-17.0-0.3,20423,List1A,white,woman,,,,null,,,,
null,"<img src=""stim_listA/dance6.gif""</stim_listA>",,html-keyboard-response,286,1348159,0.0-17.0-1.3,20423,List1A,white,woman,,,,null,,,,
null,are dancing with each other,,html-keyboard-response,287,1350165,0.0-17.0-2.3,20423,List1A,white,woman,,,,null,,,,
17634,,,survey-text,288,1367803,0.0-17.0-3.3,20423,List1A,white,woman,,,,,"{""Q0"":""Luke and Mike are dancing with each other.""}","<img src=""stim_listA/dance6.gif""</stim_listA>",are dancing with each other,
null,"<div style=""font-size:60px;"">+</div>",,html-keyboard-response,289,1368307,0.0-17.0-0.4,20423,List1A,white,woman,,,,null,,,,
null,"<img src=""stim_listA/argue5.gif""</stim_listA>",,html-keyboard-response,290,1370313,0.0-17.0-1.4,20423,List1A,white,woman,,,,null,,,,
null,is arguing with,,html-keyboard-response,291,1372319,0.0-17.0-2.4,20423,List1A,white,woman,,,,null,,,,
8294,,,survey-text,292,1380616,0.0-17.0-3.4,20423,List1A,white,woman,,,,,"{""Q0"":""Luke is arguing with Mike.""}","<img src=""stim_listA/argue5.gif""</stim_listA>",is arguing with,
null,"<div style=""font-size:60px;"">+</div>",,html-keyboard-response,293,1381121,0.0-17.0-0.5,20423,List1A,white,woman,,,,null,,,,
null,"<img src=""stim_listA/talk3.gif""</stim_listA>",,html-keyboard-response,294,1383131,0.0-17.0-1.5,20423,List1A,white,woman,,,,null,,,,
null,is talking to,,html-keyboard-response,295,1385136,0.0-17.0-2.5,20423,List1A,white,woman,,,,null,,,,
9647,,,survey-text,296,1394789,0.0-17.0-3.5,20423,List1A,white,woman,,,,,"{""Q0"":""Luke is talking to Jane.""}","<img src=""stim_listA/talk3.gif""</stim_listA>",is talking to,
null,"<div style=""font-size:60px;"">+</div>",,html-keyboard-response,297,1395299,0.0-17.0-0.6,20423,List1A,white,woman,,,,null,,,,
null,"<img src=""stim_listA/dance1.gif""</stim_listA>",,html-keyboard-response,298,1397304,0.0-17.0-1.6,20423,List1A,white,woman,,,,null,,,,
null,is dancing with,,html-keyboard-response,299,1399307,0.0-17.0-2.6,20423,List1A,white,woman,,,,null,,,,
8248,,,survey-text,300,1407560,0.0-17.0-3.6,20423,List1A,white,woman,,,,,"{""Q0"":""Fred is dancing with Kate.""}","<img src=""stim_listA/dance1.gif""</stim_listA>",is dancing with,
null,"<div style=""font-size:60px;"">+</div>",,html-keyboard-response,301,1408063,0.0-17.0-0.7,20423,List1A,white,woman,,,,null,,,,
null,"<img src=""stim_listA/meet5.gif""</stim_listA>",,html-keyboard-response,302,1410081,0.0-17.0-1.7,20423,List1A,white,woman,,,,null,,,,
null,is meeting,,html-keyboard-response,303,1412086,0.0-17.0-2.7,20423,List1A,white,woman,,,,null,,,,
7859,,,survey-text,304,1419949,0.0-17.0-3.7,20423,List1A,white,woman,,,,,"{""Q0"":""Mike is meeting Dave.""}","<img src=""stim_listA/meet5.gif""</stim_listA>",is meeting,
null,"<div style=""font-size:60px;"">+</div>",,html-keyboard-response,305,1420454,0.0-17.0-0.8,20423,List1A,white,woman,,,,null,,,,
null,"<img src=""stim_listA/argue4.gif""</stim_listA>",,html-keyboard-response,306,1422481,0.0-17.0-1.8,20423,List1A,white,woman,,,,null,,,,
null,are arguing with each other,,html-keyboard-response,307,1424486,0.0-17.0-2.8,20423,List1A,white,woman,,,,null,,,,
11367,,,survey-text,308,1435857,0.0-17.0-3.8,20423,List1A,white,woman,,,,,"{""Q0"":""Jane and Luke are arguing with each other.""}","<img src=""stim_listA/argue4.gif""</stim_listA>",are arguing with each other,
null,"<div style=""font-size:60px;"">+</div>",,html-keyboard-response,309,1436361,0.0-17.0-0.9,20423,List1A,white,woman,,,,null,,,,
null,"<img src=""stim_listA/argue3.gif""</stim_listA>",,html-keyboard-response,310,1438374,0.0-17.0-1.9,20423,List1A,white,woman,,,,null,,,,
null,is arguing with,,html-keyboard-response,311,1440380,0.0-17.0-2.9,20423,List1A,white,woman,,,,null,,,,
8497,,,survey-text,312,1448881,0.0-17.0-3.9,20423,List1A,white,woman,,,,,"{""Q0"":""Ruth is arguing with Dave.""}","<img src=""stim_listA/argue3.gif""</stim_listA>",is arguing with,
null,"<div style=""font-size:60px;"">+</div>",,html-keyboard-response,313,1449388,0.0-17.0-0.10,20423,List1A,white,woman,,,,null,,,,
null,"<img src=""stim_listA/touch7.gif""</stim_listA>",,html-keyboard-response,314,1451396,0.0-17.0-1.10,20423,List1A,white,woman,,,,null,,,,
null,is touching,,html-keyboard-response,315,1453402,0.0-17.0-2.10,20423,List1A,white,woman,,,,null,,,,
7094,,,survey-text,316,1460499,0.0-17.0-3.10,20423,List1A,white,woman,,,,,"{""Q0"":""Kate is touching Jane.""}","<img src=""stim_listA/touch7.gif""</stim_listA>",is touching,
null,"<div style=""font-size:60px;"">+</div>",,html-keyboard-response,317,1461002,0.0-17.0-0.11,20423,List1A,white,woman,,,,null,,,,
null,"<img src=""stim_listA/meet2.gif""</stim_listA>",,html-keyboard-response,318,1463010,0.0-17.0-1.11,20423,List1A,white,woman,,,,null,,,,
null,are meeting each other,,html-keyboard-response,319,1465015,0.0-17.0-2.11,20423,List1A,white,woman,,,,null,,,,
18123,,,survey-text,320,1483142,0.0-17.0-3.11,20423,List1A,white,woman,,,,,"{""Q0"":""Beth and Fred are meeting each other.""}","<img src=""stim_listA/meet2.gif""</stim_listA>",are meeting each other,
null,"<div style=""font-size:60px;"">+</div>",,html-keyboard-response,321,1483646,0.0-17.0-0.12,20423,List1A,white,woman,,,,null,,,,
null,"<img src=""stim_listA/talk1.gif""</stim_listA>",,html-keyboard-response,322,1485654,0.0-17.0-1.12,20423,List1A,white,woman,,,,null,,,,
null,is talking to,,html-keyboard-response,323,1487659,0.0-17.0-2.12,20423,List1A,white,woman,,,,null,,,,
7639,,,survey-text,324,1495301,0.0-17.0-3.12,20423,List1A,white,woman,,,,,"{""Q0"":""Fred is talking to Kate.""}","<img src=""stim_listA/talk1.gif""</stim_listA>",is talking to,
null,"<div style=""font-size:60px;"">+</div>",,html-keyboard-response,325,1495805,0.0-17.0-0.13,20423,List1A,white,woman,,,,null,,,,
null,"<img src=""stim_listA/kiss5.gif""</stim_listA>",,html-keyboard-response,326,1497814,0.0-17.0-1.13,20423,List1A,white,woman,,,,null,,,,
null,is kissing,,html-keyboard-response,327,1499817,0.0-17.0-2.13,20423,List1A,white,woman,,,,null,,,,
8497,,,survey-text,328,1508320,0.0-17.0-3.13,20423,List1A,white,woman,,,,,"{""Q0"":""Fred is kissing Luke.""}","<img src=""stim_listA/kiss5.gif""</stim_listA>",is kissing,
null,"<div style=""font-size:60px;"">+</div>",,html-keyboard-response,329,1508824,0.0-17.0-0.14,20423,List1A,white,woman,,,,null,,,,
null,"<img src=""stim_listA/dance7.gif""</stim_listA>",,html-keyboard-response,330,1510831,0.0-17.0-1.14,20423,List1A,white,woman,,,,null,,,,
null,is dancing with,,html-keyboard-response,331,1512838,0.0-17.0-2.14,20423,List1A,white,woman,,,,null,,,,
7635,,,survey-text,332,1520477,0.0-17.0-3.14,20423,List1A,white,woman,,,,,"{""Q0"":""Jane is dancing with Beth.""}","<img src=""stim_listA/dance7.gif""</stim_listA>",is dancing with,
null,"<div style=""font-size:60px;"">+</div>",,html-keyboard-response,333,1520981,0.0-17.0-0.15,20423,List1A,white,woman,,,,null,,,,
null,"<img src=""stim_listA/dance5.gif""</stim_listA>",,html-keyboard-response,334,1522988,0.0-17.0-1.15,20423,List1A,white,woman,,,,null,,,,
null,is dancing with,,html-keyboard-response,335,1524998,0.0-17.0-2.15,20423,List1A,white,woman,,,,null,,,,
7469,,,survey-text,336,1532471,0.0-17.0-3.15,20423,List1A,white,woman,,,,,"{""Q0"":""Dave is dancin with Fred.""}","<img src=""stim_listA/dance5.gif""</stim_listA>",is dancing with,
null,"<div style=""font-size:60px;"">+</div>",,html-keyboard-response,337,1532975,0.0-17.0-0.16,20423,List1A,white,woman,,,,null,,,,
null,"<img src=""stim_listA/talk5.gif""</stim_listA>",,html-keyboard-response,338,1534986,0.0-17.0-1.16,20423,List1A,white,woman,,,,null,,,,
null,is talking to,,html-keyboard-response,339,1536993,0.0-17.0-2.16,20423,List1A,white,woman,,,,null,,,,
6922,,,survey-text,340,1543920,0.0-17.0-3.16,20423,List1A,white,woman,,,,,"{""Q0"":""Fred is talking to Dave.""}","<img src=""stim_listA/talk5.gif""</stim_listA>",is talking to,
null,"<div style=""font-size:60px;"">+</div>",,html-keyboard-response,341,1544426,0.0-17.0-0.17,20423,List1A,white,woman,,,,null,,,,
null,"<img src=""stim_listA/touch6.gif""</stim_listA>",,html-keyboard-response,342,1546434,0.0-17.0-1.17,20423,List1A,white,woman,,,,null,,,,
null,are touching each other,,html-keyboard-response,343,1548440,0.0-17.0-2.17,20423,List1A,white,woman,,,,null,,,,
14987,,,survey-text,344,1563433,0.0-17.0-3.17,20423,List1A,white,woman,,,,,"{""Q0"":""Fred and Luke are touching each other.""}","<img src=""stim_listA/touch6.gif""</stim_listA>",are touching each other,
null,"<div style=""font-size:60px;"">+</div>",,html-keyboard-response,345,1563939,0.0-17.0-0.18,20423,List1A,white,woman,,,,null,,,,
null,"<img src=""stim_listA/argue8.gif""</stim_listA>",,html-keyboard-response,346,1565949,0.0-17.0-1.18,20423,List1A,white,woman,,,,null,,,,
null,are arguing with each other,,html-keyboard-response,347,1567956,0.0-17.0-2.18,20423,List1A,white,woman,,,,null,,,,
12639,,,survey-text,348,1580607,0.0-17.0-3.18,20423,List1A,white,woman,,,,,"{""Q0"":""Jane and abeth are arguing with each other.""}","<img src=""stim_listA/argue8.gif""</stim_listA>",are arguing with each other,
null,"<div style=""font-size:60px;"">+</div>",,html-keyboard-response,349,1581111,0.0-17.0-0.19,20423,List1A,white,woman,,,,null,,,,
null,"<img src=""stim_listA/marry1.gif""</stim_listA>",,html-keyboard-response,350,1583125,0.0-17.0-1.19,20423,List1A,white,woman,,,,null,,,,
null,is marrying,,html-keyboard-response,351,1585130,0.0-17.0-2.19,20423,List1A,white,woman,,,,null,,,,
7349,,,survey-text,352,1592483,0.0-17.0-3.19,20423,List1A,white,woman,,,,,"{""Q0"":""Mike is marrying Beth.""}","<img src=""stim_listA/marry1.gif""</stim_listA>",is marrying,
2918,"<img src='img/portrait_matrix_list1.JPG' style='width:900px;height:500px;''></img><p>If you have memorised all the portraits and names and are ready to start, press Continue.</p><p><strong>Please note: Your memory of these faces will be tested 4 times during this experiment.</strong></p>",0,html-button-response,353,1595419,0.0-18.0-0.0,20423,List1A,white,woman,,,,,,,,
2361,"<img src=""portrait/BW1.jpg""style=""width:400px;height:400px;""></img>",0,html-button-response,354,1598785,0.0-18.0-1.0,20423,List1A,white,woman,,TRUE,0,,,,,
null,CORRECT,,html-keyboard-response,355,1600292,0.0-18.0-2.0-0.0,20423,List1A,white,woman,,,,null,,,,
1617,"<img src=""portrait/WW2.jpg""style=""width:400px;height:400px;""></img>",3,html-button-response,356,1601915,0.0-18.0-4.0,20423,List1A,white,woman,,TRUE,3,,,,,
null,CORRECT,,html-keyboard-response,357,1603420,0.0-18.0-5.0-0.0,20423,List1A,white,woman,,,,null,,,,
1497,"<img src=""portrait/WW1.jpg""style=""width:400px;height:400px;""></img>",1,html-button-response,358,1604924,0.0-18.0-7.0,20423,List1A,white,woman,,TRUE,1,,,,,
null,CORRECT,,html-keyboard-response,359,1606429,0.0-18.0-8.0-0.0,20423,List1A,white,woman,,,,null,,,,
2612,"<img src=""portrait/BM1.jpg""style=""width:400px;height:400px;""></img>",4,html-button-response,360,1609047,0.0-18.0-10.0,20423,List1A,white,woman,,TRUE,4,,,,,
null,CORRECT,,html-keyboard-response,361,1610552,0.0-18.0-11.0-0.0,20423,List1A,white,woman,,,,null,,,,
1849,"<img src=""portrait/BW2.jpg""style=""width:400px;height:400px;""></img>",2,html-button-response,362,1612409,0.0-18.0-13.0,20423,List1A,white,woman,,TRUE,2,,,,,
null,CORRECT,,html-keyboard-response,363,1613914,0.0-18.0-14.0-0.0,20423,List1A,white,woman,,,,null,,,,
2536,"<img src=""portrait/WM1.jpg""style=""width:400px;height:400px;""></img>",6,html-button-response,364,1616459,0.0-18.0-16.0,20423,List1A,white,woman,,TRUE,6,,,,,
null,CORRECT,,html-keyboard-response,365,1617963,0.0-18.0-17.0-0.0,20423,List1A,white,woman,,,,null,,,,
2524,"<img src=""portrait/BM2.jpg""style=""width:400px;height:400px;""></img>",5,html-button-response,366,1620493,0.0-18.0-19.0,20423,List1A,white,woman,,TRUE,5,,,,,
null,CORRECT,,html-keyboard-response,367,1621997,0.0-18.0-20.0-0.0,20423,List1A,white,woman,,,,null,,,,
2058,"<img src=""portrait/WM2.jpg""style=""width:400px;height:400px;""></img>",7,html-button-response,368,1624062,0.0-18.0-22.0,20423,List1A,white,woman,,TRUE,7,,,,,
null,CORRECT,,html-keyboard-response,369,1625567,0.0-18.0-23.0-0.0,20423,List1A,white,woman,,,,null,,,,
1750,<p>You got 8 out of 8 right first time. Press Continue.</p>,0,html-button-response,370,1627324,0.0-18.0-25.0,20423,List1A,white,woman,,,,,,,,
null,"<div style=""font-size:60px;"">+</div>",,html-keyboard-response,371,1628846,0.0-19.0-0.0,20423,List1A,white,woman,,,,null,,,,
null,"<img src=""stim_listA/marry3.gif""</stim_listA>",,html-keyboard-response,372,1630859,0.0-19.0-1.0,20423,List1A,white,woman,,,,null,,,,
null,is marrying,,html-keyboard-response,373,1632865,0.0-19.0-2.0,20423,List1A,white,woman,,,,null,,,,
8610,,,survey-text,374,1641479,0.0-19.0-3.0,20423,List1A,white,woman,,,,,"{""Q0"":""Ruth is marrying Dave.""}","<img src=""stim_listA/marry3.gif""</stim_listA>",is marrying,
null,"<div style=""font-size:60px;"">+</div>",,html-keyboard-response,375,1641985,0.0-19.0-0.1,20423,List1A,white,woman,,,,null,,,,
null,"<img src=""stim_listA/hug4.gif""</stim_listA>",,html-keyboard-response,376,1643991,0.0-19.0-1.1,20423,List1A,white,woman,,,,null,,,,
null,are hugging each other,,html-keyboard-response,377,1645999,0.0-19.0-2.1,20423,List1A,white,woman,,,,null,,,,
10275,,,survey-text,378,1656279,0.0-19.0-3.1,20423,List1A,white,woman,,,,,"{""Q0"":""Jane and Dave are hugging each other.""}","<img src=""stim_listA/hug4.gif""</stim_listA>",are hugging each other,
null,"<div style=""font-size:60px;"">+</div>",,html-keyboard-response,379,1656782,0.0-19.0-0.2,20423,List1A,white,woman,,,,null,,,,
null,"<img src=""stim_listA/dance3.gif""</stim_listA>",,html-keyboard-response,380,1658786,0.0-19.0-1.2,20423,List1A,white,woman,,,,null,,,,
null,is dancing with,,html-keyboard-response,381,1660790,0.0-19.0-2.2,20423,List1A,white,woman,,,,null,,,,
7005,,,survey-text,382,1667803,0.0-19.0-3.2,20423,List1A,white,woman,,,,,"{""Q0"":""Luke is dancing with Jane.""}","<img src=""stim_listA/dance3.gif""</stim_listA>",is dancing with,
null,"<div style=""font-size:60px;"">+</div>",,html-keyboard-response,383,1668315,0.0-19.0-0.3,20423,List1A,white,woman,,,,null,,,,
null,"<img src=""stim_listA/meet8.gif""</stim_listA>",,html-keyboard-response,384,1670321,0.0-19.0-1.3,20423,List1A,white,woman,,,,null,,,,
null,are meeting each other,,html-keyboard-response,385,1672325,0.0-19.0-2.3,20423,List1A,white,woman,,,,null,,,,
12965,,,survey-text,386,1685293,0.0-19.0-3.3,20423,List1A,white,woman,,,,,"{""Q0"":""Ruth and Beth are meeting each other.""}","<img src=""stim_listA/meet8.gif""</stim_listA>",are meeting each other,
null,"<div style=""font-size:60px;"">+</div>",,html-keyboard-response,387,1685797,0.0-19.0-0.4,20423,List1A,white,woman,,,,null,,,,
null,"<img src=""stim_listA/kiss4.gif""</stim_listA>",,html-keyboard-response,388,1687806,0.0-19.0-1.4,20423,List1A,white,woman,,,,null,,,,
null,are kissing each other,,html-keyboard-response,389,1689811,0.0-19.0-2.4,20423,List1A,white,woman,,,,null,,,,
9666,,,survey-text,390,1699481,0.0-19.0-3.4,20423,List1A,white,woman,,,,,"{""Q0"":""Jane and Dave are kissing each other.""}","<img src=""stim_listA/kiss4.gif""</stim_listA>",are kissing each other,
null,"<div style=""font-size:60px;"">+</div>",,html-keyboard-response,391,1699984,0.0-19.0-0.5,20423,List1A,white,woman,,,,null,,,,
null,"<img src=""stim_listA/hug6.gif""</stim_listA>",,html-keyboard-response,392,1701990,0.0-19.0-1.5,20423,List1A,white,woman,,,,null,,,,
null,are hugging each other,,html-keyboard-response,393,1703996,0.0-19.0-2.5,20423,List1A,white,woman,,,,null,,,,
9422,,,survey-text,394,1713422,0.0-19.0-3.5,20423,List1A,white,woman,,,,,"{""Q0"":""Mike and Dave are hugging each other.""}","<img src=""stim_listA/hug6.gif""</stim_listA>",are hugging each other,
null,"<div style=""font-size:60px;"">+</div>",,html-keyboard-response,395,1713926,0.0-19.0-0.6,20423,List1A,white,woman,,,,null,,,,
null,"<img src=""stim_listA/meet3.gif""</stim_listA>",,html-keyboard-response,396,1715941,0.0-19.0-1.6,20423,List1A,white,woman,,,,null,,,,
null,is meeting,,html-keyboard-response,397,1717945,0.0-19.0-2.6,20423,List1A,white,woman,,,,null,,,,
7163,,,survey-text,398,1725112,0.0-19.0-3.6,20423,List1A,white,woman,,,,,"{""Q0"":""Dave is meeting Jane.""}","<img src=""stim_listA/meet3.gif""</stim_listA>",is meeting,
null,"<div style=""font-size:60px;"">+</div>",,html-keyboard-response,399,1725616,0.0-19.0-0.7,20423,List1A,white,woman,,,,null,,,,
null,"<img src=""stim_listA/hug3.gif""</stim_listA>",,html-keyboard-response,400,1727628,0.0-19.0-1.7,20423,List1A,white,woman,,,,null,,,,
null,is hugging,,html-keyboard-response,401,1729633,0.0-19.0-2.7,20423,List1A,white,woman,,,,null,,,,
6766,,,survey-text,402,1736402,0.0-19.0-3.7,20423,List1A,white,woman,,,,,"{""Q0"":""Ruth is hugging Luke.""}","<img src=""stim_listA/hug3.gif""</stim_listA>",is hugging,
null,"<div style=""font-size:60px;"">+</div>",,html-keyboard-response,403,1736907,0.0-19.0-0.8,20423,List1A,white,woman,,,,null,,,,
null,"<img src=""stim_listA/kiss2.gif""</stim_listA>",,html-keyboard-response,404,1738918,0.0-19.0-1.8,20423,List1A,white,woman,,,,null,,,,
null,are kissing each other,,html-keyboard-response,405,1740921,0.0-19.0-2.8,20423,List1A,white,woman,,,,null,,,,
14305,,,survey-text,406,1755231,0.0-19.0-3.8,20423,List1A,white,woman,,,,,"{""Q0"":""Mike and Kate are kissing each other.""}","<img src=""stim_listA/kiss2.gif""</stim_listA>",are kissing each other,
null,"<div style=""font-size:60px;"">+</div>",,html-keyboard-response,407,1755737,0.0-19.0-0.9,20423,List1A,white,woman,,,,null,,,,
null,"<img src=""stim_listA/fight5.gif""</stim_listA>",,html-keyboard-response,408,1757745,0.0-19.0-1.9,20423,List1A,white,woman,,,,null,,,,
null,is fighting,,html-keyboard-response,409,1759750,0.0-19.0-2.9,20423,List1A,white,woman,,,,null,,,,
6733,,,survey-text,410,1766486,0.0-19.0-3.9,20423,List1A,white,woman,,,,,"{""Q0"":""Dave is fighting mike""}","<img src=""stim_listA/fight5.gif""</stim_listA>",is fighting,
null,"<div style=""font-size:60px;"">+</div>",,html-keyboard-response,411,1766991,0.0-19.0-0.10,20423,List1A,white,woman,,,,null,,,,
null,"<img src=""stim_listA/meet7.gif""</stim_listA>",,html-keyboard-response,412,1768999,0.0-19.0-1.10,20423,List1A,white,woman,,,,null,,,,
null,is meeting,,html-keyboard-response,413,1771002,0.0-19.0-2.10,20423,List1A,white,woman,,,,null,,,,
5221,,,survey-text,414,1776228,0.0-19.0-3.10,20423,List1A,white,woman,,,,,"{""Q0"":""Jane is meeting kate""}","<img src=""stim_listA/meet7.gif""</stim_listA>",is meeting,
null,"<div style=""font-size:60px;"">+</div>",,html-keyboard-response,415,1776732,0.0-19.0-0.11,20423,List1A,white,woman,,,,null,,,,
null,"<img src=""stim_listA/talk7.gif""</stim_listA>",,html-keyboard-response,416,1778738,0.0-19.0-1.11,20423,List1A,white,woman,,,,null,,,,
null,is talking to,,html-keyboard-response,417,1780743,0.0-19.0-2.11,20423,List1A,white,woman,,,,null,,,,
6746,,,survey-text,418,1787494,0.0-19.0-3.11,20423,List1A,white,woman,,,,,"{""Q0"":""Jane is talking to kate""}","<img src=""stim_listA/talk7.gif""</stim_listA>",is talking to,
null,"<div style=""font-size:60px;"">+</div>",,html-keyboard-response,419,1787998,0.0-19.0-0.12,20423,List1A,white,woman,,,,null,,,,
null,"<img src=""stim_listA/argue7.gif""</stim_listA>",,html-keyboard-response,420,1790005,0.0-19.0-1.12,20423,List1A,white,woman,,,,null,,,,
null,is arguing with,,html-keyboard-response,421,1792011,0.0-19.0-2.12,20423,List1A,white,woman,,,,null,,,,
7665,,,survey-text,422,1799681,0.0-19.0-3.12,20423,List1A,white,woman,,,,,"{""Q0"":""Kate is arguing with Ruth ""}","<img src=""stim_listA/argue7.gif""</stim_listA>",is arguing with,
null,"<div style=""font-size:60px;"">+</div>",,html-keyboard-response,423,1800185,0.0-19.0-0.13,20423,List1A,white,woman,,,,null,,,,
null,"<img src=""stim_listA/shout6.gif""</stim_listA>",,html-keyboard-response,424,1802195,0.0-19.0-1.13,20423,List1A,white,woman,,,,null,,,,
null,are shouting at each other,,html-keyboard-response,425,1804200,0.0-19.0-2.13,20423,List1A,white,woman,,,,null,,,,
12952,,,survey-text,426,1817156,0.0-19.0-3.13,20423,List1A,white,woman,,,,,"{""Q0"":""Mike and Dave are shouting at each other""}","<img src=""stim_listA/shout6.gif""</stim_listA>",are shouting at each other,
null,"<div style=""font-size:60px;"">+</div>",,html-keyboard-response,427,1817661,0.0-19.0-0.14,20423,List1A,white,woman,,,,null,,,,
null,"<img src=""stim_listA/marry4.gif""</stim_listA>",,html-keyboard-response,428,1819676,0.0-19.0-1.14,20423,List1A,white,woman,,,,null,,,,
null,are marrying each other,,html-keyboard-response,429,1821682,0.0-19.0-2.14,20423,List1A,white,woman,,,,null,,,,
9344,,,survey-text,430,1831031,0.0-19.0-3.14,20423,List1A,white,woman,,,,,"{""Q0"":""Jane and Luke are marrying each other""}","<img src=""stim_listA/marry4.gif""</stim_listA>",are marrying each other,
null,"<div style=""font-size:60px;"">+</div>",,html-keyboard-response,431,1831538,0.0-19.0-0.15,20423,List1A,white,woman,,,,null,,,,
null,"<img src=""stim_listA/talk6.gif""</stim_listA>",,html-keyboard-response,432,1833546,0.0-19.0-1.15,20423,List1A,white,woman,,,,null,,,,
null,are talking to each other,,html-keyboard-response,433,1835550,0.0-19.0-2.15,20423,List1A,white,woman,,,,null,,,,
9833,,,survey-text,434,1845387,0.0-19.0-3.15,20423,List1A,white,woman,,,,,"{""Q0"":""Mike and Luke are talking to each other ""}","<img src=""stim_listA/talk6.gif""</stim_listA>",are talking to each other,
null,"<div style=""font-size:60px;"">+</div>",,html-keyboard-response,435,1845892,0.0-19.0-0.16,20423,List1A,white,woman,,,,null,,,,
null,"<img src=""stim_listA/shout4.gif""</stim_listA>",,html-keyboard-response,436,1847899,0.0-19.0-1.16,20423,List1A,white,woman,,,,null,,,,
null,are shouting at each other,,html-keyboard-response,437,1849904,0.0-19.0-2.16,20423,List1A,white,woman,,,,null,,,,
9282,,,survey-text,438,1859190,0.0-19.0-3.16,20423,List1A,white,woman,,,,,"{""Q0"":""Jane and Dave are shouting at each other ""}","<img src=""stim_listA/shout4.gif""</stim_listA>",are shouting at each other,
null,"<div style=""font-size:60px;"">+</div>",,html-keyboard-response,439,1859695,0.0-19.0-0.17,20423,List1A,white,woman,,,,null,,,,
null,"<img src=""stim_listA/dance8.gif""</stim_listA>",,html-keyboard-response,440,1861703,0.0-19.0-1.17,20423,List1A,white,woman,,,,null,,,,
null,are dancing with each other,,html-keyboard-response,441,1863708,0.0-19.0-2.17,20423,List1A,white,woman,,,,null,,,,
11540,,,survey-text,442,1875253,0.0-19.0-3.17,20423,List1A,white,woman,,,,,"{""Q0"":""Ruth and Kate are dancing with each other ""}","<img src=""stim_listA/dance8.gif""</stim_listA>",are dancing with each other,
null,"<div style=""font-size:60px;"">+</div>",,html-keyboard-response,443,1875766,0.0-19.0-0.18,20423,List1A,white,woman,,,,null,,,,
null,"<img src=""stim_listA/dance2.gif""</stim_listA>",,html-keyboard-response,444,1877774,0.0-19.0-1.18,20423,List1A,white,woman,,,,null,,,,
null,are dancing with each other,,html-keyboard-response,445,1879781,0.0-19.0-2.18,20423,List1A,white,woman,,,,null,,,,
9425,,,survey-text,446,1889210,0.0-19.0-3.18,20423,List1A,white,woman,,,,,"{""Q0"":""Mike and Beth are dancing with each other""}","<img src=""stim_listA/dance2.gif""</stim_listA>",are dancing with each other,
null,"<div style=""font-size:60px;"">+</div>",,html-keyboard-response,447,1889717,0.0-19.0-0.19,20423,List1A,white,woman,,,,null,,,,
null,"<img src=""stim_listA/marry6.gif""</stim_listA>",,html-keyboard-response,448,1891723,0.0-19.0-1.19,20423,List1A,white,woman,,,,null,,,,
null,are marrying each other,,html-keyboard-response,449,1893728,0.0-19.0-2.19,20423,List1A,white,woman,,,,null,,,,
9499,,,survey-text,450,1903231,0.0-19.0-3.19,20423,List1A,white,woman,,,,,"{""Q0"":""Fred and Dave are marrying each other ""}","<img src=""stim_listA/marry6.gif""</stim_listA>",are marrying each other,
1792,<p>Thank you for completing that task.</p><p>The final part of this session is a short questionnaire.</p><p>Press Continue.</p>,0,html-button-response,451,1905027,0.0-20.0,20423,List1A,white,woman,,,,,,,,
30204,,,survey-text,452,1936238,0.0-21.0,20423,List1A,white,woman,,,,,"{""Q0"":""38"",""Q1"":""English"",""Q2"":""English "",""Q3"":""United Kingdom "",""Q4"":""British"",""Q5"":""Female""}",,,demographics
46939,,,survey-likert,453,1983241,0.0-22.0,20423,List1A,white,woman,,,,,"{""Q0"":6,""Q1"":6,""Q2"":5,""Q3"":5,""Q4"":5,""Q5"":5,""Q6"":5,""Q7"":5,""Q8"":6,""Q9"":6,""Q10"":6,""Q11"":6,""Q12"":6,""Q13"":6}",,,likert_race
36709,,,survey-likert,454,2019966,0.0-23.0,20423,List1A,white,woman,,,,,"{""Q0"":6,""Q1"":6,""Q2"":6,""Q3"":6,""Q4"":6,""Q5"":6,""Q6"":6,""Q7"":6,""Q8"":6,""Q9"":6,""Q10"":6,""Q11"":6,""Q12"":6,""Q13"":6}",,,likert_gender
12108,,,survey-text,455,2032088,0.0-24.0,20423,List1A,white,woman,,,,,"{""Q0"":""dcfulford80@gmail.com""}",,,worker_id
3036,,,external-html,456,2035525,0.0-25.0,20423,List1A,white,woman,debrief.html,,,,,,,
