rt,stimulus,button_pressed,trial_type,trial_index,time_elapsed,internal_node_id,subject,list,ppt_race,ppt_gender,url,first_guess,correct,key_press,responses,image_type,phrase_type,test_part
3359,Welcome to the experiment. Press Continue to begin.,0,html-button-response,0,3364,0.0-0.0,20671,List1B,black,woman,,,,,,,,
84223,,,external-html,1,88764,0.0-1.0,20671,List1B,black,woman,consent.html,,,,,,,
17247,"<p>On the next page, you will see portraits of 8 people and their names.</p><p>Your first task is to take a few minutes to memorise the names of these people.</p><p>You will have to recall their names during the rest of the experiment, so it is</p><p>essential that you try to memorise these people and their names as best as you can.</p><br><p><strong>You will then be tested on your memory of these names and portraits.</strong></p><br><p>The experiment will start after you have completed this memory test.</p><br><p>Ready?</p>",0,html-button-response,2,106014,0.0-2.0,20671,List1B,black,woman,,,,,,,,
107499,"<img src='img/portrait_matrix_list1.JPG' style='width:900px;height:500px;''></img><p>If you have memorised all the portraits and names and are ready to start, press Continue.</p><p><strong>Please note: Your memory of these faces will be tested 4 times during this experiment.</strong></p>",0,html-button-response,3,214516,0.0-3.0-0.0,20671,List1B,black,woman,,,,,,,,
12739,"<img src=""portrait/BW2.jpg""style=""width:400px;height:400px;""></img>",2,html-button-response,4,228259,0.0-3.0-1.0,20671,List1B,black,woman,,TRUE,2,,,,,
null,CORRECT,,html-keyboard-response,5,229767,0.0-3.0-2.0-0.0,20671,List1B,black,woman,,,,null,,,,
7109,"<img src=""portrait/WM2.jpg""style=""width:400px;height:400px;""></img>",7,html-button-response,6,236879,0.0-3.0-4.0,20671,List1B,black,woman,,TRUE,7,,,,,
null,CORRECT,,html-keyboard-response,7,238381,0.0-3.0-5.0-0.0,20671,List1B,black,woman,,,,null,,,,
7159,"<img src=""portrait/WM1.jpg""style=""width:400px;height:400px;""></img>",6,html-button-response,8,245543,0.0-3.0-7.0,20671,List1B,black,woman,,TRUE,6,,,,,
null,CORRECT,,html-keyboard-response,9,247045,0.0-3.0-8.0-0.0,20671,List1B,black,woman,,,,null,,,,
5917,"<img src=""portrait/BM2.jpg""style=""width:400px;height:400px;""></img>",5,html-button-response,10,252965,0.0-3.0-10.0,20671,List1B,black,woman,,TRUE,5,,,,,
null,CORRECT,,html-keyboard-response,11,254466,0.0-3.0-11.0-0.0,20671,List1B,black,woman,,,,null,,,,
6749,"<img src=""portrait/BM1.jpg""style=""width:400px;height:400px;""></img>",4,html-button-response,12,261218,0.0-3.0-13.0,20671,List1B,black,woman,,TRUE,4,,,,,
null,CORRECT,,html-keyboard-response,13,262720,0.0-3.0-14.0-0.0,20671,List1B,black,woman,,,,null,,,,
17701,"<img src=""portrait/WW1.jpg""style=""width:400px;height:400px;""></img>",1,html-button-response,14,280423,0.0-3.0-16.0,20671,List1B,black,woman,,TRUE,1,,,,,
null,CORRECT,,html-keyboard-response,15,281925,0.0-3.0-17.0-0.0,20671,List1B,black,woman,,,,null,,,,
7211,"<img src=""portrait/WW2.jpg""style=""width:400px;height:400px;""></img>",3,html-button-response,16,289139,0.0-3.0-19.0,20671,List1B,black,woman,,TRUE,3,,,,,
null,CORRECT,,html-keyboard-response,17,290641,0.0-3.0-20.0-0.0,20671,List1B,black,woman,,,,null,,,,
7532,"<img src=""portrait/BW1.jpg""style=""width:400px;height:400px;""></img>",0,html-button-response,18,298175,0.0-3.0-22.0,20671,List1B,black,woman,,TRUE,0,,,,,
null,CORRECT,,html-keyboard-response,19,299677,0.0-3.0-23.0-0.0,20671,List1B,black,woman,,,,null,,,,
2041,<p>You got 8 out of 8 right first time. Press Continue.</p>,0,html-button-response,20,301720,0.0-3.0-25.0,20671,List1B,black,woman,,,,,,,,
61557,"<p>In this experiment, you will view photographs of the people from the memory game interacting.</p><p>By using the <strong>exact</strong> phrase given <i>after</i> the photograph appears and recalling the correct names of the people in the photographs, form a sentence describing the interaction. You do not need to capitalise names.</p><p>Type your answer in the space provided. Please complete every sentence before moving onto the next trial.</p><p>You will only have a few seconds to memorise each given photograph and phrase before you can respond, so try your best to focus.</p><p>An example is given below. Press 'Continue' when you are ready.</p><img src='img/speaking_example_v2.jpg' style='width:800px;height:460px;''></img>",0,html-button-response,21,364282,0.0-4.0,20671,List1B,black,woman,,,,,,,,
4024,"<p>Before the experiment starts, you will watch two example trials. Press 'Continue'.</p>",0,html-button-response,22,369309,0.0-5.0,20671,List1B,black,woman,,,,,,,,
null,<img src='img/speaking_WW.gif'></img>,,html-keyboard-response,23,372311,0.0-6.0,20671,List1B,black,woman,,,,null,,,,
null,<p>is speaking to</p>,,html-keyboard-response,24,374312,0.0-7.0,20671,List1B,black,woman,,,,null,,,,
22818,<p><b>Answer:</b> kate is speaking to beth</p>,0,html-button-response,25,397132,0.0-8.0,20671,List1B,black,woman,,,,,,,,
null,<img src='img/pointing_BM.gif'></img>,,html-keyboard-response,26,400134,0.0-9.0,20671,List1B,black,woman,,,,null,,,,
null,<p>are pointing at each other</p>,,html-keyboard-response,27,402135,0.0-10.0,20671,List1B,black,woman,,,,null,,,,
12864,<p><b>Answer:</b> luke and dave are pointing at each other</p>,0,html-button-response,28,415001,0.0-11.0,20671,List1B,black,woman,,,,,,,,
48870,"<p>Ready to start the experiment?</p><br><p><strong>Remember to describe the picture using a full sentence,</strong></p><p><strong>that combines the names of the people with the given phrase.</strong></p><p><strong>If you do not do this correctly you will not be paid.</strong></p><p><strong> You do not need to capitalise names or use punctuation.</strong></p><br><p>Press 'Continue' to begin.</p>",0,html-button-response,29,464874,0.0-12.0,20671,List1B,black,woman,,,,,,,,
null,"<div style=""font-size:60px;"">+</div>",,html-keyboard-response,30,466376,0.0-13.0-0.0,20671,List1B,black,woman,,,,null,,,,
null,"<img src=""stim_listB/talk8.gif""</stim_listB>",,html-keyboard-response,31,468379,0.0-13.0-1.0,20671,List1B,black,woman,,,,null,,,,
null,are talking to each other,,html-keyboard-response,32,470381,0.0-13.0-2.0,20671,List1B,black,woman,,,,null,,,,
19190,,,survey-text,33,489573,0.0-13.0-3.0,20671,List1B,black,woman,,,,,"{""Q0"":""kate and ruth are talking to each other.""}","<img src=""stim_listB/talk8.gif""</stim_listB>",are talking to each other,
null,"<div style=""font-size:60px;"">+</div>",,html-keyboard-response,34,490075,0.0-13.0-0.1,20671,List1B,black,woman,,,,null,,,,
null,"<img src=""stim_listB/touch7.gif""</stim_listB>",,html-keyboard-response,35,492077,0.0-13.0-1.1,20671,List1B,black,woman,,,,null,,,,
null,is touching,,html-keyboard-response,36,494078,0.0-13.0-2.1,20671,List1B,black,woman,,,,null,,,,
15872,,,survey-text,37,509952,0.0-13.0-3.1,20671,List1B,black,woman,,,,,"{""Q0"":""jane and ruth are touching.""}","<img src=""stim_listB/touch7.gif""</stim_listB>",is touching,
null,"<div style=""font-size:60px;"">+</div>",,html-keyboard-response,38,510454,0.0-13.0-0.2,20671,List1B,black,woman,,,,null,,,,
null,"<img src=""stim_listB/argue4.gif""</stim_listB>",,html-keyboard-response,39,512456,0.0-13.0-1.2,20671,List1B,black,woman,,,,null,,,,
null,are arguing with each other,,html-keyboard-response,40,514457,0.0-13.0-2.2,20671,List1B,black,woman,,,,null,,,,
31890,,,survey-text,41,546350,0.0-13.0-3.2,20671,List1B,black,woman,,,,,"{""Q0"":""luke and jane are arguing with each other. ""}","<img src=""stim_listB/argue4.gif""</stim_listB>",are arguing with each other,
null,"<div style=""font-size:60px;"">+</div>",,html-keyboard-response,42,546851,0.0-13.0-0.3,20671,List1B,black,woman,,,,null,,,,
null,"<img src=""stim_listB/meet6.gif""</stim_listB>",,html-keyboard-response,43,548853,0.0-13.0-1.3,20671,List1B,black,woman,,,,null,,,,
null,are meeting each other,,html-keyboard-response,44,550854,0.0-13.0-2.3,20671,List1B,black,woman,,,,null,,,,
22740,,,survey-text,45,573596,0.0-13.0-3.3,20671,List1B,black,woman,,,,,"{""Q0"":""luke and fred are meeting each other.""}","<img src=""stim_listB/meet6.gif""</stim_listB>",are meeting each other,
null,"<div style=""font-size:60px;"">+</div>",,html-keyboard-response,46,574098,0.0-13.0-0.4,20671,List1B,black,woman,,,,null,,,,
null,"<img src=""stim_listB/shout7.gif""</stim_listB>",,html-keyboard-response,47,576100,0.0-13.0-1.4,20671,List1B,black,woman,,,,null,,,,
null,is shouting at,,html-keyboard-response,48,578101,0.0-13.0-2.4,20671,List1B,black,woman,,,,null,,,,
39630,,,survey-text,49,617733,0.0-13.0-3.4,20671,List1B,black,woman,,,,,"{""Q0"":""ruth is shouting at beth.""}","<img src=""stim_listB/shout7.gif""</stim_listB>",is shouting at,
null,"<div style=""font-size:60px;"">+</div>",,html-keyboard-response,50,618235,0.0-13.0-0.5,20671,List1B,black,woman,,,,null,,,,
null,"<img src=""stim_listB/touch1.gif""</stim_listB>",,html-keyboard-response,51,620237,0.0-13.0-1.5,20671,List1B,black,woman,,,,null,,,,
null,is touching,,html-keyboard-response,52,622239,0.0-13.0-2.5,20671,List1B,black,woman,,,,null,,,,
35844,,,survey-text,53,658084,0.0-13.0-3.5,20671,List1B,black,woman,,,,,"{""Q0"":""kate is touching mike.""}","<img src=""stim_listB/touch1.gif""</stim_listB>",is touching,
null,"<div style=""font-size:60px;"">+</div>",,html-keyboard-response,54,658586,0.0-13.0-0.6,20671,List1B,black,woman,,,,null,,,,
null,"<img src=""stim_listB/meet7.gif""</stim_listB>",,html-keyboard-response,55,660588,0.0-13.0-1.6,20671,List1B,black,woman,,,,null,,,,
null,is meeting,,html-keyboard-response,56,662589,0.0-13.0-2.6,20671,List1B,black,woman,,,,null,,,,
10882,,,survey-text,57,673473,0.0-13.0-3.6,20671,List1B,black,woman,,,,,"{""Q0"":""jane is meeting kate.""}","<img src=""stim_listB/meet7.gif""</stim_listB>",is meeting,
null,"<div style=""font-size:60px;"">+</div>",,html-keyboard-response,58,673974,0.0-13.0-0.7,20671,List1B,black,woman,,,,null,,,,
null,"<img src=""stim_listB/argue5.gif""</stim_listB>",,html-keyboard-response,59,675976,0.0-13.0-1.7,20671,List1B,black,woman,,,,null,,,,
null,is arguing with,,html-keyboard-response,60,677977,0.0-13.0-2.7,20671,List1B,black,woman,,,,null,,,,
13946,,,survey-text,61,691925,0.0-13.0-3.7,20671,List1B,black,woman,,,,,"{""Q0"":""luke is arguing with mike.""}","<img src=""stim_listB/argue5.gif""</stim_listB>",is arguing with,
null,"<div style=""font-size:60px;"">+</div>",,html-keyboard-response,62,692427,0.0-13.0-0.8,20671,List1B,black,woman,,,,null,,,,
null,"<img src=""stim_listB/meet1.gif""</stim_listB>",,html-keyboard-response,63,694429,0.0-13.0-1.8,20671,List1B,black,woman,,,,null,,,,
null,is meeting,,html-keyboard-response,64,696430,0.0-13.0-2.8,20671,List1B,black,woman,,,,null,,,,
20881,,,survey-text,65,717313,0.0-13.0-3.8,20671,List1B,black,woman,,,,,"{""Q0"":""kate is meeting mike.""}","<img src=""stim_listB/meet1.gif""</stim_listB>",is meeting,
null,"<div style=""font-size:60px;"">+</div>",,html-keyboard-response,66,717819,0.0-13.0-0.9,20671,List1B,black,woman,,,,null,,,,
null,"<img src=""stim_listB/marry6.gif""</stim_listB>",,html-keyboard-response,67,719821,0.0-13.0-1.9,20671,List1B,black,woman,,,,null,,,,
null,are marrying each other,,html-keyboard-response,68,721823,0.0-13.0-2.9,20671,List1B,black,woman,,,,null,,,,
25367,,,survey-text,69,747190,0.0-13.0-3.9,20671,List1B,black,woman,,,,,"{""Q0"":""dave and fred are marrying each other.""}","<img src=""stim_listB/marry6.gif""</stim_listB>",are marrying each other,
null,"<div style=""font-size:60px;"">+</div>",,html-keyboard-response,70,747693,0.0-13.0-0.10,20671,List1B,black,woman,,,,null,,,,
null,"<img src=""stim_listB/hug3.gif""</stim_listB>",,html-keyboard-response,71,749695,0.0-13.0-1.10,20671,List1B,black,woman,,,,null,,,,
null,is hugging,,html-keyboard-response,72,751696,0.0-13.0-2.10,20671,List1B,black,woman,,,,null,,,,
24502,,,survey-text,73,776200,0.0-13.0-3.10,20671,List1B,black,woman,,,,,"{""Q0"":""luke is hugging ruth.""}","<img src=""stim_listB/hug3.gif""</stim_listB>",is hugging,
null,"<div style=""font-size:60px;"">+</div>",,html-keyboard-response,74,776701,0.0-13.0-0.11,20671,List1B,black,woman,,,,null,,,,
null,"<img src=""stim_listB/argue6.gif""</stim_listB>",,html-keyboard-response,75,778703,0.0-13.0-1.11,20671,List1B,black,woman,,,,null,,,,
null,are arguing with each other,,html-keyboard-response,76,780704,0.0-13.0-2.11,20671,List1B,black,woman,,,,null,,,,
25190,,,survey-text,77,805896,0.0-13.0-3.11,20671,List1B,black,woman,,,,,"{""Q0"":""fred and dave are arguing.""}","<img src=""stim_listB/argue6.gif""</stim_listB>",are arguing with each other,
null,"<div style=""font-size:60px;"">+</div>",,html-keyboard-response,78,806398,0.0-13.0-0.12,20671,List1B,black,woman,,,,null,,,,
null,"<img src=""stim_listB/shout6.gif""</stim_listB>",,html-keyboard-response,79,808400,0.0-13.0-1.12,20671,List1B,black,woman,,,,null,,,,
null,are shouting at each other,,html-keyboard-response,80,810401,0.0-13.0-2.12,20671,List1B,black,woman,,,,null,,,,
20068,,,survey-text,81,830470,0.0-13.0-3.12,20671,List1B,black,woman,,,,,"{""Q0"":""mike and dave are shouting at each other.""}","<img src=""stim_listB/shout6.gif""</stim_listB>",are shouting at each other,
null,"<div style=""font-size:60px;"">+</div>",,html-keyboard-response,82,830972,0.0-13.0-0.13,20671,List1B,black,woman,,,,null,,,,
null,"<img src=""stim_listB/hug4.gif""</stim_listB>",,html-keyboard-response,83,832973,0.0-13.0-1.13,20671,List1B,black,woman,,,,null,,,,
null,are hugging each other,,html-keyboard-response,84,834975,0.0-13.0-2.13,20671,List1B,black,woman,,,,null,,,,
16527,,,survey-text,85,851504,0.0-13.0-3.13,20671,List1B,black,woman,,,,,"{""Q0"":""dave and jane are hugging each other.""}","<img src=""stim_listB/hug4.gif""</stim_listB>",are hugging each other,
null,"<div style=""font-size:60px;"">+</div>",,html-keyboard-response,86,852006,0.0-13.0-0.14,20671,List1B,black,woman,,,,null,,,,
null,"<img src=""stim_listB/hug2.gif""</stim_listB>",,html-keyboard-response,87,854008,0.0-13.0-1.14,20671,List1B,black,woman,,,,null,,,,
null,are hugging each other,,html-keyboard-response,88,856009,0.0-13.0-2.14,20671,List1B,black,woman,,,,null,,,,
11595,,,survey-text,89,867606,0.0-13.0-3.14,20671,List1B,black,woman,,,,,"{""Q0"":""mike and kate are hugging each other.""}","<img src=""stim_listB/hug2.gif""</stim_listB>",are hugging each other,
null,"<div style=""font-size:60px;"">+</div>",,html-keyboard-response,90,868108,0.0-13.0-0.15,20671,List1B,black,woman,,,,null,,,,
null,"<img src=""stim_listB/dance5.gif""</stim_listB>",,html-keyboard-response,91,870110,0.0-13.0-1.15,20671,List1B,black,woman,,,,null,,,,
null,is dancing with,,html-keyboard-response,92,872111,0.0-13.0-2.15,20671,List1B,black,woman,,,,null,,,,
13233,,,survey-text,93,885346,0.0-13.0-3.15,20671,List1B,black,woman,,,,,"{""Q0"":""fred is dancing with dave.""}","<img src=""stim_listB/dance5.gif""</stim_listB>",is dancing with,
null,"<div style=""font-size:60px;"">+</div>",,html-keyboard-response,94,885848,0.0-13.0-0.16,20671,List1B,black,woman,,,,null,,,,
null,"<img src=""stim_listB/talk2.gif""</stim_listB>",,html-keyboard-response,95,887850,0.0-13.0-1.16,20671,List1B,black,woman,,,,null,,,,
null,are talking to each other,,html-keyboard-response,96,889851,0.0-13.0-2.16,20671,List1B,black,woman,,,,null,,,,
14684,,,survey-text,97,904537,0.0-13.0-3.16,20671,List1B,black,woman,,,,,"{""Q0"":""mike and beth are talking to each other.""}","<img src=""stim_listB/talk2.gif""</stim_listB>",are talking to each other,
null,"<div style=""font-size:60px;"">+</div>",,html-keyboard-response,98,905039,0.0-13.0-0.17,20671,List1B,black,woman,,,,null,,,,
null,"<img src=""stim_listB/marry2.gif""</stim_listB>",,html-keyboard-response,99,907041,0.0-13.0-1.17,20671,List1B,black,woman,,,,null,,,,
null,are marrying each other,,html-keyboard-response,100,909042,0.0-13.0-2.17,20671,List1B,black,woman,,,,null,,,,
10867,,,survey-text,101,919910,0.0-13.0-3.17,20671,List1B,black,woman,,,,,"{""Q0"":""fred and kate are marrying each other.""}","<img src=""stim_listB/marry2.gif""</stim_listB>",are marrying each other,
null,"<div style=""font-size:60px;"">+</div>",,html-keyboard-response,102,920412,0.0-13.0-0.18,20671,List1B,black,woman,,,,null,,,,
null,"<img src=""stim_listB/shout3.gif""</stim_listB>",,html-keyboard-response,103,922414,0.0-13.0-1.18,20671,List1B,black,woman,,,,null,,,,
null,is shouting at,,html-keyboard-response,104,924415,0.0-13.0-2.18,20671,List1B,black,woman,,,,null,,,,
26711,,,survey-text,105,951128,0.0-13.0-3.18,20671,List1B,black,woman,,,,,"{""Q0"":""dave is shouting at jane.""}","<img src=""stim_listB/shout3.gif""</stim_listB>",is shouting at,
null,"<div style=""font-size:60px;"">+</div>",,html-keyboard-response,106,951630,0.0-13.0-0.19,20671,List1B,black,woman,,,,null,,,,
null,"<img src=""stim_listB/kiss5.gif""</stim_listB>",,html-keyboard-response,107,953632,0.0-13.0-1.19,20671,List1B,black,woman,,,,null,,,,
null,is kissing,,html-keyboard-response,108,955633,0.0-13.0-2.19,20671,List1B,black,woman,,,,null,,,,
28392,,,survey-text,109,984027,0.0-13.0-3.19,20671,List1B,black,woman,,,,,"{""Q0"":""luke and fred are kissing.""}","<img src=""stim_listB/kiss5.gif""</stim_listB>",is kissing,
14243,"<img src='img/portrait_matrix_list1.JPG' style='width:900px;height:500px;''></img><p>If you have memorised all the portraits and names and are ready to start, press Continue.</p><p><strong>Please note: Your memory of these faces will be tested 4 times during this experiment.</strong></p>",0,html-button-response,110,998271,0.0-14.0-0.0,20671,List1B,black,woman,,,,,,,,
3248,"<img src=""portrait/WM2.jpg""style=""width:400px;height:400px;""></img>",7,html-button-response,111,1002522,0.0-14.0-1.0,20671,List1B,black,woman,,TRUE,7,,,,,
null,CORRECT,,html-keyboard-response,112,1004024,0.0-14.0-2.0-0.0,20671,List1B,black,woman,,,,null,,,,
4844,"<img src=""portrait/BW2.jpg""style=""width:400px;height:400px;""></img>",2,html-button-response,113,1008870,0.0-14.0-4.0,20671,List1B,black,woman,,TRUE,2,,,,,
null,CORRECT,,html-keyboard-response,114,1010372,0.0-14.0-5.0-0.0,20671,List1B,black,woman,,,,null,,,,
5761,"<img src=""portrait/WW1.jpg""style=""width:400px;height:400px;""></img>",1,html-button-response,115,1016135,0.0-14.0-7.0,20671,List1B,black,woman,,TRUE,1,,,,,
null,CORRECT,,html-keyboard-response,116,1017637,0.0-14.0-8.0-0.0,20671,List1B,black,woman,,,,null,,,,
4705,"<img src=""portrait/BM2.jpg""style=""width:400px;height:400px;""></img>",5,html-button-response,117,1022345,0.0-14.0-10.0,20671,List1B,black,woman,,TRUE,5,,,,,
null,CORRECT,,html-keyboard-response,118,1023847,0.0-14.0-11.0-0.0,20671,List1B,black,woman,,,,null,,,,
6765,"<img src=""portrait/BM1.jpg""style=""width:400px;height:400px;""></img>",4,html-button-response,119,1030614,0.0-14.0-13.0,20671,List1B,black,woman,,TRUE,4,,,,,
null,CORRECT,,html-keyboard-response,120,1032116,0.0-14.0-14.0-0.0,20671,List1B,black,woman,,,,null,,,,
5427,"<img src=""portrait/WW2.jpg""style=""width:400px;height:400px;""></img>",3,html-button-response,121,1037546,0.0-14.0-16.0,20671,List1B,black,woman,,TRUE,3,,,,,
null,CORRECT,,html-keyboard-response,122,1039048,0.0-14.0-17.0-0.0,20671,List1B,black,woman,,,,null,,,,
10014,"<img src=""portrait/BW1.jpg""style=""width:400px;height:400px;""></img>",0,html-button-response,123,1049064,0.0-14.0-19.0,20671,List1B,black,woman,,TRUE,0,,,,,
null,CORRECT,,html-keyboard-response,124,1050566,0.0-14.0-20.0-0.0,20671,List1B,black,woman,,,,null,,,,
2767,"<img src=""portrait/WM1.jpg""style=""width:400px;height:400px;""></img>",6,html-button-response,125,1053336,0.0-14.0-22.0,20671,List1B,black,woman,,TRUE,6,,,,,
null,CORRECT,,html-keyboard-response,126,1054839,0.0-14.0-23.0-0.0,20671,List1B,black,woman,,,,null,,,,
1949,<p>You got 8 out of 8 right first time. Press Continue.</p>,0,html-button-response,127,1056790,0.0-14.0-25.0,20671,List1B,black,woman,,,,,,,,
null,"<div style=""font-size:60px;"">+</div>",,html-keyboard-response,128,1058292,0.0-15.0-0.0,20671,List1B,black,woman,,,,null,,,,
null,"<img src=""stim_listB/argue8.gif""</stim_listB>",,html-keyboard-response,129,1060294,0.0-15.0-1.0,20671,List1B,black,woman,,,,null,,,,
null,are arguing with each other,,html-keyboard-response,130,1062296,0.0-15.0-2.0,20671,List1B,black,woman,,,,null,,,,
23443,,,survey-text,131,1085741,0.0-15.0-3.0,20671,List1B,black,woman,,,,,"{""Q0"":""jane and beth are arguing with each other.""}","<img src=""stim_listB/argue8.gif""</stim_listB>",are arguing with each other,
null,"<div style=""font-size:60px;"">+</div>",,html-keyboard-response,132,1086242,0.0-15.0-0.1,20671,List1B,black,woman,,,,null,,,,
null,"<img src=""stim_listB/shout1.gif""</stim_listB>",,html-keyboard-response,133,1088244,0.0-15.0-1.1,20671,List1B,black,woman,,,,null,,,,
null,is shouting at,,html-keyboard-response,134,1090246,0.0-15.0-2.1,20671,List1B,black,woman,,,,null,,,,
9454,,,survey-text,135,1099702,0.0-15.0-3.1,20671,List1B,black,woman,,,,,"{""Q0"":""beth is shouting at fred.""}","<img src=""stim_listB/shout1.gif""</stim_listB>",is shouting at,
null,"<div style=""font-size:60px;"">+</div>",,html-keyboard-response,136,1100203,0.0-15.0-0.2,20671,List1B,black,woman,,,,null,,,,
null,"<img src=""stim_listB/dance8.gif""</stim_listB>",,html-keyboard-response,137,1102205,0.0-15.0-1.2,20671,List1B,black,woman,,,,null,,,,
null,are dancing with each other,,html-keyboard-response,138,1104207,0.0-15.0-2.2,20671,List1B,black,woman,,,,null,,,,
24533,,,survey-text,139,1128743,0.0-15.0-3.2,20671,List1B,black,woman,,,,,"{""Q0"":""ruth and kate are dancing with each other.""}","<img src=""stim_listB/dance8.gif""</stim_listB>",are dancing with each other,
null,"<div style=""font-size:60px;"">+</div>",,html-keyboard-response,140,1129245,0.0-15.0-0.3,20671,List1B,black,woman,,,,null,,,,
null,"<img src=""stim_listB/dance3.gif""</stim_listB>",,html-keyboard-response,141,1131247,0.0-15.0-1.3,20671,List1B,black,woman,,,,null,,,,
null,is dancing with,,html-keyboard-response,142,1133248,0.0-15.0-2.3,20671,List1B,black,woman,,,,null,,,,
16005,,,survey-text,143,1149255,0.0-15.0-3.3,20671,List1B,black,woman,,,,,"{""Q0"":""jane is dancing with luke.""}","<img src=""stim_listB/dance3.gif""</stim_listB>",is dancing with,
null,"<div style=""font-size:60px;"">+</div>",,html-keyboard-response,144,1149756,0.0-15.0-0.4,20671,List1B,black,woman,,,,null,,,,
null,"<img src=""stim_listB/fight7.gif""</stim_listB>",,html-keyboard-response,145,1151758,0.0-15.0-1.4,20671,List1B,black,woman,,,,null,,,,
null,is fighting,,html-keyboard-response,146,1153759,0.0-15.0-2.4,20671,List1B,black,woman,,,,null,,,,
18232,,,survey-text,147,1171993,0.0-15.0-3.4,20671,List1B,black,woman,,,,,"{""Q0"":""jane is fighting with kate.""}","<img src=""stim_listB/fight7.gif""</stim_listB>",is fighting,
null,"<div style=""font-size:60px;"">+</div>",,html-keyboard-response,148,1172494,0.0-15.0-0.5,20671,List1B,black,woman,,,,null,,,,
null,"<img src=""stim_listB/touch2.gif""</stim_listB>",,html-keyboard-response,149,1174496,0.0-15.0-1.5,20671,List1B,black,woman,,,,null,,,,
null,are touching each other,,html-keyboard-response,150,1176498,0.0-15.0-2.5,20671,List1B,black,woman,,,,null,,,,
10926,,,survey-text,151,1187425,0.0-15.0-3.5,20671,List1B,black,woman,,,,,"{""Q0"":""fred and beth are touching each other.""}","<img src=""stim_listB/touch2.gif""</stim_listB>",are touching each other,
null,"<div style=""font-size:60px;"">+</div>",,html-keyboard-response,152,1187926,0.0-15.0-0.6,20671,List1B,black,woman,,,,null,,,,
null,"<img src=""stim_listB/kiss2.gif""</stim_listB>",,html-keyboard-response,153,1189928,0.0-15.0-1.6,20671,List1B,black,woman,,,,null,,,,
null,are kissing each other,,html-keyboard-response,154,1191929,0.0-15.0-2.6,20671,List1B,black,woman,,,,null,,,,
10724,,,survey-text,155,1202655,0.0-15.0-3.6,20671,List1B,black,woman,,,,,"{""Q0"":""mike and kate are kissing each other.""}","<img src=""stim_listB/kiss2.gif""</stim_listB>",are kissing each other,
null,"<div style=""font-size:60px;"">+</div>",,html-keyboard-response,156,1203157,0.0-15.0-0.7,20671,List1B,black,woman,,,,null,,,,
null,"<img src=""stim_listB/dance1.gif""</stim_listB>",,html-keyboard-response,157,1205159,0.0-15.0-1.7,20671,List1B,black,woman,,,,null,,,,
null,is dancing with,,html-keyboard-response,158,1207160,0.0-15.0-2.7,20671,List1B,black,woman,,,,null,,,,
11152,,,survey-text,159,1218314,0.0-15.0-3.7,20671,List1B,black,woman,,,,,"{""Q0"":""kate is dancing with fred.""}","<img src=""stim_listB/dance1.gif""</stim_listB>",is dancing with,
null,"<div style=""font-size:60px;"">+</div>",,html-keyboard-response,160,1218816,0.0-15.0-0.8,20671,List1B,black,woman,,,,null,,,,
null,"<img src=""stim_listB/dance2.gif""</stim_listB>",,html-keyboard-response,161,1220818,0.0-15.0-1.8,20671,List1B,black,woman,,,,null,,,,
null,are dancing with each other,,html-keyboard-response,162,1222819,0.0-15.0-2.8,20671,List1B,black,woman,,,,null,,,,
10287,,,survey-text,163,1233108,0.0-15.0-3.8,20671,List1B,black,woman,,,,,"{""Q0"":""mike and beth are dancing with each other.""}","<img src=""stim_listB/dance2.gif""</stim_listB>",are dancing with each other,
null,"<div style=""font-size:60px;"">+</div>",,html-keyboard-response,164,1233610,0.0-15.0-0.9,20671,List1B,black,woman,,,,null,,,,
null,"<img src=""stim_listB/talk1.gif""</stim_listB>",,html-keyboard-response,165,1235612,0.0-15.0-1.9,20671,List1B,black,woman,,,,null,,,,
null,is talking to,,html-keyboard-response,166,1237613,0.0-15.0-2.9,20671,List1B,black,woman,,,,null,,,,
14928,,,survey-text,167,1252543,0.0-15.0-3.9,20671,List1B,black,woman,,,,,"{""Q0"":""kate and fred are talking with each other.""}","<img src=""stim_listB/talk1.gif""</stim_listB>",is talking to,
null,"<div style=""font-size:60px;"">+</div>",,html-keyboard-response,168,1253045,0.0-15.0-0.10,20671,List1B,black,woman,,,,null,,,,
null,"<img src=""stim_listB/meet2.gif""</stim_listB>",,html-keyboard-response,169,1255047,0.0-15.0-1.10,20671,List1B,black,woman,,,,null,,,,
null,are meeting each other,,html-keyboard-response,170,1257048,0.0-15.0-2.10,20671,List1B,black,woman,,,,null,,,,
14218,,,survey-text,171,1271268,0.0-15.0-3.10,20671,List1B,black,woman,,,,,"{""Q0"":""fred and beth are meeting each other.""}","<img src=""stim_listB/meet2.gif""</stim_listB>",are meeting each other,
null,"<div style=""font-size:60px;"">+</div>",,html-keyboard-response,172,1271769,0.0-15.0-0.11,20671,List1B,black,woman,,,,null,,,,
null,"<img src=""stim_listB/argue1.gif""</stim_listB>",,html-keyboard-response,173,1273771,0.0-15.0-1.11,20671,List1B,black,woman,,,,null,,,,
null,is arguing with,,html-keyboard-response,174,1275773,0.0-15.0-2.11,20671,List1B,black,woman,,,,null,,,,
14773,,,survey-text,175,1290547,0.0-15.0-3.11,20671,List1B,black,woman,,,,,"{""Q0"":""beth is arguing with mike.""}","<img src=""stim_listB/argue1.gif""</stim_listB>",is arguing with,
null,"<div style=""font-size:60px;"">+</div>",,html-keyboard-response,176,1291049,0.0-15.0-0.12,20671,List1B,black,woman,,,,null,,,,
null,"<img src=""stim_listB/argue2.gif""</stim_listB>",,html-keyboard-response,177,1293051,0.0-15.0-1.12,20671,List1B,black,woman,,,,null,,,,
null,are arguing with each other,,html-keyboard-response,178,1295052,0.0-15.0-2.12,20671,List1B,black,woman,,,,null,,,,
13008,,,survey-text,179,1308062,0.0-15.0-3.12,20671,List1B,black,woman,,,,,"{""Q0"":""fred and kate are arguing with each other.""}","<img src=""stim_listB/argue2.gif""</stim_listB>",are arguing with each other,
null,"<div style=""font-size:60px;"">+</div>",,html-keyboard-response,180,1308564,0.0-15.0-0.13,20671,List1B,black,woman,,,,null,,,,
null,"<img src=""stim_listB/fight2.gif""</stim_listB>",,html-keyboard-response,181,1310566,0.0-15.0-1.13,20671,List1B,black,woman,,,,null,,,,
null,are fighting each other,,html-keyboard-response,182,1312567,0.0-15.0-2.13,20671,List1B,black,woman,,,,null,,,,
11687,,,survey-text,183,1324256,0.0-15.0-3.13,20671,List1B,black,woman,,,,,"{""Q0"":""fred and beth are fighting each other.""}","<img src=""stim_listB/fight2.gif""</stim_listB>",are fighting each other,
null,"<div style=""font-size:60px;"">+</div>",,html-keyboard-response,184,1324757,0.0-15.0-0.14,20671,List1B,black,woman,,,,null,,,,
null,"<img src=""stim_listB/fight5.gif""</stim_listB>",,html-keyboard-response,185,1326759,0.0-15.0-1.14,20671,List1B,black,woman,,,,null,,,,
null,is fighting,,html-keyboard-response,186,1328761,0.0-15.0-2.14,20671,List1B,black,woman,,,,null,,,,
19183,,,survey-text,187,1347946,0.0-15.0-3.14,20671,List1B,black,woman,,,,,"{""Q0"":""mike is fighting dave.""}","<img src=""stim_listB/fight5.gif""</stim_listB>",is fighting,
null,"<div style=""font-size:60px;"">+</div>",,html-keyboard-response,188,1348448,0.0-15.0-0.15,20671,List1B,black,woman,,,,null,,,,
null,"<img src=""stim_listB/meet8.gif""</stim_listB>",,html-keyboard-response,189,1350451,0.0-15.0-1.15,20671,List1B,black,woman,,,,null,,,,
null,are meeting each other,,html-keyboard-response,190,1352452,0.0-15.0-2.15,20671,List1B,black,woman,,,,null,,,,
17664,,,survey-text,191,1370118,0.0-15.0-3.15,20671,List1B,black,woman,,,,,"{""Q0"":""beth and ruth are meeting each other.""}","<img src=""stim_listB/meet8.gif""</stim_listB>",are meeting each other,
null,"<div style=""font-size:60px;"">+</div>",,html-keyboard-response,192,1370620,0.0-15.0-0.16,20671,List1B,black,woman,,,,null,,,,
null,"<img src=""stim_listB/marry8.gif""</stim_listB>",,html-keyboard-response,193,1372622,0.0-15.0-1.16,20671,List1B,black,woman,,,,null,,,,
null,are marrying each other,,html-keyboard-response,194,1374624,0.0-15.0-2.16,20671,List1B,black,woman,,,,null,,,,
14085,,,survey-text,195,1388710,0.0-15.0-3.16,20671,List1B,black,woman,,,,,"{""Q0"":""beth and ruth are marrying each other.""}","<img src=""stim_listB/marry8.gif""</stim_listB>",are marrying each other,
null,"<div style=""font-size:60px;"">+</div>",,html-keyboard-response,196,1389212,0.0-15.0-0.17,20671,List1B,black,woman,,,,null,,,,
null,"<img src=""stim_listB/touch4.gif""</stim_listB>",,html-keyboard-response,197,1391214,0.0-15.0-1.17,20671,List1B,black,woman,,,,null,,,,
null,are touching each other,,html-keyboard-response,198,1393215,0.0-15.0-2.17,20671,List1B,black,woman,,,,null,,,,
17132,,,survey-text,199,1410349,0.0-15.0-3.17,20671,List1B,black,woman,,,,,"{""Q0"":""ruth and luke are touching each other.""}","<img src=""stim_listB/touch4.gif""</stim_listB>",are touching each other,
null,"<div style=""font-size:60px;"">+</div>",,html-keyboard-response,200,1410850,0.0-15.0-0.18,20671,List1B,black,woman,,,,null,,,,
null,"<img src=""stim_listB/meet4.gif""</stim_listB>",,html-keyboard-response,201,1412853,0.0-15.0-1.18,20671,List1B,black,woman,,,,null,,,,
null,are meeting each other,,html-keyboard-response,202,1414854,0.0-15.0-2.18,20671,List1B,black,woman,,,,null,,,,
11286,,,survey-text,203,1426142,0.0-15.0-3.18,20671,List1B,black,woman,,,,,"{""Q0"":""luke and ruth are meeting each other.""}","<img src=""stim_listB/meet4.gif""</stim_listB>",are meeting each other,
null,"<div style=""font-size:60px;"">+</div>",,html-keyboard-response,204,1426644,0.0-15.0-0.19,20671,List1B,black,woman,,,,null,,,,
null,"<img src=""stim_listB/hug5.gif""</stim_listB>",,html-keyboard-response,205,1428646,0.0-15.0-1.19,20671,List1B,black,woman,,,,null,,,,
null,is hugging,,html-keyboard-response,206,1430649,0.0-15.0-2.19,20671,List1B,black,woman,,,,null,,,,
10167,,,survey-text,207,1440817,0.0-15.0-3.19,20671,List1B,black,woman,,,,,"{""Q0"":""fred is hugging luke.""}","<img src=""stim_listB/hug5.gif""</stim_listB>",is hugging,
10172,"<img src='img/portrait_matrix_list1.JPG' style='width:900px;height:500px;''></img><p>If you have memorised all the portraits and names and are ready to start, press Continue.</p><p><strong>Please note: Your memory of these faces will be tested 4 times during this experiment.</strong></p>",0,html-button-response,208,1450992,0.0-16.0-0.0,20671,List1B,black,woman,,,,,,,,
2295,"<img src=""portrait/WM2.jpg""style=""width:400px;height:400px;""></img>",7,html-button-response,209,1454290,0.0-16.0-1.0,20671,List1B,black,woman,,TRUE,7,,,,,
null,CORRECT,,html-keyboard-response,210,1455792,0.0-16.0-2.0-0.0,20671,List1B,black,woman,,,,null,,,,
2125,"<img src=""portrait/WW1.jpg""style=""width:400px;height:400px;""></img>",1,html-button-response,211,1457921,0.0-16.0-4.0,20671,List1B,black,woman,,TRUE,1,,,,,
null,CORRECT,,html-keyboard-response,212,1459423,0.0-16.0-5.0-0.0,20671,List1B,black,woman,,,,null,,,,
2663,"<img src=""portrait/WW2.jpg""style=""width:400px;height:400px;""></img>",3,html-button-response,213,1462088,0.0-16.0-7.0,20671,List1B,black,woman,,TRUE,3,,,,,
null,CORRECT,,html-keyboard-response,214,1463591,0.0-16.0-8.0-0.0,20671,List1B,black,woman,,,,null,,,,
1862,"<img src=""portrait/BM1.jpg""style=""width:400px;height:400px;""></img>",4,html-button-response,215,1465455,0.0-16.0-10.0,20671,List1B,black,woman,,TRUE,4,,,,,
null,CORRECT,,html-keyboard-response,216,1466958,0.0-16.0-11.0-0.0,20671,List1B,black,woman,,,,null,,,,
2005,"<img src=""portrait/WM1.jpg""style=""width:400px;height:400px;""></img>",6,html-button-response,217,1468966,0.0-16.0-13.0,20671,List1B,black,woman,,TRUE,6,,,,,
null,CORRECT,,html-keyboard-response,218,1470468,0.0-16.0-14.0-0.0,20671,List1B,black,woman,,,,null,,,,
2794,"<img src=""portrait/BW2.jpg""style=""width:400px;height:400px;""></img>",0,html-button-response,219,1473264,0.0-16.0-16.0,20671,List1B,black,woman,,TRUE,2,,,,,
7432,"<img src=""portrait/BW2.jpg""style=""width:400px;height:400px;""></img>",2,html-button-response,220,1481700,0.0-16.0-18.0-0.0,20671,List1B,black,woman,,FALSE,2,,,,,
null,CORRECT,,html-keyboard-response,221,1483203,0.0-16.0-18.0-1.0-0.0,20671,List1B,black,woman,,,,null,,,,
7223,"<img src=""portrait/BM2.jpg""style=""width:400px;height:400px;""></img>",5,html-button-response,222,1490429,0.0-16.0-19.0,20671,List1B,black,woman,,TRUE,5,,,,,
null,CORRECT,,html-keyboard-response,223,1491931,0.0-16.0-20.0-0.0,20671,List1B,black,woman,,,,null,,,,
4862,"<img src=""portrait/BW1.jpg""style=""width:400px;height:400px;""></img>",0,html-button-response,224,1496795,0.0-16.0-22.0,20671,List1B,black,woman,,TRUE,0,,,,,
null,CORRECT,,html-keyboard-response,225,1498297,0.0-16.0-23.0-0.0,20671,List1B,black,woman,,,,null,,,,
2247,<p>You got 7 out of 8 right first time. Press Continue.</p>,0,html-button-response,226,1500545,0.0-16.0-25.0,20671,List1B,black,woman,,,,,,,,
6754,"As you did not score 100%, the memory game will repeat. Press Continue.",0,html-button-response,227,1508302,0.0-16.0-26.0-0.0,20671,List1B,black,woman,,,,,,,,
3197,"<img src='img/portrait_matrix_list1.JPG' style='width:900px;height:500px;''></img><p>If you have memorised all the portraits and names and are ready to start, press Continue.</p><p><strong>Please note: Your memory of these faces will be tested 4 times during this experiment.</strong></p>",0,html-button-response,228,1512502,0.0-16.1-0.1,20671,List1B,black,woman,,,,,,,,
1941,"<img src=""portrait/WM2.jpg""style=""width:400px;height:400px;""></img>",7,html-button-response,229,1515446,0.0-16.1-1.1,20671,List1B,black,woman,,TRUE,7,,,,,
null,CORRECT,,html-keyboard-response,230,1516949,0.0-16.1-2.1-0.1,20671,List1B,black,woman,,,,null,,,,
2678,"<img src=""portrait/WW1.jpg""style=""width:400px;height:400px;""></img>",1,html-button-response,231,1519630,0.0-16.1-4.1,20671,List1B,black,woman,,TRUE,1,,,,,
null,CORRECT,,html-keyboard-response,232,1521132,0.0-16.1-5.1-0.1,20671,List1B,black,woman,,,,null,,,,
2390,"<img src=""portrait/WW2.jpg""style=""width:400px;height:400px;""></img>",3,html-button-response,233,1523525,0.0-16.1-7.1,20671,List1B,black,woman,,TRUE,3,,,,,
null,CORRECT,,html-keyboard-response,234,1525027,0.0-16.1-8.1-0.1,20671,List1B,black,woman,,,,null,,,,
1639,"<img src=""portrait/BM1.jpg""style=""width:400px;height:400px;""></img>",4,html-button-response,235,1526669,0.0-16.1-10.1,20671,List1B,black,woman,,TRUE,4,,,,,
null,CORRECT,,html-keyboard-response,236,1528171,0.0-16.1-11.1-0.1,20671,List1B,black,woman,,,,null,,,,
2000,"<img src=""portrait/WM1.jpg""style=""width:400px;height:400px;""></img>",6,html-button-response,237,1530175,0.0-16.1-13.1,20671,List1B,black,woman,,TRUE,6,,,,,
null,CORRECT,,html-keyboard-response,238,1531677,0.0-16.1-14.1-0.1,20671,List1B,black,woman,,,,null,,,,
3387,"<img src=""portrait/BW2.jpg""style=""width:400px;height:400px;""></img>",2,html-button-response,239,1535068,0.0-16.1-16.1,20671,List1B,black,woman,,TRUE,2,,,,,
null,CORRECT,,html-keyboard-response,240,1536570,0.0-16.1-17.1-0.1,20671,List1B,black,woman,,,,null,,,,
3796,"<img src=""portrait/BM2.jpg""style=""width:400px;height:400px;""></img>",5,html-button-response,241,1540368,0.0-16.1-19.1,20671,List1B,black,woman,,TRUE,5,,,,,
null,CORRECT,,html-keyboard-response,242,1541871,0.0-16.1-20.1-0.1,20671,List1B,black,woman,,,,null,,,,
5105,"<img src=""portrait/BW1.jpg""style=""width:400px;height:400px;""></img>",0,html-button-response,243,1546977,0.0-16.1-22.1,20671,List1B,black,woman,,TRUE,0,,,,,
null,CORRECT,,html-keyboard-response,244,1548479,0.0-16.1-23.1-0.1,20671,List1B,black,woman,,,,null,,,,
1577,<p>You got 8 out of 8 right first time. Press Continue.</p>,0,html-button-response,245,1550058,0.0-16.1-25.1,20671,List1B,black,woman,,,,,,,,
null,"<div style=""font-size:60px;"">+</div>",,html-keyboard-response,246,1551561,0.0-17.0-0.0,20671,List1B,black,woman,,,,null,,,,
null,"<img src=""stim_listB/hug1.gif""</stim_listB>",,html-keyboard-response,247,1553563,0.0-17.0-1.0,20671,List1B,black,woman,,,,null,,,,
null,is hugging,,html-keyboard-response,248,1555565,0.0-17.0-2.0,20671,List1B,black,woman,,,,null,,,,
7951,,,survey-text,249,1563518,0.0-17.0-3.0,20671,List1B,black,woman,,,,,"{""Q0"":""fred is hugging beth.""}","<img src=""stim_listB/hug1.gif""</stim_listB>",is hugging,
null,"<div style=""font-size:60px;"">+</div>",,html-keyboard-response,250,1564019,0.0-17.0-0.1,20671,List1B,black,woman,,,,null,,,,
null,"<img src=""stim_listB/kiss3.gif""</stim_listB>",,html-keyboard-response,251,1566021,0.0-17.0-1.1,20671,List1B,black,woman,,,,null,,,,
null,is kissing,,html-keyboard-response,252,1568022,0.0-17.0-2.1,20671,List1B,black,woman,,,,null,,,,
8872,,,survey-text,253,1576896,0.0-17.0-3.1,20671,List1B,black,woman,,,,,"{""Q0"":""ruth is kissing luke.""}","<img src=""stim_listB/kiss3.gif""</stim_listB>",is kissing,
null,"<div style=""font-size:60px;"">+</div>",,html-keyboard-response,254,1577398,0.0-17.0-0.2,20671,List1B,black,woman,,,,null,,,,
null,"<img src=""stim_listB/marry1.gif""</stim_listB>",,html-keyboard-response,255,1579400,0.0-17.0-1.2,20671,List1B,black,woman,,,,null,,,,
null,is marrying,,html-keyboard-response,256,1581401,0.0-17.0-2.2,20671,List1B,black,woman,,,,null,,,,
11795,,,survey-text,257,1593199,0.0-17.0-3.2,20671,List1B,black,woman,,,,,"{""Q0"":""mike is marrying beth.""}","<img src=""stim_listB/marry1.gif""</stim_listB>",is marrying,
null,"<div style=""font-size:60px;"">+</div>",,html-keyboard-response,258,1593700,0.0-17.0-0.3,20671,List1B,black,woman,,,,null,,,,
null,"<img src=""stim_listB/marry7.gif""</stim_listB>",,html-keyboard-response,259,1595703,0.0-17.0-1.3,20671,List1B,black,woman,,,,null,,,,
null,is marrying,,html-keyboard-response,260,1597704,0.0-17.0-2.3,20671,List1B,black,woman,,,,null,,,,
15459,,,survey-text,261,1613165,0.0-17.0-3.3,20671,List1B,black,woman,,,,,"{""Q0"":""ruth is marrying kate.""}","<img src=""stim_listB/marry7.gif""</stim_listB>",is marrying,
null,"<div style=""font-size:60px;"">+</div>",,html-keyboard-response,262,1613666,0.0-17.0-0.4,20671,List1B,black,woman,,,,null,,,,
null,"<img src=""stim_listB/kiss8.gif""</stim_listB>",,html-keyboard-response,263,1615669,0.0-17.0-1.4,20671,List1B,black,woman,,,,null,,,,
null,are kissing each other,,html-keyboard-response,264,1617670,0.0-17.0-2.4,20671,List1B,black,woman,,,,null,,,,
12384,,,survey-text,265,1630056,0.0-17.0-3.4,20671,List1B,black,woman,,,,,"{""Q0"":""kate and jane are kissing each other.""}","<img src=""stim_listB/kiss8.gif""</stim_listB>",are kissing each other,
null,"<div style=""font-size:60px;"">+</div>",,html-keyboard-response,266,1630557,0.0-17.0-0.5,20671,List1B,black,woman,,,,null,,,,
null,"<img src=""stim_listB/talk4.gif""</stim_listB>",,html-keyboard-response,267,1632560,0.0-17.0-1.5,20671,List1B,black,woman,,,,null,,,,
null,are talking to each other,,html-keyboard-response,268,1634561,0.0-17.0-2.5,20671,List1B,black,woman,,,,null,,,,
13168,,,survey-text,269,1647731,0.0-17.0-3.5,20671,List1B,black,woman,,,,,"{""Q0"":""dave and ruth are talking to each other.""}","<img src=""stim_listB/talk4.gif""</stim_listB>",are talking to each other,
null,"<div style=""font-size:60px;"">+</div>",,html-keyboard-response,270,1648233,0.0-17.0-0.6,20671,List1B,black,woman,,,,null,,,,
null,"<img src=""stim_listB/kiss6.gif""</stim_listB>",,html-keyboard-response,271,1650235,0.0-17.0-1.6,20671,List1B,black,woman,,,,null,,,,
null,are kissing each other,,html-keyboard-response,272,1652236,0.0-17.0-2.6,20671,List1B,black,woman,,,,null,,,,
20356,,,survey-text,273,1672594,0.0-17.0-3.6,20671,List1B,black,woman,,,,,"{""Q0"":"" mike and dave are kissing each other.""}","<img src=""stim_listB/kiss6.gif""</stim_listB>",are kissing each other,
null,"<div style=""font-size:60px;"">+</div>",,html-keyboard-response,274,1673095,0.0-17.0-0.7,20671,List1B,black,woman,,,,null,,,,
null,"<img src=""stim_listB/marry4.gif""</stim_listB>",,html-keyboard-response,275,1675098,0.0-17.0-1.7,20671,List1B,black,woman,,,,null,,,,
null,are marrying each other,,html-keyboard-response,276,1677100,0.0-17.0-2.7,20671,List1B,black,woman,,,,null,,,,
11256,,,survey-text,277,1688357,0.0-17.0-3.7,20671,List1B,black,woman,,,,,"{""Q0"":""luke and jane are marrying each other.""}","<img src=""stim_listB/marry4.gif""</stim_listB>",are marrying each other,
null,"<div style=""font-size:60px;"">+</div>",,html-keyboard-response,278,1688860,0.0-17.0-0.8,20671,List1B,black,woman,,,,null,,,,
null,"<img src=""stim_listB/kiss4.gif""</stim_listB>",,html-keyboard-response,279,1690862,0.0-17.0-1.8,20671,List1B,black,woman,,,,null,,,,
null,are kissing each other,,html-keyboard-response,280,1692863,0.0-17.0-2.8,20671,List1B,black,woman,,,,null,,,,
9488,,,survey-text,281,1702353,0.0-17.0-3.8,20671,List1B,black,woman,,,,,"{""Q0"":""jane and dave are kissing each other.""}","<img src=""stim_listB/kiss4.gif""</stim_listB>",are kissing each other,
null,"<div style=""font-size:60px;"">+</div>",,html-keyboard-response,282,1702854,0.0-17.0-0.9,20671,List1B,black,woman,,,,null,,,,
null,"<img src=""stim_listB/touch5.gif""</stim_listB>",,html-keyboard-response,283,1704857,0.0-17.0-1.9,20671,List1B,black,woman,,,,null,,,,
null,is touching,,html-keyboard-response,284,1706858,0.0-17.0-2.9,20671,List1B,black,woman,,,,null,,,,
7515,,,survey-text,285,1714375,0.0-17.0-3.9,20671,List1B,black,woman,,,,,"{""Q0"":""mike is touching dave.""}","<img src=""stim_listB/touch5.gif""</stim_listB>",is touching,
null,"<div style=""font-size:60px;"">+</div>",,html-keyboard-response,286,1714876,0.0-17.0-0.10,20671,List1B,black,woman,,,,null,,,,
null,"<img src=""stim_listB/fight6.gif""</stim_listB>",,html-keyboard-response,287,1716878,0.0-17.0-1.10,20671,List1B,black,woman,,,,null,,,,
null,are fighting each other,,html-keyboard-response,288,1718880,0.0-17.0-2.10,20671,List1B,black,woman,,,,null,,,,
11438,,,survey-text,289,1730320,0.0-17.0-3.10,20671,List1B,black,woman,,,,,"{""Q0"":""fred and luke are fighting each other.""}","<img src=""stim_listB/fight6.gif""</stim_listB>",are fighting each other,
null,"<div style=""font-size:60px;"">+</div>",,html-keyboard-response,290,1730821,0.0-17.0-0.11,20671,List1B,black,woman,,,,null,,,,
null,"<img src=""stim_listB/talk6.gif""</stim_listB>",,html-keyboard-response,291,1732823,0.0-17.0-1.11,20671,List1B,black,woman,,,,null,,,,
null,are talking to each other,,html-keyboard-response,292,1734824,0.0-17.0-2.11,20671,List1B,black,woman,,,,null,,,,
8918,,,survey-text,293,1743744,0.0-17.0-3.11,20671,List1B,black,woman,,,,,"{""Q0"":""mike and luke are talking to each other.""}","<img src=""stim_listB/talk6.gif""</stim_listB>",are talking to each other,
null,"<div style=""font-size:60px;"">+</div>",,html-keyboard-response,294,1744246,0.0-17.0-0.12,20671,List1B,black,woman,,,,null,,,,
null,"<img src=""stim_listB/touch3.gif""</stim_listB>",,html-keyboard-response,295,1746248,0.0-17.0-1.12,20671,List1B,black,woman,,,,null,,,,
null,is touching,,html-keyboard-response,296,1748249,0.0-17.0-2.12,20671,List1B,black,woman,,,,null,,,,
7831,,,survey-text,297,1756082,0.0-17.0-3.12,20671,List1B,black,woman,,,,,"{""Q0"":""jane is touching dave.""}","<img src=""stim_listB/touch3.gif""</stim_listB>",is touching,
null,"<div style=""font-size:60px;"">+</div>",,html-keyboard-response,298,1756584,0.0-17.0-0.13,20671,List1B,black,woman,,,,null,,,,
null,"<img src=""stim_listB/dance7.gif""</stim_listB>",,html-keyboard-response,299,1758587,0.0-17.0-1.13,20671,List1B,black,woman,,,,null,,,,
null,is dancing with,,html-keyboard-response,300,1760588,0.0-17.0-2.13,20671,List1B,black,woman,,,,null,,,,
8080,,,survey-text,301,1768670,0.0-17.0-3.13,20671,List1B,black,woman,,,,,"{""Q0"":""jane is dancing with beth.""}","<img src=""stim_listB/dance7.gif""</stim_listB>",is dancing with,
null,"<div style=""font-size:60px;"">+</div>",,html-keyboard-response,302,1769172,0.0-17.0-0.14,20671,List1B,black,woman,,,,null,,,,
null,"<img src=""stim_listB/talk7.gif""</stim_listB>",,html-keyboard-response,303,1771174,0.0-17.0-1.14,20671,List1B,black,woman,,,,null,,,,
null,is talking to,,html-keyboard-response,304,1773176,0.0-17.0-2.14,20671,List1B,black,woman,,,,null,,,,
8526,,,survey-text,305,1781704,0.0-17.0-3.14,20671,List1B,black,woman,,,,,"{""Q0"":""beth is talking to jane.""}","<img src=""stim_listB/talk7.gif""</stim_listB>",is talking to,
null,"<div style=""font-size:60px;"">+</div>",,html-keyboard-response,306,1782205,0.0-17.0-0.15,20671,List1B,black,woman,,,,null,,,,
null,"<img src=""stim_listB/argue7.gif""</stim_listB>",,html-keyboard-response,307,1784208,0.0-17.0-1.15,20671,List1B,black,woman,,,,null,,,,
null,is arguing with,,html-keyboard-response,308,1786209,0.0-17.0-2.15,20671,List1B,black,woman,,,,null,,,,
13607,,,survey-text,309,1799818,0.0-17.0-3.15,20671,List1B,black,woman,,,,,"{""Q0"":""kate is arguing with ruth.""}","<img src=""stim_listB/argue7.gif""</stim_listB>",is arguing with,
null,"<div style=""font-size:60px;"">+</div>",,html-keyboard-response,310,1800319,0.0-17.0-0.16,20671,List1B,black,woman,,,,null,,,,
null,"<img src=""stim_listB/shout8.gif""</stim_listB>",,html-keyboard-response,311,1802322,0.0-17.0-1.16,20671,List1B,black,woman,,,,null,,,,
null,are shouting at each other,,html-keyboard-response,312,1804323,0.0-17.0-2.16,20671,List1B,black,woman,,,,null,,,,
13240,,,survey-text,313,1817565,0.0-17.0-3.16,20671,List1B,black,woman,,,,,"{""Q0"":""jane and kate are shouting at each other.""}","<img src=""stim_listB/shout8.gif""</stim_listB>",are shouting at each other,
null,"<div style=""font-size:60px;"">+</div>",,html-keyboard-response,314,1818067,0.0-17.0-0.17,20671,List1B,black,woman,,,,null,,,,
null,"<img src=""stim_listB/fight8.gif""</stim_listB>",,html-keyboard-response,315,1820069,0.0-17.0-1.17,20671,List1B,black,woman,,,,null,,,,
null,are fighting each other,,html-keyboard-response,316,1822070,0.0-17.0-2.17,20671,List1B,black,woman,,,,null,,,,
21571,,,survey-text,317,1843643,0.0-17.0-3.17,20671,List1B,black,woman,,,,,"{""Q0"":""beth and ruth are fighting each other.""}","<img src=""stim_listB/fight8.gif""</stim_listB>",are fighting each other,
null,"<div style=""font-size:60px;"">+</div>",,html-keyboard-response,318,1844145,0.0-17.0-0.18,20671,List1B,black,woman,,,,null,,,,
null,"<img src=""stim_listB/meet3.gif""</stim_listB>",,html-keyboard-response,319,1846147,0.0-17.0-1.18,20671,List1B,black,woman,,,,null,,,,
null,is meeting,,html-keyboard-response,320,1848148,0.0-17.0-2.18,20671,List1B,black,woman,,,,null,,,,
8602,,,survey-text,321,1856752,0.0-17.0-3.18,20671,List1B,black,woman,,,,,"{""Q0"":""jane is meeting dave.""}","<img src=""stim_listB/meet3.gif""</stim_listB>",is meeting,
null,"<div style=""font-size:60px;"">+</div>",,html-keyboard-response,322,1857255,0.0-17.0-0.19,20671,List1B,black,woman,,,,null,,,,
null,"<img src=""stim_listB/fight4.gif""</stim_listB>",,html-keyboard-response,323,1859257,0.0-17.0-1.19,20671,List1B,black,woman,,,,null,,,,
null,are fighting each other,,html-keyboard-response,324,1861258,0.0-17.0-2.19,20671,List1B,black,woman,,,,null,,,,
17275,,,survey-text,325,1878535,0.0-17.0-3.19,20671,List1B,black,woman,,,,,"{""Q0"":""luke and ruth are fighting each other.""}","<img src=""stim_listB/fight4.gif""</stim_listB>",are fighting each other,
11129,"<img src='img/portrait_matrix_list1.JPG' style='width:900px;height:500px;''></img><p>If you have memorised all the portraits and names and are ready to start, press Continue.</p><p><strong>Please note: Your memory of these faces will be tested 4 times during this experiment.</strong></p>",0,html-button-response,326,1889666,0.0-18.0-0.0,20671,List1B,black,woman,,,,,,,,
2164,"<img src=""portrait/WM1.jpg""style=""width:400px;height:400px;""></img>",6,html-button-response,327,1892832,0.0-18.0-1.0,20671,List1B,black,woman,,TRUE,6,,,,,
null,CORRECT,,html-keyboard-response,328,1894335,0.0-18.0-2.0-0.0,20671,List1B,black,woman,,,,null,,,,
1927,"<img src=""portrait/WW1.jpg""style=""width:400px;height:400px;""></img>",1,html-button-response,329,1896264,0.0-18.0-4.0,20671,List1B,black,woman,,TRUE,1,,,,,
null,CORRECT,,html-keyboard-response,330,1897766,0.0-18.0-5.0-0.0,20671,List1B,black,woman,,,,null,,,,
5117,"<img src=""portrait/BW1.jpg""style=""width:400px;height:400px;""></img>",0,html-button-response,331,1902887,0.0-18.0-7.0,20671,List1B,black,woman,,TRUE,0,,,,,
null,CORRECT,,html-keyboard-response,332,1904388,0.0-18.0-8.0-0.0,20671,List1B,black,woman,,,,null,,,,
1547,"<img src=""portrait/BW2.jpg""style=""width:400px;height:400px;""></img>",2,html-button-response,333,1905937,0.0-18.0-10.0,20671,List1B,black,woman,,TRUE,2,,,,,
null,CORRECT,,html-keyboard-response,334,1907439,0.0-18.0-11.0-0.0,20671,List1B,black,woman,,,,null,,,,
2166,"<img src=""portrait/WM2.jpg""style=""width:400px;height:400px;""></img>",7,html-button-response,335,1909608,0.0-18.0-13.0,20671,List1B,black,woman,,TRUE,7,,,,,
null,CORRECT,,html-keyboard-response,336,1911110,0.0-18.0-14.0-0.0,20671,List1B,black,woman,,,,null,,,,
2627,"<img src=""portrait/WW2.jpg""style=""width:400px;height:400px;""></img>",3,html-button-response,337,1913740,0.0-18.0-16.0,20671,List1B,black,woman,,TRUE,3,,,,,
null,CORRECT,,html-keyboard-response,338,1915242,0.0-18.0-17.0-0.0,20671,List1B,black,woman,,,,null,,,,
4399,"<img src=""portrait/BM2.jpg""style=""width:400px;height:400px;""></img>",5,html-button-response,339,1919643,0.0-18.0-19.0,20671,List1B,black,woman,,TRUE,5,,,,,
null,CORRECT,,html-keyboard-response,340,1921145,0.0-18.0-20.0-0.0,20671,List1B,black,woman,,,,null,,,,
1968,"<img src=""portrait/BM1.jpg""style=""width:400px;height:400px;""></img>",4,html-button-response,341,1923116,0.0-18.0-22.0,20671,List1B,black,woman,,TRUE,4,,,,,
null,CORRECT,,html-keyboard-response,342,1924619,0.0-18.0-23.0-0.0,20671,List1B,black,woman,,,,null,,,,
2201,<p>You got 8 out of 8 right first time. Press Continue.</p>,0,html-button-response,343,1926822,0.0-18.0-25.0,20671,List1B,black,woman,,,,,,,,
null,"<div style=""font-size:60px;"">+</div>",,html-keyboard-response,344,1928325,0.0-19.0-0.0,20671,List1B,black,woman,,,,null,,,,
null,"<img src=""stim_listB/kiss1.gif""</stim_listB>",,html-keyboard-response,345,1930327,0.0-19.0-1.0,20671,List1B,black,woman,,,,null,,,,
null,is kissing,,html-keyboard-response,346,1932329,0.0-19.0-2.0,20671,List1B,black,woman,,,,null,,,,
6269,,,survey-text,347,1938600,0.0-19.0-3.0,20671,List1B,black,woman,,,,,"{""Q0"":""beth is kissing fred.""}","<img src=""stim_listB/kiss1.gif""</stim_listB>",is kissing,
null,"<div style=""font-size:60px;"">+</div>",,html-keyboard-response,348,1939102,0.0-19.0-0.1,20671,List1B,black,woman,,,,null,,,,
null,"<img src=""stim_listB/dance4.gif""</stim_listB>",,html-keyboard-response,349,1941106,0.0-19.0-1.1,20671,List1B,black,woman,,,,null,,,,
null,are dancing with each other,,html-keyboard-response,350,1943107,0.0-19.0-2.1,20671,List1B,black,woman,,,,null,,,,
12093,,,survey-text,351,1955202,0.0-19.0-3.1,20671,List1B,black,woman,,,,,"{""Q0"":""dave and ruth are dancing with each other.""}","<img src=""stim_listB/dance4.gif""</stim_listB>",are dancing with each other,
null,"<div style=""font-size:60px;"">+</div>",,html-keyboard-response,352,1955704,0.0-19.0-0.2,20671,List1B,black,woman,,,,null,,,,
null,"<img src=""stim_listB/kiss7.gif""</stim_listB>",,html-keyboard-response,353,1957706,0.0-19.0-1.2,20671,List1B,black,woman,,,,null,,,,
null,is kissing,,html-keyboard-response,354,1959707,0.0-19.0-2.2,20671,List1B,black,woman,,,,null,,,,
6188,,,survey-text,355,1965897,0.0-19.0-3.2,20671,List1B,black,woman,,,,,"{""Q0"":""ruth is kissing beth.""}","<img src=""stim_listB/kiss7.gif""</stim_listB>",is kissing,
null,"<div style=""font-size:60px;"">+</div>",,html-keyboard-response,356,1966399,0.0-19.0-0.3,20671,List1B,black,woman,,,,null,,,,
null,"<img src=""stim_listB/talk3.gif""</stim_listB>",,html-keyboard-response,357,1968401,0.0-19.0-1.3,20671,List1B,black,woman,,,,null,,,,
null,is talking to,,html-keyboard-response,358,1970402,0.0-19.0-2.3,20671,List1B,black,woman,,,,null,,,,
7393,,,survey-text,359,1977797,0.0-19.0-3.3,20671,List1B,black,woman,,,,,"{""Q0"":""jane is talking to luke.""}","<img src=""stim_listB/talk3.gif""</stim_listB>",is talking to,
null,"<div style=""font-size:60px;"">+</div>",,html-keyboard-response,360,1978298,0.0-19.0-0.4,20671,List1B,black,woman,,,,null,,,,
null,"<img src=""stim_listB/hug6.gif""</stim_listB>",,html-keyboard-response,361,1980301,0.0-19.0-1.4,20671,List1B,black,woman,,,,null,,,,
null,are hugging each other,,html-keyboard-response,362,1982302,0.0-19.0-2.4,20671,List1B,black,woman,,,,null,,,,
10594,,,survey-text,363,1992898,0.0-19.0-3.4,20671,List1B,black,woman,,,,,"{""Q0"":""mike and dave are hugging each other.""}","<img src=""stim_listB/hug6.gif""</stim_listB>",are hugging each other,
null,"<div style=""font-size:60px;"">+</div>",,html-keyboard-response,364,1993400,0.0-19.0-0.5,20671,List1B,black,woman,,,,null,,,,
null,"<img src=""stim_listB/fight3.gif""</stim_listB>",,html-keyboard-response,365,1995402,0.0-19.0-1.5,20671,List1B,black,woman,,,,null,,,,
null,is fighting,,html-keyboard-response,366,1997403,0.0-19.0-2.5,20671,List1B,black,woman,,,,null,,,,
7808,,,survey-text,367,2005213,0.0-19.0-3.5,20671,List1B,black,woman,,,,,"{""Q0"":""jane is fighting dave.""}","<img src=""stim_listB/fight3.gif""</stim_listB>",is fighting,
null,"<div style=""font-size:60px;"">+</div>",,html-keyboard-response,368,2005714,0.0-19.0-0.6,20671,List1B,black,woman,,,,null,,,,
null,"<img src=""stim_listB/argue3.gif""</stim_listB>",,html-keyboard-response,369,2007717,0.0-19.0-1.6,20671,List1B,black,woman,,,,null,,,,
null,is arguing with,,html-keyboard-response,370,2009719,0.0-19.0-2.6,20671,List1B,black,woman,,,,null,,,,
12545,,,survey-text,371,2022266,0.0-19.0-3.6,20671,List1B,black,woman,,,,,"{""Q0"":""ruth is arguing with dave.""}","<img src=""stim_listB/argue3.gif""</stim_listB>",is arguing with,
null,"<div style=""font-size:60px;"">+</div>",,html-keyboard-response,372,2022768,0.0-19.0-0.7,20671,List1B,black,woman,,,,null,,,,
null,"<img src=""stim_listB/marry3.gif""</stim_listB>",,html-keyboard-response,373,2024770,0.0-19.0-1.7,20671,List1B,black,woman,,,,null,,,,
null,is marrying,,html-keyboard-response,374,2026771,0.0-19.0-2.7,20671,List1B,black,woman,,,,null,,,,
11502,,,survey-text,375,2038276,0.0-19.0-3.7,20671,List1B,black,woman,,,,,"{""Q0"":""ruth is marrying dave.""}","<img src=""stim_listB/marry3.gif""</stim_listB>",is marrying,
null,"<div style=""font-size:60px;"">+</div>",,html-keyboard-response,376,2038777,0.0-19.0-0.8,20671,List1B,black,woman,,,,null,,,,
null,"<img src=""stim_listB/hug8.gif""</stim_listB>",,html-keyboard-response,377,2040779,0.0-19.0-1.8,20671,List1B,black,woman,,,,null,,,,
null,are hugging each other,,html-keyboard-response,378,2042781,0.0-19.0-2.8,20671,List1B,black,woman,,,,null,,,,
8714,,,survey-text,379,2051497,0.0-19.0-3.8,20671,List1B,black,woman,,,,,"{""Q0"":""jane and kate are hugging each other.""}","<img src=""stim_listB/hug8.gif""</stim_listB>",are hugging each other,
null,"<div style=""font-size:60px;"">+</div>",,html-keyboard-response,380,2051999,0.0-19.0-0.9,20671,List1B,black,woman,,,,null,,,,
null,"<img src=""stim_listB/hug7.gif""</stim_listB>",,html-keyboard-response,381,2054002,0.0-19.0-1.9,20671,List1B,black,woman,,,,null,,,,
null,is hugging,,html-keyboard-response,382,2056003,0.0-19.0-2.9,20671,List1B,black,woman,,,,null,,,,
10392,,,survey-text,383,2066397,0.0-19.0-3.9,20671,List1B,black,woman,,,,,"{""Q0"":""beth is hugging ruth.""}","<img src=""stim_listB/hug7.gif""</stim_listB>",is hugging,
null,"<div style=""font-size:60px;"">+</div>",,html-keyboard-response,384,2066898,0.0-19.0-0.10,20671,List1B,black,woman,,,,null,,,,
null,"<img src=""stim_listB/shout2.gif""</stim_listB>",,html-keyboard-response,385,2068900,0.0-19.0-1.10,20671,List1B,black,woman,,,,null,,,,
null,are shouting at each other,,html-keyboard-response,386,2070901,0.0-19.0-2.10,20671,List1B,black,woman,,,,null,,,,
14486,,,survey-text,387,2085389,0.0-19.0-3.10,20671,List1B,black,woman,,,,,"{""Q0"":""mike and kate are shouting at each other.""}","<img src=""stim_listB/shout2.gif""</stim_listB>",are shouting at each other,
null,"<div style=""font-size:60px;"">+</div>",,html-keyboard-response,388,2085891,0.0-19.0-0.11,20671,List1B,black,woman,,,,null,,,,
null,"<img src=""stim_listB/dance6.gif""</stim_listB>",,html-keyboard-response,389,2087893,0.0-19.0-1.11,20671,List1B,black,woman,,,,null,,,,
null,are dancing with each other,,html-keyboard-response,390,2089894,0.0-19.0-2.11,20671,List1B,black,woman,,,,null,,,,
8735,,,survey-text,391,2098632,0.0-19.0-3.11,20671,List1B,black,woman,,,,,"{""Q0"":""mike and luke are dancing with each other.""}","<img src=""stim_listB/dance6.gif""</stim_listB>",are dancing with each other,
null,"<div style=""font-size:60px;"">+</div>",,html-keyboard-response,392,2099133,0.0-19.0-0.12,20671,List1B,black,woman,,,,null,,,,
null,"<img src=""stim_listB/meet5.gif""</stim_listB>",,html-keyboard-response,393,2101136,0.0-19.0-1.12,20671,List1B,black,woman,,,,null,,,,
null,is meeting,,html-keyboard-response,394,2103137,0.0-19.0-2.12,20671,List1B,black,woman,,,,null,,,,
8350,,,survey-text,395,2111489,0.0-19.0-3.12,20671,List1B,black,woman,,,,,"{""Q0"":""mike is meeting dave.""}","<img src=""stim_listB/meet5.gif""</stim_listB>",is meeting,
null,"<div style=""font-size:60px;"">+</div>",,html-keyboard-response,396,2111991,0.0-19.0-0.13,20671,List1B,black,woman,,,,null,,,,
null,"<img src=""stim_listB/touch6.gif""</stim_listB>",,html-keyboard-response,397,2113993,0.0-19.0-1.13,20671,List1B,black,woman,,,,null,,,,
null,are touching each other,,html-keyboard-response,398,2115994,0.0-19.0-2.13,20671,List1B,black,woman,,,,null,,,,
9106,,,survey-text,399,2125102,0.0-19.0-3.13,20671,List1B,black,woman,,,,,"{""Q0"":""fred and luke are touching each other.""}","<img src=""stim_listB/touch6.gif""</stim_listB>",are touching each other,
null,"<div style=""font-size:60px;"">+</div>",,html-keyboard-response,400,2125605,0.0-19.0-0.14,20671,List1B,black,woman,,,,null,,,,
null,"<img src=""stim_listB/fight1.gif""</stim_listB>",,html-keyboard-response,401,2127607,0.0-19.0-1.14,20671,List1B,black,woman,,,,null,,,,
null,is fighting,,html-keyboard-response,402,2129608,0.0-19.0-2.14,20671,List1B,black,woman,,,,null,,,,
14313,,,survey-text,403,2143923,0.0-19.0-3.14,20671,List1B,black,woman,,,,,"{""Q0"":""kate and mike are fighting.""}","<img src=""stim_listB/fight1.gif""</stim_listB>",is fighting,
null,"<div style=""font-size:60px;"">+</div>",,html-keyboard-response,404,2144425,0.0-19.0-0.15,20671,List1B,black,woman,,,,null,,,,
null,"<img src=""stim_listB/shout5.gif""</stim_listB>",,html-keyboard-response,405,2146427,0.0-19.0-1.15,20671,List1B,black,woman,,,,null,,,,
null,is shouting at,,html-keyboard-response,406,2148429,0.0-19.0-2.15,20671,List1B,black,woman,,,,null,,,,
9113,,,survey-text,407,2157544,0.0-19.0-3.15,20671,List1B,black,woman,,,,,"{""Q0"":""luke is shouting at fred.""}","<img src=""stim_listB/shout5.gif""</stim_listB>",is shouting at,
null,"<div style=""font-size:60px;"">+</div>",,html-keyboard-response,408,2158045,0.0-19.0-0.16,20671,List1B,black,woman,,,,null,,,,
null,"<img src=""stim_listB/shout4.gif""</stim_listB>",,html-keyboard-response,409,2160047,0.0-19.0-1.16,20671,List1B,black,woman,,,,null,,,,
null,are shouting at each other,,html-keyboard-response,410,2162049,0.0-19.0-2.16,20671,List1B,black,woman,,,,null,,,,
9447,,,survey-text,411,2171498,0.0-19.0-3.16,20671,List1B,black,woman,,,,,"{""Q0"":""jane and dave are shouting at each other.""}","<img src=""stim_listB/shout4.gif""</stim_listB>",are shouting at each other,
null,"<div style=""font-size:60px;"">+</div>",,html-keyboard-response,412,2172000,0.0-19.0-0.17,20671,List1B,black,woman,,,,null,,,,
null,"<img src=""stim_listB/marry5.gif""</stim_listB>",,html-keyboard-response,413,2174002,0.0-19.0-1.17,20671,List1B,black,woman,,,,null,,,,
null,is marrying,,html-keyboard-response,414,2176003,0.0-19.0-2.17,20671,List1B,black,woman,,,,null,,,,
8304,,,survey-text,415,2184309,0.0-19.0-3.17,20671,List1B,black,woman,,,,,"{""Q0"":""luke is marrying mike.""}","<img src=""stim_listB/marry5.gif""</stim_listB>",is marrying,
null,"<div style=""font-size:60px;"">+</div>",,html-keyboard-response,416,2184810,0.0-19.0-0.18,20671,List1B,black,woman,,,,null,,,,
null,"<img src=""stim_listB/touch8.gif""</stim_listB>",,html-keyboard-response,417,2186813,0.0-19.0-1.18,20671,List1B,black,woman,,,,null,,,,
null,are touching each other,,html-keyboard-response,418,2188814,0.0-19.0-2.18,20671,List1B,black,woman,,,,null,,,,
10323,,,survey-text,419,2199139,0.0-19.0-3.18,20671,List1B,black,woman,,,,,"{""Q0"":""beth and ruth are touching each other.""}","<img src=""stim_listB/touch8.gif""</stim_listB>",are touching each other,
null,"<div style=""font-size:60px;"">+</div>",,html-keyboard-response,420,2199641,0.0-19.0-0.19,20671,List1B,black,woman,,,,null,,,,
null,"<img src=""stim_listB/talk5.gif""</stim_listB>",,html-keyboard-response,421,2201643,0.0-19.0-1.19,20671,List1B,black,woman,,,,null,,,,
null,is talking to,,html-keyboard-response,422,2203645,0.0-19.0-2.19,20671,List1B,black,woman,,,,null,,,,
14525,,,survey-text,423,2218172,0.0-19.0-3.19,20671,List1B,black,woman,,,,,"{""Q0"":""fred and dave are talking to each other.""}","<img src=""stim_listB/talk5.gif""</stim_listB>",is talking to,
3353,<p>Thank you for completing that task.</p><p>The final part of this session is a short questionnaire.</p><p>Press Continue.</p>,0,html-button-response,424,2221528,0.0-20.0,20671,List1B,black,woman,,,,,,,,
25680,,,survey-text,425,2248211,0.0-21.0,20671,List1B,black,woman,,,,,"{""Q0"":""47"",""Q1"":""English"",""Q2"":""English"",""Q3"":""United States"",""Q4"":""Black"",""Q5"":""Female""}",,,demographics
55987,,,survey-likert,426,2304210,0.0-22.0,20671,List1B,black,woman,,,,,"{""Q0"":6,""Q1"":6,""Q2"":6,""Q3"":6,""Q4"":6,""Q5"":0,""Q6"":4,""Q7"":6,""Q8"":6,""Q9"":6,""Q10"":0,""Q11"":0,""Q12"":0,""Q13"":0}",,,likert_race
50672,,,survey-likert,427,2354889,0.0-23.0,20671,List1B,black,woman,,,,,"{""Q0"":4,""Q1"":4,""Q2"":6,""Q3"":6,""Q4"":6,""Q5"":2,""Q6"":3,""Q7"":6,""Q8"":6,""Q9"":6,""Q10"":0,""Q11"":0,""Q12"":0,""Q13"":0}",,,likert_gender
8209,,,survey-text,428,2363102,0.0-24.0,20671,List1B,black,woman,,,,,"{""Q0"":""ccc""}",,,worker_id
29515,,,external-html,429,2393142,0.0-25.0,20671,List1B,black,woman,debrief.html,,,,,,,
