rt,stimulus,button_pressed,trial_type,trial_index,time_elapsed,internal_node_id,subject,list,ppt_race,ppt_gender,url,first_guess,correct,key_press,responses,image_type,phrase_type,test_part
3371,Welcome to the experiment. Press Continue to begin.,0,html-button-response,0,3375,0.0-0.0,22399,List1B,white,man,,,,,,,,
42537,,,external-html,1,47278,0.0-1.0,22399,List1B,white,man,consent.html,,,,,,,
19537,"<p>On the next page, you will see portraits of 8 people and their names.</p><p>Your first task is to take a few minutes to memorise the names of these people.</p><p>You will have to recall their names during the rest of the experiment, so it is</p><p>essential that you try to memorise these people and their names as best as you can.</p><br><p><strong>You will then be tested on your memory of these names and portraits.</strong></p><br><p>The experiment will start after you have completed this memory test.</p><br><p>Ready?</p>",0,html-button-response,2,66817,0.0-2.0,22399,List1B,white,man,,,,,,,,
108747,"<img src='img/portrait_matrix_list1.JPG' style='width:900px;height:500px;''></img><p>If you have memorised all the portraits and names and are ready to start, press Continue.</p><p><strong>Please note: Your memory of these faces will be tested 4 times during this experiment.</strong></p>",0,html-button-response,3,176566,0.0-3.0-0.0,22399,List1B,white,man,,,,,,,,
4373,"<img src=""portrait/BW2.jpg""style=""width:400px;height:400px;""></img>",2,html-button-response,4,181945,0.0-3.0-1.0,22399,List1B,white,man,,TRUE,2,,,,,
null,CORRECT,,html-keyboard-response,5,183450,0.0-3.0-2.0-0.0,22399,List1B,white,man,,,,null,,,,
3547,"<img src=""portrait/WW1.jpg""style=""width:400px;height:400px;""></img>",1,html-button-response,6,186999,0.0-3.0-4.0,22399,List1B,white,man,,TRUE,1,,,,,
null,CORRECT,,html-keyboard-response,7,188503,0.0-3.0-5.0-0.0,22399,List1B,white,man,,,,null,,,,
4605,"<img src=""portrait/WM1.jpg""style=""width:400px;height:400px;""></img>",6,html-button-response,8,193109,0.0-3.0-7.0,22399,List1B,white,man,,TRUE,6,,,,,
null,CORRECT,,html-keyboard-response,9,194612,0.0-3.0-8.0-0.0,22399,List1B,white,man,,,,null,,,,
8642,"<img src=""portrait/BW1.jpg""style=""width:400px;height:400px;""></img>",0,html-button-response,10,203255,0.0-3.0-10.0,22399,List1B,white,man,,TRUE,0,,,,,
null,CORRECT,,html-keyboard-response,11,204758,0.0-3.0-11.0-0.0,22399,List1B,white,man,,,,null,,,,
6531,"<img src=""portrait/BM1.jpg""style=""width:400px;height:400px;""></img>",4,html-button-response,12,211294,0.0-3.0-13.0,22399,List1B,white,man,,TRUE,4,,,,,
null,CORRECT,,html-keyboard-response,13,212797,0.0-3.0-14.0-0.0,22399,List1B,white,man,,,,null,,,,
2328,"<img src=""portrait/BM2.jpg""style=""width:400px;height:400px;""></img>",5,html-button-response,14,215127,0.0-3.0-16.0,22399,List1B,white,man,,TRUE,5,,,,,
null,CORRECT,,html-keyboard-response,15,216630,0.0-3.0-17.0-0.0,22399,List1B,white,man,,,,null,,,,
5079,"<img src=""portrait/WW2.jpg""style=""width:400px;height:400px;""></img>",3,html-button-response,16,221709,0.0-3.0-19.0,22399,List1B,white,man,,TRUE,3,,,,,
null,CORRECT,,html-keyboard-response,17,223212,0.0-3.0-20.0-0.0,22399,List1B,white,man,,,,null,,,,
2233,"<img src=""portrait/WM2.jpg""style=""width:400px;height:400px;""></img>",7,html-button-response,18,225445,0.0-3.0-22.0,22399,List1B,white,man,,TRUE,7,,,,,
null,CORRECT,,html-keyboard-response,19,226947,0.0-3.0-23.0-0.0,22399,List1B,white,man,,,,null,,,,
1345,<p>You got 8 out of 8 right first time. Press Continue.</p>,0,html-button-response,20,228294,0.0-3.0-25.0,22399,List1B,white,man,,,,,,,,
46337,"<p>In this experiment, you will view photographs of the people from the memory game interacting.</p><p>By using the <strong>exact</strong> phrase given <i>after</i> the photograph appears and recalling the correct names of the people in the photographs, form a sentence describing the interaction. You do not need to capitalise names.</p><p>Type your answer in the space provided. Please complete every sentence before moving onto the next trial.</p><p>You will only have a few seconds to memorise each given photograph and phrase before you can respond, so try your best to focus.</p><p>An example is given below. Press 'Continue' when you are ready.</p><img src='img/speaking_example_v2.jpg' style='width:800px;height:460px;''></img>",0,html-button-response,21,275636,0.0-4.0,22399,List1B,white,man,,,,,,,,
2470,"<p>Before the experiment starts, you will watch two example trials. Press 'Continue'.</p>",0,html-button-response,22,279107,0.0-5.0,22399,List1B,white,man,,,,,,,,
null,<img src='img/speaking_WW.gif'></img>,,html-keyboard-response,23,282111,0.0-6.0,22399,List1B,white,man,,,,null,,,,
null,<p>is speaking to</p>,,html-keyboard-response,24,284113,0.0-7.0,22399,List1B,white,man,,,,null,,,,
4214,<p><b>Answer:</b> kate is speaking to beth</p>,0,html-button-response,25,288330,0.0-8.0,22399,List1B,white,man,,,,,,,,
null,<img src='img/pointing_BM.gif'></img>,,html-keyboard-response,26,291334,0.0-9.0,22399,List1B,white,man,,,,null,,,,
null,<p>are pointing at each other</p>,,html-keyboard-response,27,293335,0.0-10.0,22399,List1B,white,man,,,,null,,,,
8588,<p><b>Answer:</b> luke and dave are pointing at each other</p>,0,html-button-response,28,301924,0.0-11.0,22399,List1B,white,man,,,,,,,,
9833,"<p>Ready to start the experiment?</p><br><p><strong>Remember to describe the picture using a full sentence,</strong></p><p><strong>that combines the names of the people with the given phrase.</strong></p><p><strong>If you do not do this correctly you will not be paid.</strong></p><p><strong> You do not need to capitalise names or use punctuation.</strong></p><br><p>Press 'Continue' to begin.</p>",0,html-button-response,29,312760,0.0-12.0,22399,List1B,white,man,,,,,,,,
null,"<div style=""font-size:60px;"">+</div>",,html-keyboard-response,30,314261,0.0-13.0-0.0,22399,List1B,white,man,,,,null,,,,
null,"<img src=""stim_listB/touch7.gif""</stim_listB>",,html-keyboard-response,31,316264,0.0-13.0-1.0,22399,List1B,white,man,,,,null,,,,
null,is touching,,html-keyboard-response,32,318266,0.0-13.0-2.0,22399,List1B,white,man,,,,null,,,,
14573,,,survey-text,33,332841,0.0-13.0-3.0,22399,List1B,white,man,,,,,"{""Q0"":""kate is touching jane""}","<img src=""stim_listB/touch7.gif""</stim_listB>",is touching,
null,"<div style=""font-size:60px;"">+</div>",,html-keyboard-response,34,333344,0.0-13.0-0.1,22399,List1B,white,man,,,,null,,,,
null,"<img src=""stim_listB/fight7.gif""</stim_listB>",,html-keyboard-response,35,335346,0.0-13.0-1.1,22399,List1B,white,man,,,,null,,,,
null,is fighting,,html-keyboard-response,36,337348,0.0-13.0-2.1,22399,List1B,white,man,,,,null,,,,
8606,,,survey-text,37,345955,0.0-13.0-3.1,22399,List1B,white,man,,,,,"{""Q0"":""jane is fighting kate""}","<img src=""stim_listB/fight7.gif""</stim_listB>",is fighting,
null,"<div style=""font-size:60px;"">+</div>",,html-keyboard-response,38,346459,0.0-13.0-0.2,22399,List1B,white,man,,,,null,,,,
null,"<img src=""stim_listB/argue7.gif""</stim_listB>",,html-keyboard-response,39,348462,0.0-13.0-1.2,22399,List1B,white,man,,,,null,,,,
null,is arguing with,,html-keyboard-response,40,350464,0.0-13.0-2.2,22399,List1B,white,man,,,,null,,,,
9320,,,survey-text,41,359785,0.0-13.0-3.2,22399,List1B,white,man,,,,,"{""Q0"":""kate is arguing with ruth""}","<img src=""stim_listB/argue7.gif""</stim_listB>",is arguing with,
null,"<div style=""font-size:60px;"">+</div>",,html-keyboard-response,42,360289,0.0-13.0-0.3,22399,List1B,white,man,,,,null,,,,
null,"<img src=""stim_listB/kiss6.gif""</stim_listB>",,html-keyboard-response,43,362292,0.0-13.0-1.3,22399,List1B,white,man,,,,null,,,,
null,are kissing each other,,html-keyboard-response,44,364294,0.0-13.0-2.3,22399,List1B,white,man,,,,null,,,,
38703,,,survey-text,45,402999,0.0-13.0-3.3,22399,List1B,white,man,,,,,"{""Q0"":""dave and mike kissing, i don't recall the phrase exactly it was worded strangely i think""}","<img src=""stim_listB/kiss6.gif""</stim_listB>",are kissing each other,
null,"<div style=""font-size:60px;"">+</div>",,html-keyboard-response,46,403500,0.0-13.0-0.4,22399,List1B,white,man,,,,null,,,,
null,"<img src=""stim_listB/argue8.gif""</stim_listB>",,html-keyboard-response,47,405502,0.0-13.0-1.4,22399,List1B,white,man,,,,null,,,,
null,are arguing with each other,,html-keyboard-response,48,407505,0.0-13.0-2.4,22399,List1B,white,man,,,,null,,,,
30956,,,survey-text,49,438461,0.0-13.0-3.4,22399,List1B,white,man,,,,,"{""Q0"":""""}","<img src=""stim_listB/argue8.gif""</stim_listB>",are arguing with each other,
null,"<div style=""font-size:60px;"">+</div>",,html-keyboard-response,50,438964,0.0-13.0-0.5,22399,List1B,white,man,,,,null,,,,
null,"<img src=""stim_listB/shout5.gif""</stim_listB>",,html-keyboard-response,51,440967,0.0-13.0-1.5,22399,List1B,white,man,,,,null,,,,
null,is shouting at,,html-keyboard-response,52,442969,0.0-13.0-2.5,22399,List1B,white,man,,,,null,,,,
20967,,,survey-text,53,463937,0.0-13.0-3.5,22399,List1B,white,man,,,,,"{""Q0"":""fred is shouting at luke""}","<img src=""stim_listB/shout5.gif""</stim_listB>",is shouting at,
null,"<div style=""font-size:60px;"">+</div>",,html-keyboard-response,54,464441,0.0-13.0-0.6,22399,List1B,white,man,,,,null,,,,
null,"<img src=""stim_listB/dance3.gif""</stim_listB>",,html-keyboard-response,55,466441,0.0-13.0-1.6,22399,List1B,white,man,,,,null,,,,
null,is dancing with,,html-keyboard-response,56,468443,0.0-13.0-2.6,22399,List1B,white,man,,,,null,,,,
16929,,,survey-text,57,485373,0.0-13.0-3.6,22399,List1B,white,man,,,,,"{""Q0"":""jane is dancing with luke""}","<img src=""stim_listB/dance3.gif""</stim_listB>",is dancing with,
null,"<div style=""font-size:60px;"">+</div>",,html-keyboard-response,58,485875,0.0-13.0-0.7,22399,List1B,white,man,,,,null,,,,
null,"<img src=""stim_listB/meet6.gif""</stim_listB>",,html-keyboard-response,59,487878,0.0-13.0-1.7,22399,List1B,white,man,,,,null,,,,
null,are meeting each other,,html-keyboard-response,60,489881,0.0-13.0-2.7,22399,List1B,white,man,,,,null,,,,
11092,,,survey-text,61,500976,0.0-13.0-3.7,22399,List1B,white,man,,,,,"{""Q0"":""luke and fred are meeting each other""}","<img src=""stim_listB/meet6.gif""</stim_listB>",are meeting each other,
null,"<div style=""font-size:60px;"">+</div>",,html-keyboard-response,62,501480,0.0-13.0-0.8,22399,List1B,white,man,,,,null,,,,
null,"<img src=""stim_listB/hug1.gif""</stim_listB>",,html-keyboard-response,63,503483,0.0-13.0-1.8,22399,List1B,white,man,,,,null,,,,
null,is hugging,,html-keyboard-response,64,505484,0.0-13.0-2.8,22399,List1B,white,man,,,,null,,,,
7526,,,survey-text,65,513012,0.0-13.0-3.8,22399,List1B,white,man,,,,,"{""Q0"":""fred is hugging beth""}","<img src=""stim_listB/hug1.gif""</stim_listB>",is hugging,
null,"<div style=""font-size:60px;"">+</div>",,html-keyboard-response,66,513515,0.0-13.0-0.9,22399,List1B,white,man,,,,null,,,,
null,"<img src=""stim_listB/meet1.gif""</stim_listB>",,html-keyboard-response,67,515516,0.0-13.0-1.9,22399,List1B,white,man,,,,null,,,,
null,is meeting,,html-keyboard-response,68,517518,0.0-13.0-2.9,22399,List1B,white,man,,,,null,,,,
9003,,,survey-text,69,526522,0.0-13.0-3.9,22399,List1B,white,man,,,,,"{""Q0"":""kate is meeting mike""}","<img src=""stim_listB/meet1.gif""</stim_listB>",is meeting,
null,"<div style=""font-size:60px;"">+</div>",,html-keyboard-response,70,527023,0.0-13.0-0.10,22399,List1B,white,man,,,,null,,,,
null,"<img src=""stim_listB/kiss7.gif""</stim_listB>",,html-keyboard-response,71,529026,0.0-13.0-1.10,22399,List1B,white,man,,,,null,,,,
null,is kissing,,html-keyboard-response,72,531029,0.0-13.0-2.10,22399,List1B,white,man,,,,null,,,,
11645,,,survey-text,73,542675,0.0-13.0-3.10,22399,List1B,white,man,,,,,"{""Q0"":""ruth is kissing kate""}","<img src=""stim_listB/kiss7.gif""</stim_listB>",is kissing,
null,"<div style=""font-size:60px;"">+</div>",,html-keyboard-response,74,543176,0.0-13.0-0.11,22399,List1B,white,man,,,,null,,,,
null,"<img src=""stim_listB/talk6.gif""</stim_listB>",,html-keyboard-response,75,545179,0.0-13.0-1.11,22399,List1B,white,man,,,,null,,,,
null,are talking to each other,,html-keyboard-response,76,547181,0.0-13.0-2.11,22399,List1B,white,man,,,,null,,,,
20026,,,survey-text,77,567207,0.0-13.0-3.11,22399,List1B,white,man,,,,,"{""Q0"":""mike and dave are talking to each other""}","<img src=""stim_listB/talk6.gif""</stim_listB>",are talking to each other,
null,"<div style=""font-size:60px;"">+</div>",,html-keyboard-response,78,567710,0.0-13.0-0.12,22399,List1B,white,man,,,,null,,,,
null,"<img src=""stim_listB/shout1.gif""</stim_listB>",,html-keyboard-response,79,569711,0.0-13.0-1.12,22399,List1B,white,man,,,,null,,,,
null,is shouting at,,html-keyboard-response,80,571711,0.0-13.0-2.12,22399,List1B,white,man,,,,null,,,,
6626,,,survey-text,81,578338,0.0-13.0-3.12,22399,List1B,white,man,,,,,"{""Q0"":""fred is shouting at beth""}","<img src=""stim_listB/shout1.gif""</stim_listB>",is shouting at,
null,"<div style=""font-size:60px;"">+</div>",,html-keyboard-response,82,578840,0.0-13.0-0.13,22399,List1B,white,man,,,,null,,,,
null,"<img src=""stim_listB/fight5.gif""</stim_listB>",,html-keyboard-response,83,580842,0.0-13.0-1.13,22399,List1B,white,man,,,,null,,,,
null,is fighting,,html-keyboard-response,84,582842,0.0-13.0-2.13,22399,List1B,white,man,,,,null,,,,
8460,,,survey-text,85,591303,0.0-13.0-3.13,22399,List1B,white,man,,,,,"{""Q0"":""mike is fighting dave""}","<img src=""stim_listB/fight5.gif""</stim_listB>",is fighting,
null,"<div style=""font-size:60px;"">+</div>",,html-keyboard-response,86,591805,0.0-13.0-0.14,22399,List1B,white,man,,,,null,,,,
null,"<img src=""stim_listB/marry2.gif""</stim_listB>",,html-keyboard-response,87,593807,0.0-13.0-1.14,22399,List1B,white,man,,,,null,,,,
null,are marrying each other,,html-keyboard-response,88,595810,0.0-13.0-2.14,22399,List1B,white,man,,,,null,,,,
12919,,,survey-text,89,608729,0.0-13.0-3.14,22399,List1B,white,man,,,,,"{""Q0"":""kate and fred are marrying each other""}","<img src=""stim_listB/marry2.gif""</stim_listB>",are marrying each other,
null,"<div style=""font-size:60px;"">+</div>",,html-keyboard-response,90,609233,0.0-13.0-0.15,22399,List1B,white,man,,,,null,,,,
null,"<img src=""stim_listB/meet7.gif""</stim_listB>",,html-keyboard-response,91,611235,0.0-13.0-1.15,22399,List1B,white,man,,,,null,,,,
null,is meeting,,html-keyboard-response,92,613237,0.0-13.0-2.15,22399,List1B,white,man,,,,null,,,,
6849,,,survey-text,93,620089,0.0-13.0-3.15,22399,List1B,white,man,,,,,"{""Q0"":""jane is meeting kate""}","<img src=""stim_listB/meet7.gif""</stim_listB>",is meeting,
null,"<div style=""font-size:60px;"">+</div>",,html-keyboard-response,94,620592,0.0-13.0-0.16,22399,List1B,white,man,,,,null,,,,
null,"<img src=""stim_listB/talk2.gif""</stim_listB>",,html-keyboard-response,95,622594,0.0-13.0-1.16,22399,List1B,white,man,,,,null,,,,
null,are talking to each other,,html-keyboard-response,96,624595,0.0-13.0-2.16,22399,List1B,white,man,,,,null,,,,
8915,,,survey-text,97,633511,0.0-13.0-3.16,22399,List1B,white,man,,,,,"{""Q0"":""mike and beth are talking to each other""}","<img src=""stim_listB/talk2.gif""</stim_listB>",are talking to each other,
null,"<div style=""font-size:60px;"">+</div>",,html-keyboard-response,98,634014,0.0-13.0-0.17,22399,List1B,white,man,,,,null,,,,
null,"<img src=""stim_listB/hug2.gif""</stim_listB>",,html-keyboard-response,99,636016,0.0-13.0-1.17,22399,List1B,white,man,,,,null,,,,
null,are hugging each other,,html-keyboard-response,100,638018,0.0-13.0-2.17,22399,List1B,white,man,,,,null,,,,
15047,,,survey-text,101,653067,0.0-13.0-3.17,22399,List1B,white,man,,,,,"{""Q0"":""kate and mike are hugging each other""}","<img src=""stim_listB/hug2.gif""</stim_listB>",are hugging each other,
null,"<div style=""font-size:60px;"">+</div>",,html-keyboard-response,102,653569,0.0-13.0-0.18,22399,List1B,white,man,,,,null,,,,
null,"<img src=""stim_listB/marry7.gif""</stim_listB>",,html-keyboard-response,103,655573,0.0-13.0-1.18,22399,List1B,white,man,,,,null,,,,
null,is marrying,,html-keyboard-response,104,657574,0.0-13.0-2.18,22399,List1B,white,man,,,,null,,,,
9584,,,survey-text,105,667160,0.0-13.0-3.18,22399,List1B,white,man,,,,,"{""Q0"":""kate is marrying ruth""}","<img src=""stim_listB/marry7.gif""</stim_listB>",is marrying,
null,"<div style=""font-size:60px;"">+</div>",,html-keyboard-response,106,667660,0.0-13.0-0.19,22399,List1B,white,man,,,,null,,,,
null,"<img src=""stim_listB/fight1.gif""</stim_listB>",,html-keyboard-response,107,669664,0.0-13.0-1.19,22399,List1B,white,man,,,,null,,,,
null,is fighting,,html-keyboard-response,108,671668,0.0-13.0-2.19,22399,List1B,white,man,,,,null,,,,
11061,,,survey-text,109,682731,0.0-13.0-3.19,22399,List1B,white,man,,,,,"{""Q0"":""kate is fighting mike""}","<img src=""stim_listB/fight1.gif""</stim_listB>",is fighting,
17366,"<img src='img/portrait_matrix_list1.JPG' style='width:900px;height:500px;''></img><p>If you have memorised all the portraits and names and are ready to start, press Continue.</p><p><strong>Please note: Your memory of these faces will be tested 4 times during this experiment.</strong></p>",0,html-button-response,110,700100,0.0-14.0-0.0,22399,List1B,white,man,,,,,,,,
6169,"<img src=""portrait/WM1.jpg""style=""width:400px;height:400px;""></img>",6,html-button-response,111,707273,0.0-14.0-1.0,22399,List1B,white,man,,TRUE,6,,,,,
null,CORRECT,,html-keyboard-response,112,708776,0.0-14.0-2.0-0.0,22399,List1B,white,man,,,,null,,,,
1714,"<img src=""portrait/BM1.jpg""style=""width:400px;height:400px;""></img>",4,html-button-response,113,710494,0.0-14.0-4.0,22399,List1B,white,man,,TRUE,4,,,,,
null,CORRECT,,html-keyboard-response,114,711997,0.0-14.0-5.0-0.0,22399,List1B,white,man,,,,null,,,,
2278,"<img src=""portrait/BW1.jpg""style=""width:400px;height:400px;""></img>",0,html-button-response,115,714277,0.0-14.0-7.0,22399,List1B,white,man,,TRUE,0,,,,,
null,CORRECT,,html-keyboard-response,116,715780,0.0-14.0-8.0-0.0,22399,List1B,white,man,,,,null,,,,
2511,"<img src=""portrait/WW1.jpg""style=""width:400px;height:400px;""></img>",1,html-button-response,117,718292,0.0-14.0-10.0,22399,List1B,white,man,,TRUE,1,,,,,
null,CORRECT,,html-keyboard-response,118,719797,0.0-14.0-11.0-0.0,22399,List1B,white,man,,,,null,,,,
1997,"<img src=""portrait/BM2.jpg""style=""width:400px;height:400px;""></img>",5,html-button-response,119,721795,0.0-14.0-13.0,22399,List1B,white,man,,TRUE,5,,,,,
null,CORRECT,,html-keyboard-response,120,723298,0.0-14.0-14.0-0.0,22399,List1B,white,man,,,,null,,,,
3022,"<img src=""portrait/BW2.jpg""style=""width:400px;height:400px;""></img>",2,html-button-response,121,726321,0.0-14.0-16.0,22399,List1B,white,man,,TRUE,2,,,,,
null,CORRECT,,html-keyboard-response,122,727823,0.0-14.0-17.0-0.0,22399,List1B,white,man,,,,null,,,,
1570,"<img src=""portrait/WM2.jpg""style=""width:400px;height:400px;""></img>",7,html-button-response,123,729394,0.0-14.0-19.0,22399,List1B,white,man,,TRUE,7,,,,,
null,CORRECT,,html-keyboard-response,124,730896,0.0-14.0-20.0-0.0,22399,List1B,white,man,,,,null,,,,
1810,"<img src=""portrait/WW2.jpg""style=""width:400px;height:400px;""></img>",3,html-button-response,125,732708,0.0-14.0-22.0,22399,List1B,white,man,,TRUE,3,,,,,
null,CORRECT,,html-keyboard-response,126,734211,0.0-14.0-23.0-0.0,22399,List1B,white,man,,,,null,,,,
849,<p>You got 8 out of 8 right first time. Press Continue.</p>,0,html-button-response,127,735062,0.0-14.0-25.0,22399,List1B,white,man,,,,,,,,
null,"<div style=""font-size:60px;"">+</div>",,html-keyboard-response,128,736568,0.0-15.0-0.0,22399,List1B,white,man,,,,null,,,,
null,"<img src=""stim_listB/argue6.gif""</stim_listB>",,html-keyboard-response,129,738570,0.0-15.0-1.0,22399,List1B,white,man,,,,null,,,,
null,are arguing with each other,,html-keyboard-response,130,740571,0.0-15.0-2.0,22399,List1B,white,man,,,,null,,,,
11807,,,survey-text,131,752380,0.0-15.0-3.0,22399,List1B,white,man,,,,,"{""Q0"":""fred and dave are arguing with each other""}","<img src=""stim_listB/argue6.gif""</stim_listB>",are arguing with each other,
null,"<div style=""font-size:60px;"">+</div>",,html-keyboard-response,132,752882,0.0-15.0-0.1,22399,List1B,white,man,,,,null,,,,
null,"<img src=""stim_listB/meet4.gif""</stim_listB>",,html-keyboard-response,133,754885,0.0-15.0-1.1,22399,List1B,white,man,,,,null,,,,
null,are meeting each other,,html-keyboard-response,134,756887,0.0-15.0-2.1,22399,List1B,white,man,,,,null,,,,
9733,,,survey-text,135,766620,0.0-15.0-3.1,22399,List1B,white,man,,,,,"{""Q0"":""luke and ruth""}","<img src=""stim_listB/meet4.gif""</stim_listB>",are meeting each other,
null,"<div style=""font-size:60px;"">+</div>",,html-keyboard-response,136,767122,0.0-15.0-0.2,22399,List1B,white,man,,,,null,,,,
null,"<img src=""stim_listB/argue4.gif""</stim_listB>",,html-keyboard-response,137,769125,0.0-15.0-1.2,22399,List1B,white,man,,,,null,,,,
null,are arguing with each other,,html-keyboard-response,138,771126,0.0-15.0-2.2,22399,List1B,white,man,,,,null,,,,
10361,,,survey-text,139,781488,0.0-15.0-3.2,22399,List1B,white,man,,,,,"{""Q0"":""jane and luke are arguing with each other""}","<img src=""stim_listB/argue4.gif""</stim_listB>",are arguing with each other,
null,"<div style=""font-size:60px;"">+</div>",,html-keyboard-response,140,781988,0.0-15.0-0.3,22399,List1B,white,man,,,,null,,,,
null,"<img src=""stim_listB/dance4.gif""</stim_listB>",,html-keyboard-response,141,783990,0.0-15.0-1.3,22399,List1B,white,man,,,,null,,,,
null,are dancing with each other,,html-keyboard-response,142,785992,0.0-15.0-2.3,22399,List1B,white,man,,,,null,,,,
12330,,,survey-text,143,798322,0.0-15.0-3.3,22399,List1B,white,man,,,,,"{""Q0"":""ruth and dave are dancing with each other""}","<img src=""stim_listB/dance4.gif""</stim_listB>",are dancing with each other,
null,"<div style=""font-size:60px;"">+</div>",,html-keyboard-response,144,798824,0.0-15.0-0.4,22399,List1B,white,man,,,,null,,,,
null,"<img src=""stim_listB/fight4.gif""</stim_listB>",,html-keyboard-response,145,800826,0.0-15.0-1.4,22399,List1B,white,man,,,,null,,,,
null,are fighting each other,,html-keyboard-response,146,802829,0.0-15.0-2.4,22399,List1B,white,man,,,,null,,,,
8791,,,survey-text,147,811622,0.0-15.0-3.4,22399,List1B,white,man,,,,,"{""Q0"":""ruth and luke are fighting each other""}","<img src=""stim_listB/fight4.gif""</stim_listB>",are fighting each other,
null,"<div style=""font-size:60px;"">+</div>",,html-keyboard-response,148,812124,0.0-15.0-0.5,22399,List1B,white,man,,,,null,,,,
null,"<img src=""stim_listB/argue2.gif""</stim_listB>",,html-keyboard-response,149,814125,0.0-15.0-1.5,22399,List1B,white,man,,,,null,,,,
null,are arguing with each other,,html-keyboard-response,150,816128,0.0-15.0-2.5,22399,List1B,white,man,,,,null,,,,
16321,,,survey-text,151,832450,0.0-15.0-3.5,22399,List1B,white,man,,,,,"{""Q0"":""fred and kate are arguing with each other""}","<img src=""stim_listB/argue2.gif""</stim_listB>",are arguing with each other,
null,"<div style=""font-size:60px;"">+</div>",,html-keyboard-response,152,832953,0.0-15.0-0.6,22399,List1B,white,man,,,,null,,,,
null,"<img src=""stim_listB/touch3.gif""</stim_listB>",,html-keyboard-response,153,834956,0.0-15.0-1.6,22399,List1B,white,man,,,,null,,,,
null,is touching,,html-keyboard-response,154,836959,0.0-15.0-2.6,22399,List1B,white,man,,,,null,,,,
13457,,,survey-text,155,850418,0.0-15.0-3.6,22399,List1B,white,man,,,,,"{""Q0"":""dave is touching jane""}","<img src=""stim_listB/touch3.gif""</stim_listB>",is touching,
null,"<div style=""font-size:60px;"">+</div>",,html-keyboard-response,156,850921,0.0-15.0-0.7,22399,List1B,white,man,,,,null,,,,
null,"<img src=""stim_listB/marry4.gif""</stim_listB>",,html-keyboard-response,157,852922,0.0-15.0-1.7,22399,List1B,white,man,,,,null,,,,
null,are marrying each other,,html-keyboard-response,158,854925,0.0-15.0-2.7,22399,List1B,white,man,,,,null,,,,
18608,,,survey-text,159,873534,0.0-15.0-3.7,22399,List1B,white,man,,,,,"{""Q0"":""luke and jane are marrying each other""}","<img src=""stim_listB/marry4.gif""</stim_listB>",are marrying each other,
null,"<div style=""font-size:60px;"">+</div>",,html-keyboard-response,160,874035,0.0-15.0-0.8,22399,List1B,white,man,,,,null,,,,
null,"<img src=""stim_listB/touch2.gif""</stim_listB>",,html-keyboard-response,161,876037,0.0-15.0-1.8,22399,List1B,white,man,,,,null,,,,
null,are touching each other,,html-keyboard-response,162,878039,0.0-15.0-2.8,22399,List1B,white,man,,,,null,,,,
17098,,,survey-text,163,895139,0.0-15.0-3.8,22399,List1B,white,man,,,,,"{""Q0"":""fred and beth are ttouching each other""}","<img src=""stim_listB/touch2.gif""</stim_listB>",are touching each other,
null,"<div style=""font-size:60px;"">+</div>",,html-keyboard-response,164,895641,0.0-15.0-0.9,22399,List1B,white,man,,,,null,,,,
null,"<img src=""stim_listB/dance2.gif""</stim_listB>",,html-keyboard-response,165,897646,0.0-15.0-1.9,22399,List1B,white,man,,,,null,,,,
null,are dancing with each other,,html-keyboard-response,166,899649,0.0-15.0-2.9,22399,List1B,white,man,,,,null,,,,
13024,,,survey-text,167,912675,0.0-15.0-3.9,22399,List1B,white,man,,,,,"{""Q0"":""mike and beth are dancing with each other""}","<img src=""stim_listB/dance2.gif""</stim_listB>",are dancing with each other,
null,"<div style=""font-size:60px;"">+</div>",,html-keyboard-response,168,913177,0.0-15.0-0.10,22399,List1B,white,man,,,,null,,,,
null,"<img src=""stim_listB/hug5.gif""</stim_listB>",,html-keyboard-response,169,915177,0.0-15.0-1.10,22399,List1B,white,man,,,,null,,,,
null,is hugging,,html-keyboard-response,170,917180,0.0-15.0-2.10,22399,List1B,white,man,,,,null,,,,
14773,,,survey-text,171,931954,0.0-15.0-3.10,22399,List1B,white,man,,,,,"{""Q0"":""fred is hugging luke""}","<img src=""stim_listB/hug5.gif""</stim_listB>",is hugging,
null,"<div style=""font-size:60px;"">+</div>",,html-keyboard-response,172,932454,0.0-15.0-0.11,22399,List1B,white,man,,,,null,,,,
null,"<img src=""stim_listB/kiss1.gif""</stim_listB>",,html-keyboard-response,173,934457,0.0-15.0-1.11,22399,List1B,white,man,,,,null,,,,
null,is kissing,,html-keyboard-response,174,936459,0.0-15.0-2.11,22399,List1B,white,man,,,,null,,,,
13185,,,survey-text,175,949646,0.0-15.0-3.11,22399,List1B,white,man,,,,,"{""Q0"":""fred is kissing beth""}","<img src=""stim_listB/kiss1.gif""</stim_listB>",is kissing,
null,"<div style=""font-size:60px;"">+</div>",,html-keyboard-response,176,950147,0.0-15.0-0.12,22399,List1B,white,man,,,,null,,,,
null,"<img src=""stim_listB/touch8.gif""</stim_listB>",,html-keyboard-response,177,952149,0.0-15.0-1.12,22399,List1B,white,man,,,,null,,,,
null,are touching each other,,html-keyboard-response,178,954149,0.0-15.0-2.12,22399,List1B,white,man,,,,null,,,,
18906,,,survey-text,179,973057,0.0-15.0-3.12,22399,List1B,white,man,,,,,"{""Q0"":""beth and ruth are touching each other""}","<img src=""stim_listB/touch8.gif""</stim_listB>",are touching each other,
null,"<div style=""font-size:60px;"">+</div>",,html-keyboard-response,180,973559,0.0-15.0-0.13,22399,List1B,white,man,,,,null,,,,
null,"<img src=""stim_listB/kiss8.gif""</stim_listB>",,html-keyboard-response,181,975560,0.0-15.0-1.13,22399,List1B,white,man,,,,null,,,,
null,are kissing each other,,html-keyboard-response,182,977561,0.0-15.0-2.13,22399,List1B,white,man,,,,null,,,,
14010,,,survey-text,183,991572,0.0-15.0-3.13,22399,List1B,white,man,,,,,"{""Q0"":""kate and jane are kissing each other ""}","<img src=""stim_listB/kiss8.gif""</stim_listB>",are kissing each other,
null,"<div style=""font-size:60px;"">+</div>",,html-keyboard-response,184,992074,0.0-15.0-0.14,22399,List1B,white,man,,,,null,,,,
null,"<img src=""stim_listB/marry6.gif""</stim_listB>",,html-keyboard-response,185,994077,0.0-15.0-1.14,22399,List1B,white,man,,,,null,,,,
null,are marrying each other,,html-keyboard-response,186,996078,0.0-15.0-2.14,22399,List1B,white,man,,,,null,,,,
15748,,,survey-text,187,1011827,0.0-15.0-3.14,22399,List1B,white,man,,,,,"{""Q0"":""fred and dave are marrying each other""}","<img src=""stim_listB/marry6.gif""</stim_listB>",are marrying each other,
null,"<div style=""font-size:60px;"">+</div>",,html-keyboard-response,188,1012328,0.0-15.0-0.15,22399,List1B,white,man,,,,null,,,,
null,"<img src=""stim_listB/meet3.gif""</stim_listB>",,html-keyboard-response,189,1014330,0.0-15.0-1.15,22399,List1B,white,man,,,,null,,,,
null,is meeting,,html-keyboard-response,190,1016330,0.0-15.0-2.15,22399,List1B,white,man,,,,null,,,,
13247,,,survey-text,191,1029577,0.0-15.0-3.15,22399,List1B,white,man,,,,,"{""Q0"":""fred is meeting dave""}","<img src=""stim_listB/meet3.gif""</stim_listB>",is meeting,
null,"<div style=""font-size:60px;"">+</div>",,html-keyboard-response,192,1030080,0.0-15.0-0.16,22399,List1B,white,man,,,,null,,,,
null,"<img src=""stim_listB/talk3.gif""</stim_listB>",,html-keyboard-response,193,1032082,0.0-15.0-1.16,22399,List1B,white,man,,,,null,,,,
null,is talking to,,html-keyboard-response,194,1034085,0.0-15.0-2.16,22399,List1B,white,man,,,,null,,,,
19454,,,survey-text,195,1053541,0.0-15.0-3.16,22399,List1B,white,man,,,,,"{""Q0"":""jane is talking to luke""}","<img src=""stim_listB/talk3.gif""</stim_listB>",is talking to,
null,"<div style=""font-size:60px;"">+</div>",,html-keyboard-response,196,1054043,0.0-15.0-0.17,22399,List1B,white,man,,,,null,,,,
null,"<img src=""stim_listB/argue1.gif""</stim_listB>",,html-keyboard-response,197,1056044,0.0-15.0-1.17,22399,List1B,white,man,,,,null,,,,
null,is arguing with,,html-keyboard-response,198,1058047,0.0-15.0-2.17,22399,List1B,white,man,,,,null,,,,
16336,,,survey-text,199,1074383,0.0-15.0-3.17,22399,List1B,white,man,,,,,"{""Q0"":""beth is arguing with mike""}","<img src=""stim_listB/argue1.gif""</stim_listB>",is arguing with,
null,"<div style=""font-size:60px;"">+</div>",,html-keyboard-response,200,1074885,0.0-15.0-0.18,22399,List1B,white,man,,,,null,,,,
null,"<img src=""stim_listB/shout6.gif""</stim_listB>",,html-keyboard-response,201,1076886,0.0-15.0-1.18,22399,List1B,white,man,,,,null,,,,
null,are shouting at each other,,html-keyboard-response,202,1078889,0.0-15.0-2.18,22399,List1B,white,man,,,,null,,,,
18293,,,survey-text,203,1097184,0.0-15.0-3.18,22399,List1B,white,man,,,,,"{""Q0"":""dave and mike are shouting at each other""}","<img src=""stim_listB/shout6.gif""</stim_listB>",are shouting at each other,
null,"<div style=""font-size:60px;"">+</div>",,html-keyboard-response,204,1097686,0.0-15.0-0.19,22399,List1B,white,man,,,,null,,,,
null,"<img src=""stim_listB/argue3.gif""</stim_listB>",,html-keyboard-response,205,1099690,0.0-15.0-1.19,22399,List1B,white,man,,,,null,,,,
null,is arguing with,,html-keyboard-response,206,1101692,0.0-15.0-2.19,22399,List1B,white,man,,,,null,,,,
11406,,,survey-text,207,1113100,0.0-15.0-3.19,22399,List1B,white,man,,,,,"{""Q0"":""dave is arguing with ruth""}","<img src=""stim_listB/argue3.gif""</stim_listB>",is arguing with,
60555,"<img src='img/portrait_matrix_list1.JPG' style='width:900px;height:500px;''></img><p>If you have memorised all the portraits and names and are ready to start, press Continue.</p><p><strong>Please note: Your memory of these faces will be tested 4 times during this experiment.</strong></p>",0,html-button-response,208,1173657,0.0-16.0-0.0,22399,List1B,white,man,,,,,,,,
2349,"<img src=""portrait/BM1.jpg""style=""width:400px;height:400px;""></img>",4,html-button-response,209,1177009,0.0-16.0-1.0,22399,List1B,white,man,,TRUE,4,,,,,
null,CORRECT,,html-keyboard-response,210,1178512,0.0-16.0-2.0-0.0,22399,List1B,white,man,,,,null,,,,
1547,"<img src=""portrait/WW2.jpg""style=""width:400px;height:400px;""></img>",3,html-button-response,211,1180060,0.0-16.0-4.0,22399,List1B,white,man,,TRUE,3,,,,,
null,CORRECT,,html-keyboard-response,212,1181563,0.0-16.0-5.0-0.0,22399,List1B,white,man,,,,null,,,,
3019,"<img src=""portrait/BW1.jpg""style=""width:400px;height:400px;""></img>",0,html-button-response,213,1184584,0.0-16.0-7.0,22399,List1B,white,man,,TRUE,0,,,,,
null,CORRECT,,html-keyboard-response,214,1186087,0.0-16.0-8.0-0.0,22399,List1B,white,man,,,,null,,,,
1663,"<img src=""portrait/WM2.jpg""style=""width:400px;height:400px;""></img>",7,html-button-response,215,1187751,0.0-16.0-10.0,22399,List1B,white,man,,TRUE,7,,,,,
null,CORRECT,,html-keyboard-response,216,1189252,0.0-16.0-11.0-0.0,22399,List1B,white,man,,,,null,,,,
1822,"<img src=""portrait/BW2.jpg""style=""width:400px;height:400px;""></img>",2,html-button-response,217,1191077,0.0-16.0-13.0,22399,List1B,white,man,,TRUE,2,,,,,
null,CORRECT,,html-keyboard-response,218,1192578,0.0-16.0-14.0-0.0,22399,List1B,white,man,,,,null,,,,
7560,"<img src=""portrait/WM1.jpg""style=""width:400px;height:400px;""></img>",6,html-button-response,219,1200140,0.0-16.0-16.0,22399,List1B,white,man,,TRUE,6,,,,,
null,CORRECT,,html-keyboard-response,220,1201643,0.0-16.0-17.0-0.0,22399,List1B,white,man,,,,null,,,,
2637,"<img src=""portrait/BM2.jpg""style=""width:400px;height:400px;""></img>",5,html-button-response,221,1204282,0.0-16.0-19.0,22399,List1B,white,man,,TRUE,5,,,,,
null,CORRECT,,html-keyboard-response,222,1205783,0.0-16.0-20.0-0.0,22399,List1B,white,man,,,,null,,,,
5909,"<img src=""portrait/WW1.jpg""style=""width:400px;height:400px;""></img>",1,html-button-response,223,1211695,0.0-16.0-22.0,22399,List1B,white,man,,TRUE,1,,,,,
null,CORRECT,,html-keyboard-response,224,1213199,0.0-16.0-23.0-0.0,22399,List1B,white,man,,,,null,,,,
1317,<p>You got 8 out of 8 right first time. Press Continue.</p>,0,html-button-response,225,1214519,0.0-16.0-25.0,22399,List1B,white,man,,,,,,,,
null,"<div style=""font-size:60px;"">+</div>",,html-keyboard-response,226,1216023,0.0-17.0-0.0,22399,List1B,white,man,,,,null,,,,
null,"<img src=""stim_listB/touch6.gif""</stim_listB>",,html-keyboard-response,227,1218024,0.0-17.0-1.0,22399,List1B,white,man,,,,null,,,,
null,are touching each other,,html-keyboard-response,228,1220026,0.0-17.0-2.0,22399,List1B,white,man,,,,null,,,,
15527,,,survey-text,229,1235553,0.0-17.0-3.0,22399,List1B,white,man,,,,,"{""Q0"":""luke and fred are touching each other""}","<img src=""stim_listB/touch6.gif""</stim_listB>",are touching each other,
null,"<div style=""font-size:60px;"">+</div>",,html-keyboard-response,230,1236053,0.0-17.0-0.1,22399,List1B,white,man,,,,null,,,,
null,"<img src=""stim_listB/hug6.gif""</stim_listB>",,html-keyboard-response,231,1238056,0.0-17.0-1.1,22399,List1B,white,man,,,,null,,,,
null,are hugging each other,,html-keyboard-response,232,1240058,0.0-17.0-2.1,22399,List1B,white,man,,,,null,,,,
24241,,,survey-text,233,1264299,0.0-17.0-3.1,22399,List1B,white,man,,,,,"{""Q0"":""mike and dave are hugging each other""}","<img src=""stim_listB/hug6.gif""</stim_listB>",are hugging each other,
null,"<div style=""font-size:60px;"">+</div>",,html-keyboard-response,234,1264803,0.0-17.0-0.2,22399,List1B,white,man,,,,null,,,,
null,"<img src=""stim_listB/kiss4.gif""</stim_listB>",,html-keyboard-response,235,1266806,0.0-17.0-1.2,22399,List1B,white,man,,,,null,,,,
null,are kissing each other,,html-keyboard-response,236,1268809,0.0-17.0-2.2,22399,List1B,white,man,,,,null,,,,
10811,,,survey-text,237,1279623,0.0-17.0-3.2,22399,List1B,white,man,,,,,"{""Q0"":""jane and dave are kissing each other""}","<img src=""stim_listB/kiss4.gif""</stim_listB>",are kissing each other,
null,"<div style=""font-size:60px;"">+</div>",,html-keyboard-response,238,1280125,0.0-17.0-0.3,22399,List1B,white,man,,,,null,,,,
null,"<img src=""stim_listB/dance6.gif""</stim_listB>",,html-keyboard-response,239,1282127,0.0-17.0-1.3,22399,List1B,white,man,,,,null,,,,
null,are dancing with each other,,html-keyboard-response,240,1284129,0.0-17.0-2.3,22399,List1B,white,man,,,,null,,,,
16627,,,survey-text,241,1300758,0.0-17.0-3.3,22399,List1B,white,man,,,,,"{""Q0"":""luke and mike are dancing with each other""}","<img src=""stim_listB/dance6.gif""</stim_listB>",are dancing with each other,
null,"<div style=""font-size:60px;"">+</div>",,html-keyboard-response,242,1301259,0.0-17.0-0.4,22399,List1B,white,man,,,,null,,,,
null,"<img src=""stim_listB/meet8.gif""</stim_listB>",,html-keyboard-response,243,1303264,0.0-17.0-1.4,22399,List1B,white,man,,,,null,,,,
null,are meeting each other,,html-keyboard-response,244,1305268,0.0-17.0-2.4,22399,List1B,white,man,,,,null,,,,
16217,,,survey-text,245,1321486,0.0-17.0-3.4,22399,List1B,white,man,,,,,"{""Q0"":""beth and ruth are meeting each other""}","<img src=""stim_listB/meet8.gif""</stim_listB>",are meeting each other,
null,"<div style=""font-size:60px;"">+</div>",,html-keyboard-response,246,1321988,0.0-17.0-0.5,22399,List1B,white,man,,,,null,,,,
null,"<img src=""stim_listB/fight6.gif""</stim_listB>",,html-keyboard-response,247,1323990,0.0-17.0-1.5,22399,List1B,white,man,,,,null,,,,
null,are fighting each other,,html-keyboard-response,248,1325992,0.0-17.0-2.5,22399,List1B,white,man,,,,null,,,,
9003,,,survey-text,249,1334997,0.0-17.0-3.5,22399,List1B,white,man,,,,,"{""Q0"":""fred and luke are fighting each other""}","<img src=""stim_listB/fight6.gif""</stim_listB>",are fighting each other,
null,"<div style=""font-size:60px;"">+</div>",,html-keyboard-response,250,1335499,0.0-17.0-0.6,22399,List1B,white,man,,,,null,,,,
null,"<img src=""stim_listB/talk7.gif""</stim_listB>",,html-keyboard-response,251,1337500,0.0-17.0-1.6,22399,List1B,white,man,,,,null,,,,
null,is talking to,,html-keyboard-response,252,1339502,0.0-17.0-2.6,22399,List1B,white,man,,,,null,,,,
11018,,,survey-text,253,1350522,0.0-17.0-3.6,22399,List1B,white,man,,,,,"{""Q0"":""beth is talking to jane""}","<img src=""stim_listB/talk7.gif""</stim_listB>",is talking to,
null,"<div style=""font-size:60px;"">+</div>",,html-keyboard-response,254,1351024,0.0-17.0-0.7,22399,List1B,white,man,,,,null,,,,
null,"<img src=""stim_listB/talk1.gif""</stim_listB>",,html-keyboard-response,255,1353027,0.0-17.0-1.7,22399,List1B,white,man,,,,null,,,,
null,is talking to,,html-keyboard-response,256,1355028,0.0-17.0-2.7,22399,List1B,white,man,,,,null,,,,
14800,,,survey-text,257,1369829,0.0-17.0-3.7,22399,List1B,white,man,,,,,"{""Q0"":""fred is talking to kate""}","<img src=""stim_listB/talk1.gif""</stim_listB>",is talking to,
null,"<div style=""font-size:60px;"">+</div>",,html-keyboard-response,258,1370329,0.0-17.0-0.8,22399,List1B,white,man,,,,null,,,,
null,"<img src=""stim_listB/dance8.gif""</stim_listB>",,html-keyboard-response,259,1372331,0.0-17.0-1.8,22399,List1B,white,man,,,,null,,,,
null,are dancing with each other,,html-keyboard-response,260,1374333,0.0-17.0-2.8,22399,List1B,white,man,,,,null,,,,
16315,,,survey-text,261,1390650,0.0-17.0-3.8,22399,List1B,white,man,,,,,"{""Q0"":""ruth and kate are dancing with each other""}","<img src=""stim_listB/dance8.gif""</stim_listB>",are dancing with each other,
null,"<div style=""font-size:60px;"">+</div>",,html-keyboard-response,262,1391151,0.0-17.0-0.9,22399,List1B,white,man,,,,null,,,,
null,"<img src=""stim_listB/touch1.gif""</stim_listB>",,html-keyboard-response,263,1393152,0.0-17.0-1.9,22399,List1B,white,man,,,,null,,,,
null,is touching,,html-keyboard-response,264,1395153,0.0-17.0-2.9,22399,List1B,white,man,,,,null,,,,
14782,,,survey-text,265,1409935,0.0-17.0-3.9,22399,List1B,white,man,,,,,"{""Q0"":""kate is touching mike""}","<img src=""stim_listB/touch1.gif""</stim_listB>",is touching,
null,"<div style=""font-size:60px;"">+</div>",,html-keyboard-response,266,1410435,0.0-17.0-0.10,22399,List1B,white,man,,,,null,,,,
null,"<img src=""stim_listB/dance7.gif""</stim_listB>",,html-keyboard-response,267,1412437,0.0-17.0-1.10,22399,List1B,white,man,,,,null,,,,
null,is dancing with,,html-keyboard-response,268,1414438,0.0-17.0-2.10,22399,List1B,white,man,,,,null,,,,
14802,,,survey-text,269,1429241,0.0-17.0-3.10,22399,List1B,white,man,,,,,"{""Q0"":""beth is dancing with jane""}","<img src=""stim_listB/dance7.gif""</stim_listB>",is dancing with,
null,"<div style=""font-size:60px;"">+</div>",,html-keyboard-response,270,1429743,0.0-17.0-0.11,22399,List1B,white,man,,,,null,,,,
null,"<img src=""stim_listB/shout4.gif""</stim_listB>",,html-keyboard-response,271,1431744,0.0-17.0-1.11,22399,List1B,white,man,,,,null,,,,
null,are shouting at each other,,html-keyboard-response,272,1433745,0.0-17.0-2.11,22399,List1B,white,man,,,,null,,,,
13494,,,survey-text,273,1447240,0.0-17.0-3.11,22399,List1B,white,man,,,,,"{""Q0"":""jane and dave are shouting at each other""}","<img src=""stim_listB/shout4.gif""</stim_listB>",are shouting at each other,
null,"<div style=""font-size:60px;"">+</div>",,html-keyboard-response,274,1447742,0.0-17.0-0.12,22399,List1B,white,man,,,,null,,,,
null,"<img src=""stim_listB/talk8.gif""</stim_listB>",,html-keyboard-response,275,1449744,0.0-17.0-1.12,22399,List1B,white,man,,,,null,,,,
null,are talking to each other,,html-keyboard-response,276,1451744,0.0-17.0-2.12,22399,List1B,white,man,,,,null,,,,
22769,,,survey-text,277,1474514,0.0-17.0-3.12,22399,List1B,white,man,,,,,"{""Q0"":""kate and ruth are talking to each other""}","<img src=""stim_listB/talk8.gif""</stim_listB>",are talking to each other,
null,"<div style=""font-size:60px;"">+</div>",,html-keyboard-response,278,1475015,0.0-17.0-0.13,22399,List1B,white,man,,,,null,,,,
null,"<img src=""stim_listB/hug3.gif""</stim_listB>",,html-keyboard-response,279,1477016,0.0-17.0-1.13,22399,List1B,white,man,,,,null,,,,
null,is hugging,,html-keyboard-response,280,1479018,0.0-17.0-2.13,22399,List1B,white,man,,,,null,,,,
10340,,,survey-text,281,1489360,0.0-17.0-3.13,22399,List1B,white,man,,,,,"{""Q0"":""luke is hugging ruth""}","<img src=""stim_listB/hug3.gif""</stim_listB>",is hugging,
null,"<div style=""font-size:60px;"">+</div>",,html-keyboard-response,282,1489863,0.0-17.0-0.14,22399,List1B,white,man,,,,null,,,,
null,"<img src=""stim_listB/talk5.gif""</stim_listB>",,html-keyboard-response,283,1491867,0.0-17.0-1.14,22399,List1B,white,man,,,,null,,,,
null,is talking to,,html-keyboard-response,284,1493869,0.0-17.0-2.14,22399,List1B,white,man,,,,null,,,,
10213,,,survey-text,285,1504084,0.0-17.0-3.14,22399,List1B,white,man,,,,,"{""Q0"":""fred is talking to dave""}","<img src=""stim_listB/talk5.gif""</stim_listB>",is talking to,
null,"<div style=""font-size:60px;"">+</div>",,html-keyboard-response,286,1504586,0.0-17.0-0.15,22399,List1B,white,man,,,,null,,,,
null,"<img src=""stim_listB/dance1.gif""</stim_listB>",,html-keyboard-response,287,1506587,0.0-17.0-1.15,22399,List1B,white,man,,,,null,,,,
null,is dancing with,,html-keyboard-response,288,1508589,0.0-17.0-2.15,22399,List1B,white,man,,,,null,,,,
9908,,,survey-text,289,1518498,0.0-17.0-3.15,22399,List1B,white,man,,,,,"{""Q0"":""fred is dancing with kate""}","<img src=""stim_listB/dance1.gif""</stim_listB>",is dancing with,
null,"<div style=""font-size:60px;"">+</div>",,html-keyboard-response,290,1519000,0.0-17.0-0.16,22399,List1B,white,man,,,,null,,,,
null,"<img src=""stim_listB/marry5.gif""</stim_listB>",,html-keyboard-response,291,1521002,0.0-17.0-1.16,22399,List1B,white,man,,,,null,,,,
null,is marrying,,html-keyboard-response,292,1523005,0.0-17.0-2.16,22399,List1B,white,man,,,,null,,,,
22640,,,survey-text,293,1545648,0.0-17.0-3.16,22399,List1B,white,man,,,,,"{""Q0"":""mike is marrying luke""}","<img src=""stim_listB/marry5.gif""</stim_listB>",is marrying,
null,"<div style=""font-size:60px;"">+</div>",,html-keyboard-response,294,1546149,0.0-17.0-0.17,22399,List1B,white,man,,,,null,,,,
null,"<img src=""stim_listB/marry1.gif""</stim_listB>",,html-keyboard-response,295,1548151,0.0-17.0-1.17,22399,List1B,white,man,,,,null,,,,
null,is marrying,,html-keyboard-response,296,1550154,0.0-17.0-2.17,22399,List1B,white,man,,,,null,,,,
11896,,,survey-text,297,1562053,0.0-17.0-3.17,22399,List1B,white,man,,,,,"{""Q0"":""mike is marrying beth""}","<img src=""stim_listB/marry1.gif""</stim_listB>",is marrying,
null,"<div style=""font-size:60px;"">+</div>",,html-keyboard-response,298,1562556,0.0-17.0-0.18,22399,List1B,white,man,,,,null,,,,
null,"<img src=""stim_listB/shout7.gif""</stim_listB>",,html-keyboard-response,299,1564558,0.0-17.0-1.18,22399,List1B,white,man,,,,null,,,,
null,is shouting at,,html-keyboard-response,300,1566560,0.0-17.0-2.18,22399,List1B,white,man,,,,null,,,,
9661,,,survey-text,301,1576223,0.0-17.0-3.18,22399,List1B,white,man,,,,,"{""Q0"":""beth is shouting at ruth""}","<img src=""stim_listB/shout7.gif""</stim_listB>",is shouting at,
null,"<div style=""font-size:60px;"">+</div>",,html-keyboard-response,302,1576726,0.0-17.0-0.19,22399,List1B,white,man,,,,null,,,,
null,"<img src=""stim_listB/hug4.gif""</stim_listB>",,html-keyboard-response,303,1578727,0.0-17.0-1.19,22399,List1B,white,man,,,,null,,,,
null,are hugging each other,,html-keyboard-response,304,1580729,0.0-17.0-2.19,22399,List1B,white,man,,,,null,,,,
14298,,,survey-text,305,1595028,0.0-17.0-3.19,22399,List1B,white,man,,,,,"{""Q0"":""jane and dave are hugging each other""}","<img src=""stim_listB/hug4.gif""</stim_listB>",are hugging each other,
14453,"<img src='img/portrait_matrix_list1.JPG' style='width:900px;height:500px;''></img><p>If you have memorised all the portraits and names and are ready to start, press Continue.</p><p><strong>Please note: Your memory of these faces will be tested 4 times during this experiment.</strong></p>",0,html-button-response,306,1609483,0.0-18.0-0.0,22399,List1B,white,man,,,,,,,,
3094,"<img src=""portrait/BW2.jpg""style=""width:400px;height:400px;""></img>",2,html-button-response,307,1613580,0.0-18.0-1.0,22399,List1B,white,man,,TRUE,2,,,,,
null,CORRECT,,html-keyboard-response,308,1615084,0.0-18.0-2.0-0.0,22399,List1B,white,man,,,,null,,,,
1418,"<img src=""portrait/WW2.jpg""style=""width:400px;height:400px;""></img>",3,html-button-response,309,1616505,0.0-18.0-4.0,22399,List1B,white,man,,TRUE,3,,,,,
null,CORRECT,,html-keyboard-response,310,1618007,0.0-18.0-5.0-0.0,22399,List1B,white,man,,,,null,,,,
10176,"<img src=""portrait/WW1.jpg""style=""width:400px;height:400px;""></img>",1,html-button-response,311,1628186,0.0-18.0-7.0,22399,List1B,white,man,,TRUE,1,,,,,
null,CORRECT,,html-keyboard-response,312,1629691,0.0-18.0-8.0-0.0,22399,List1B,white,man,,,,null,,,,
2627,"<img src=""portrait/WM1.jpg""style=""width:400px;height:400px;""></img>",6,html-button-response,313,1632318,0.0-18.0-10.0,22399,List1B,white,man,,TRUE,6,,,,,
null,CORRECT,,html-keyboard-response,314,1633822,0.0-18.0-11.0-0.0,22399,List1B,white,man,,,,null,,,,
3308,"<img src=""portrait/BW1.jpg""style=""width:400px;height:400px;""></img>",0,html-button-response,315,1637133,0.0-18.0-13.0,22399,List1B,white,man,,TRUE,0,,,,,
null,CORRECT,,html-keyboard-response,316,1638634,0.0-18.0-14.0-0.0,22399,List1B,white,man,,,,null,,,,
2056,"<img src=""portrait/BM2.jpg""style=""width:400px;height:400px;""></img>",5,html-button-response,317,1640691,0.0-18.0-16.0,22399,List1B,white,man,,TRUE,5,,,,,
null,CORRECT,,html-keyboard-response,318,1642194,0.0-18.0-17.0-0.0,22399,List1B,white,man,,,,null,,,,
3797,"<img src=""portrait/BM1.jpg""style=""width:400px;height:400px;""></img>",4,html-button-response,319,1645993,0.0-18.0-19.0,22399,List1B,white,man,,TRUE,4,,,,,
null,CORRECT,,html-keyboard-response,320,1647494,0.0-18.0-20.0-0.0,22399,List1B,white,man,,,,null,,,,
2522,"<img src=""portrait/WM2.jpg""style=""width:400px;height:400px;""></img>",7,html-button-response,321,1650018,0.0-18.0-22.0,22399,List1B,white,man,,TRUE,7,,,,,
null,CORRECT,,html-keyboard-response,322,1651520,0.0-18.0-23.0-0.0,22399,List1B,white,man,,,,null,,,,
257644,<p>You got 8 out of 8 right first time. Press Continue.</p>,0,html-button-response,323,1909167,0.0-18.0-25.0,22399,List1B,white,man,,,,,,,,
null,"<div style=""font-size:60px;"">+</div>",,html-keyboard-response,324,1910675,0.0-19.0-0.0,22399,List1B,white,man,,,,null,,,,
null,"<img src=""stim_listB/argue5.gif""</stim_listB>",,html-keyboard-response,325,1912680,0.0-19.0-1.0,22399,List1B,white,man,,,,null,,,,
null,is arguing with,,html-keyboard-response,326,1914682,0.0-19.0-2.0,22399,List1B,white,man,,,,null,,,,
9416,,,survey-text,327,1924100,0.0-19.0-3.0,22399,List1B,white,man,,,,,"{""Q0"":""luke is arguing with mike""}","<img src=""stim_listB/argue5.gif""</stim_listB>",is arguing with,
null,"<div style=""font-size:60px;"">+</div>",,html-keyboard-response,328,1924603,0.0-19.0-0.1,22399,List1B,white,man,,,,null,,,,
null,"<img src=""stim_listB/shout3.gif""</stim_listB>",,html-keyboard-response,329,1926604,0.0-19.0-1.1,22399,List1B,white,man,,,,null,,,,
null,is shouting at,,html-keyboard-response,330,1928606,0.0-19.0-2.1,22399,List1B,white,man,,,,null,,,,
14383,,,survey-text,331,1942990,0.0-19.0-3.1,22399,List1B,white,man,,,,,"{""Q0"":""luke is shouting at ruth""}","<img src=""stim_listB/shout3.gif""</stim_listB>",is shouting at,
null,"<div style=""font-size:60px;"">+</div>",,html-keyboard-response,332,1943492,0.0-19.0-0.2,22399,List1B,white,man,,,,null,,,,
null,"<img src=""stim_listB/marry3.gif""</stim_listB>",,html-keyboard-response,333,1945495,0.0-19.0-1.2,22399,List1B,white,man,,,,null,,,,
null,is marrying,,html-keyboard-response,334,1947496,0.0-19.0-2.2,22399,List1B,white,man,,,,null,,,,
12498,,,survey-text,335,1959996,0.0-19.0-3.2,22399,List1B,white,man,,,,,"{""Q0"":""dave is marrying ruth""}","<img src=""stim_listB/marry3.gif""</stim_listB>",is marrying,
null,"<div style=""font-size:60px;"">+</div>",,html-keyboard-response,336,1960498,0.0-19.0-0.3,22399,List1B,white,man,,,,null,,,,
null,"<img src=""stim_listB/dance5.gif""</stim_listB>",,html-keyboard-response,337,1962500,0.0-19.0-1.3,22399,List1B,white,man,,,,null,,,,
null,is dancing with,,html-keyboard-response,338,1964503,0.0-19.0-2.3,22399,List1B,white,man,,,,null,,,,
8582,,,survey-text,339,1973088,0.0-19.0-3.3,22399,List1B,white,man,,,,,"{""Q0"":""fred is dancing with dave""}","<img src=""stim_listB/dance5.gif""</stim_listB>",is dancing with,
null,"<div style=""font-size:60px;"">+</div>",,html-keyboard-response,340,1973591,0.0-19.0-0.4,22399,List1B,white,man,,,,null,,,,
null,"<img src=""stim_listB/touch4.gif""</stim_listB>",,html-keyboard-response,341,1975596,0.0-19.0-1.4,22399,List1B,white,man,,,,null,,,,
null,are touching each other,,html-keyboard-response,342,1977599,0.0-19.0-2.4,22399,List1B,white,man,,,,null,,,,
20678,,,survey-text,343,1998279,0.0-19.0-3.4,22399,List1B,white,man,,,,,"{""Q0"":""ruth and luke are touching each other""}","<img src=""stim_listB/touch4.gif""</stim_listB>",are touching each other,
null,"<div style=""font-size:60px;"">+</div>",,html-keyboard-response,344,1998781,0.0-19.0-0.5,22399,List1B,white,man,,,,null,,,,
null,"<img src=""stim_listB/meet2.gif""</stim_listB>",,html-keyboard-response,345,2000784,0.0-19.0-1.5,22399,List1B,white,man,,,,null,,,,
null,are meeting each other,,html-keyboard-response,346,2002787,0.0-19.0-2.5,22399,List1B,white,man,,,,null,,,,
16766,,,survey-text,347,2019555,0.0-19.0-3.5,22399,List1B,white,man,,,,,"{""Q0"":""beth and fred are meeting each other""}","<img src=""stim_listB/meet2.gif""</stim_listB>",are meeting each other,
null,"<div style=""font-size:60px;"">+</div>",,html-keyboard-response,348,2020057,0.0-19.0-0.6,22399,List1B,white,man,,,,null,,,,
null,"<img src=""stim_listB/shout8.gif""</stim_listB>",,html-keyboard-response,349,2022062,0.0-19.0-1.6,22399,List1B,white,man,,,,null,,,,
null,are shouting at each other,,html-keyboard-response,350,2024064,0.0-19.0-2.6,22399,List1B,white,man,,,,null,,,,
17900,,,survey-text,351,2041967,0.0-19.0-3.6,22399,List1B,white,man,,,,,"{""Q0"":""jane and kate are shouting at each other""}","<img src=""stim_listB/shout8.gif""</stim_listB>",are shouting at each other,
null,"<div style=""font-size:60px;"">+</div>",,html-keyboard-response,352,2042470,0.0-19.0-0.7,22399,List1B,white,man,,,,null,,,,
null,"<img src=""stim_listB/fight2.gif""</stim_listB>",,html-keyboard-response,353,2044473,0.0-19.0-1.7,22399,List1B,white,man,,,,null,,,,
null,are fighting each other,,html-keyboard-response,354,2046475,0.0-19.0-2.7,22399,List1B,white,man,,,,null,,,,
13988,,,survey-text,355,2060466,0.0-19.0-3.7,22399,List1B,white,man,,,,,"{""Q0"":""fred and beth are fighting each other""}","<img src=""stim_listB/fight2.gif""</stim_listB>",are fighting each other,
null,"<div style=""font-size:60px;"">+</div>",,html-keyboard-response,356,2060969,0.0-19.0-0.8,22399,List1B,white,man,,,,null,,,,
null,"<img src=""stim_listB/marry8.gif""</stim_listB>",,html-keyboard-response,357,2062971,0.0-19.0-1.8,22399,List1B,white,man,,,,null,,,,
null,are marrying each other,,html-keyboard-response,358,2064973,0.0-19.0-2.8,22399,List1B,white,man,,,,null,,,,
11746,,,survey-text,359,2076720,0.0-19.0-3.8,22399,List1B,white,man,,,,,"{""Q0"":""beth and jane are marrying each other""}","<img src=""stim_listB/marry8.gif""</stim_listB>",are marrying each other,
null,"<div style=""font-size:60px;"">+</div>",,html-keyboard-response,360,2077223,0.0-19.0-0.9,22399,List1B,white,man,,,,null,,,,
null,"<img src=""stim_listB/meet5.gif""</stim_listB>",,html-keyboard-response,361,2079225,0.0-19.0-1.9,22399,List1B,white,man,,,,null,,,,
null,is meeting,,html-keyboard-response,362,2081228,0.0-19.0-2.9,22399,List1B,white,man,,,,null,,,,
8366,,,survey-text,363,2089596,0.0-19.0-3.9,22399,List1B,white,man,,,,,"{""Q0"":""dave is meeting mike""}","<img src=""stim_listB/meet5.gif""</stim_listB>",is meeting,
null,"<div style=""font-size:60px;"">+</div>",,html-keyboard-response,364,2090099,0.0-19.0-0.10,22399,List1B,white,man,,,,null,,,,
null,"<img src=""stim_listB/kiss5.gif""</stim_listB>",,html-keyboard-response,365,2092100,0.0-19.0-1.10,22399,List1B,white,man,,,,null,,,,
null,is kissing,,html-keyboard-response,366,2094102,0.0-19.0-2.10,22399,List1B,white,man,,,,null,,,,
8549,,,survey-text,367,2102653,0.0-19.0-3.10,22399,List1B,white,man,,,,,"{""Q0"":""fred is kissing luke""}","<img src=""stim_listB/kiss5.gif""</stim_listB>",is kissing,
null,"<div style=""font-size:60px;"">+</div>",,html-keyboard-response,368,2103155,0.0-19.0-0.11,22399,List1B,white,man,,,,null,,,,
null,"<img src=""stim_listB/hug8.gif""</stim_listB>",,html-keyboard-response,369,2105160,0.0-19.0-1.11,22399,List1B,white,man,,,,null,,,,
null,are hugging each other,,html-keyboard-response,370,2107163,0.0-19.0-2.11,22399,List1B,white,man,,,,null,,,,
14179,,,survey-text,371,2121345,0.0-19.0-3.11,22399,List1B,white,man,,,,,"{""Q0"":""kate and jane are hugging each other""}","<img src=""stim_listB/hug8.gif""</stim_listB>",are hugging each other,
null,"<div style=""font-size:60px;"">+</div>",,html-keyboard-response,372,2121847,0.0-19.0-0.12,22399,List1B,white,man,,,,null,,,,
null,"<img src=""stim_listB/fight3.gif""</stim_listB>",,html-keyboard-response,373,2123853,0.0-19.0-1.12,22399,List1B,white,man,,,,null,,,,
null,is fighting,,html-keyboard-response,374,2125856,0.0-19.0-2.12,22399,List1B,white,man,,,,null,,,,
5919,,,survey-text,375,2131777,0.0-19.0-3.12,22399,List1B,white,man,,,,,"{""Q0"":""jane is fighting dave""}","<img src=""stim_listB/fight3.gif""</stim_listB>",is fighting,
null,"<div style=""font-size:60px;"">+</div>",,html-keyboard-response,376,2132280,0.0-19.0-0.13,22399,List1B,white,man,,,,null,,,,
null,"<img src=""stim_listB/shout2.gif""</stim_listB>",,html-keyboard-response,377,2134281,0.0-19.0-1.13,22399,List1B,white,man,,,,null,,,,
null,are shouting at each other,,html-keyboard-response,378,2136282,0.0-19.0-2.13,22399,List1B,white,man,,,,null,,,,
16974,,,survey-text,379,2153257,0.0-19.0-3.13,22399,List1B,white,man,,,,,"{""Q0"":""mike and kate are shouting at each other""}","<img src=""stim_listB/shout2.gif""</stim_listB>",are shouting at each other,
null,"<div style=""font-size:60px;"">+</div>",,html-keyboard-response,380,2153759,0.0-19.0-0.14,22399,List1B,white,man,,,,null,,,,
null,"<img src=""stim_listB/hug7.gif""</stim_listB>",,html-keyboard-response,381,2155763,0.0-19.0-1.14,22399,List1B,white,man,,,,null,,,,
null,is hugging,,html-keyboard-response,382,2157765,0.0-19.0-2.14,22399,List1B,white,man,,,,null,,,,
6341,,,survey-text,383,2164110,0.0-19.0-3.14,22399,List1B,white,man,,,,,"{""Q0"":""ruth is hugging beth""}","<img src=""stim_listB/hug7.gif""</stim_listB>",is hugging,
null,"<div style=""font-size:60px;"">+</div>",,html-keyboard-response,384,2164612,0.0-19.0-0.15,22399,List1B,white,man,,,,null,,,,
null,"<img src=""stim_listB/kiss2.gif""</stim_listB>",,html-keyboard-response,385,2166616,0.0-19.0-1.15,22399,List1B,white,man,,,,null,,,,
null,are kissing each other,,html-keyboard-response,386,2168617,0.0-19.0-2.15,22399,List1B,white,man,,,,null,,,,
13178,,,survey-text,387,2181797,0.0-19.0-3.15,22399,List1B,white,man,,,,,"{""Q0"":""mike and kate are kissing each other""}","<img src=""stim_listB/kiss2.gif""</stim_listB>",are kissing each other,
null,"<div style=""font-size:60px;"">+</div>",,html-keyboard-response,388,2182300,0.0-19.0-0.16,22399,List1B,white,man,,,,null,,,,
null,"<img src=""stim_listB/talk4.gif""</stim_listB>",,html-keyboard-response,389,2184302,0.0-19.0-1.16,22399,List1B,white,man,,,,null,,,,
null,are talking to each other,,html-keyboard-response,390,2186305,0.0-19.0-2.16,22399,List1B,white,man,,,,null,,,,
19979,,,survey-text,391,2206286,0.0-19.0-3.16,22399,List1B,white,man,,,,,"{""Q0"":""dave and kate are talking to each other""}","<img src=""stim_listB/talk4.gif""</stim_listB>",are talking to each other,
null,"<div style=""font-size:60px;"">+</div>",,html-keyboard-response,392,2206788,0.0-19.0-0.17,22399,List1B,white,man,,,,null,,,,
null,"<img src=""stim_listB/kiss3.gif""</stim_listB>",,html-keyboard-response,393,2208791,0.0-19.0-1.17,22399,List1B,white,man,,,,null,,,,
null,is kissing,,html-keyboard-response,394,2210795,0.0-19.0-2.17,22399,List1B,white,man,,,,null,,,,
8020,,,survey-text,395,2218818,0.0-19.0-3.17,22399,List1B,white,man,,,,,"{""Q0"":""ruth is kissng luke""}","<img src=""stim_listB/kiss3.gif""</stim_listB>",is kissing,
null,"<div style=""font-size:60px;"">+</div>",,html-keyboard-response,396,2219321,0.0-19.0-0.18,22399,List1B,white,man,,,,null,,,,
null,"<img src=""stim_listB/touch5.gif""</stim_listB>",,html-keyboard-response,397,2221323,0.0-19.0-1.18,22399,List1B,white,man,,,,null,,,,
null,is touching,,html-keyboard-response,398,2223326,0.0-19.0-2.18,22399,List1B,white,man,,,,null,,,,
8886,,,survey-text,399,2232213,0.0-19.0-3.18,22399,List1B,white,man,,,,,"{""Q0"":""dave is touching mike""}","<img src=""stim_listB/touch5.gif""</stim_listB>",is touching,
null,"<div style=""font-size:60px;"">+</div>",,html-keyboard-response,400,2232715,0.0-19.0-0.19,22399,List1B,white,man,,,,null,,,,
null,"<img src=""stim_listB/fight8.gif""</stim_listB>",,html-keyboard-response,401,2234718,0.0-19.0-1.19,22399,List1B,white,man,,,,null,,,,
null,are fighting each other,,html-keyboard-response,402,2236719,0.0-19.0-2.19,22399,List1B,white,man,,,,null,,,,
18051,,,survey-text,403,2254772,0.0-19.0-3.19,22399,List1B,white,man,,,,,"{""Q0"":""beth and ruth are fighting each other""}","<img src=""stim_listB/fight8.gif""</stim_listB>",are fighting each other,
2082,<p>Thank you for completing that task.</p><p>The final part of this session is a short questionnaire.</p><p>Press Continue.</p>,0,html-button-response,404,2256855,0.0-20.0,22399,List1B,white,man,,,,,,,,
58348,,,survey-text,405,2316207,0.0-21.0,22399,List1B,white,man,,,,,"{""Q0"":""27"",""Q1"":""English"",""Q2"":""English"",""Q3"":""Australia"",""Q4"":""Human. My skin is \""white\"" if that's what you mean."",""Q5"":""Male""}",,,demographics
70835,,,survey-likert,406,2387048,0.0-22.0,22399,List1B,white,man,,,,,"{""Q0"":3,""Q1"":3,""Q2"":3,""Q3"":5,""Q4"":5,""Q5"":3,""Q6"":3,""Q7"":0,""Q8"":0,""Q9"":0,""Q10"":3,""Q11"":3,""Q12"":3,""Q13"":3}",,,likert_race
75344,,,survey-likert,407,2462398,0.0-23.0,22399,List1B,white,man,,,,,"{""Q0"":3,""Q1"":3,""Q2"":3,""Q3"":3,""Q4"":3,""Q5"":3,""Q6"":1,""Q7"":1,""Q8"":2,""Q9"":4,""Q10"":3,""Q11"":3,""Q12"":3,""Q13"":3}",,,likert_gender
4795,,,survey-text,408,2467195,0.0-24.0,22399,List1B,white,man,,,,,"{""Q0"":""ccc""}",,,worker_id
75896,,,external-html,409,2543811,0.0-25.0,22399,List1B,white,man,debrief.html,,,,,,,
