rt,stimulus,button_pressed,trial_type,trial_index,time_elapsed,internal_node_id,subject,list,ppt_race,ppt_gender,url,first_guess,correct,key_press,responses,image_type,phrase_type,test_part
7602,Welcome to the experiment. Press Continue to begin.,0,html-button-response,0,7647,0.0-0.0,23293,List1A,white,man,,,,,,,,
13320,,,external-html,1,22263,0.0-1.0,23293,List1A,white,man,consent.html,,,,,,,
9750,"<p>On the next page, you will see portraits of 8 people and their names.</p><p>Your first task is to take a few minutes to memorise the names of these people.</p><p>You will have to recall their names during the rest of the experiment, so it is</p><p>essential that you try to memorise these people and their names as best as you can.</p><br><p><strong>You will then be tested on your memory of these names and portraits.</strong></p><br><p>The experiment will start after you have completed this memory test.</p><br><p>Ready?</p>",0,html-button-response,2,32015,0.0-2.0,23293,List1A,white,man,,,,,,,,
52891,"<img src='img/portrait_matrix_list1.JPG' style='width:900px;height:500px;''></img><p>If you have memorised all the portraits and names and are ready to start, press Continue.</p><p><strong>Please note: Your memory of these faces will be tested 4 times during this experiment.</strong></p>",0,html-button-response,3,85919,0.0-3.0-0.0,23293,List1A,white,man,,,,,,,,
5083,"<img src=""portrait/WW1.jpg""style=""width:400px;height:400px;""></img>",1,html-button-response,4,92007,0.0-3.0-1.0,23293,List1A,white,man,,TRUE,1,,,,,
null,CORRECT,,html-keyboard-response,5,93519,0.0-3.0-2.0-0.0,23293,List1A,white,man,,,,null,,,,
2317,"<img src=""portrait/BM1.jpg""style=""width:400px;height:400px;""></img>",4,html-button-response,6,95839,0.0-3.0-4.0,23293,List1A,white,man,,TRUE,4,,,,,
null,CORRECT,,html-keyboard-response,7,97343,0.0-3.0-5.0-0.0,23293,List1A,white,man,,,,null,,,,
3301,"<img src=""portrait/BW2.jpg""style=""width:400px;height:400px;""></img>",2,html-button-response,8,100647,0.0-3.0-7.0,23293,List1A,white,man,,TRUE,2,,,,,
null,CORRECT,,html-keyboard-response,9,102154,0.0-3.0-8.0-0.0,23293,List1A,white,man,,,,null,,,,
2171,"<img src=""portrait/WW2.jpg""style=""width:400px;height:400px;""></img>",3,html-button-response,10,104327,0.0-3.0-10.0,23293,List1A,white,man,,TRUE,3,,,,,
null,CORRECT,,html-keyboard-response,11,105845,0.0-3.0-11.0-0.0,23293,List1A,white,man,,,,null,,,,
3215,"<img src=""portrait/WM1.jpg""style=""width:400px;height:400px;""></img>",6,html-button-response,12,109063,0.0-3.0-13.0,23293,List1A,white,man,,TRUE,6,,,,,
null,CORRECT,,html-keyboard-response,13,110580,0.0-3.0-14.0-0.0,23293,List1A,white,man,,,,null,,,,
1865,"<img src=""portrait/WM2.jpg""style=""width:400px;height:400px;""></img>",7,html-button-response,14,112447,0.0-3.0-16.0,23293,List1A,white,man,,TRUE,7,,,,,
null,CORRECT,,html-keyboard-response,15,113951,0.0-3.0-17.0-0.0,23293,List1A,white,man,,,,null,,,,
3965,"<img src=""portrait/BW1.jpg""style=""width:400px;height:400px;""></img>",0,html-button-response,16,117919,0.0-3.0-19.0,23293,List1A,white,man,,TRUE,0,,,,,
null,CORRECT,,html-keyboard-response,17,119425,0.0-3.0-20.0-0.0,23293,List1A,white,man,,,,null,,,,
2131,"<img src=""portrait/BM2.jpg""style=""width:400px;height:400px;""></img>",5,html-button-response,18,121559,0.0-3.0-22.0,23293,List1A,white,man,,TRUE,5,,,,,
null,CORRECT,,html-keyboard-response,19,123091,0.0-3.0-23.0-0.0,23293,List1A,white,man,,,,null,,,,
1257,<p>You got 8 out of 8 right first time. Press Continue.</p>,0,html-button-response,20,124351,0.0-3.0-25.0,23293,List1A,white,man,,,,,,,,
30302,"<p>In this experiment, you will view photographs of the people from the memory game interacting.</p><p>By using the <strong>exact</strong> phrase given <i>after</i> the photograph appears and recalling the correct names of the people in the photographs, form a sentence describing the interaction. You do not need to capitalise names.</p><p>Type your answer in the space provided. Please complete every sentence before moving onto the next trial.</p><p>You will only have a few seconds to memorise each given photograph and phrase before you can respond, so try your best to focus.</p><p>An example is given below. Press 'Continue' when you are ready.</p><img src='img/speaking_example_v2.jpg' style='width:800px;height:460px;''></img>",0,html-button-response,21,155670,0.0-4.0,23293,List1A,white,man,,,,,,,,
2022,"<p>Before the experiment starts, you will watch two example trials. Press 'Continue'.</p>",0,html-button-response,22,158694,0.0-5.0,23293,List1A,white,man,,,,,,,,
null,<img src='img/speaking_WW.gif'></img>,,html-keyboard-response,23,161706,0.0-6.0,23293,List1A,white,man,,,,null,,,,
null,<p>is speaking to</p>,,html-keyboard-response,24,163716,0.0-7.0,23293,List1A,white,man,,,,null,,,,
2761,<p><b>Answer:</b> kate is speaking to beth</p>,0,html-button-response,25,166478,0.0-8.0,23293,List1A,white,man,,,,,,,,
null,<img src='img/pointing_BM.gif'></img>,,html-keyboard-response,26,169484,0.0-9.0,23293,List1A,white,man,,,,null,,,,
null,<p>are pointing at each other</p>,,html-keyboard-response,27,171486,0.0-10.0,23293,List1A,white,man,,,,null,,,,
4631,<p><b>Answer:</b> luke and dave are pointing at each other</p>,0,html-button-response,28,176118,0.0-11.0,23293,List1A,white,man,,,,,,,,
8097,"<p>Ready to start the experiment?</p><br><p><strong>Remember to describe the picture using a full sentence,</strong></p><p><strong>that combines the names of the people with the given phrase.</strong></p><p><strong>If you do not do this correctly you will not be paid.</strong></p><p><strong> You do not need to capitalise names or use punctuation.</strong></p><br><p>Press 'Continue' to begin.</p>",0,html-button-response,29,185222,0.0-12.0,23293,List1A,white,man,,,,,,,,
null,"<div style=""font-size:60px;"">+</div>",,html-keyboard-response,30,186736,0.0-13.0-0.0,23293,List1A,white,man,,,,null,,,,
null,"<img src=""stim_listA/meet1.gif""</stim_listA>",,html-keyboard-response,31,188741,0.0-13.0-1.0,23293,List1A,white,man,,,,null,,,,
null,is meeting,,html-keyboard-response,32,190744,0.0-13.0-2.0,23293,List1A,white,man,,,,null,,,,
7148,,,survey-text,33,197894,0.0-13.0-3.0,23293,List1A,white,man,,,,,"{""Q0"":""mike is meeting with kate""}","<img src=""stim_listA/meet1.gif""</stim_listA>",is meeting,
null,"<div style=""font-size:60px;"">+</div>",,html-keyboard-response,34,198401,0.0-13.0-0.1,23293,List1A,white,man,,,,null,,,,
null,"<img src=""stim_listA/hug2.gif""</stim_listA>",,html-keyboard-response,35,200414,0.0-13.0-1.1,23293,List1A,white,man,,,,null,,,,
null,are hugging each other,,html-keyboard-response,36,202416,0.0-13.0-2.1,23293,List1A,white,man,,,,null,,,,
27885,,,survey-text,37,230302,0.0-13.0-3.1,23293,List1A,white,man,,,,,"{""Q0"":""mike and kate are hugging each other""}","<img src=""stim_listA/hug2.gif""</stim_listA>",are hugging each other,
null,"<div style=""font-size:60px;"">+</div>",,html-keyboard-response,38,230804,0.0-13.0-0.2,23293,List1A,white,man,,,,null,,,,
null,"<img src=""stim_listA/argue5.gif""</stim_listA>",,html-keyboard-response,39,232808,0.0-13.0-1.2,23293,List1A,white,man,,,,null,,,,
null,is arguing with,,html-keyboard-response,40,234810,0.0-13.0-2.2,23293,List1A,white,man,,,,null,,,,
7699,,,survey-text,41,242510,0.0-13.0-3.2,23293,List1A,white,man,,,,,"{""Q0"":""mike is arguing with luke""}","<img src=""stim_listA/argue5.gif""</stim_listA>",is arguing with,
null,"<div style=""font-size:60px;"">+</div>",,html-keyboard-response,42,243012,0.0-13.0-0.3,23293,List1A,white,man,,,,null,,,,
null,"<img src=""stim_listA/talk4.gif""</stim_listA>",,html-keyboard-response,43,245015,0.0-13.0-1.3,23293,List1A,white,man,,,,null,,,,
null,are talking to each other,,html-keyboard-response,44,247017,0.0-13.0-2.3,23293,List1A,white,man,,,,null,,,,
14468,,,survey-text,45,261486,0.0-13.0-3.3,23293,List1A,white,man,,,,,"{""Q0"":""dave and ruth are talking to each other""}","<img src=""stim_listA/talk4.gif""</stim_listA>",are talking to each other,
null,"<div style=""font-size:60px;"">+</div>",,html-keyboard-response,46,261999,0.0-13.0-0.4,23293,List1A,white,man,,,,null,,,,
null,"<img src=""stim_listA/talk2.gif""</stim_listA>",,html-keyboard-response,47,264002,0.0-13.0-1.4,23293,List1A,white,man,,,,null,,,,
null,are talking to each other,,html-keyboard-response,48,266004,0.0-13.0-2.4,23293,List1A,white,man,,,,null,,,,
9137,,,survey-text,49,275142,0.0-13.0-3.4,23293,List1A,white,man,,,,,"{""Q0"":""mike and kate are talking to each other""}","<img src=""stim_listA/talk2.gif""</stim_listA>",are talking to each other,
null,"<div style=""font-size:60px;"">+</div>",,html-keyboard-response,50,275657,0.0-13.0-0.5,23293,List1A,white,man,,,,null,,,,
null,"<img src=""stim_listA/meet4.gif""</stim_listA>",,html-keyboard-response,51,277675,0.0-13.0-1.5,23293,List1A,white,man,,,,null,,,,
null,are meeting each other,,html-keyboard-response,52,279678,0.0-13.0-2.5,23293,List1A,white,man,,,,null,,,,
8983,,,survey-text,53,288662,0.0-13.0-3.5,23293,List1A,white,man,,,,,"{""Q0"":""luke and ruth are meeting each other""}","<img src=""stim_listA/meet4.gif""</stim_listA>",are meeting each other,
null,"<div style=""font-size:60px;"">+</div>",,html-keyboard-response,54,289164,0.0-13.0-0.6,23293,List1A,white,man,,,,null,,,,
null,"<img src=""stim_listA/dance7.gif""</stim_listA>",,html-keyboard-response,55,291170,0.0-13.0-1.6,23293,List1A,white,man,,,,null,,,,
null,is dancing with,,html-keyboard-response,56,293172,0.0-13.0-2.6,23293,List1A,white,man,,,,null,,,,
10993,,,survey-text,57,304166,0.0-13.0-3.6,23293,List1A,white,man,,,,,"{""Q0"":""kate is dancing with jane""}","<img src=""stim_listA/dance7.gif""</stim_listA>",is dancing with,
null,"<div style=""font-size:60px;"">+</div>",,html-keyboard-response,58,304681,0.0-13.0-0.7,23293,List1A,white,man,,,,null,,,,
null,"<img src=""stim_listA/fight1.gif""</stim_listA>",,html-keyboard-response,59,306686,0.0-13.0-1.7,23293,List1A,white,man,,,,null,,,,
null,is fighting,,html-keyboard-response,60,308689,0.0-13.0-2.7,23293,List1A,white,man,,,,null,,,,
7340,,,survey-text,61,316030,0.0-13.0-3.7,23293,List1A,white,man,,,,,"{""Q0"":""mike is fighting with kate""}","<img src=""stim_listA/fight1.gif""</stim_listA>",is fighting,
null,"<div style=""font-size:60px;"">+</div>",,html-keyboard-response,62,316532,0.0-13.0-0.8,23293,List1A,white,man,,,,null,,,,
null,"<img src=""stim_listA/argue2.gif""</stim_listA>",,html-keyboard-response,63,318535,0.0-13.0-1.8,23293,List1A,white,man,,,,null,,,,
null,are arguing with each other,,html-keyboard-response,64,320538,0.0-13.0-2.8,23293,List1A,white,man,,,,null,,,,
9979,,,survey-text,65,330518,0.0-13.0-3.8,23293,List1A,white,man,,,,,"{""Q0"":""kate and fred are arguing with each other""}","<img src=""stim_listA/argue2.gif""</stim_listA>",are arguing with each other,
null,"<div style=""font-size:60px;"">+</div>",,html-keyboard-response,66,331030,0.0-13.0-0.9,23293,List1A,white,man,,,,null,,,,
null,"<img src=""stim_listA/kiss4.gif""</stim_listA>",,html-keyboard-response,67,333033,0.0-13.0-1.9,23293,List1A,white,man,,,,null,,,,
null,are kissing each other,,html-keyboard-response,68,335036,0.0-13.0-2.9,23293,List1A,white,man,,,,null,,,,
8003,,,survey-text,69,343041,0.0-13.0-3.9,23293,List1A,white,man,,,,,"{""Q0"":""jane and dave are kissing each other""}","<img src=""stim_listA/kiss4.gif""</stim_listA>",are kissing each other,
null,"<div style=""font-size:60px;"">+</div>",,html-keyboard-response,70,343553,0.0-13.0-0.10,23293,List1A,white,man,,,,null,,,,
null,"<img src=""stim_listA/hug8.gif""</stim_listA>",,html-keyboard-response,71,345557,0.0-13.0-1.10,23293,List1A,white,man,,,,null,,,,
null,are hugging each other,,html-keyboard-response,72,347560,0.0-13.0-2.10,23293,List1A,white,man,,,,null,,,,
6927,,,survey-text,73,354489,0.0-13.0-3.10,23293,List1A,white,man,,,,,"{""Q0"":""jane and kate are hugging each other""}","<img src=""stim_listA/hug8.gif""</stim_listA>",are hugging each other,
null,"<div style=""font-size:60px;"">+</div>",,html-keyboard-response,74,354993,0.0-13.0-0.11,23293,List1A,white,man,,,,null,,,,
null,"<img src=""stim_listA/shout2.gif""</stim_listA>",,html-keyboard-response,75,356996,0.0-13.0-1.11,23293,List1A,white,man,,,,null,,,,
null,are shouting at each other,,html-keyboard-response,76,359011,0.0-13.0-2.11,23293,List1A,white,man,,,,null,,,,
8740,,,survey-text,77,367752,0.0-13.0-3.11,23293,List1A,white,man,,,,,"{""Q0"":""kate and mike are shouting at each other""}","<img src=""stim_listA/shout2.gif""</stim_listA>",are shouting at each other,
null,"<div style=""font-size:60px;"">+</div>",,html-keyboard-response,78,368255,0.0-13.0-0.12,23293,List1A,white,man,,,,null,,,,
null,"<img src=""stim_listA/fight7.gif""</stim_listA>",,html-keyboard-response,79,370262,0.0-13.0-1.12,23293,List1A,white,man,,,,null,,,,
null,is fighting,,html-keyboard-response,80,372263,0.0-13.0-2.12,23293,List1A,white,man,,,,null,,,,
7232,,,survey-text,81,379497,0.0-13.0-3.12,23293,List1A,white,man,,,,,"{""Q0"":""kate is fighting jane""}","<img src=""stim_listA/fight7.gif""</stim_listA>",is fighting,
null,"<div style=""font-size:60px;"">+</div>",,html-keyboard-response,82,379998,0.0-13.0-0.13,23293,List1A,white,man,,,,null,,,,
null,"<img src=""stim_listA/kiss6.gif""</stim_listA>",,html-keyboard-response,83,382002,0.0-13.0-1.13,23293,List1A,white,man,,,,null,,,,
null,are kissing each other,,html-keyboard-response,84,384007,0.0-13.0-2.13,23293,List1A,white,man,,,,null,,,,
8376,,,survey-text,85,392385,0.0-13.0-3.13,23293,List1A,white,man,,,,,"{""Q0"":""mike and dave are kissing each other""}","<img src=""stim_listA/kiss6.gif""</stim_listA>",are kissing each other,
null,"<div style=""font-size:60px;"">+</div>",,html-keyboard-response,86,392897,0.0-13.0-0.14,23293,List1A,white,man,,,,null,,,,
null,"<img src=""stim_listA/shout8.gif""</stim_listA>",,html-keyboard-response,87,394899,0.0-13.0-1.14,23293,List1A,white,man,,,,null,,,,
null,are shouting at each other,,html-keyboard-response,88,396920,0.0-13.0-2.14,23293,List1A,white,man,,,,null,,,,
9133,,,survey-text,89,406055,0.0-13.0-3.14,23293,List1A,white,man,,,,,"{""Q0"":""jane and kate are shouting at each other""}","<img src=""stim_listA/shout8.gif""</stim_listA>",are shouting at each other,
null,"<div style=""font-size:60px;"">+</div>",,html-keyboard-response,90,406570,0.0-13.0-0.15,23293,List1A,white,man,,,,null,,,,
null,"<img src=""stim_listA/touch7.gif""</stim_listA>",,html-keyboard-response,91,408580,0.0-13.0-1.15,23293,List1A,white,man,,,,null,,,,
null,is touching,,html-keyboard-response,92,410584,0.0-13.0-2.15,23293,List1A,white,man,,,,null,,,,
6205,,,survey-text,93,416791,0.0-13.0-3.15,23293,List1A,white,man,,,,,"{""Q0"":""jane is touching kate""}","<img src=""stim_listA/touch7.gif""</stim_listA>",is touching,
null,"<div style=""font-size:60px;"">+</div>",,html-keyboard-response,94,417292,0.0-13.0-0.16,23293,List1A,white,man,,,,null,,,,
null,"<img src=""stim_listA/shout6.gif""</stim_listA>",,html-keyboard-response,95,419296,0.0-13.0-1.16,23293,List1A,white,man,,,,null,,,,
null,are shouting at each other,,html-keyboard-response,96,421298,0.0-13.0-2.16,23293,List1A,white,man,,,,null,,,,
7611,,,survey-text,97,428911,0.0-13.0-3.16,23293,List1A,white,man,,,,,"{""Q0"":""dave and mike are shouting at each other""}","<img src=""stim_listA/shout6.gif""</stim_listA>",are shouting at each other,
null,"<div style=""font-size:60px;"">+</div>",,html-keyboard-response,98,429412,0.0-13.0-0.17,23293,List1A,white,man,,,,null,,,,
null,"<img src=""stim_listA/kiss1.gif""</stim_listA>",,html-keyboard-response,99,431416,0.0-13.0-1.17,23293,List1A,white,man,,,,null,,,,
null,is kissing,,html-keyboard-response,100,433420,0.0-13.0-2.17,23293,List1A,white,man,,,,null,,,,
6121,,,survey-text,101,439543,0.0-13.0-3.17,23293,List1A,white,man,,,,,"{""Q0"":""fred is kissing beth""}","<img src=""stim_listA/kiss1.gif""</stim_listA>",is kissing,
null,"<div style=""font-size:60px;"">+</div>",,html-keyboard-response,102,440045,0.0-13.0-0.18,23293,List1A,white,man,,,,null,,,,
null,"<img src=""stim_listA/touch6.gif""</stim_listA>",,html-keyboard-response,103,442048,0.0-13.0-1.18,23293,List1A,white,man,,,,null,,,,
null,are touching each other,,html-keyboard-response,104,444051,0.0-13.0-2.18,23293,List1A,white,man,,,,null,,,,
8090,,,survey-text,105,452143,0.0-13.0-3.18,23293,List1A,white,man,,,,,"{""Q0"":""luke and fred are touching each other""}","<img src=""stim_listA/touch6.gif""</stim_listA>",are touching each other,
null,"<div style=""font-size:60px;"">+</div>",,html-keyboard-response,106,452645,0.0-13.0-0.19,23293,List1A,white,man,,,,null,,,,
null,"<img src=""stim_listA/shout3.gif""</stim_listA>",,html-keyboard-response,107,454648,0.0-13.0-1.19,23293,List1A,white,man,,,,null,,,,
null,is shouting at,,html-keyboard-response,108,456664,0.0-13.0-2.19,23293,List1A,white,man,,,,null,,,,
14450,,,survey-text,109,471115,0.0-13.0-3.19,23293,List1A,white,man,,,,,"{""Q0"":""luke is shouting at beth""}","<img src=""stim_listA/shout3.gif""</stim_listA>",is shouting at,
35798,"<img src='img/portrait_matrix_list1.JPG' style='width:900px;height:500px;''></img><p>If you have memorised all the portraits and names and are ready to start, press Continue.</p><p><strong>Please note: Your memory of these faces will be tested 4 times during this experiment.</strong></p>",0,html-button-response,110,506915,0.0-14.0-0.0,23293,List1A,white,man,,,,,,,,
1501,"<img src=""portrait/WM1.jpg""style=""width:400px;height:400px;""></img>",6,html-button-response,111,509419,0.0-14.0-1.0,23293,List1A,white,man,,TRUE,6,,,,,
null,CORRECT,,html-keyboard-response,112,510934,0.0-14.0-2.0-0.0,23293,List1A,white,man,,,,null,,,,
6090,"<img src=""portrait/BW1.jpg""style=""width:400px;height:400px;""></img>",0,html-button-response,113,517027,0.0-14.0-4.0,23293,List1A,white,man,,TRUE,0,,,,,
null,CORRECT,,html-keyboard-response,114,518548,0.0-14.0-5.0-0.0,23293,List1A,white,man,,,,null,,,,
1752,"<img src=""portrait/BM2.jpg""style=""width:400px;height:400px;""></img>",5,html-button-response,115,520302,0.0-14.0-7.0,23293,List1A,white,man,,TRUE,5,,,,,
null,CORRECT,,html-keyboard-response,116,521831,0.0-14.0-8.0-0.0,23293,List1A,white,man,,,,null,,,,
1685,"<img src=""portrait/BW2.jpg""style=""width:400px;height:400px;""></img>",2,html-button-response,117,523518,0.0-14.0-10.0,23293,List1A,white,man,,TRUE,2,,,,,
null,CORRECT,,html-keyboard-response,118,525028,0.0-14.0-11.0-0.0,23293,List1A,white,man,,,,null,,,,
2232,"<img src=""portrait/WW1.jpg""style=""width:400px;height:400px;""></img>",1,html-button-response,119,527262,0.0-14.0-13.0,23293,List1A,white,man,,TRUE,1,,,,,
null,CORRECT,,html-keyboard-response,120,528777,0.0-14.0-14.0-0.0,23293,List1A,white,man,,,,null,,,,
1611,"<img src=""portrait/WW2.jpg""style=""width:400px;height:400px;""></img>",3,html-button-response,121,530390,0.0-14.0-16.0,23293,List1A,white,man,,TRUE,3,,,,,
null,CORRECT,,html-keyboard-response,122,531897,0.0-14.0-17.0-0.0,23293,List1A,white,man,,,,null,,,,
1803,"<img src=""portrait/WM2.jpg""style=""width:400px;height:400px;""></img>",7,html-button-response,123,533702,0.0-14.0-19.0,23293,List1A,white,man,,TRUE,7,,,,,
null,CORRECT,,html-keyboard-response,124,535206,0.0-14.0-20.0-0.0,23293,List1A,white,man,,,,null,,,,
1798,"<img src=""portrait/BM1.jpg""style=""width:400px;height:400px;""></img>",4,html-button-response,125,537006,0.0-14.0-22.0,23293,List1A,white,man,,TRUE,4,,,,,
null,CORRECT,,html-keyboard-response,126,538514,0.0-14.0-23.0-0.0,23293,List1A,white,man,,,,null,,,,
1418,<p>You got 8 out of 8 right first time. Press Continue.</p>,0,html-button-response,127,539934,0.0-14.0-25.0,23293,List1A,white,man,,,,,,,,
null,"<div style=""font-size:60px;"">+</div>",,html-keyboard-response,128,541455,0.0-15.0-0.0,23293,List1A,white,man,,,,null,,,,
null,"<img src=""stim_listA/hug5.gif""</stim_listA>",,html-keyboard-response,129,543471,0.0-15.0-1.0,23293,List1A,white,man,,,,null,,,,
null,is hugging,,html-keyboard-response,130,545473,0.0-15.0-2.0,23293,List1A,white,man,,,,null,,,,
5332,,,survey-text,131,550806,0.0-15.0-3.0,23293,List1A,white,man,,,,,"{""Q0"":""fred is hugging luke""}","<img src=""stim_listA/hug5.gif""</stim_listA>",is hugging,
null,"<div style=""font-size:60px;"">+</div>",,html-keyboard-response,132,551309,0.0-15.0-0.1,23293,List1A,white,man,,,,null,,,,
null,"<img src=""stim_listA/touch5.gif""</stim_listA>",,html-keyboard-response,133,553312,0.0-15.0-1.1,23293,List1A,white,man,,,,null,,,,
null,is touching,,html-keyboard-response,134,555315,0.0-15.0-2.1,23293,List1A,white,man,,,,null,,,,
5513,,,survey-text,135,560830,0.0-15.0-3.1,23293,List1A,white,man,,,,,"{""Q0"":""mike is touching dave""}","<img src=""stim_listA/touch5.gif""</stim_listA>",is touching,
null,"<div style=""font-size:60px;"">+</div>",,html-keyboard-response,136,561345,0.0-15.0-0.2,23293,List1A,white,man,,,,null,,,,
null,"<img src=""stim_listA/dance1.gif""</stim_listA>",,html-keyboard-response,137,563349,0.0-15.0-1.2,23293,List1A,white,man,,,,null,,,,
null,is dancing with,,html-keyboard-response,138,565351,0.0-15.0-2.2,23293,List1A,white,man,,,,null,,,,
6734,,,survey-text,139,572086,0.0-15.0-3.2,23293,List1A,white,man,,,,,"{""Q0"":""fred is dancing with kate""}","<img src=""stim_listA/dance1.gif""</stim_listA>",is dancing with,
null,"<div style=""font-size:60px;"">+</div>",,html-keyboard-response,140,572589,0.0-15.0-0.3,23293,List1A,white,man,,,,null,,,,
null,"<img src=""stim_listA/argue1.gif""</stim_listA>",,html-keyboard-response,141,574593,0.0-15.0-1.3,23293,List1A,white,man,,,,null,,,,
null,is arguing with,,html-keyboard-response,142,576596,0.0-15.0-2.3,23293,List1A,white,man,,,,null,,,,
6638,,,survey-text,143,583235,0.0-15.0-3.3,23293,List1A,white,man,,,,,"{""Q0"":""mike is arguing with beth""}","<img src=""stim_listA/argue1.gif""</stim_listA>",is arguing with,
null,"<div style=""font-size:60px;"">+</div>",,html-keyboard-response,144,583739,0.0-15.0-0.4,23293,List1A,white,man,,,,null,,,,
null,"<img src=""stim_listA/dance3.gif""</stim_listA>",,html-keyboard-response,145,585747,0.0-15.0-1.4,23293,List1A,white,man,,,,null,,,,
null,is dancing with,,html-keyboard-response,146,587748,0.0-15.0-2.4,23293,List1A,white,man,,,,null,,,,
5605,,,survey-text,147,593355,0.0-15.0-3.4,23293,List1A,white,man,,,,,"{""Q0"":""luke is dancing with jane""}","<img src=""stim_listA/dance3.gif""</stim_listA>",is dancing with,
null,"<div style=""font-size:60px;"">+</div>",,html-keyboard-response,148,593861,0.0-15.0-0.5,23293,List1A,white,man,,,,null,,,,
null,"<img src=""stim_listA/marry4.gif""</stim_listA>",,html-keyboard-response,149,595866,0.0-15.0-1.5,23293,List1A,white,man,,,,null,,,,
null,are marrying each other,,html-keyboard-response,150,597868,0.0-15.0-2.5,23293,List1A,white,man,,,,null,,,,
9621,,,survey-text,151,607491,0.0-15.0-3.5,23293,List1A,white,man,,,,,"{""Q0"":""luke and jane are marrying each other""}","<img src=""stim_listA/marry4.gif""</stim_listA>",are marrying each other,
null,"<div style=""font-size:60px;"">+</div>",,html-keyboard-response,152,607997,0.0-15.0-0.6,23293,List1A,white,man,,,,null,,,,
null,"<img src=""stim_listA/fight4.gif""</stim_listA>",,html-keyboard-response,153,610001,0.0-15.0-1.6,23293,List1A,white,man,,,,null,,,,
null,are fighting each other,,html-keyboard-response,154,612004,0.0-15.0-2.6,23293,List1A,white,man,,,,null,,,,
11325,,,survey-text,155,623331,0.0-15.0-3.6,23293,List1A,white,man,,,,,"{""Q0"":""ruth and luke are fighting each other""}","<img src=""stim_listA/fight4.gif""</stim_listA>",are fighting each other,
null,"<div style=""font-size:60px;"">+</div>",,html-keyboard-response,156,623833,0.0-15.0-0.7,23293,List1A,white,man,,,,null,,,,
null,"<img src=""stim_listA/fight5.gif""</stim_listA>",,html-keyboard-response,157,625840,0.0-15.0-1.7,23293,List1A,white,man,,,,null,,,,
null,is fighting,,html-keyboard-response,158,627841,0.0-15.0-2.7,23293,List1A,white,man,,,,null,,,,
4959,,,survey-text,159,632803,0.0-15.0-3.7,23293,List1A,white,man,,,,,"{""Q0"":""dave is fighting mike""}","<img src=""stim_listA/fight5.gif""</stim_listA>",is fighting,
null,"<div style=""font-size:60px;"">+</div>",,html-keyboard-response,160,633318,0.0-15.0-0.8,23293,List1A,white,man,,,,null,,,,
null,"<img src=""stim_listA/dance5.gif""</stim_listA>",,html-keyboard-response,161,635322,0.0-15.0-1.8,23293,List1A,white,man,,,,null,,,,
null,is dancing with,,html-keyboard-response,162,637323,0.0-15.0-2.8,23293,List1A,white,man,,,,null,,,,
5889,,,survey-text,163,643214,0.0-15.0-3.8,23293,List1A,white,man,,,,,"{""Q0"":""fred is dancing with dave""}","<img src=""stim_listA/dance5.gif""</stim_listA>",is dancing with,
null,"<div style=""font-size:60px;"">+</div>",,html-keyboard-response,164,643726,0.0-15.0-0.9,23293,List1A,white,man,,,,null,,,,
null,"<img src=""stim_listA/marry5.gif""</stim_listA>",,html-keyboard-response,165,645729,0.0-15.0-1.9,23293,List1A,white,man,,,,null,,,,
null,is marrying,,html-keyboard-response,166,647731,0.0-15.0-2.9,23293,List1A,white,man,,,,null,,,,
6889,,,survey-text,167,654622,0.0-15.0-3.9,23293,List1A,white,man,,,,,"{""Q0"":""mike is marrying luke""}","<img src=""stim_listA/marry5.gif""</stim_listA>",is marrying,
null,"<div style=""font-size:60px;"">+</div>",,html-keyboard-response,168,655123,0.0-15.0-0.10,23293,List1A,white,man,,,,null,,,,
null,"<img src=""stim_listA/hug6.gif""</stim_listA>",,html-keyboard-response,169,657127,0.0-15.0-1.10,23293,List1A,white,man,,,,null,,,,
null,are hugging each other,,html-keyboard-response,170,659143,0.0-15.0-2.10,23293,List1A,white,man,,,,null,,,,
7517,,,survey-text,171,666662,0.0-15.0-3.10,23293,List1A,white,man,,,,,"{""Q0"":""mike and dave are hugging each other""}","<img src=""stim_listA/hug6.gif""</stim_listA>",are hugging each other,
null,"<div style=""font-size:60px;"">+</div>",,html-keyboard-response,172,667166,0.0-15.0-0.11,23293,List1A,white,man,,,,null,,,,
null,"<img src=""stim_listA/marry1.gif""</stim_listA>",,html-keyboard-response,173,669170,0.0-15.0-1.11,23293,List1A,white,man,,,,null,,,,
null,is marrying,,html-keyboard-response,174,671183,0.0-15.0-2.11,23293,List1A,white,man,,,,null,,,,
6709,,,survey-text,175,677894,0.0-15.0-3.11,23293,List1A,white,man,,,,,"{""Q0"":""mike is marrying ruth""}","<img src=""stim_listA/marry1.gif""</stim_listA>",is marrying,
null,"<div style=""font-size:60px;"">+</div>",,html-keyboard-response,176,678397,0.0-15.0-0.12,23293,List1A,white,man,,,,null,,,,
null,"<img src=""stim_listA/kiss8.gif""</stim_listA>",,html-keyboard-response,177,680400,0.0-15.0-1.12,23293,List1A,white,man,,,,null,,,,
null,are kissing each other,,html-keyboard-response,178,682402,0.0-15.0-2.12,23293,List1A,white,man,,,,null,,,,
6962,,,survey-text,179,689366,0.0-15.0-3.12,23293,List1A,white,man,,,,,"{""Q0"":""jane and kate are kissing each other""}","<img src=""stim_listA/kiss8.gif""</stim_listA>",are kissing each other,
null,"<div style=""font-size:60px;"">+</div>",,html-keyboard-response,180,689874,0.0-15.0-0.13,23293,List1A,white,man,,,,null,,,,
null,"<img src=""stim_listA/kiss7.gif""</stim_listA>",,html-keyboard-response,181,691890,0.0-15.0-1.13,23293,List1A,white,man,,,,null,,,,
null,is kissing,,html-keyboard-response,182,693902,0.0-15.0-2.13,23293,List1A,white,man,,,,null,,,,
4943,,,survey-text,183,698846,0.0-15.0-3.13,23293,List1A,white,man,,,,,"{""Q0"":""beth is kissing ruth""}","<img src=""stim_listA/kiss7.gif""</stim_listA>",is kissing,
null,"<div style=""font-size:60px;"">+</div>",,html-keyboard-response,184,699362,0.0-15.0-0.14,23293,List1A,white,man,,,,null,,,,
null,"<img src=""stim_listA/marry8.gif""</stim_listA>",,html-keyboard-response,185,701366,0.0-15.0-1.14,23293,List1A,white,man,,,,null,,,,
null,are marrying each other,,html-keyboard-response,186,703373,0.0-15.0-2.14,23293,List1A,white,man,,,,null,,,,
8288,,,survey-text,187,711662,0.0-15.0-3.14,23293,List1A,white,man,,,,,"{""Q0"":""jane and beth are marrying each other""}","<img src=""stim_listA/marry8.gif""</stim_listA>",are marrying each other,
null,"<div style=""font-size:60px;"">+</div>",,html-keyboard-response,188,712168,0.0-15.0-0.15,23293,List1A,white,man,,,,null,,,,
null,"<img src=""stim_listA/touch8.gif""</stim_listA>",,html-keyboard-response,189,714173,0.0-15.0-1.15,23293,List1A,white,man,,,,null,,,,
null,are touching each other,,html-keyboard-response,190,716177,0.0-15.0-2.15,23293,List1A,white,man,,,,null,,,,
7523,,,survey-text,191,723702,0.0-15.0-3.15,23293,List1A,white,man,,,,,"{""Q0"":""beth and ruth are touching each other""}","<img src=""stim_listA/touch8.gif""</stim_listA>",are touching each other,
null,"<div style=""font-size:60px;"">+</div>",,html-keyboard-response,192,724203,0.0-15.0-0.16,23293,List1A,white,man,,,,null,,,,
null,"<img src=""stim_listA/meet6.gif""</stim_listA>",,html-keyboard-response,193,726208,0.0-15.0-1.16,23293,List1A,white,man,,,,null,,,,
null,are meeting each other,,html-keyboard-response,194,728210,0.0-15.0-2.16,23293,List1A,white,man,,,,null,,,,
9963,,,survey-text,195,738174,0.0-15.0-3.16,23293,List1A,white,man,,,,,"{""Q0"":""luke and fred are meeting each other""}","<img src=""stim_listA/meet6.gif""</stim_listA>",are meeting each other,
null,"<div style=""font-size:60px;"">+</div>",,html-keyboard-response,196,738687,0.0-15.0-0.17,23293,List1A,white,man,,,,null,,,,
null,"<img src=""stim_listA/meet8.gif""</stim_listA>",,html-keyboard-response,197,740692,0.0-15.0-1.17,23293,List1A,white,man,,,,null,,,,
null,are meeting each other,,html-keyboard-response,198,742698,0.0-15.0-2.17,23293,List1A,white,man,,,,null,,,,
8090,,,survey-text,199,750790,0.0-15.0-3.17,23293,List1A,white,man,,,,,"{""Q0"":""beth and ruth are meeting each other""}","<img src=""stim_listA/meet8.gif""</stim_listA>",are meeting each other,
null,"<div style=""font-size:60px;"">+</div>",,html-keyboard-response,200,751306,0.0-15.0-0.18,23293,List1A,white,man,,,,null,,,,
null,"<img src=""stim_listA/hug7.gif""</stim_listA>",,html-keyboard-response,201,753324,0.0-15.0-1.18,23293,List1A,white,man,,,,null,,,,
null,is hugging,,html-keyboard-response,202,755326,0.0-15.0-2.18,23293,List1A,white,man,,,,null,,,,
6854,,,survey-text,203,762182,0.0-15.0-3.18,23293,List1A,white,man,,,,,"{""Q0"":""beth is hugging ruth""}","<img src=""stim_listA/hug7.gif""</stim_listA>",is hugging,
null,"<div style=""font-size:60px;"">+</div>",,html-keyboard-response,204,762692,0.0-15.0-0.19,23293,List1A,white,man,,,,null,,,,
null,"<img src=""stim_listA/talk1.gif""</stim_listA>",,html-keyboard-response,205,764696,0.0-15.0-1.19,23293,List1A,white,man,,,,null,,,,
null,is talking to,,html-keyboard-response,206,766698,0.0-15.0-2.19,23293,List1A,white,man,,,,null,,,,
5986,,,survey-text,207,772686,0.0-15.0-3.19,23293,List1A,white,man,,,,,"{""Q0"":""fred is talking to kate""}","<img src=""stim_listA/talk1.gif""</stim_listA>",is talking to,
5343,"<img src='img/portrait_matrix_list1.JPG' style='width:900px;height:500px;''></img><p>If you have memorised all the portraits and names and are ready to start, press Continue.</p><p><strong>Please note: Your memory of these faces will be tested 4 times during this experiment.</strong></p>",0,html-button-response,208,778030,0.0-16.0-0.0,23293,List1A,white,man,,,,,,,,
1762,"<img src=""portrait/BW1.jpg""style=""width:400px;height:400px;""></img>",0,html-button-response,209,780806,0.0-16.0-1.0,23293,List1A,white,man,,TRUE,0,,,,,
null,CORRECT,,html-keyboard-response,210,782310,0.0-16.0-2.0-0.0,23293,List1A,white,man,,,,null,,,,
1494,"<img src=""portrait/BM1.jpg""style=""width:400px;height:400px;""></img>",4,html-button-response,211,783806,0.0-16.0-4.0,23293,List1A,white,man,,TRUE,4,,,,,
null,CORRECT,,html-keyboard-response,212,785317,0.0-16.0-5.0-0.0,23293,List1A,white,man,,,,null,,,,
1383,"<img src=""portrait/WW2.jpg""style=""width:400px;height:400px;""></img>",3,html-button-response,213,786702,0.0-16.0-7.0,23293,List1A,white,man,,TRUE,3,,,,,
null,CORRECT,,html-keyboard-response,214,788217,0.0-16.0-8.0-0.0,23293,List1A,white,man,,,,null,,,,
1331,"<img src=""portrait/WW1.jpg""style=""width:400px;height:400px;""></img>",1,html-button-response,215,789550,0.0-16.0-10.0,23293,List1A,white,man,,TRUE,1,,,,,
null,CORRECT,,html-keyboard-response,216,791056,0.0-16.0-11.0-0.0,23293,List1A,white,man,,,,null,,,,
1573,"<img src=""portrait/WM1.jpg""style=""width:400px;height:400px;""></img>",6,html-button-response,217,792631,0.0-16.0-13.0,23293,List1A,white,man,,TRUE,6,,,,,
null,CORRECT,,html-keyboard-response,218,794135,0.0-16.0-14.0-0.0,23293,List1A,white,man,,,,null,,,,
1342,"<img src=""portrait/WM2.jpg""style=""width:400px;height:400px;""></img>",7,html-button-response,219,795478,0.0-16.0-16.0,23293,List1A,white,man,,TRUE,7,,,,,
null,CORRECT,,html-keyboard-response,220,796997,0.0-16.0-17.0-0.0,23293,List1A,white,man,,,,null,,,,
1911,"<img src=""portrait/BM2.jpg""style=""width:400px;height:400px;""></img>",5,html-button-response,221,798910,0.0-16.0-19.0,23293,List1A,white,man,,TRUE,5,,,,,
null,CORRECT,,html-keyboard-response,222,800432,0.0-16.0-20.0-0.0,23293,List1A,white,man,,,,null,,,,
1965,"<img src=""portrait/BW2.jpg""style=""width:400px;height:400px;""></img>",2,html-button-response,223,802398,0.0-16.0-22.0,23293,List1A,white,man,,TRUE,2,,,,,
null,CORRECT,,html-keyboard-response,224,803913,0.0-16.0-23.0-0.0,23293,List1A,white,man,,,,null,,,,
1034,<p>You got 8 out of 8 right first time. Press Continue.</p>,0,html-button-response,225,804950,0.0-16.0-25.0,23293,List1A,white,man,,,,,,,,
null,"<div style=""font-size:60px;"">+</div>",,html-keyboard-response,226,806468,0.0-17.0-0.0,23293,List1A,white,man,,,,null,,,,
null,"<img src=""stim_listA/hug4.gif""</stim_listA>",,html-keyboard-response,227,808471,0.0-17.0-1.0,23293,List1A,white,man,,,,null,,,,
null,are hugging each other,,html-keyboard-response,228,810483,0.0-17.0-2.0,23293,List1A,white,man,,,,null,,,,
9081,,,survey-text,229,819566,0.0-17.0-3.0,23293,List1A,white,man,,,,,"{""Q0"":""jane and dave are hugging each other""}","<img src=""stim_listA/hug4.gif""</stim_listA>",are hugging each other,
null,"<div style=""font-size:60px;"">+</div>",,html-keyboard-response,230,820067,0.0-17.0-0.1,23293,List1A,white,man,,,,null,,,,
null,"<img src=""stim_listA/fight6.gif""</stim_listA>",,html-keyboard-response,231,822071,0.0-17.0-1.1,23293,List1A,white,man,,,,null,,,,
null,are fighting each other,,html-keyboard-response,232,824073,0.0-17.0-2.1,23293,List1A,white,man,,,,null,,,,
7619,,,survey-text,233,831693,0.0-17.0-3.1,23293,List1A,white,man,,,,,"{""Q0"":""luke and fred are fighting each other""}","<img src=""stim_listA/fight6.gif""</stim_listA>",are fighting each other,
null,"<div style=""font-size:60px;"">+</div>",,html-keyboard-response,234,832197,0.0-17.0-0.2,23293,List1A,white,man,,,,null,,,,
null,"<img src=""stim_listA/shout7.gif""</stim_listA>",,html-keyboard-response,235,834204,0.0-17.0-1.2,23293,List1A,white,man,,,,null,,,,
null,is shouting at,,html-keyboard-response,236,836206,0.0-17.0-2.2,23293,List1A,white,man,,,,null,,,,
5454,,,survey-text,237,841661,0.0-17.0-3.2,23293,List1A,white,man,,,,,"{""Q0"":""beth is shouting at ruth""}","<img src=""stim_listA/shout7.gif""</stim_listA>",is shouting at,
null,"<div style=""font-size:60px;"">+</div>",,html-keyboard-response,238,842165,0.0-17.0-0.3,23293,List1A,white,man,,,,null,,,,
null,"<img src=""stim_listA/fight2.gif""</stim_listA>",,html-keyboard-response,239,844168,0.0-17.0-1.3,23293,List1A,white,man,,,,null,,,,
null,are fighting each other,,html-keyboard-response,240,846184,0.0-17.0-2.3,23293,List1A,white,man,,,,null,,,,
8924,,,survey-text,241,855109,0.0-17.0-3.3,23293,List1A,white,man,,,,,"{""Q0"":""beth and fred are fighting each other""}","<img src=""stim_listA/fight2.gif""</stim_listA>",are fighting each other,
null,"<div style=""font-size:60px;"">+</div>",,html-keyboard-response,242,855612,0.0-17.0-0.4,23293,List1A,white,man,,,,null,,,,
null,"<img src=""stim_listA/talk8.gif""</stim_listA>",,html-keyboard-response,243,857615,0.0-17.0-1.4,23293,List1A,white,man,,,,null,,,,
null,are talking to each other,,html-keyboard-response,244,859617,0.0-17.0-2.4,23293,List1A,white,man,,,,null,,,,
9035,,,survey-text,245,868653,0.0-17.0-3.4,23293,List1A,white,man,,,,,"{""Q0"":""ruth and kate are talking to each other""}","<img src=""stim_listA/talk8.gif""</stim_listA>",are talking to each other,
null,"<div style=""font-size:60px;"">+</div>",,html-keyboard-response,246,869159,0.0-17.0-0.5,23293,List1A,white,man,,,,null,,,,
null,"<img src=""stim_listA/kiss2.gif""</stim_listA>",,html-keyboard-response,247,871163,0.0-17.0-1.5,23293,List1A,white,man,,,,null,,,,
null,are kissing each other,,html-keyboard-response,248,873166,0.0-17.0-2.5,23293,List1A,white,man,,,,null,,,,
8074,,,survey-text,249,881241,0.0-17.0-3.5,23293,List1A,white,man,,,,,"{""Q0"":""mike and kate are kissing each other""}","<img src=""stim_listA/kiss2.gif""</stim_listA>",are kissing each other,
null,"<div style=""font-size:60px;"">+</div>",,html-keyboard-response,250,881743,0.0-17.0-0.6,23293,List1A,white,man,,,,null,,,,
null,"<img src=""stim_listA/dance4.gif""</stim_listA>",,html-keyboard-response,251,883748,0.0-17.0-1.6,23293,List1A,white,man,,,,null,,,,
null,are dancing with each other,,html-keyboard-response,252,885750,0.0-17.0-2.6,23293,List1A,white,man,,,,null,,,,
7522,,,survey-text,253,893273,0.0-17.0-3.6,23293,List1A,white,man,,,,,"{""Q0"":""dave and ruth are dancing with each other""}","<img src=""stim_listA/dance4.gif""</stim_listA>",are dancing with each other,
null,"<div style=""font-size:60px;"">+</div>",,html-keyboard-response,254,893778,0.0-17.0-0.7,23293,List1A,white,man,,,,null,,,,
null,"<img src=""stim_listA/touch2.gif""</stim_listA>",,html-keyboard-response,255,895782,0.0-17.0-1.7,23293,List1A,white,man,,,,null,,,,
null,are touching each other,,html-keyboard-response,256,897785,0.0-17.0-2.7,23293,List1A,white,man,,,,null,,,,
7719,,,survey-text,257,905505,0.0-17.0-3.7,23293,List1A,white,man,,,,,"{""Q0"":""beth and fred are touching each other""}","<img src=""stim_listA/touch2.gif""</stim_listA>",are touching each other,
null,"<div style=""font-size:60px;"">+</div>",,html-keyboard-response,258,906009,0.0-17.0-0.8,23293,List1A,white,man,,,,null,,,,
null,"<img src=""stim_listA/talk7.gif""</stim_listA>",,html-keyboard-response,259,908013,0.0-17.0-1.8,23293,List1A,white,man,,,,null,,,,
null,is talking to,,html-keyboard-response,260,910016,0.0-17.0-2.8,23293,List1A,white,man,,,,null,,,,
6104,,,survey-text,261,916121,0.0-17.0-3.8,23293,List1A,white,man,,,,,"{""Q0"":""beth is talking to jane""}","<img src=""stim_listA/talk7.gif""</stim_listA>",is talking to,
null,"<div style=""font-size:60px;"">+</div>",,html-keyboard-response,262,916638,0.0-17.0-0.9,23293,List1A,white,man,,,,null,,,,
null,"<img src=""stim_listA/talk6.gif""</stim_listA>",,html-keyboard-response,263,918641,0.0-17.0-1.9,23293,List1A,white,man,,,,null,,,,
null,are talking to each other,,html-keyboard-response,264,920644,0.0-17.0-2.9,23293,List1A,white,man,,,,null,,,,
6836,,,survey-text,265,927481,0.0-17.0-3.9,23293,List1A,white,man,,,,,"{""Q0"":""luke and mike are talking to each other""}","<img src=""stim_listA/talk6.gif""</stim_listA>",are talking to each other,
null,"<div style=""font-size:60px;"">+</div>",,html-keyboard-response,266,927998,0.0-17.0-0.10,23293,List1A,white,man,,,,null,,,,
null,"<img src=""stim_listA/shout4.gif""</stim_listA>",,html-keyboard-response,267,930002,0.0-17.0-1.10,23293,List1A,white,man,,,,null,,,,
null,are shouting at each other,,html-keyboard-response,268,932003,0.0-17.0-2.10,23293,List1A,white,man,,,,null,,,,
6846,,,survey-text,269,938849,0.0-17.0-3.10,23293,List1A,white,man,,,,,"{""Q0"":""jane and dave are shouting at each other""}","<img src=""stim_listA/shout4.gif""</stim_listA>",are shouting at each other,
null,"<div style=""font-size:60px;"">+</div>",,html-keyboard-response,270,939359,0.0-17.0-0.11,23293,List1A,white,man,,,,null,,,,
null,"<img src=""stim_listA/meet7.gif""</stim_listA>",,html-keyboard-response,271,941389,0.0-17.0-1.11,23293,List1A,white,man,,,,null,,,,
null,is meeting,,html-keyboard-response,272,943405,0.0-17.0-2.11,23293,List1A,white,man,,,,null,,,,
6359,,,survey-text,273,949765,0.0-17.0-3.11,23293,List1A,white,man,,,,,"{""Q0"":""kate is meeting jane""}","<img src=""stim_listA/meet7.gif""</stim_listA>",is meeting,
null,"<div style=""font-size:60px;"">+</div>",,html-keyboard-response,274,950280,0.0-17.0-0.12,23293,List1A,white,man,,,,null,,,,
null,"<img src=""stim_listA/kiss3.gif""</stim_listA>",,html-keyboard-response,275,952283,0.0-17.0-1.12,23293,List1A,white,man,,,,null,,,,
null,is kissing,,html-keyboard-response,276,954285,0.0-17.0-2.12,23293,List1A,white,man,,,,null,,,,
6319,,,survey-text,277,960606,0.0-17.0-3.12,23293,List1A,white,man,,,,,"{""Q0"":""luke is kissing ruth""}","<img src=""stim_listA/kiss3.gif""</stim_listA>",is kissing,
null,"<div style=""font-size:60px;"">+</div>",,html-keyboard-response,278,961108,0.0-17.0-0.13,23293,List1A,white,man,,,,null,,,,
null,"<img src=""stim_listA/marry3.gif""</stim_listA>",,html-keyboard-response,279,963110,0.0-17.0-1.13,23293,List1A,white,man,,,,null,,,,
null,is marrying,,html-keyboard-response,280,965112,0.0-17.0-2.13,23293,List1A,white,man,,,,null,,,,
4996,,,survey-text,281,970110,0.0-17.0-3.13,23293,List1A,white,man,,,,,"{""Q0"":""dave is marrying ruth""}","<img src=""stim_listA/marry3.gif""</stim_listA>",is marrying,
null,"<div style=""font-size:60px;"">+</div>",,html-keyboard-response,282,970621,0.0-17.0-0.14,23293,List1A,white,man,,,,null,,,,
null,"<img src=""stim_listA/argue3.gif""</stim_listA>",,html-keyboard-response,283,972625,0.0-17.0-1.14,23293,List1A,white,man,,,,null,,,,
null,is arguing with,,html-keyboard-response,284,974627,0.0-17.0-2.14,23293,List1A,white,man,,,,null,,,,
8937,,,survey-text,285,983566,0.0-17.0-3.14,23293,List1A,white,man,,,,,"{""Q0"":""dave is arguing with ruth""}","<img src=""stim_listA/argue3.gif""</stim_listA>",is arguing with,
null,"<div style=""font-size:60px;"">+</div>",,html-keyboard-response,286,984081,0.0-17.0-0.15,23293,List1A,white,man,,,,null,,,,
null,"<img src=""stim_listA/touch1.gif""</stim_listA>",,html-keyboard-response,287,986084,0.0-17.0-1.15,23293,List1A,white,man,,,,null,,,,
null,is touching,,html-keyboard-response,288,988085,0.0-17.0-2.15,23293,List1A,white,man,,,,null,,,,
5279,,,survey-text,289,993365,0.0-17.0-3.15,23293,List1A,white,man,,,,,"{""Q0"":""mike is touching kate""}","<img src=""stim_listA/touch1.gif""</stim_listA>",is touching,
null,"<div style=""font-size:60px;"">+</div>",,html-keyboard-response,290,993878,0.0-17.0-0.16,23293,List1A,white,man,,,,null,,,,
null,"<img src=""stim_listA/touch4.gif""</stim_listA>",,html-keyboard-response,291,995882,0.0-17.0-1.16,23293,List1A,white,man,,,,null,,,,
null,are touching each other,,html-keyboard-response,292,997883,0.0-17.0-2.16,23293,List1A,white,man,,,,null,,,,
7199,,,survey-text,293,1005084,0.0-17.0-3.16,23293,List1A,white,man,,,,,"{""Q0"":""ruth and luke are touching each other""}","<img src=""stim_listA/touch4.gif""</stim_listA>",are touching each other,
null,"<div style=""font-size:60px;"">+</div>",,html-keyboard-response,294,1005585,0.0-17.0-0.17,23293,List1A,white,man,,,,null,,,,
null,"<img src=""stim_listA/meet2.gif""</stim_listA>",,html-keyboard-response,295,1007592,0.0-17.0-1.17,23293,List1A,white,man,,,,null,,,,
null,are meeting each other,,html-keyboard-response,296,1009594,0.0-17.0-2.17,23293,List1A,white,man,,,,null,,,,
7040,,,survey-text,297,1016636,0.0-17.0-3.17,23293,List1A,white,man,,,,,"{""Q0"":""beth and fred are meeting each other""}","<img src=""stim_listA/meet2.gif""</stim_listA>",are meeting each other,
null,"<div style=""font-size:60px;"">+</div>",,html-keyboard-response,298,1017146,0.0-17.0-0.18,23293,List1A,white,man,,,,null,,,,
null,"<img src=""stim_listA/shout1.gif""</stim_listA>",,html-keyboard-response,299,1019150,0.0-17.0-1.18,23293,List1A,white,man,,,,null,,,,
null,is shouting at,,html-keyboard-response,300,1021155,0.0-17.0-2.18,23293,List1A,white,man,,,,null,,,,
5167,,,survey-text,301,1026324,0.0-17.0-3.18,23293,List1A,white,man,,,,,"{""Q0"":""fred is shouting at beth""}","<img src=""stim_listA/shout1.gif""</stim_listA>",is shouting at,
null,"<div style=""font-size:60px;"">+</div>",,html-keyboard-response,302,1026833,0.0-17.0-0.19,23293,List1A,white,man,,,,null,,,,
null,"<img src=""stim_listA/fight8.gif""</stim_listA>",,html-keyboard-response,303,1028837,0.0-17.0-1.19,23293,List1A,white,man,,,,null,,,,
null,are fighting each other,,html-keyboard-response,304,1030840,0.0-17.0-2.19,23293,List1A,white,man,,,,null,,,,
7738,,,survey-text,305,1038580,0.0-17.0-3.19,23293,List1A,white,man,,,,,"{""Q0"":""beth are ruth are fighting each other""}","<img src=""stim_listA/fight8.gif""</stim_listA>",are fighting each other,
2558,"<img src='img/portrait_matrix_list1.JPG' style='width:900px;height:500px;''></img><p>If you have memorised all the portraits and names and are ready to start, press Continue.</p><p><strong>Please note: Your memory of these faces will be tested 4 times during this experiment.</strong></p>",0,html-button-response,306,1041140,0.0-18.0-0.0,23293,List1A,white,man,,,,,,,,
1569,"<img src=""portrait/BM2.jpg""style=""width:400px;height:400px;""></img>",5,html-button-response,307,1043716,0.0-18.0-1.0,23293,List1A,white,man,,TRUE,5,,,,,
null,CORRECT,,html-keyboard-response,308,1045241,0.0-18.0-2.0-0.0,23293,List1A,white,man,,,,null,,,,
1720,"<img src=""portrait/BM1.jpg""style=""width:400px;height:400px;""></img>",4,html-button-response,309,1046964,0.0-18.0-4.0,23293,List1A,white,man,,TRUE,4,,,,,
null,CORRECT,,html-keyboard-response,310,1048470,0.0-18.0-5.0-0.0,23293,List1A,white,man,,,,null,,,,
1555,"<img src=""portrait/WW1.jpg""style=""width:400px;height:400px;""></img>",1,html-button-response,311,1050028,0.0-18.0-7.0,23293,List1A,white,man,,TRUE,1,,,,,
null,CORRECT,,html-keyboard-response,312,1051545,0.0-18.0-8.0-0.0,23293,List1A,white,man,,,,null,,,,
1120,"<img src=""portrait/BW1.jpg""style=""width:400px;height:400px;""></img>",0,html-button-response,313,1052668,0.0-18.0-10.0,23293,List1A,white,man,,TRUE,0,,,,,
null,CORRECT,,html-keyboard-response,314,1054181,0.0-18.0-11.0-0.0,23293,List1A,white,man,,,,null,,,,
1018,"<img src=""portrait/BW2.jpg""style=""width:400px;height:400px;""></img>",2,html-button-response,315,1055204,0.0-18.0-13.0,23293,List1A,white,man,,TRUE,2,,,,,
null,CORRECT,,html-keyboard-response,316,1056717,0.0-18.0-14.0-0.0,23293,List1A,white,man,,,,null,,,,
1109,"<img src=""portrait/WM1.jpg""style=""width:400px;height:400px;""></img>",6,html-button-response,317,1057828,0.0-18.0-16.0,23293,List1A,white,man,,TRUE,6,,,,,
null,CORRECT,,html-keyboard-response,318,1059331,0.0-18.0-17.0-0.0,23293,List1A,white,man,,,,null,,,,
1084,"<img src=""portrait/WW2.jpg""style=""width:400px;height:400px;""></img>",3,html-button-response,319,1060418,0.0-18.0-19.0,23293,List1A,white,man,,TRUE,3,,,,,
null,CORRECT,,html-keyboard-response,320,1061952,0.0-18.0-20.0-0.0,23293,List1A,white,man,,,,null,,,,
879,"<img src=""portrait/WM2.jpg""style=""width:400px;height:400px;""></img>",7,html-button-response,321,1062834,0.0-18.0-22.0,23293,List1A,white,man,,TRUE,7,,,,,
null,CORRECT,,html-keyboard-response,322,1064351,0.0-18.0-23.0-0.0,23293,List1A,white,man,,,,null,,,,
960,<p>You got 8 out of 8 right first time. Press Continue.</p>,0,html-button-response,323,1065314,0.0-18.0-25.0,23293,List1A,white,man,,,,,,,,
null,"<div style=""font-size:60px;"">+</div>",,html-keyboard-response,324,1066843,0.0-19.0-0.0,23293,List1A,white,man,,,,null,,,,
null,"<img src=""stim_listA/talk3.gif""</stim_listA>",,html-keyboard-response,325,1068848,0.0-19.0-1.0,23293,List1A,white,man,,,,null,,,,
null,is talking to,,html-keyboard-response,326,1070859,0.0-19.0-2.0,23293,List1A,white,man,,,,null,,,,
5477,,,survey-text,327,1076338,0.0-19.0-3.0,23293,List1A,white,man,,,,,"{""Q0"":""luke is talking to jane""}","<img src=""stim_listA/talk3.gif""</stim_listA>",is talking to,
null,"<div style=""font-size:60px;"">+</div>",,html-keyboard-response,328,1076840,0.0-19.0-0.1,23293,List1A,white,man,,,,null,,,,
null,"<img src=""stim_listA/dance2.gif""</stim_listA>",,html-keyboard-response,329,1078843,0.0-19.0-1.1,23293,List1A,white,man,,,,null,,,,
null,are dancing with each other,,html-keyboard-response,330,1080846,0.0-19.0-2.1,23293,List1A,white,man,,,,null,,,,
8137,,,survey-text,331,1088986,0.0-19.0-3.1,23293,List1A,white,man,,,,,"{""Q0"":""beth and mike are dancing with each other""}","<img src=""stim_listA/dance2.gif""</stim_listA>",are dancing with each other,
null,"<div style=""font-size:60px;"">+</div>",,html-keyboard-response,332,1089501,0.0-19.0-0.2,23293,List1A,white,man,,,,null,,,,
null,"<img src=""stim_listA/meet3.gif""</stim_listA>",,html-keyboard-response,333,1091507,0.0-19.0-1.2,23293,List1A,white,man,,,,null,,,,
null,is meeting,,html-keyboard-response,334,1093513,0.0-19.0-2.2,23293,List1A,white,man,,,,null,,,,
4614,,,survey-text,335,1098130,0.0-19.0-3.2,23293,List1A,white,man,,,,,"{""Q0"":""jane is meeting dave""}","<img src=""stim_listA/meet3.gif""</stim_listA>",is meeting,
null,"<div style=""font-size:60px;"">+</div>",,html-keyboard-response,336,1098631,0.0-19.0-0.3,23293,List1A,white,man,,,,null,,,,
null,"<img src=""stim_listA/shout5.gif""</stim_listA>",,html-keyboard-response,337,1100635,0.0-19.0-1.3,23293,List1A,white,man,,,,null,,,,
null,is shouting at,,html-keyboard-response,338,1102641,0.0-19.0-2.3,23293,List1A,white,man,,,,null,,,,
5815,,,survey-text,339,1108458,0.0-19.0-3.3,23293,List1A,white,man,,,,,"{""Q0"":""fred is shouting at luke""}","<img src=""stim_listA/shout5.gif""</stim_listA>",is shouting at,
null,"<div style=""font-size:60px;"">+</div>",,html-keyboard-response,340,1108961,0.0-19.0-0.4,23293,List1A,white,man,,,,null,,,,
null,"<img src=""stim_listA/dance8.gif""</stim_listA>",,html-keyboard-response,341,1110972,0.0-19.0-1.4,23293,List1A,white,man,,,,null,,,,
null,are dancing with each other,,html-keyboard-response,342,1112974,0.0-19.0-2.4,23293,List1A,white,man,,,,null,,,,
10126,,,survey-text,343,1123102,0.0-19.0-3.4,23293,List1A,white,man,,,,,"{""Q0"":""ruth and kate are dancing with each other""}","<img src=""stim_listA/dance8.gif""</stim_listA>",are dancing with each other,
null,"<div style=""font-size:60px;"">+</div>",,html-keyboard-response,344,1123605,0.0-19.0-0.5,23293,List1A,white,man,,,,null,,,,
null,"<img src=""stim_listA/argue8.gif""</stim_listA>",,html-keyboard-response,345,1125608,0.0-19.0-1.5,23293,List1A,white,man,,,,null,,,,
null,are arguing with each other,,html-keyboard-response,346,1127611,0.0-19.0-2.5,23293,List1A,white,man,,,,null,,,,
8833,,,survey-text,347,1136446,0.0-19.0-3.5,23293,List1A,white,man,,,,,"{""Q0"":""jane and beth are arguing with each other""}","<img src=""stim_listA/argue8.gif""</stim_listA>",are arguing with each other,
null,"<div style=""font-size:60px;"">+</div>",,html-keyboard-response,348,1136948,0.0-19.0-0.6,23293,List1A,white,man,,,,null,,,,
null,"<img src=""stim_listA/marry7.gif""</stim_listA>",,html-keyboard-response,349,1138952,0.0-19.0-1.6,23293,List1A,white,man,,,,null,,,,
null,is marrying,,html-keyboard-response,350,1140954,0.0-19.0-2.6,23293,List1A,white,man,,,,null,,,,
4970,,,survey-text,351,1145926,0.0-19.0-3.6,23293,List1A,white,man,,,,,"{""Q0"":""kate is marrying ruth""}","<img src=""stim_listA/marry7.gif""</stim_listA>",is marrying,
null,"<div style=""font-size:60px;"">+</div>",,html-keyboard-response,352,1146427,0.0-19.0-0.7,23293,List1A,white,man,,,,null,,,,
null,"<img src=""stim_listA/argue7.gif""</stim_listA>",,html-keyboard-response,353,1148431,0.0-19.0-1.7,23293,List1A,white,man,,,,null,,,,
null,is arguing with,,html-keyboard-response,354,1150433,0.0-19.0-2.7,23293,List1A,white,man,,,,null,,,,
6523,,,survey-text,355,1156958,0.0-19.0-3.7,23293,List1A,white,man,,,,,"{""Q0"":""kate is arguing with ruth""}","<img src=""stim_listA/argue7.gif""</stim_listA>",is arguing with,
null,"<div style=""font-size:60px;"">+</div>",,html-keyboard-response,356,1157474,0.0-19.0-0.8,23293,List1A,white,man,,,,null,,,,
null,"<img src=""stim_listA/argue6.gif""</stim_listA>",,html-keyboard-response,357,1159479,0.0-19.0-1.8,23293,List1A,white,man,,,,null,,,,
null,are arguing with each other,,html-keyboard-response,358,1161481,0.0-19.0-2.8,23293,List1A,white,man,,,,null,,,,
7939,,,survey-text,359,1169422,0.0-19.0-3.8,23293,List1A,white,man,,,,,"{""Q0"":""dave and mike are arguing with each other""}","<img src=""stim_listA/argue6.gif""</stim_listA>",are arguing with each other,
null,"<div style=""font-size:60px;"">+</div>",,html-keyboard-response,360,1169929,0.0-19.0-0.9,23293,List1A,white,man,,,,null,,,,
null,"<img src=""stim_listA/hug1.gif""</stim_listA>",,html-keyboard-response,361,1171932,0.0-19.0-1.9,23293,List1A,white,man,,,,null,,,,
null,is hugging,,html-keyboard-response,362,1173934,0.0-19.0-2.9,23293,List1A,white,man,,,,null,,,,
6006,,,survey-text,363,1179942,0.0-19.0-3.9,23293,List1A,white,man,,,,,"{""Q0"":""fred is hugging beth""}","<img src=""stim_listA/hug1.gif""</stim_listA>",is hugging,
null,"<div style=""font-size:60px;"">+</div>",,html-keyboard-response,364,1180449,0.0-19.0-0.10,23293,List1A,white,man,,,,null,,,,
null,"<img src=""stim_listA/hug3.gif""</stim_listA>",,html-keyboard-response,365,1182452,0.0-19.0-1.10,23293,List1A,white,man,,,,null,,,,
null,is hugging,,html-keyboard-response,366,1184462,0.0-19.0-2.10,23293,List1A,white,man,,,,null,,,,
4773,,,survey-text,367,1189237,0.0-19.0-3.10,23293,List1A,white,man,,,,,"{""Q0"":""luke is hugging ruth""}","<img src=""stim_listA/hug3.gif""</stim_listA>",is hugging,
null,"<div style=""font-size:60px;"">+</div>",,html-keyboard-response,368,1189748,0.0-19.0-0.11,23293,List1A,white,man,,,,null,,,,
null,"<img src=""stim_listA/touch3.gif""</stim_listA>",,html-keyboard-response,369,1191749,0.0-19.0-1.11,23293,List1A,white,man,,,,null,,,,
null,is touching,,html-keyboard-response,370,1193754,0.0-19.0-2.11,23293,List1A,white,man,,,,null,,,,
4385,,,survey-text,371,1198141,0.0-19.0-3.11,23293,List1A,white,man,,,,,"{""Q0"":""dave is touching jane""}","<img src=""stim_listA/touch3.gif""</stim_listA>",is touching,
null,"<div style=""font-size:60px;"">+</div>",,html-keyboard-response,372,1198655,0.0-19.0-0.12,23293,List1A,white,man,,,,null,,,,
null,"<img src=""stim_listA/marry2.gif""</stim_listA>",,html-keyboard-response,373,1200660,0.0-19.0-1.12,23293,List1A,white,man,,,,null,,,,
null,are marrying each other,,html-keyboard-response,374,1202664,0.0-19.0-2.12,23293,List1A,white,man,,,,null,,,,
8812,,,survey-text,375,1211477,0.0-19.0-3.12,23293,List1A,white,man,,,,,"{""Q0"":""kate and fred are marrying each other""}","<img src=""stim_listA/marry2.gif""</stim_listA>",are marrying each other,
null,"<div style=""font-size:60px;"">+</div>",,html-keyboard-response,376,1211988,0.0-19.0-0.13,23293,List1A,white,man,,,,null,,,,
null,"<img src=""stim_listA/talk5.gif""</stim_listA>",,html-keyboard-response,377,1213991,0.0-19.0-1.13,23293,List1A,white,man,,,,null,,,,
null,is talking to,,html-keyboard-response,378,1215993,0.0-19.0-2.13,23293,List1A,white,man,,,,null,,,,
5306,,,survey-text,379,1221301,0.0-19.0-3.13,23293,List1A,white,man,,,,,"{""Q0"":""fred is talking to dave""}","<img src=""stim_listA/talk5.gif""</stim_listA>",is talking to,
null,"<div style=""font-size:60px;"">+</div>",,html-keyboard-response,380,1221813,0.0-19.0-0.14,23293,List1A,white,man,,,,null,,,,
null,"<img src=""stim_listA/meet5.gif""</stim_listA>",,html-keyboard-response,381,1223817,0.0-19.0-1.14,23293,List1A,white,man,,,,null,,,,
null,is meeting,,html-keyboard-response,382,1225819,0.0-19.0-2.14,23293,List1A,white,man,,,,null,,,,
5047,,,survey-text,383,1230869,0.0-19.0-3.14,23293,List1A,white,man,,,,,"{""Q0"":""mike is meeting dave""}","<img src=""stim_listA/meet5.gif""</stim_listA>",is meeting,
null,"<div style=""font-size:60px;"">+</div>",,html-keyboard-response,384,1231371,0.0-19.0-0.15,23293,List1A,white,man,,,,null,,,,
null,"<img src=""stim_listA/fight3.gif""</stim_listA>",,html-keyboard-response,385,1233374,0.0-19.0-1.15,23293,List1A,white,man,,,,null,,,,
null,is fighting,,html-keyboard-response,386,1235376,0.0-19.0-2.15,23293,List1A,white,man,,,,null,,,,
4922,,,survey-text,387,1240300,0.0-19.0-3.15,23293,List1A,white,man,,,,,"{""Q0"":""dave is fighting jane""}","<img src=""stim_listA/fight3.gif""</stim_listA>",is fighting,
null,"<div style=""font-size:60px;"">+</div>",,html-keyboard-response,388,1240802,0.0-19.0-0.16,23293,List1A,white,man,,,,null,,,,
null,"<img src=""stim_listA/marry6.gif""</stim_listA>",,html-keyboard-response,389,1242812,0.0-19.0-1.16,23293,List1A,white,man,,,,null,,,,
null,are marrying each other,,html-keyboard-response,390,1244815,0.0-19.0-2.16,23293,List1A,white,man,,,,null,,,,
7332,,,survey-text,391,1252149,0.0-19.0-3.16,23293,List1A,white,man,,,,,"{""Q0"":""dave and fred are marrying each other""}","<img src=""stim_listA/marry6.gif""</stim_listA>",are marrying each other,
null,"<div style=""font-size:60px;"">+</div>",,html-keyboard-response,392,1252651,0.0-19.0-0.17,23293,List1A,white,man,,,,null,,,,
null,"<img src=""stim_listA/argue4.gif""</stim_listA>",,html-keyboard-response,393,1254655,0.0-19.0-1.17,23293,List1A,white,man,,,,null,,,,
null,are arguing with each other,,html-keyboard-response,394,1256658,0.0-19.0-2.17,23293,List1A,white,man,,,,null,,,,
7609,,,survey-text,395,1264269,0.0-19.0-3.17,23293,List1A,white,man,,,,,"{""Q0"":""jane and luke are arguing with each other""}","<img src=""stim_listA/argue4.gif""</stim_listA>",are arguing with each other,
null,"<div style=""font-size:60px;"">+</div>",,html-keyboard-response,396,1264775,0.0-19.0-0.18,23293,List1A,white,man,,,,null,,,,
null,"<img src=""stim_listA/kiss5.gif""</stim_listA>",,html-keyboard-response,397,1266779,0.0-19.0-1.18,23293,List1A,white,man,,,,null,,,,
null,is kissing,,html-keyboard-response,398,1268783,0.0-19.0-2.18,23293,List1A,white,man,,,,null,,,,
5796,,,survey-text,399,1274581,0.0-19.0-3.18,23293,List1A,white,man,,,,,"{""Q0"":""fred is kissing luke""}","<img src=""stim_listA/kiss5.gif""</stim_listA>",is kissing,
null,"<div style=""font-size:60px;"">+</div>",,html-keyboard-response,400,1275097,0.0-19.0-0.19,23293,List1A,white,man,,,,null,,,,
null,"<img src=""stim_listA/dance6.gif""</stim_listA>",,html-keyboard-response,401,1277107,0.0-19.0-1.19,23293,List1A,white,man,,,,null,,,,
null,are dancing with each other,,html-keyboard-response,402,1279110,0.0-19.0-2.19,23293,List1A,white,man,,,,null,,,,
8597,,,survey-text,403,1287709,0.0-19.0-3.19,23293,List1A,white,man,,,,,"{""Q0"":""luke and mike are dancing with each other""}","<img src=""stim_listA/dance6.gif""</stim_listA>",are dancing with each other,
2047,<p>Thank you for completing that task.</p><p>The final part of this session is a short questionnaire.</p><p>Press Continue.</p>,0,html-button-response,404,1289757,0.0-20.0,23293,List1A,white,man,,,,,,,,
24927,,,survey-text,405,1315687,0.0-21.0,23293,List1A,white,man,,,,,"{""Q0"":""22"",""Q1"":""English"",""Q2"":""English"",""Q3"":""Unites States"",""Q4"":""White"",""Q5"":""Male""}",,,demographics
41254,,,survey-likert,406,1356946,0.0-22.0,23293,List1A,white,man,,,,,"{""Q0"":3,""Q1"":2,""Q2"":3,""Q3"":3,""Q4"":3,""Q5"":4,""Q6"":3,""Q7"":1,""Q8"":1,""Q9"":1,""Q10"":3,""Q11"":2,""Q12"":3,""Q13"":3}",,,likert_race
43330,,,survey-likert,407,1400292,0.0-23.0,23293,List1A,white,man,,,,,"{""Q0"":3,""Q1"":3,""Q2"":3,""Q3"":5,""Q4"":3,""Q5"":5,""Q6"":3,""Q7"":1,""Q8"":2,""Q9"":2,""Q10"":2,""Q11"":2,""Q12"":3,""Q13"":3}",,,likert_gender
7495,,,survey-text,408,1407802,0.0-24.0,23293,List1A,white,man,,,,,"{""Q0"":""ccc""}",,,worker_id
22261,,,external-html,409,1430298,0.0-25.0,23293,List1A,white,man,debrief.html,,,,,,,
