rt,stimulus,button_pressed,trial_type,trial_index,time_elapsed,internal_node_id,subject,list,ppt_race,ppt_gender,url,first_guess,correct,key_press,responses,image_type,phrase_type,test_part
2660,Welcome to the experiment. Press Continue to begin.,0,html-button-response,0,2694,0.0-0.0,23529,List2B,black,man,,,,,,,,
54291,,,external-html,1,58132,0.0-1.0,23529,List2B,black,man,consent.html,,,,,,,
4729,"<p>On the next page, you will see portraits of 8 people and their names.</p><p>Your first task is to take a few minutes to memorise the names of these people.</p><p>You will have to recall their names during the rest of the experiment, so it is</p><p>essential that you try to memorise these people and their names as best as you can.</p><br><p><strong>You will then be tested on your memory of these names and portraits.</strong></p><br><p>The experiment will start after you have completed this memory test.</p><br><p>Ready?</p>",0,html-button-response,2,62863,0.0-2.0,23529,List2B,black,man,,,,,,,,
54075,"<img src='img/portrait_matrix_list2.JPG' style='width:900px;height:500px;''></img><p>If you have memorised all the portraits and names and are ready to start, press Continue.</p><p><strong>Please note: Your memory of these faces will be tested 4 times during this experiment.</strong></p>",0,html-button-response,3,117942,0.0-3.0-0.0,23529,List2B,black,man,,,,,,,,
12950,"<img src=""portrait/WW1.jpg""style=""width:400px;height:400px;""></img>",1,html-button-response,4,131894,0.0-3.0-1.0,23529,List2B,black,man,,TRUE,1,,,,,
null,CORRECT,,html-keyboard-response,5,133397,0.0-3.0-2.0-0.0,23529,List2B,black,man,,,,null,,,,
8875,"<img src=""portrait/BM1.jpg""style=""width:400px;height:400px;""></img>",4,html-button-response,6,142274,0.0-3.0-4.0,23529,List2B,black,man,,TRUE,4,,,,,
null,CORRECT,,html-keyboard-response,7,143775,0.0-3.0-5.0-0.0,23529,List2B,black,man,,,,null,,,,
4533,"<img src=""portrait/WM1.jpg""style=""width:400px;height:400px;""></img>",6,html-button-response,8,148309,0.0-3.0-7.0,23529,List2B,black,man,,TRUE,6,,,,,
null,CORRECT,,html-keyboard-response,9,149811,0.0-3.0-8.0-0.0,23529,List2B,black,man,,,,null,,,,
2702,"<img src=""portrait/WW2.jpg""style=""width:400px;height:400px;""></img>",3,html-button-response,10,152515,0.0-3.0-10.0,23529,List2B,black,man,,TRUE,3,,,,,
null,CORRECT,,html-keyboard-response,11,154017,0.0-3.0-11.0-0.0,23529,List2B,black,man,,,,null,,,,
9700,"<img src=""portrait/BW1.jpg""style=""width:400px;height:400px;""></img>",0,html-button-response,12,163719,0.0-3.0-13.0,23529,List2B,black,man,,TRUE,0,,,,,
null,CORRECT,,html-keyboard-response,13,165220,0.0-3.0-14.0-0.0,23529,List2B,black,man,,,,null,,,,
5641,"<img src=""portrait/BM2.jpg""style=""width:400px;height:400px;""></img>",5,html-button-response,14,170861,0.0-3.0-16.0,23529,List2B,black,man,,TRUE,5,,,,,
null,CORRECT,,html-keyboard-response,15,172363,0.0-3.0-17.0-0.0,23529,List2B,black,man,,,,null,,,,
8951,"<img src=""portrait/WM2.jpg""style=""width:400px;height:400px;""></img>",4,html-button-response,16,181315,0.0-3.0-19.0,23529,List2B,black,man,,TRUE,7,,,,,
2740,"<img src=""portrait/WM2.jpg""style=""width:400px;height:400px;""></img>",7,html-button-response,17,185059,0.0-3.0-21.0-0.0,23529,List2B,black,man,,FALSE,7,,,,,
null,CORRECT,,html-keyboard-response,18,186562,0.0-3.0-21.0-1.0-0.0,23529,List2B,black,man,,,,null,,,,
7599,"<img src=""portrait/BW2.jpg""style=""width:400px;height:400px;""></img>",2,html-button-response,19,194162,0.0-3.0-22.0,23529,List2B,black,man,,TRUE,2,,,,,
null,CORRECT,,html-keyboard-response,20,195663,0.0-3.0-23.0-0.0,23529,List2B,black,man,,,,null,,,,
1797,<p>You got 7 out of 8 right first time. Press Continue.</p>,0,html-button-response,21,197463,0.0-3.0-25.0,23529,List2B,black,man,,,,,,,,
2467,"As you did not score 100%, the memory game will repeat. Press Continue.",0,html-button-response,22,200932,0.0-3.0-26.0-0.0,23529,List2B,black,man,,,,,,,,
2746,"<img src='img/portrait_matrix_list2.JPG' style='width:900px;height:500px;''></img><p>If you have memorised all the portraits and names and are ready to start, press Continue.</p><p><strong>Please note: Your memory of these faces will be tested 4 times during this experiment.</strong></p>",0,html-button-response,23,204682,0.0-3.1-0.1,23529,List2B,black,man,,,,,,,,
8623,"<img src=""portrait/WW1.jpg""style=""width:400px;height:400px;""></img>",1,html-button-response,24,214308,0.0-3.1-1.1,23529,List2B,black,man,,TRUE,1,,,,,
null,CORRECT,,html-keyboard-response,25,215810,0.0-3.1-2.1-0.1,23529,List2B,black,man,,,,null,,,,
11371,"<img src=""portrait/BM1.jpg""style=""width:400px;height:400px;""></img>",4,html-button-response,26,227183,0.0-3.1-4.1,23529,List2B,black,man,,TRUE,4,,,,,
null,CORRECT,,html-keyboard-response,27,228686,0.0-3.1-5.1-0.1,23529,List2B,black,man,,,,null,,,,
6393,"<img src=""portrait/WM1.jpg""style=""width:400px;height:400px;""></img>",6,html-button-response,28,235081,0.0-3.1-7.1,23529,List2B,black,man,,TRUE,6,,,,,
null,CORRECT,,html-keyboard-response,29,236583,0.0-3.1-8.1-0.1,23529,List2B,black,man,,,,null,,,,
3313,"<img src=""portrait/WW2.jpg""style=""width:400px;height:400px;""></img>",3,html-button-response,30,239898,0.0-3.1-10.1,23529,List2B,black,man,,TRUE,3,,,,,
null,CORRECT,,html-keyboard-response,31,241400,0.0-3.1-11.1-0.1,23529,List2B,black,man,,,,null,,,,
3898,"<img src=""portrait/BW1.jpg""style=""width:400px;height:400px;""></img>",0,html-button-response,32,245299,0.0-3.1-13.1,23529,List2B,black,man,,TRUE,0,,,,,
null,CORRECT,,html-keyboard-response,33,246801,0.0-3.1-14.1-0.1,23529,List2B,black,man,,,,null,,,,
3193,"<img src=""portrait/BM2.jpg""style=""width:400px;height:400px;""></img>",5,html-button-response,34,249995,0.0-3.1-16.1,23529,List2B,black,man,,TRUE,5,,,,,
null,CORRECT,,html-keyboard-response,35,251497,0.0-3.1-17.1-0.1,23529,List2B,black,man,,,,null,,,,
7792,"<img src=""portrait/WM2.jpg""style=""width:400px;height:400px;""></img>",7,html-button-response,36,259290,0.0-3.1-19.1,23529,List2B,black,man,,TRUE,7,,,,,
null,CORRECT,,html-keyboard-response,37,260792,0.0-3.1-20.1-0.1,23529,List2B,black,man,,,,null,,,,
3194,"<img src=""portrait/BW2.jpg""style=""width:400px;height:400px;""></img>",2,html-button-response,38,263987,0.0-3.1-22.1,23529,List2B,black,man,,TRUE,2,,,,,
null,CORRECT,,html-keyboard-response,39,265490,0.0-3.1-23.1-0.1,23529,List2B,black,man,,,,null,,,,
1291,<p>You got 8 out of 8 right first time. Press Continue.</p>,0,html-button-response,40,266783,0.0-3.1-25.1,23529,List2B,black,man,,,,,,,,
35785,"<p>In this experiment, you will view photographs of the people from the memory game interacting.</p><p>By using the <strong>exact</strong> phrase given <i>after</i> the photograph appears and recalling the correct names of the people in the photographs, form a sentence describing the interaction. You do not need to capitalise names.</p><p>Type your answer in the space provided. Please complete every sentence before moving onto the next trial.</p><p>You will only have a few seconds to memorise each given photograph and phrase before you can respond, so try your best to focus.</p><p>An example is given below. Press 'Continue' when you are ready.</p><img src='img/speaking_example_v2.jpg' style='width:800px;height:460px;''></img>",0,html-button-response,41,303571,0.0-4.0,23529,List2B,black,man,,,,,,,,
2941,"<p>Before the experiment starts, you will watch two example trials. Press 'Continue'.</p>",0,html-button-response,42,307514,0.0-5.0,23529,List2B,black,man,,,,,,,,
null,<img src='img/speaking_WW.gif'></img>,,html-keyboard-response,43,310515,0.0-6.0,23529,List2B,black,man,,,,null,,,,
null,<p>is speaking to</p>,,html-keyboard-response,44,312516,0.0-7.0,23529,List2B,black,man,,,,null,,,,
2852,<p><b>Answer:</b> jane is speaking to ruth</p>,0,html-button-response,45,315370,0.0-8.0,23529,List2B,black,man,,,,,,,,
null,<img src='img/pointing_BM.gif'></img>,,html-keyboard-response,46,318371,0.0-9.0,23529,List2B,black,man,,,,null,,,,
null,<p>are pointing at each other</p>,,html-keyboard-response,47,320375,0.0-10.0,23529,List2B,black,man,,,,null,,,,
3588,<p><b>Answer:</b> fred and mike are pointing at each other</p>,0,html-button-response,48,323963,0.0-11.0,23529,List2B,black,man,,,,,,,,
10708,"<p>Ready to start the experiment?</p><br><p><strong>Remember to describe the picture using a full sentence,</strong></p><p><strong>that combines the names of the people with the given phrase.</strong></p><p><strong>If you do not do this correctly you will not be paid.</strong></p><p><strong> You do not need to capitalise names or use punctuation.</strong></p><br><p>Press 'Continue' to begin.</p>",0,html-button-response,49,335672,0.0-12.0,23529,List2B,black,man,,,,,,,,
null,"<div style=""font-size:60px;"">+</div>",,html-keyboard-response,50,337174,0.0-13.0-0.0,23529,List2B,black,man,,,,null,,,,
null,"<img src=""stim_listB/meet2.gif""</stim_listB>",,html-keyboard-response,51,339176,0.0-13.0-1.0,23529,List2B,black,man,,,,null,,,,
null,are meeting each other,,html-keyboard-response,52,341177,0.0-13.0-2.0,23529,List2B,black,man,,,,null,,,,
9681,,,survey-text,53,350860,0.0-13.0-3.0,23529,List2B,black,man,,,,,"{""Q0"":""Ruth and Luke are shaking hands""}","<img src=""stim_listB/meet2.gif""</stim_listB>",are meeting each other,
null,"<div style=""font-size:60px;"">+</div>",,html-keyboard-response,54,351362,0.0-13.0-0.1,23529,List2B,black,man,,,,null,,,,
null,"<img src=""stim_listB/shout2.gif""</stim_listB>",,html-keyboard-response,55,353364,0.0-13.0-1.1,23529,List2B,black,man,,,,null,,,,
null,are shouting at each other,,html-keyboard-response,56,355365,0.0-13.0-2.1,23529,List2B,black,man,,,,null,,,,
27546,,,survey-text,57,382911,0.0-13.0-3.1,23529,List2B,black,man,,,,,"{""Q0"":""Jane and Dave are shouting with each other.""}","<img src=""stim_listB/shout2.gif""</stim_listB>",are shouting at each other,
null,"<div style=""font-size:60px;"">+</div>",,html-keyboard-response,58,383413,0.0-13.0-0.2,23529,List2B,black,man,,,,null,,,,
null,"<img src=""stim_listB/touch8.gif""</stim_listB>",,html-keyboard-response,59,385416,0.0-13.0-1.2,23529,List2B,black,man,,,,null,,,,
null,are touching each other,,html-keyboard-response,60,387417,0.0-13.0-2.2,23529,List2B,black,man,,,,null,,,,
24318,,,survey-text,61,411738,0.0-13.0-3.2,23529,List2B,black,man,,,,,"{""Q0"":""Jane and Beth are touching each other.""}","<img src=""stim_listB/touch8.gif""</stim_listB>",are touching each other,
null,"<div style=""font-size:60px;"">+</div>",,html-keyboard-response,62,412240,0.0-13.0-0.3,23529,List2B,black,man,,,,null,,,,
null,"<img src=""stim_listB/dance2.gif""</stim_listB>",,html-keyboard-response,63,414242,0.0-13.0-1.3,23529,List2B,black,man,,,,null,,,,
null,are dancing with each other,,html-keyboard-response,64,416243,0.0-13.0-2.3,23529,List2B,black,man,,,,null,,,,
15658,,,survey-text,65,431903,0.0-13.0-3.3,23529,List2B,black,man,,,,,"{""Q0"":""Luke and Ruth are touching each other.""}","<img src=""stim_listB/dance2.gif""</stim_listB>",are dancing with each other,
null,"<div style=""font-size:60px;"">+</div>",,html-keyboard-response,66,432404,0.0-13.0-0.4,23529,List2B,black,man,,,,null,,,,
null,"<img src=""stim_listB/talk8.gif""</stim_listB>",,html-keyboard-response,67,434406,0.0-13.0-1.4,23529,List2B,black,man,,,,null,,,,
null,are talking to each other,,html-keyboard-response,68,436407,0.0-13.0-2.4,23529,List2B,black,man,,,,null,,,,
17146,,,survey-text,69,453554,0.0-13.0-3.4,23529,List2B,black,man,,,,,"{""Q0"":""Beth and Jane are talking with each other.""}","<img src=""stim_listB/talk8.gif""</stim_listB>",are talking to each other,
null,"<div style=""font-size:60px;"">+</div>",,html-keyboard-response,70,454055,0.0-13.0-0.5,23529,List2B,black,man,,,,null,,,,
null,"<img src=""stim_listB/hug6.gif""</stim_listB>",,html-keyboard-response,71,456057,0.0-13.0-1.5,23529,List2B,black,man,,,,null,,,,
null,are hugging each other,,html-keyboard-response,72,458058,0.0-13.0-2.5,23529,List2B,black,man,,,,null,,,,
7947,,,survey-text,73,466007,0.0-13.0-3.5,23529,List2B,black,man,,,,,"{""Q0"":""Mike and Dave are hugging.""}","<img src=""stim_listB/hug6.gif""</stim_listB>",are hugging each other,
null,"<div style=""font-size:60px;"">+</div>",,html-keyboard-response,74,466508,0.0-13.0-0.6,23529,List2B,black,man,,,,null,,,,
null,"<img src=""stim_listB/touch6.gif""</stim_listB>",,html-keyboard-response,75,468510,0.0-13.0-1.6,23529,List2B,black,man,,,,null,,,,
null,are touching each other,,html-keyboard-response,76,470511,0.0-13.0-2.6,23529,List2B,black,man,,,,null,,,,
15758,,,survey-text,77,486270,0.0-13.0-3.6,23529,List2B,black,man,,,,,"{""Q0"":""Fred and Dave are touching each other.""}","<img src=""stim_listB/touch6.gif""</stim_listB>",are touching each other,
null,"<div style=""font-size:60px;"">+</div>",,html-keyboard-response,78,486771,0.0-13.0-0.7,23529,List2B,black,man,,,,null,,,,
null,"<img src=""stim_listB/dance6.gif""</stim_listB>",,html-keyboard-response,79,488772,0.0-13.0-1.7,23529,List2B,black,man,,,,null,,,,
null,are dancing with each other,,html-keyboard-response,80,490773,0.0-13.0-2.7,23529,List2B,black,man,,,,null,,,,
18553,,,survey-text,81,509327,0.0-13.0-3.7,23529,List2B,black,man,,,,,"{""Q0"":""Dave and Fred are dancing together.""}","<img src=""stim_listB/dance6.gif""</stim_listB>",are dancing with each other,
null,"<div style=""font-size:60px;"">+</div>",,html-keyboard-response,82,509828,0.0-13.0-0.8,23529,List2B,black,man,,,,null,,,,
null,"<img src=""stim_listB/fight6.gif""</stim_listB>",,html-keyboard-response,83,511830,0.0-13.0-1.8,23529,List2B,black,man,,,,null,,,,
null,are fighting each other,,html-keyboard-response,84,513831,0.0-13.0-2.8,23529,List2B,black,man,,,,null,,,,
11156,,,survey-text,85,524987,0.0-13.0-3.8,23529,List2B,black,man,,,,,"{""Q0"":""Luke and Fred are fighting.""}","<img src=""stim_listB/fight6.gif""</stim_listB>",are fighting each other,
null,"<div style=""font-size:60px;"">+</div>",,html-keyboard-response,86,525488,0.0-13.0-0.9,23529,List2B,black,man,,,,null,,,,
null,"<img src=""stim_listB/marry7.gif""</stim_listB>",,html-keyboard-response,87,527489,0.0-13.0-1.9,23529,List2B,black,man,,,,null,,,,
null,is marrying,,html-keyboard-response,88,529490,0.0-13.0-2.9,23529,List2B,black,man,,,,null,,,,
16879,,,survey-text,89,546370,0.0-13.0-3.9,23529,List2B,black,man,,,,,"{""Q0"":""Jane is marrying Kate.""}","<img src=""stim_listB/marry7.gif""</stim_listB>",is marrying,
null,"<div style=""font-size:60px;"">+</div>",,html-keyboard-response,90,546871,0.0-13.0-0.10,23529,List2B,black,man,,,,null,,,,
null,"<img src=""stim_listB/argue2.gif""</stim_listB>",,html-keyboard-response,91,548872,0.0-13.0-1.10,23529,List2B,black,man,,,,null,,,,
null,are arguing with each other,,html-keyboard-response,92,550873,0.0-13.0-2.10,23529,List2B,black,man,,,,null,,,,
10818,,,survey-text,93,561692,0.0-13.0-3.10,23529,List2B,black,man,,,,,"{""Q0"":""Luke and Jane are arguing.""}","<img src=""stim_listB/argue2.gif""</stim_listB>",are arguing with each other,
null,"<div style=""font-size:60px;"">+</div>",,html-keyboard-response,94,562193,0.0-13.0-0.11,23529,List2B,black,man,,,,null,,,,
null,"<img src=""stim_listB/fight7.gif""</stim_listB>",,html-keyboard-response,95,564194,0.0-13.0-1.11,23529,List2B,black,man,,,,null,,,,
null,is fighting,,html-keyboard-response,96,566195,0.0-13.0-2.11,23529,List2B,black,man,,,,null,,,,
10427,,,survey-text,97,576624,0.0-13.0-3.11,23529,List2B,black,man,,,,,"{""Q0"":""Kate and Jane are fighting.""}","<img src=""stim_listB/fight7.gif""</stim_listB>",is fighting,
null,"<div style=""font-size:60px;"">+</div>",,html-keyboard-response,98,577125,0.0-13.0-0.12,23529,List2B,black,man,,,,null,,,,
null,"<img src=""stim_listB/touch2.gif""</stim_listB>",,html-keyboard-response,99,579127,0.0-13.0-1.12,23529,List2B,black,man,,,,null,,,,
null,are touching each other,,html-keyboard-response,100,581129,0.0-13.0-2.12,23529,List2B,black,man,,,,null,,,,
6899,,,survey-text,101,588028,0.0-13.0-3.12,23529,List2B,black,man,,,,,"{""Q0"":""Ruth and Luke are touching each other.""}","<img src=""stim_listB/touch2.gif""</stim_listB>",are touching each other,
null,"<div style=""font-size:60px;"">+</div>",,html-keyboard-response,102,588530,0.0-13.0-0.13,23529,List2B,black,man,,,,null,,,,
null,"<img src=""stim_listB/kiss6.gif""</stim_listB>",,html-keyboard-response,103,590533,0.0-13.0-1.13,23529,List2B,black,man,,,,null,,,,
null,are kissing each other,,html-keyboard-response,104,592535,0.0-13.0-2.13,23529,List2B,black,man,,,,null,,,,
18656,,,survey-text,105,611192,0.0-13.0-3.13,23529,List2B,black,man,,,,,"{""Q0"":""Mike and Dave are blowing a kiss.""}","<img src=""stim_listB/kiss6.gif""</stim_listB>",are kissing each other,
null,"<div style=""font-size:60px;"">+</div>",,html-keyboard-response,106,611694,0.0-13.0-0.14,23529,List2B,black,man,,,,null,,,,
null,"<img src=""stim_listB/argue3.gif""</stim_listB>",,html-keyboard-response,107,613697,0.0-13.0-1.14,23529,List2B,black,man,,,,null,,,,
null,is arguing with,,html-keyboard-response,108,615697,0.0-13.0-2.14,23529,List2B,black,man,,,,null,,,,
12768,,,survey-text,109,628467,0.0-13.0-3.14,23529,List2B,black,man,,,,,"{""Q0"":""Mike and Beth are arguing.""}","<img src=""stim_listB/argue3.gif""</stim_listB>",is arguing with,
null,"<div style=""font-size:60px;"">+</div>",,html-keyboard-response,110,628968,0.0-13.0-0.15,23529,List2B,black,man,,,,null,,,,
null,"<img src=""stim_listB/meet4.gif""</stim_listB>",,html-keyboard-response,111,630971,0.0-13.0-1.15,23529,List2B,black,man,,,,null,,,,
null,are meeting each other,,html-keyboard-response,112,632972,0.0-13.0-2.15,23529,List2B,black,man,,,,null,,,,
11400,,,survey-text,113,644374,0.0-13.0-3.15,23529,List2B,black,man,,,,,"{""Q0"":""Fred and Beth are meeting.""}","<img src=""stim_listB/meet4.gif""</stim_listB>",are meeting each other,
null,"<div style=""font-size:60px;"">+</div>",,html-keyboard-response,114,644875,0.0-13.0-0.16,23529,List2B,black,man,,,,null,,,,
null,"<img src=""stim_listB/fight1.gif""</stim_listB>",,html-keyboard-response,115,646877,0.0-13.0-1.16,23529,List2B,black,man,,,,null,,,,
null,is fighting,,html-keyboard-response,116,648877,0.0-13.0-2.16,23529,List2B,black,man,,,,null,,,,
11563,,,survey-text,117,660442,0.0-13.0-3.16,23529,List2B,black,man,,,,,"{""Q0"":""Jane is fighting Dave.""}","<img src=""stim_listB/fight1.gif""</stim_listB>",is fighting,
null,"<div style=""font-size:60px;"">+</div>",,html-keyboard-response,118,660943,0.0-13.0-0.17,23529,List2B,black,man,,,,null,,,,
null,"<img src=""stim_listB/fight4.gif""</stim_listB>",,html-keyboard-response,119,662945,0.0-13.0-1.17,23529,List2B,black,man,,,,null,,,,
null,are fighting each other,,html-keyboard-response,120,664946,0.0-13.0-2.17,23529,List2B,black,man,,,,null,,,,
8725,,,survey-text,121,673671,0.0-13.0-3.17,23529,List2B,black,man,,,,,"{""Q0"":""Fred and Beth are fighting.""}","<img src=""stim_listB/fight4.gif""</stim_listB>",are fighting each other,
null,"<div style=""font-size:60px;"">+</div>",,html-keyboard-response,122,674173,0.0-13.0-0.18,23529,List2B,black,man,,,,null,,,,
null,"<img src=""stim_listB/hug5.gif""</stim_listB>",,html-keyboard-response,123,676174,0.0-13.0-1.18,23529,List2B,black,man,,,,null,,,,
null,is hugging,,html-keyboard-response,124,678175,0.0-13.0-2.18,23529,List2B,black,man,,,,null,,,,
8021,,,survey-text,125,686197,0.0-13.0-3.18,23529,List2B,black,man,,,,,"{""Q0"":""Luke is hugging Fred.""}","<img src=""stim_listB/hug5.gif""</stim_listB>",is hugging,
null,"<div style=""font-size:60px;"">+</div>",,html-keyboard-response,126,686699,0.0-13.0-0.19,23529,List2B,black,man,,,,null,,,,
null,"<img src=""stim_listB/talk1.gif""</stim_listB>",,html-keyboard-response,127,688701,0.0-13.0-1.19,23529,List2B,black,man,,,,null,,,,
null,is talking to,,html-keyboard-response,128,690704,0.0-13.0-2.19,23529,List2B,black,man,,,,null,,,,
4618,,,survey-text,129,695323,0.0-13.0-3.19,23529,List2B,black,man,,,,,"{""Q0"":""Luke is talking to Jane""}","<img src=""stim_listB/talk1.gif""</stim_listB>",is talking to,
7290,"<img src='img/portrait_matrix_list2.JPG' style='width:900px;height:500px;''></img><p>If you have memorised all the portraits and names and are ready to start, press Continue.</p><p><strong>Please note: Your memory of these faces will be tested 4 times during this experiment.</strong></p>",0,html-button-response,130,702615,0.0-14.0-0.0,23529,List2B,black,man,,,,,,,,
6432,"<img src=""portrait/WM1.jpg""style=""width:400px;height:400px;""></img>",6,html-button-response,131,710049,0.0-14.0-1.0,23529,List2B,black,man,,TRUE,6,,,,,
null,CORRECT,,html-keyboard-response,132,711551,0.0-14.0-2.0-0.0,23529,List2B,black,man,,,,null,,,,
4393,"<img src=""portrait/WM2.jpg""style=""width:400px;height:400px;""></img>",7,html-button-response,133,715944,0.0-14.0-4.0,23529,List2B,black,man,,TRUE,7,,,,,
null,CORRECT,,html-keyboard-response,134,717447,0.0-14.0-5.0-0.0,23529,List2B,black,man,,,,null,,,,
1825,"<img src=""portrait/BM2.jpg""style=""width:400px;height:400px;""></img>",5,html-button-response,135,719273,0.0-14.0-7.0,23529,List2B,black,man,,TRUE,5,,,,,
null,CORRECT,,html-keyboard-response,136,720775,0.0-14.0-8.0-0.0,23529,List2B,black,man,,,,null,,,,
10075,"<img src=""portrait/WW1.jpg""style=""width:400px;height:400px;""></img>",1,html-button-response,137,730852,0.0-14.0-10.0,23529,List2B,black,man,,TRUE,1,,,,,
null,CORRECT,,html-keyboard-response,138,732354,0.0-14.0-11.0-0.0,23529,List2B,black,man,,,,null,,,,
2318,"<img src=""portrait/BM1.jpg""style=""width:400px;height:400px;""></img>",4,html-button-response,139,734674,0.0-14.0-13.0,23529,List2B,black,man,,TRUE,4,,,,,
null,CORRECT,,html-keyboard-response,140,736176,0.0-14.0-14.0-0.0,23529,List2B,black,man,,,,null,,,,
2601,"<img src=""portrait/BW2.jpg""style=""width:400px;height:400px;""></img>",2,html-button-response,141,738779,0.0-14.0-16.0,23529,List2B,black,man,,TRUE,2,,,,,
null,CORRECT,,html-keyboard-response,142,740280,0.0-14.0-17.0-0.0,23529,List2B,black,man,,,,null,,,,
2020,"<img src=""portrait/BW1.jpg""style=""width:400px;height:400px;""></img>",0,html-button-response,143,742302,0.0-14.0-19.0,23529,List2B,black,man,,TRUE,0,,,,,
null,CORRECT,,html-keyboard-response,144,743806,0.0-14.0-20.0-0.0,23529,List2B,black,man,,,,null,,,,
2265,"<img src=""portrait/WW2.jpg""style=""width:400px;height:400px;""></img>",3,html-button-response,145,746073,0.0-14.0-22.0,23529,List2B,black,man,,TRUE,3,,,,,
null,CORRECT,,html-keyboard-response,146,747575,0.0-14.0-23.0-0.0,23529,List2B,black,man,,,,null,,,,
1103,<p>You got 8 out of 8 right first time. Press Continue.</p>,0,html-button-response,147,748680,0.0-14.0-25.0,23529,List2B,black,man,,,,,,,,
null,"<div style=""font-size:60px;"">+</div>",,html-keyboard-response,148,750182,0.0-15.0-0.0,23529,List2B,black,man,,,,null,,,,
null,"<img src=""stim_listB/kiss3.gif""</stim_listB>",,html-keyboard-response,149,752184,0.0-15.0-1.0,23529,List2B,black,man,,,,null,,,,
null,is kissing,,html-keyboard-response,150,754185,0.0-15.0-2.0,23529,List2B,black,man,,,,null,,,,
5116,,,survey-text,151,759301,0.0-15.0-3.0,23529,List2B,black,man,,,,,"{""Q0"":""Kate is kissing Fred.""}","<img src=""stim_listB/kiss3.gif""</stim_listB>",is kissing,
null,"<div style=""font-size:60px;"">+</div>",,html-keyboard-response,152,759802,0.0-15.0-0.1,23529,List2B,black,man,,,,null,,,,
null,"<img src=""stim_listB/kiss7.gif""</stim_listB>",,html-keyboard-response,153,761803,0.0-15.0-1.1,23529,List2B,black,man,,,,null,,,,
null,is kissing,,html-keyboard-response,154,763804,0.0-15.0-2.1,23529,List2B,black,man,,,,null,,,,
11072,,,survey-text,155,774877,0.0-15.0-3.1,23529,List2B,black,man,,,,,"{""Q0"":""Beth is kissing Ruth.""}","<img src=""stim_listB/kiss7.gif""</stim_listB>",is kissing,
null,"<div style=""font-size:60px;"">+</div>",,html-keyboard-response,156,775378,0.0-15.0-0.2,23529,List2B,black,man,,,,null,,,,
null,"<img src=""stim_listB/hug2.gif""</stim_listB>",,html-keyboard-response,157,777379,0.0-15.0-1.2,23529,List2B,black,man,,,,null,,,,
null,are hugging each other,,html-keyboard-response,158,779381,0.0-15.0-2.2,23529,List2B,black,man,,,,null,,,,
9156,,,survey-text,159,788537,0.0-15.0-3.2,23529,List2B,black,man,,,,,"{""Q0"":""Jane and Dave are hugging each other.""}","<img src=""stim_listB/hug2.gif""</stim_listB>",are hugging each other,
null,"<div style=""font-size:60px;"">+</div>",,html-keyboard-response,160,789038,0.0-15.0-0.3,23529,List2B,black,man,,,,null,,,,
null,"<img src=""stim_listB/meet8.gif""</stim_listB>",,html-keyboard-response,161,791039,0.0-15.0-1.3,23529,List2B,black,man,,,,null,,,,
null,are meeting each other,,html-keyboard-response,162,793040,0.0-15.0-2.3,23529,List2B,black,man,,,,null,,,,
6364,,,survey-text,163,799404,0.0-15.0-3.3,23529,List2B,black,man,,,,,"{""Q0"":""Ruth and Beth are meeting each other.""}","<img src=""stim_listB/meet8.gif""</stim_listB>",are meeting each other,
null,"<div style=""font-size:60px;"">+</div>",,html-keyboard-response,164,799905,0.0-15.0-0.4,23529,List2B,black,man,,,,null,,,,
null,"<img src=""stim_listB/argue5.gif""</stim_listB>",,html-keyboard-response,165,801907,0.0-15.0-1.4,23529,List2B,black,man,,,,null,,,,
null,is arguing with,,html-keyboard-response,166,803908,0.0-15.0-2.4,23529,List2B,black,man,,,,null,,,,
5937,,,survey-text,167,809847,0.0-15.0-3.4,23529,List2B,black,man,,,,,"{""Q0"":""Dave is arguing with Fred.""}","<img src=""stim_listB/argue5.gif""</stim_listB>",is arguing with,
null,"<div style=""font-size:60px;"">+</div>",,html-keyboard-response,168,810348,0.0-15.0-0.5,23529,List2B,black,man,,,,null,,,,
null,"<img src=""stim_listB/kiss8.gif""</stim_listB>",,html-keyboard-response,169,812352,0.0-15.0-1.5,23529,List2B,black,man,,,,null,,,,
null,are kissing each other,,html-keyboard-response,170,814353,0.0-15.0-2.5,23529,List2B,black,man,,,,null,,,,
14873,,,survey-text,171,829226,0.0-15.0-3.5,23529,List2B,black,man,,,,,"{""Q0"":""Ruth and Kate are kissing.""}","<img src=""stim_listB/kiss8.gif""</stim_listB>",are kissing each other,
null,"<div style=""font-size:60px;"">+</div>",,html-keyboard-response,172,829727,0.0-15.0-0.6,23529,List2B,black,man,,,,null,,,,
null,"<img src=""stim_listB/argue8.gif""</stim_listB>",,html-keyboard-response,173,831729,0.0-15.0-1.6,23529,List2B,black,man,,,,null,,,,
null,are arguing with each other,,html-keyboard-response,174,833731,0.0-15.0-2.6,23529,List2B,black,man,,,,null,,,,
8503,,,survey-text,175,842234,0.0-15.0-3.6,23529,List2B,black,man,,,,,"{""Q0"":""Ruth and Beth are arguing with each other.""}","<img src=""stim_listB/argue8.gif""</stim_listB>",are arguing with each other,
null,"<div style=""font-size:60px;"">+</div>",,html-keyboard-response,176,842736,0.0-15.0-0.7,23529,List2B,black,man,,,,null,,,,
null,"<img src=""stim_listB/touch3.gif""</stim_listB>",,html-keyboard-response,177,844738,0.0-15.0-1.7,23529,List2B,black,man,,,,null,,,,
null,is touching,,html-keyboard-response,178,846739,0.0-15.0-2.7,23529,List2B,black,man,,,,null,,,,
4367,,,survey-text,179,851106,0.0-15.0-3.7,23529,List2B,black,man,,,,,"{""Q0"":""Mike is touching Kate.""}","<img src=""stim_listB/touch3.gif""</stim_listB>",is touching,
null,"<div style=""font-size:60px;"">+</div>",,html-keyboard-response,180,851607,0.0-15.0-0.8,23529,List2B,black,man,,,,null,,,,
null,"<img src=""stim_listB/talk5.gif""</stim_listB>",,html-keyboard-response,181,853609,0.0-15.0-1.8,23529,List2B,black,man,,,,null,,,,
null,is talking to,,html-keyboard-response,182,855610,0.0-15.0-2.8,23529,List2B,black,man,,,,null,,,,
4357,,,survey-text,183,859969,0.0-15.0-3.8,23529,List2B,black,man,,,,,"{""Q0"":""Mike is talking to Luke""}","<img src=""stim_listB/talk5.gif""</stim_listB>",is talking to,
null,"<div style=""font-size:60px;"">+</div>",,html-keyboard-response,184,860469,0.0-15.0-0.9,23529,List2B,black,man,,,,null,,,,
null,"<img src=""stim_listB/meet1.gif""</stim_listB>",,html-keyboard-response,185,862471,0.0-15.0-1.9,23529,List2B,black,man,,,,null,,,,
null,is meeting,,html-keyboard-response,186,864472,0.0-15.0-2.9,23529,List2B,black,man,,,,null,,,,
5092,,,survey-text,187,869566,0.0-15.0-3.9,23529,List2B,black,man,,,,,"{""Q0"":""Jane is meeting Dave.""}","<img src=""stim_listB/meet1.gif""</stim_listB>",is meeting,
null,"<div style=""font-size:60px;"">+</div>",,html-keyboard-response,188,870067,0.0-15.0-0.10,23529,List2B,black,man,,,,null,,,,
null,"<img src=""stim_listB/hug4.gif""</stim_listB>",,html-keyboard-response,189,872070,0.0-15.0-1.10,23529,List2B,black,man,,,,null,,,,
null,are hugging each other,,html-keyboard-response,190,874072,0.0-15.0-2.10,23529,List2B,black,man,,,,null,,,,
7435,,,survey-text,191,881508,0.0-15.0-3.10,23529,List2B,black,man,,,,,"{""Q0"":""Mike and Beth are hugging each other.""}","<img src=""stim_listB/hug4.gif""</stim_listB>",are hugging each other,
null,"<div style=""font-size:60px;"">+</div>",,html-keyboard-response,192,882009,0.0-15.0-0.11,23529,List2B,black,man,,,,null,,,,
null,"<img src=""stim_listB/marry3.gif""</stim_listB>",,html-keyboard-response,193,884010,0.0-15.0-1.11,23529,List2B,black,man,,,,null,,,,
null,is marrying,,html-keyboard-response,194,886012,0.0-15.0-2.11,23529,List2B,black,man,,,,null,,,,
9146,,,survey-text,195,895159,0.0-15.0-3.11,23529,List2B,black,man,,,,,"{""Q0"":""Mike is marrying Beth.""}","<img src=""stim_listB/marry3.gif""</stim_listB>",is marrying,
null,"<div style=""font-size:60px;"">+</div>",,html-keyboard-response,196,895660,0.0-15.0-0.12,23529,List2B,black,man,,,,null,,,,
null,"<img src=""stim_listB/talk6.gif""</stim_listB>",,html-keyboard-response,197,897662,0.0-15.0-1.12,23529,List2B,black,man,,,,null,,,,
null,are talking to each other,,html-keyboard-response,198,899663,0.0-15.0-2.12,23529,List2B,black,man,,,,null,,,,
7325,,,survey-text,199,906988,0.0-15.0-3.12,23529,List2B,black,man,,,,,"{""Q0"":""Dave and Fred are talking to each other.""}","<img src=""stim_listB/talk6.gif""</stim_listB>",are talking to each other,
null,"<div style=""font-size:60px;"">+</div>",,html-keyboard-response,200,907489,0.0-15.0-0.13,23529,List2B,black,man,,,,null,,,,
null,"<img src=""stim_listB/marry8.gif""</stim_listB>",,html-keyboard-response,201,909490,0.0-15.0-1.13,23529,List2B,black,man,,,,null,,,,
null,are marrying each other,,html-keyboard-response,202,911491,0.0-15.0-2.13,23529,List2B,black,man,,,,null,,,,
14070,,,survey-text,203,925562,0.0-15.0-3.13,23529,List2B,black,man,,,,,"{""Q0"":""Ruth and Beth are marrying each other.""}","<img src=""stim_listB/marry8.gif""</stim_listB>",are marrying each other,
null,"<div style=""font-size:60px;"">+</div>",,html-keyboard-response,204,926064,0.0-15.0-0.14,23529,List2B,black,man,,,,null,,,,
null,"<img src=""stim_listB/touch5.gif""</stim_listB>",,html-keyboard-response,205,928065,0.0-15.0-1.14,23529,List2B,black,man,,,,null,,,,
null,is touching,,html-keyboard-response,206,930066,0.0-15.0-2.14,23529,List2B,black,man,,,,null,,,,
8596,,,survey-text,207,938663,0.0-15.0-3.14,23529,List2B,black,man,,,,,"{""Q0"":""Mike is touching Dave.""}","<img src=""stim_listB/touch5.gif""</stim_listB>",is touching,
null,"<div style=""font-size:60px;"">+</div>",,html-keyboard-response,208,939164,0.0-15.0-0.15,23529,List2B,black,man,,,,null,,,,
null,"<img src=""stim_listB/meet3.gif""</stim_listB>",,html-keyboard-response,209,941166,0.0-15.0-1.15,23529,List2B,black,man,,,,null,,,,
null,is meeting,,html-keyboard-response,210,943167,0.0-15.0-2.15,23529,List2B,black,man,,,,null,,,,
5662,,,survey-text,211,948831,0.0-15.0-3.15,23529,List2B,black,man,,,,,"{""Q0"":""Mike is meeting Beth.""}","<img src=""stim_listB/meet3.gif""</stim_listB>",is meeting,
null,"<div style=""font-size:60px;"">+</div>",,html-keyboard-response,212,949332,0.0-15.0-0.16,23529,List2B,black,man,,,,null,,,,
null,"<img src=""stim_listB/fight5.gif""</stim_listB>",,html-keyboard-response,213,951335,0.0-15.0-1.16,23529,List2B,black,man,,,,null,,,,
null,is fighting,,html-keyboard-response,214,953336,0.0-15.0-2.16,23529,List2B,black,man,,,,null,,,,
4818,,,survey-text,215,958155,0.0-15.0-3.16,23529,List2B,black,man,,,,,"{""Q0"":""Dave is fighting Mike.""}","<img src=""stim_listB/fight5.gif""</stim_listB>",is fighting,
null,"<div style=""font-size:60px;"">+</div>",,html-keyboard-response,216,958656,0.0-15.0-0.17,23529,List2B,black,man,,,,null,,,,
null,"<img src=""stim_listB/shout5.gif""</stim_listB>",,html-keyboard-response,217,960657,0.0-15.0-1.17,23529,List2B,black,man,,,,null,,,,
null,is shouting at,,html-keyboard-response,218,962658,0.0-15.0-2.17,23529,List2B,black,man,,,,null,,,,
5013,,,survey-text,219,967672,0.0-15.0-3.17,23529,List2B,black,man,,,,,"{""Q0"":""Luke is shouting at Fred.""}","<img src=""stim_listB/shout5.gif""</stim_listB>",is shouting at,
null,"<div style=""font-size:60px;"">+</div>",,html-keyboard-response,220,968174,0.0-15.0-0.18,23529,List2B,black,man,,,,null,,,,
null,"<img src=""stim_listB/shout3.gif""</stim_listB>",,html-keyboard-response,221,970176,0.0-15.0-1.18,23529,List2B,black,man,,,,null,,,,
null,is shouting at,,html-keyboard-response,222,972177,0.0-15.0-2.18,23529,List2B,black,man,,,,null,,,,
8744,,,survey-text,223,980922,0.0-15.0-3.18,23529,List2B,black,man,,,,,"{""Q0"":""Fred is shouting at Beth.""}","<img src=""stim_listB/shout3.gif""</stim_listB>",is shouting at,
null,"<div style=""font-size:60px;"">+</div>",,html-keyboard-response,224,981423,0.0-15.0-0.19,23529,List2B,black,man,,,,null,,,,
null,"<img src=""stim_listB/dance8.gif""</stim_listB>",,html-keyboard-response,225,983426,0.0-15.0-1.19,23529,List2B,black,man,,,,null,,,,
null,are dancing with each other,,html-keyboard-response,226,985426,0.0-15.0-2.19,23529,List2B,black,man,,,,null,,,,
7087,,,survey-text,227,992514,0.0-15.0-3.19,23529,List2B,black,man,,,,,"{""Q0"":""Jane and Beth are dancing.""}","<img src=""stim_listB/dance8.gif""</stim_listB>",are dancing with each other,
4414,"<img src='img/portrait_matrix_list2.JPG' style='width:900px;height:500px;''></img><p>If you have memorised all the portraits and names and are ready to start, press Continue.</p><p><strong>Please note: Your memory of these faces will be tested 4 times during this experiment.</strong></p>",0,html-button-response,228,996929,0.0-16.0-0.0,23529,List2B,black,man,,,,,,,,
6322,"<img src=""portrait/BW2.jpg""style=""width:400px;height:400px;""></img>",2,html-button-response,229,1004254,0.0-16.0-1.0,23529,List2B,black,man,,TRUE,2,,,,,
null,CORRECT,,html-keyboard-response,230,1005756,0.0-16.0-2.0-0.0,23529,List2B,black,man,,,,null,,,,
2751,"<img src=""portrait/WW2.jpg""style=""width:400px;height:400px;""></img>",3,html-button-response,231,1008509,0.0-16.0-4.0,23529,List2B,black,man,,TRUE,3,,,,,
null,CORRECT,,html-keyboard-response,232,1010011,0.0-16.0-5.0-0.0,23529,List2B,black,man,,,,null,,,,
2109,"<img src=""portrait/BW1.jpg""style=""width:400px;height:400px;""></img>",0,html-button-response,233,1012122,0.0-16.0-7.0,23529,List2B,black,man,,TRUE,0,,,,,
null,CORRECT,,html-keyboard-response,234,1013624,0.0-16.0-8.0-0.0,23529,List2B,black,man,,,,null,,,,
6029,"<img src=""portrait/WM2.jpg""style=""width:400px;height:400px;""></img>",7,html-button-response,235,1019655,0.0-16.0-10.0,23529,List2B,black,man,,TRUE,7,,,,,
null,CORRECT,,html-keyboard-response,236,1021157,0.0-16.0-11.0-0.0,23529,List2B,black,man,,,,null,,,,
1192,"<img src=""portrait/WM1.jpg""style=""width:400px;height:400px;""></img>",6,html-button-response,237,1022351,0.0-16.0-13.0,23529,List2B,black,man,,TRUE,6,,,,,
null,CORRECT,,html-keyboard-response,238,1023854,0.0-16.0-14.0-0.0,23529,List2B,black,man,,,,null,,,,
1492,"<img src=""portrait/BM1.jpg""style=""width:400px;height:400px;""></img>",4,html-button-response,239,1025348,0.0-16.0-16.0,23529,List2B,black,man,,TRUE,4,,,,,
null,CORRECT,,html-keyboard-response,240,1026850,0.0-16.0-17.0-0.0,23529,List2B,black,man,,,,null,,,,
3999,"<img src=""portrait/BM2.jpg""style=""width:400px;height:400px;""></img>",5,html-button-response,241,1030850,0.0-16.0-19.0,23529,List2B,black,man,,TRUE,5,,,,,
null,CORRECT,,html-keyboard-response,242,1032352,0.0-16.0-20.0-0.0,23529,List2B,black,man,,,,null,,,,
3927,"<img src=""portrait/WW1.jpg""style=""width:400px;height:400px;""></img>",1,html-button-response,243,1036281,0.0-16.0-22.0,23529,List2B,black,man,,TRUE,1,,,,,
null,CORRECT,,html-keyboard-response,244,1037783,0.0-16.0-23.0-0.0,23529,List2B,black,man,,,,null,,,,
891,<p>You got 8 out of 8 right first time. Press Continue.</p>,0,html-button-response,245,1038675,0.0-16.0-25.0,23529,List2B,black,man,,,,,,,,
null,"<div style=""font-size:60px;"">+</div>",,html-keyboard-response,246,1040177,0.0-17.0-0.0,23529,List2B,black,man,,,,null,,,,
null,"<img src=""stim_listB/dance5.gif""</stim_listB>",,html-keyboard-response,247,1042178,0.0-17.0-1.0,23529,List2B,black,man,,,,null,,,,
null,is dancing with,,html-keyboard-response,248,1044180,0.0-17.0-2.0,23529,List2B,black,man,,,,null,,,,
5430,,,survey-text,249,1049611,0.0-17.0-3.0,23529,List2B,black,man,,,,,"{""Q0"":""Mike is dancing with Luke.""}","<img src=""stim_listB/dance5.gif""</stim_listB>",is dancing with,
null,"<div style=""font-size:60px;"">+</div>",,html-keyboard-response,250,1050112,0.0-17.0-0.1,23529,List2B,black,man,,,,null,,,,
null,"<img src=""stim_listB/talk7.gif""</stim_listB>",,html-keyboard-response,251,1052114,0.0-17.0-1.1,23529,List2B,black,man,,,,null,,,,
null,is talking to,,html-keyboard-response,252,1054117,0.0-17.0-2.1,23529,List2B,black,man,,,,null,,,,
8955,,,survey-text,253,1063073,0.0-17.0-3.1,23529,List2B,black,man,,,,,"{""Q0"":""Ruth is talking to Kate.""}","<img src=""stim_listB/talk7.gif""</stim_listB>",is talking to,
null,"<div style=""font-size:60px;"">+</div>",,html-keyboard-response,254,1063574,0.0-17.0-0.2,23529,List2B,black,man,,,,null,,,,
null,"<img src=""stim_listB/fight3.gif""</stim_listB>",,html-keyboard-response,255,1065575,0.0-17.0-1.2,23529,List2B,black,man,,,,null,,,,
null,is fighting,,html-keyboard-response,256,1067576,0.0-17.0-2.2,23529,List2B,black,man,,,,null,,,,
4138,,,survey-text,257,1071716,0.0-17.0-3.2,23529,List2B,black,man,,,,,"{""Q0"":""Kate is fighting Mike.""}","<img src=""stim_listB/fight3.gif""</stim_listB>",is fighting,
null,"<div style=""font-size:60px;"">+</div>",,html-keyboard-response,258,1072217,0.0-17.0-0.3,23529,List2B,black,man,,,,null,,,,
null,"<img src=""stim_listB/touch1.gif""</stim_listB>",,html-keyboard-response,259,1074218,0.0-17.0-1.3,23529,List2B,black,man,,,,null,,,,
null,is touching,,html-keyboard-response,260,1076219,0.0-17.0-2.3,23529,List2B,black,man,,,,null,,,,
5877,,,survey-text,261,1082098,0.0-17.0-3.3,23529,List2B,black,man,,,,,"{""Q0"":""Jane is touching Dave.""}","<img src=""stim_listB/touch1.gif""</stim_listB>",is touching,
null,"<div style=""font-size:60px;"">+</div>",,html-keyboard-response,262,1082599,0.0-17.0-0.4,23529,List2B,black,man,,,,null,,,,
null,"<img src=""stim_listB/dance7.gif""</stim_listB>",,html-keyboard-response,263,1084600,0.0-17.0-1.4,23529,List2B,black,man,,,,null,,,,
null,is dancing with,,html-keyboard-response,264,1086601,0.0-17.0-2.4,23529,List2B,black,man,,,,null,,,,
4821,,,survey-text,265,1091422,0.0-17.0-3.4,23529,List2B,black,man,,,,,"{""Q0"":""Kate is dancing with Ruth.""}","<img src=""stim_listB/dance7.gif""</stim_listB>",is dancing with,
null,"<div style=""font-size:60px;"">+</div>",,html-keyboard-response,266,1091923,0.0-17.0-0.5,23529,List2B,black,man,,,,null,,,,
null,"<img src=""stim_listB/kiss2.gif""</stim_listB>",,html-keyboard-response,267,1093925,0.0-17.0-1.5,23529,List2B,black,man,,,,null,,,,
null,are kissing each other,,html-keyboard-response,268,1095926,0.0-17.0-2.5,23529,List2B,black,man,,,,null,,,,
10163,,,survey-text,269,1106089,0.0-17.0-3.5,23529,List2B,black,man,,,,,"{""Q0"":""Dave and Jane are kissing each other.""}","<img src=""stim_listB/kiss2.gif""</stim_listB>",are kissing each other,
null,"<div style=""font-size:60px;"">+</div>",,html-keyboard-response,270,1106591,0.0-17.0-0.6,23529,List2B,black,man,,,,null,,,,
null,"<img src=""stim_listB/hug7.gif""</stim_listB>",,html-keyboard-response,271,1108593,0.0-17.0-1.6,23529,List2B,black,man,,,,null,,,,
null,is hugging,,html-keyboard-response,272,1110594,0.0-17.0-2.6,23529,List2B,black,man,,,,null,,,,
7977,,,survey-text,273,1118572,0.0-17.0-3.6,23529,List2B,black,man,,,,,"{""Q0"":""Beth is hugging Ruth.""}","<img src=""stim_listB/hug7.gif""</stim_listB>",is hugging,
null,"<div style=""font-size:60px;"">+</div>",,html-keyboard-response,274,1119073,0.0-17.0-0.7,23529,List2B,black,man,,,,null,,,,
null,"<img src=""stim_listB/argue1.gif""</stim_listB>",,html-keyboard-response,275,1121074,0.0-17.0-1.7,23529,List2B,black,man,,,,null,,,,
null,is arguing with,,html-keyboard-response,276,1123075,0.0-17.0-2.7,23529,List2B,black,man,,,,null,,,,
5565,,,survey-text,277,1128642,0.0-17.0-3.7,23529,List2B,black,man,,,,,"{""Q0"":""Dave is arguing with Ruth.""}","<img src=""stim_listB/argue1.gif""</stim_listB>",is arguing with,
null,"<div style=""font-size:60px;"">+</div>",,html-keyboard-response,278,1129144,0.0-17.0-0.8,23529,List2B,black,man,,,,null,,,,
null,"<img src=""stim_listB/marry4.gif""</stim_listB>",,html-keyboard-response,279,1131146,0.0-17.0-1.8,23529,List2B,black,man,,,,null,,,,
null,are marrying each other,,html-keyboard-response,280,1133147,0.0-17.0-2.8,23529,List2B,black,man,,,,null,,,,
6007,,,survey-text,281,1139154,0.0-17.0-3.8,23529,List2B,black,man,,,,,"{""Q0"":""Fred and Kate are marrying each other.""}","<img src=""stim_listB/marry4.gif""</stim_listB>",are marrying each other,
null,"<div style=""font-size:60px;"">+</div>",,html-keyboard-response,282,1139656,0.0-17.0-0.9,23529,List2B,black,man,,,,null,,,,
null,"<img src=""stim_listB/argue7.gif""</stim_listB>",,html-keyboard-response,283,1141658,0.0-17.0-1.9,23529,List2B,black,man,,,,null,,,,
null,is arguing with,,html-keyboard-response,284,1143660,0.0-17.0-2.9,23529,List2B,black,man,,,,null,,,,
5069,,,survey-text,285,1148729,0.0-17.0-3.9,23529,List2B,black,man,,,,,"{""Q0"":""Beth is arguing with Jane.""}","<img src=""stim_listB/argue7.gif""</stim_listB>",is arguing with,
null,"<div style=""font-size:60px;"">+</div>",,html-keyboard-response,286,1149230,0.0-17.0-0.10,23529,List2B,black,man,,,,null,,,,
null,"<img src=""stim_listB/touch4.gif""</stim_listB>",,html-keyboard-response,287,1151231,0.0-17.0-1.10,23529,List2B,black,man,,,,null,,,,
null,are touching each other,,html-keyboard-response,288,1153232,0.0-17.0-2.10,23529,List2B,black,man,,,,null,,,,
7395,,,survey-text,289,1160629,0.0-17.0-3.10,23529,List2B,black,man,,,,,"{""Q0"":""Fred and Beth are touching each other.""}","<img src=""stim_listB/touch4.gif""</stim_listB>",are touching each other,
null,"<div style=""font-size:60px;"">+</div>",,html-keyboard-response,290,1161131,0.0-17.0-0.11,23529,List2B,black,man,,,,null,,,,
null,"<img src=""stim_listB/dance3.gif""</stim_listB>",,html-keyboard-response,291,1163133,0.0-17.0-1.11,23529,List2B,black,man,,,,null,,,,
null,is dancing with,,html-keyboard-response,292,1165134,0.0-17.0-2.11,23529,List2B,black,man,,,,null,,,,
5140,,,survey-text,293,1170274,0.0-17.0-3.11,23529,List2B,black,man,,,,,"{""Q0"":""Kate is dancing with Fred.""}","<img src=""stim_listB/dance3.gif""</stim_listB>",is dancing with,
null,"<div style=""font-size:60px;"">+</div>",,html-keyboard-response,294,1170776,0.0-17.0-0.12,23529,List2B,black,man,,,,null,,,,
null,"<img src=""stim_listB/shout6.gif""</stim_listB>",,html-keyboard-response,295,1172778,0.0-17.0-1.12,23529,List2B,black,man,,,,null,,,,
null,are shouting at each other,,html-keyboard-response,296,1174781,0.0-17.0-2.12,23529,List2B,black,man,,,,null,,,,
7275,,,survey-text,297,1182056,0.0-17.0-3.12,23529,List2B,black,man,,,,,"{""Q0"":""Mike and Dave are shouting at each other.""}","<img src=""stim_listB/shout6.gif""</stim_listB>",are shouting at each other,
null,"<div style=""font-size:60px;"">+</div>",,html-keyboard-response,298,1182558,0.0-17.0-0.13,23529,List2B,black,man,,,,null,,,,
null,"<img src=""stim_listB/talk3.gif""</stim_listB>",,html-keyboard-response,299,1184560,0.0-17.0-1.13,23529,List2B,black,man,,,,null,,,,
null,is talking to,,html-keyboard-response,300,1186561,0.0-17.0-2.13,23529,List2B,black,man,,,,null,,,,
6128,,,survey-text,301,1192690,0.0-17.0-3.13,23529,List2B,black,man,,,,,"{""Q0"":""Kate is talking to Fred.""}","<img src=""stim_listB/talk3.gif""</stim_listB>",is talking to,
null,"<div style=""font-size:60px;"">+</div>",,html-keyboard-response,302,1193191,0.0-17.0-0.14,23529,List2B,black,man,,,,null,,,,
null,"<img src=""stim_listB/kiss5.gif""</stim_listB>",,html-keyboard-response,303,1195194,0.0-17.0-1.14,23529,List2B,black,man,,,,null,,,,
null,is kissing,,html-keyboard-response,304,1197195,0.0-17.0-2.14,23529,List2B,black,man,,,,null,,,,
4195,,,survey-text,305,1201392,0.0-17.0-3.14,23529,List2B,black,man,,,,,"{""Q0"":""Fred is kissing Luke.""}","<img src=""stim_listB/kiss5.gif""</stim_listB>",is kissing,
null,"<div style=""font-size:60px;"">+</div>",,html-keyboard-response,306,1201893,0.0-17.0-0.15,23529,List2B,black,man,,,,null,,,,
null,"<img src=""stim_listB/argue6.gif""</stim_listB>",,html-keyboard-response,307,1203895,0.0-17.0-1.15,23529,List2B,black,man,,,,null,,,,
null,are arguing with each other,,html-keyboard-response,308,1205896,0.0-17.0-2.15,23529,List2B,black,man,,,,null,,,,
6360,,,survey-text,309,1212257,0.0-17.0-3.15,23529,List2B,black,man,,,,,"{""Q0"":""Luke and Mike are arguing with each other.""}","<img src=""stim_listB/argue6.gif""</stim_listB>",are arguing with each other,
null,"<div style=""font-size:60px;"">+</div>",,html-keyboard-response,310,1212759,0.0-17.0-0.16,23529,List2B,black,man,,,,null,,,,
null,"<img src=""stim_listB/dance1.gif""</stim_listB>",,html-keyboard-response,311,1214761,0.0-17.0-1.16,23529,List2B,black,man,,,,null,,,,
null,is dancing with,,html-keyboard-response,312,1216762,0.0-17.0-2.16,23529,List2B,black,man,,,,null,,,,
9084,,,survey-text,313,1225846,0.0-17.0-3.16,23529,List2B,black,man,,,,,"{""Q0"":""Jane is dancing with Luke.""}","<img src=""stim_listB/dance1.gif""</stim_listB>",is dancing with,
null,"<div style=""font-size:60px;"">+</div>",,html-keyboard-response,314,1226347,0.0-17.0-0.17,23529,List2B,black,man,,,,null,,,,
null,"<img src=""stim_listB/hug8.gif""</stim_listB>",,html-keyboard-response,315,1228349,0.0-17.0-1.17,23529,List2B,black,man,,,,null,,,,
null,are hugging each other,,html-keyboard-response,316,1230349,0.0-17.0-2.17,23529,List2B,black,man,,,,null,,,,
8702,,,survey-text,317,1239053,0.0-17.0-3.17,23529,List2B,black,man,,,,,"{""Q0"":""Kate and Jane are hugging each other.""}","<img src=""stim_listB/hug8.gif""</stim_listB>",are hugging each other,
null,"<div style=""font-size:60px;"">+</div>",,html-keyboard-response,318,1239554,0.0-17.0-0.18,23529,List2B,black,man,,,,null,,,,
null,"<img src=""stim_listB/meet7.gif""</stim_listB>",,html-keyboard-response,319,1241556,0.0-17.0-1.18,23529,List2B,black,man,,,,null,,,,
null,is meeting,,html-keyboard-response,320,1243557,0.0-17.0-2.18,23529,List2B,black,man,,,,null,,,,
4465,,,survey-text,321,1248023,0.0-17.0-3.18,23529,List2B,black,man,,,,,"{""Q0"":""Kate is meeting Jane.""}","<img src=""stim_listB/meet7.gif""</stim_listB>",is meeting,
null,"<div style=""font-size:60px;"">+</div>",,html-keyboard-response,322,1248525,0.0-17.0-0.19,23529,List2B,black,man,,,,null,,,,
null,"<img src=""stim_listB/kiss1.gif""</stim_listB>",,html-keyboard-response,323,1250526,0.0-17.0-1.19,23529,List2B,black,man,,,,null,,,,
null,is kissing,,html-keyboard-response,324,1252527,0.0-17.0-2.19,23529,List2B,black,man,,,,null,,,,
4769,,,survey-text,325,1257297,0.0-17.0-3.19,23529,List2B,black,man,,,,,"{""Q0"":""Ruth is kissing Luke.""}","<img src=""stim_listB/kiss1.gif""</stim_listB>",is kissing,
245662,"<img src='img/portrait_matrix_list2.JPG' style='width:900px;height:500px;''></img><p>If you have memorised all the portraits and names and are ready to start, press Continue.</p><p><strong>Please note: Your memory of these faces will be tested 4 times during this experiment.</strong></p>",0,html-button-response,326,1502960,0.0-18.0-0.0,23529,List2B,black,man,,,,,,,,
3676,"<img src=""portrait/WM2.jpg""style=""width:400px;height:400px;""></img>",7,html-button-response,327,1507640,0.0-18.0-1.0,23529,List2B,black,man,,TRUE,7,,,,,
null,CORRECT,,html-keyboard-response,328,1509142,0.0-18.0-2.0-0.0,23529,List2B,black,man,,,,null,,,,
1753,"<img src=""portrait/BM2.jpg""style=""width:400px;height:400px;""></img>",5,html-button-response,329,1510897,0.0-18.0-4.0,23529,List2B,black,man,,TRUE,5,,,,,
null,CORRECT,,html-keyboard-response,330,1512399,0.0-18.0-5.0-0.0,23529,List2B,black,man,,,,null,,,,
5375,"<img src=""portrait/WW1.jpg""style=""width:400px;height:400px;""></img>",1,html-button-response,331,1517777,0.0-18.0-7.0,23529,List2B,black,man,,TRUE,1,,,,,
null,CORRECT,,html-keyboard-response,332,1519279,0.0-18.0-8.0-0.0,23529,List2B,black,man,,,,null,,,,
2016,"<img src=""portrait/BW1.jpg""style=""width:400px;height:400px;""></img>",0,html-button-response,333,1521298,0.0-18.0-10.0,23529,List2B,black,man,,TRUE,0,,,,,
null,CORRECT,,html-keyboard-response,334,1522800,0.0-18.0-11.0-0.0,23529,List2B,black,man,,,,null,,,,
3082,"<img src=""portrait/WW2.jpg""style=""width:400px;height:400px;""></img>",3,html-button-response,335,1525883,0.0-18.0-13.0,23529,List2B,black,man,,TRUE,3,,,,,
null,CORRECT,,html-keyboard-response,336,1527385,0.0-18.0-14.0-0.0,23529,List2B,black,man,,,,null,,,,
7286,"<img src=""portrait/WM1.jpg""style=""width:400px;height:400px;""></img>",6,html-button-response,337,1534674,0.0-18.0-16.0,23529,List2B,black,man,,TRUE,6,,,,,
null,CORRECT,,html-keyboard-response,338,1536177,0.0-18.0-17.0-0.0,23529,List2B,black,man,,,,null,,,,
1432,"<img src=""portrait/BW2.jpg""style=""width:400px;height:400px;""></img>",2,html-button-response,339,1537611,0.0-18.0-19.0,23529,List2B,black,man,,TRUE,2,,,,,
null,CORRECT,,html-keyboard-response,340,1539113,0.0-18.0-20.0-0.0,23529,List2B,black,man,,,,null,,,,
1886,"<img src=""portrait/BM1.jpg""style=""width:400px;height:400px;""></img>",4,html-button-response,341,1540999,0.0-18.0-22.0,23529,List2B,black,man,,TRUE,4,,,,,
null,CORRECT,,html-keyboard-response,342,1542502,0.0-18.0-23.0-0.0,23529,List2B,black,man,,,,null,,,,
980,<p>You got 8 out of 8 right first time. Press Continue.</p>,0,html-button-response,343,1543484,0.0-18.0-25.0,23529,List2B,black,man,,,,,,,,
null,"<div style=""font-size:60px;"">+</div>",,html-keyboard-response,344,1544987,0.0-19.0-0.0,23529,List2B,black,man,,,,null,,,,
null,"<img src=""stim_listB/shout7.gif""</stim_listB>",,html-keyboard-response,345,1546988,0.0-19.0-1.0,23529,List2B,black,man,,,,null,,,,
null,is shouting at,,html-keyboard-response,346,1548989,0.0-19.0-2.0,23529,List2B,black,man,,,,null,,,,
10918,,,survey-text,347,1559908,0.0-19.0-3.0,23529,List2B,black,man,,,,,"{""Q0"":""Beth is shouting at Ruth.""}","<img src=""stim_listB/shout7.gif""</stim_listB>",is shouting at,
null,"<div style=""font-size:60px;"">+</div>",,html-keyboard-response,348,1560409,0.0-19.0-0.1,23529,List2B,black,man,,,,null,,,,
null,"<img src=""stim_listB/talk2.gif""</stim_listB>",,html-keyboard-response,349,1562411,0.0-19.0-1.1,23529,List2B,black,man,,,,null,,,,
null,are talking to each other,,html-keyboard-response,350,1564412,0.0-19.0-2.1,23529,List2B,black,man,,,,null,,,,
8550,,,survey-text,351,1572964,0.0-19.0-3.1,23529,List2B,black,man,,,,,"{""Q0"":""Dave and Ruth are talking to each other.""}","<img src=""stim_listB/talk2.gif""</stim_listB>",are talking to each other,
null,"<div style=""font-size:60px;"">+</div>",,html-keyboard-response,352,1573465,0.0-19.0-0.2,23529,List2B,black,man,,,,null,,,,
null,"<img src=""stim_listB/kiss4.gif""</stim_listB>",,html-keyboard-response,353,1575467,0.0-19.0-1.2,23529,List2B,black,man,,,,null,,,,
null,are kissing each other,,html-keyboard-response,354,1577468,0.0-19.0-2.2,23529,List2B,black,man,,,,null,,,,
6225,,,survey-text,355,1583694,0.0-19.0-3.2,23529,List2B,black,man,,,,,"{""Q0"":""Mike and Kate are kissing each other.""}","<img src=""stim_listB/kiss4.gif""</stim_listB>",are kissing each other,
null,"<div style=""font-size:60px;"">+</div>",,html-keyboard-response,356,1584196,0.0-19.0-0.3,23529,List2B,black,man,,,,null,,,,
null,"<img src=""stim_listB/hug1.gif""</stim_listB>",,html-keyboard-response,357,1586200,0.0-19.0-1.3,23529,List2B,black,man,,,,null,,,,
null,is hugging,,html-keyboard-response,358,1588201,0.0-19.0-2.3,23529,List2B,black,man,,,,null,,,,
17944,,,survey-text,359,1606147,0.0-19.0-3.3,23529,List2B,black,man,,,,,"{""Q0"":""I looked away for a second :(""}","<img src=""stim_listB/hug1.gif""</stim_listB>",is hugging,
null,"<div style=""font-size:60px;"">+</div>",,html-keyboard-response,360,1606649,0.0-19.0-0.4,23529,List2B,black,man,,,,null,,,,
null,"<img src=""stim_listB/fight2.gif""</stim_listB>",,html-keyboard-response,361,1608651,0.0-19.0-1.4,23529,List2B,black,man,,,,null,,,,
null,are fighting each other,,html-keyboard-response,362,1610652,0.0-19.0-2.4,23529,List2B,black,man,,,,null,,,,
20599,,,survey-text,363,1631252,0.0-19.0-3.4,23529,List2B,black,man,,,,,"{""Q0"":""Luke and Ruth are fighting each other.""}","<img src=""stim_listB/fight2.gif""</stim_listB>",are fighting each other,
null,"<div style=""font-size:60px;"">+</div>",,html-keyboard-response,364,1631753,0.0-19.0-0.5,23529,List2B,black,man,,,,null,,,,
null,"<img src=""stim_listB/argue4.gif""</stim_listB>",,html-keyboard-response,365,1633755,0.0-19.0-1.5,23529,List2B,black,man,,,,null,,,,
null,are arguing with each other,,html-keyboard-response,366,1635757,0.0-19.0-2.5,23529,List2B,black,man,,,,null,,,,
6265,,,survey-text,367,1642022,0.0-19.0-3.5,23529,List2B,black,man,,,,,"{""Q0"":""Fred and Kate are arguing with each other.""}","<img src=""stim_listB/argue4.gif""</stim_listB>",are arguing with each other,
null,"<div style=""font-size:60px;"">+</div>",,html-keyboard-response,368,1642524,0.0-19.0-0.6,23529,List2B,black,man,,,,null,,,,
null,"<img src=""stim_listB/hug3.gif""</stim_listB>",,html-keyboard-response,369,1644525,0.0-19.0-1.6,23529,List2B,black,man,,,,null,,,,
null,is hugging,,html-keyboard-response,370,1646526,0.0-19.0-2.6,23529,List2B,black,man,,,,null,,,,
9153,,,survey-text,371,1655680,0.0-19.0-3.6,23529,List2B,black,man,,,,,"{""Q0"":""Beth is hugging Fred.""}","<img src=""stim_listB/hug3.gif""</stim_listB>",is hugging,
null,"<div style=""font-size:60px;"">+</div>",,html-keyboard-response,372,1656182,0.0-19.0-0.7,23529,List2B,black,man,,,,null,,,,
null,"<img src=""stim_listB/meet6.gif""</stim_listB>",,html-keyboard-response,373,1658184,0.0-19.0-1.7,23529,List2B,black,man,,,,null,,,,
null,are meeting each other,,html-keyboard-response,374,1660185,0.0-19.0-2.7,23529,List2B,black,man,,,,null,,,,
7942,,,survey-text,375,1668128,0.0-19.0-3.7,23529,List2B,black,man,,,,,"{""Q0"":""Luke and Fred are meeting each other.""}","<img src=""stim_listB/meet6.gif""</stim_listB>",are meeting each other,
null,"<div style=""font-size:60px;"">+</div>",,html-keyboard-response,376,1668630,0.0-19.0-0.8,23529,List2B,black,man,,,,null,,,,
null,"<img src=""stim_listB/shout1.gif""</stim_listB>",,html-keyboard-response,377,1670632,0.0-19.0-1.8,23529,List2B,black,man,,,,null,,,,
null,is shouting at,,html-keyboard-response,378,1672633,0.0-19.0-2.8,23529,List2B,black,man,,,,null,,,,
5309,,,survey-text,379,1677944,0.0-19.0-3.8,23529,List2B,black,man,,,,,"{""Q0"":""Ruth is shouting at Luke.""}","<img src=""stim_listB/shout1.gif""</stim_listB>",is shouting at,
null,"<div style=""font-size:60px;"">+</div>",,html-keyboard-response,380,1678445,0.0-19.0-0.9,23529,List2B,black,man,,,,null,,,,
null,"<img src=""stim_listB/meet5.gif""</stim_listB>",,html-keyboard-response,381,1680447,0.0-19.0-1.9,23529,List2B,black,man,,,,null,,,,
null,is meeting,,html-keyboard-response,382,1682448,0.0-19.0-2.9,23529,List2B,black,man,,,,null,,,,
28669,,,survey-text,383,1711118,0.0-19.0-3.9,23529,List2B,black,man,,,,,"{""Q0"":""Mike is meeting Dave.""}","<img src=""stim_listB/meet5.gif""</stim_listB>",is meeting,
null,"<div style=""font-size:60px;"">+</div>",,html-keyboard-response,384,1711620,0.0-19.0-0.10,23529,List2B,black,man,,,,null,,,,
null,"<img src=""stim_listB/marry2.gif""</stim_listB>",,html-keyboard-response,385,1713622,0.0-19.0-1.10,23529,List2B,black,man,,,,null,,,,
null,are marrying each other,,html-keyboard-response,386,1715623,0.0-19.0-2.10,23529,List2B,black,man,,,,null,,,,
8254,,,survey-text,387,1723878,0.0-19.0-3.10,23529,List2B,black,man,,,,,"{""Q0"":""Luke and Jane are marrying each other.""}","<img src=""stim_listB/marry2.gif""</stim_listB>",are marrying each other,
null,"<div style=""font-size:60px;"">+</div>",,html-keyboard-response,388,1724379,0.0-19.0-0.11,23529,List2B,black,man,,,,null,,,,
null,"<img src=""stim_listB/dance4.gif""</stim_listB>",,html-keyboard-response,389,1726381,0.0-19.0-1.11,23529,List2B,black,man,,,,null,,,,
null,are dancing with each other,,html-keyboard-response,390,1728383,0.0-19.0-2.11,23529,List2B,black,man,,,,null,,,,
6908,,,survey-text,391,1735291,0.0-19.0-3.11,23529,List2B,black,man,,,,,"{""Q0"":""Beth and Mike are dancing with each other.""}","<img src=""stim_listB/dance4.gif""</stim_listB>",are dancing with each other,
null,"<div style=""font-size:60px;"">+</div>",,html-keyboard-response,392,1735793,0.0-19.0-0.12,23529,List2B,black,man,,,,null,,,,
null,"<img src=""stim_listB/marry5.gif""</stim_listB>",,html-keyboard-response,393,1737795,0.0-19.0-1.12,23529,List2B,black,man,,,,null,,,,
null,is marrying,,html-keyboard-response,394,1739796,0.0-19.0-2.12,23529,List2B,black,man,,,,null,,,,
5308,,,survey-text,395,1745106,0.0-19.0-3.12,23529,List2B,black,man,,,,,"{""Q0"":""Fred is marrying Dave.""}","<img src=""stim_listB/marry5.gif""</stim_listB>",is marrying,
null,"<div style=""font-size:60px;"">+</div>",,html-keyboard-response,396,1745607,0.0-19.0-0.13,23529,List2B,black,man,,,,null,,,,
null,"<img src=""stim_listB/talk4.gif""</stim_listB>",,html-keyboard-response,397,1747609,0.0-19.0-1.13,23529,List2B,black,man,,,,null,,,,
null,are talking to each other,,html-keyboard-response,398,1749610,0.0-19.0-2.13,23529,List2B,black,man,,,,null,,,,
19330,,,survey-text,399,1768941,0.0-19.0-3.13,23529,List2B,black,man,,,,,"{""Q0"":""Beth and Mike are talking with each other.""}","<img src=""stim_listB/talk4.gif""</stim_listB>",are talking to each other,
null,"<div style=""font-size:60px;"">+</div>",,html-keyboard-response,400,1769442,0.0-19.0-0.14,23529,List2B,black,man,,,,null,,,,
null,"<img src=""stim_listB/shout4.gif""</stim_listB>",,html-keyboard-response,401,1771444,0.0-19.0-1.14,23529,List2B,black,man,,,,null,,,,
null,are shouting at each other,,html-keyboard-response,402,1773446,0.0-19.0-2.14,23529,List2B,black,man,,,,null,,,,
7209,,,survey-text,403,1780657,0.0-19.0-3.14,23529,List2B,black,man,,,,,"{""Q0"":""Mike and Kate are shouting at each other.""}","<img src=""stim_listB/shout4.gif""</stim_listB>",are shouting at each other,
null,"<div style=""font-size:60px;"">+</div>",,html-keyboard-response,404,1781159,0.0-19.0-0.15,23529,List2B,black,man,,,,null,,,,
null,"<img src=""stim_listB/marry6.gif""</stim_listB>",,html-keyboard-response,405,1783162,0.0-19.0-1.15,23529,List2B,black,man,,,,null,,,,
null,are marrying each other,,html-keyboard-response,406,1785163,0.0-19.0-2.15,23529,List2B,black,man,,,,null,,,,
6956,,,survey-text,407,1792121,0.0-19.0-3.15,23529,List2B,black,man,,,,,"{""Q0"":""Luke and Mike are marrying each other.""}","<img src=""stim_listB/marry6.gif""</stim_listB>",are marrying each other,
null,"<div style=""font-size:60px;"">+</div>",,html-keyboard-response,408,1792622,0.0-19.0-0.16,23529,List2B,black,man,,,,null,,,,
null,"<img src=""stim_listB/shout8.gif""</stim_listB>",,html-keyboard-response,409,1794625,0.0-19.0-1.16,23529,List2B,black,man,,,,null,,,,
null,are shouting at each other,,html-keyboard-response,410,1796627,0.0-19.0-2.16,23529,List2B,black,man,,,,null,,,,
8306,,,survey-text,411,1804935,0.0-19.0-3.16,23529,List2B,black,man,,,,,"{""Q0"":""Jane and Kate are shouting at each other.""}","<img src=""stim_listB/shout8.gif""</stim_listB>",are shouting at each other,
null,"<div style=""font-size:60px;"">+</div>",,html-keyboard-response,412,1805436,0.0-19.0-0.17,23529,List2B,black,man,,,,null,,,,
null,"<img src=""stim_listB/touch7.gif""</stim_listB>",,html-keyboard-response,413,1807438,0.0-19.0-1.17,23529,List2B,black,man,,,,null,,,,
null,is touching,,html-keyboard-response,414,1809439,0.0-19.0-2.17,23529,List2B,black,man,,,,null,,,,
4404,,,survey-text,415,1813844,0.0-19.0-3.17,23529,List2B,black,man,,,,,"{""Q0"":""Kate is touching Jane.""}","<img src=""stim_listB/touch7.gif""</stim_listB>",is touching,
null,"<div style=""font-size:60px;"">+</div>",,html-keyboard-response,416,1814345,0.0-19.0-0.18,23529,List2B,black,man,,,,null,,,,
null,"<img src=""stim_listB/marry1.gif""</stim_listB>",,html-keyboard-response,417,1816396,0.0-19.0-1.18,23529,List2B,black,man,,,,null,,,,
null,is marrying,,html-keyboard-response,418,1818397,0.0-19.0-2.18,23529,List2B,black,man,,,,null,,,,
5321,,,survey-text,419,1823718,0.0-19.0-3.18,23529,List2B,black,man,,,,,"{""Q0"":""Ruth is marrying Dave.""}","<img src=""stim_listB/marry1.gif""</stim_listB>",is marrying,
null,"<div style=""font-size:60px;"">+</div>",,html-keyboard-response,420,1824220,0.0-19.0-0.19,23529,List2B,black,man,,,,null,,,,
null,"<img src=""stim_listB/fight8.gif""</stim_listB>",,html-keyboard-response,421,1826223,0.0-19.0-1.19,23529,List2B,black,man,,,,null,,,,
null,are fighting each other,,html-keyboard-response,422,1828225,0.0-19.0-2.19,23529,List2B,black,man,,,,null,,,,
30457,,,survey-text,423,1858684,0.0-19.0-3.19,23529,List2B,black,man,,,,,"{""Q0"":""Ruth and Beth are fighting each other.""}","<img src=""stim_listB/fight8.gif""</stim_listB>",are fighting each other,
3035,<p>Thank you for completing that task.</p><p>The final part of this session is a short questionnaire.</p><p>Press Continue.</p>,0,html-button-response,424,1861720,0.0-20.0,23529,List2B,black,man,,,,,,,,
23023,,,survey-text,425,1885745,0.0-21.0,23529,List2B,black,man,,,,,"{""Q0"":""23"",""Q1"":""English"",""Q2"":""English"",""Q3"":""United States."",""Q4"":""African American"",""Q5"":""Male""}",,,demographics
110883,,,survey-likert,426,1996637,0.0-22.0,23529,List2B,black,man,,,,,"{""Q0"":2,""Q1"":0,""Q2"":0,""Q3"":6,""Q4"":5,""Q5"":5,""Q6"":3,""Q7"":1,""Q8"":0,""Q9"":0,""Q10"":1,""Q11"":3,""Q12"":4,""Q13"":4}",,,likert_race
68170,,,survey-likert,427,2064818,0.0-23.0,23529,List2B,black,man,,,,,"{""Q0"":4,""Q1"":4,""Q2"":5,""Q3"":6,""Q4"":3,""Q5"":6,""Q6"":3,""Q7"":3,""Q8"":4,""Q9"":4,""Q10"":2,""Q11"":1,""Q12"":3,""Q13"":2}",,,likert_gender
8200,,,survey-text,428,2073026,0.0-24.0,23529,List2B,black,man,,,,,"{""Q0"":""ccc""}",,,worker_id
26243,,,external-html,429,2099530,0.0-25.0,23529,List2B,black,man,debrief.html,,,,,,,
