rt,stimulus,button_pressed,trial_type,trial_index,time_elapsed,internal_node_id,subject,list,ppt_race,ppt_gender,url,first_guess,correct,key_press,responses,image_type,phrase_type,test_part
2739,Welcome to the experiment. Press Continue to begin.,0,html-button-response,0,2754,0.0-0.0,23972,List2A,black,woman,,,,,,,,
218828,,,external-html,1,222656,0.0-1.0,23972,List2A,black,woman,consent.html,,,,,,,
50616,"<p>On the next page, you will see portraits of 8 people and their names.</p><p>Your first task is to take a few minutes to memorise the names of these people.</p><p>You will have to recall their names during the rest of the experiment, so it is</p><p>essential that you try to memorise these people and their names as best as you can.</p><br><p><strong>You will then be tested on your memory of these names and portraits.</strong></p><br><p>The experiment will start after you have completed this memory test.</p><br><p>Ready?</p>",0,html-button-response,2,273279,0.0-2.0,23972,List2A,black,woman,,,,,,,,
88632,"<img src='img/portrait_matrix_list2.JPG' style='width:900px;height:500px;''></img><p>If you have memorised all the portraits and names and are ready to start, press Continue.</p><p><strong>Please note: Your memory of these faces will be tested 4 times during this experiment.</strong></p>",0,html-button-response,3,362921,0.0-3.0-0.0,23972,List2A,black,woman,,,,,,,,
13798,"<img src=""portrait/WW1.jpg""style=""width:400px;height:400px;""></img>",1,html-button-response,4,377737,0.0-3.0-1.0,23972,List2A,black,woman,,TRUE,1,,,,,
null,CORRECT,,html-keyboard-response,5,379272,0.0-3.0-2.0-0.0,23972,List2A,black,woman,,,,null,,,,
8976,"<img src=""portrait/BW1.jpg""style=""width:400px;height:400px;""></img>",0,html-button-response,6,388261,0.0-3.0-4.0,23972,List2A,black,woman,,TRUE,0,,,,,
null,CORRECT,,html-keyboard-response,7,389776,0.0-3.0-5.0-0.0,23972,List2A,black,woman,,,,null,,,,
4065,"<img src=""portrait/WM1.jpg""style=""width:400px;height:400px;""></img>",6,html-button-response,8,393853,0.0-3.0-7.0,23972,List2A,black,woman,,TRUE,6,,,,,
null,CORRECT,,html-keyboard-response,9,395361,0.0-3.0-8.0-0.0,23972,List2A,black,woman,,,,null,,,,
2566,"<img src=""portrait/BM2.jpg""style=""width:400px;height:400px;""></img>",5,html-button-response,10,397941,0.0-3.0-10.0,23972,List2A,black,woman,,TRUE,5,,,,,
null,CORRECT,,html-keyboard-response,11,399449,0.0-3.0-11.0-0.0,23972,List2A,black,woman,,,,null,,,,
1943,"<img src=""portrait/WM2.jpg""style=""width:400px;height:400px;""></img>",7,html-button-response,12,401404,0.0-3.0-13.0,23972,List2A,black,woman,,TRUE,7,,,,,
null,CORRECT,,html-keyboard-response,13,402911,0.0-3.0-14.0-0.0,23972,List2A,black,woman,,,,null,,,,
5889,"<img src=""portrait/WW2.jpg""style=""width:400px;height:400px;""></img>",3,html-button-response,14,408811,0.0-3.0-16.0,23972,List2A,black,woman,,TRUE,3,,,,,
null,CORRECT,,html-keyboard-response,15,410321,0.0-3.0-17.0-0.0,23972,List2A,black,woman,,,,null,,,,
3445,"<img src=""portrait/BW2.jpg""style=""width:400px;height:400px;""></img>",2,html-button-response,16,413777,0.0-3.0-19.0,23972,List2A,black,woman,,TRUE,2,,,,,
null,CORRECT,,html-keyboard-response,17,415286,0.0-3.0-20.0-0.0,23972,List2A,black,woman,,,,null,,,,
2267,"<img src=""portrait/BM1.jpg""style=""width:400px;height:400px;""></img>",5,html-button-response,18,417565,0.0-3.0-22.0,23972,List2A,black,woman,,TRUE,4,,,,,
7114,"<img src=""portrait/BM1.jpg""style=""width:400px;height:400px;""></img>",4,html-button-response,19,425695,0.0-3.0-24.0-0.0,23972,List2A,black,woman,,FALSE,4,,,,,
null,CORRECT,,html-keyboard-response,20,427207,0.0-3.0-24.0-1.0-0.0,23972,List2A,black,woman,,,,null,,,,
4925,<p>You got 7 out of 8 right first time. Press Continue.</p>,0,html-button-response,21,432145,0.0-3.0-25.0,23972,List2A,black,woman,,,,,,,,
4819,"As you did not score 100%, the memory game will repeat. Press Continue.",0,html-button-response,22,437970,0.0-3.0-26.0-0.0,23972,List2A,black,woman,,,,,,,,
25004,"<img src='img/portrait_matrix_list2.JPG' style='width:900px;height:500px;''></img><p>If you have memorised all the portraits and names and are ready to start, press Continue.</p><p><strong>Please note: Your memory of these faces will be tested 4 times during this experiment.</strong></p>",0,html-button-response,23,463997,0.0-3.1-0.1,23972,List2A,black,woman,,,,,,,,
7804,"<img src=""portrait/WW1.jpg""style=""width:400px;height:400px;""></img>",1,html-button-response,24,472817,0.0-3.1-1.1,23972,List2A,black,woman,,TRUE,1,,,,,
null,CORRECT,,html-keyboard-response,25,474328,0.0-3.1-2.1-0.1,23972,List2A,black,woman,,,,null,,,,
4744,"<img src=""portrait/BW1.jpg""style=""width:400px;height:400px;""></img>",0,html-button-response,26,479091,0.0-3.1-4.1,23972,List2A,black,woman,,TRUE,0,,,,,
null,CORRECT,,html-keyboard-response,27,480600,0.0-3.1-5.1-0.1,23972,List2A,black,woman,,,,null,,,,
3062,"<img src=""portrait/WM1.jpg""style=""width:400px;height:400px;""></img>",6,html-button-response,28,483676,0.0-3.1-7.1,23972,List2A,black,woman,,TRUE,6,,,,,
null,CORRECT,,html-keyboard-response,29,485185,0.0-3.1-8.1-0.1,23972,List2A,black,woman,,,,null,,,,
4625,"<img src=""portrait/BM2.jpg""style=""width:400px;height:400px;""></img>",5,html-button-response,30,489824,0.0-3.1-10.1,23972,List2A,black,woman,,TRUE,5,,,,,
null,CORRECT,,html-keyboard-response,31,491333,0.0-3.1-11.1-0.1,23972,List2A,black,woman,,,,null,,,,
2082,"<img src=""portrait/WM2.jpg""style=""width:400px;height:400px;""></img>",7,html-button-response,32,493427,0.0-3.1-13.1,23972,List2A,black,woman,,TRUE,7,,,,,
null,CORRECT,,html-keyboard-response,33,494936,0.0-3.1-14.1-0.1,23972,List2A,black,woman,,,,null,,,,
3346,"<img src=""portrait/WW2.jpg""style=""width:400px;height:400px;""></img>",3,html-button-response,34,498297,0.0-3.1-16.1,23972,List2A,black,woman,,TRUE,3,,,,,
null,CORRECT,,html-keyboard-response,35,499806,0.0-3.1-17.1-0.1,23972,List2A,black,woman,,,,null,,,,
3495,"<img src=""portrait/BW2.jpg""style=""width:400px;height:400px;""></img>",2,html-button-response,36,503314,0.0-3.1-19.1,23972,List2A,black,woman,,TRUE,2,,,,,
null,CORRECT,,html-keyboard-response,37,504823,0.0-3.1-20.1-0.1,23972,List2A,black,woman,,,,null,,,,
2276,"<img src=""portrait/BM1.jpg""style=""width:400px;height:400px;""></img>",4,html-button-response,38,507112,0.0-3.1-22.1,23972,List2A,black,woman,,TRUE,4,,,,,
null,CORRECT,,html-keyboard-response,39,508620,0.0-3.1-23.1-0.1,23972,List2A,black,woman,,,,null,,,,
3410,<p>You got 8 out of 8 right first time. Press Continue.</p>,0,html-button-response,40,512042,0.0-3.1-25.1,23972,List2A,black,woman,,,,,,,,
67359,"<p>In this experiment, you will view photographs of the people from the memory game interacting.</p><p>By using the <strong>exact</strong> phrase given <i>after</i> the photograph appears and recalling the correct names of the people in the photographs, form a sentence describing the interaction. You do not need to capitalise names.</p><p>Type your answer in the space provided. Please complete every sentence before moving onto the next trial.</p><p>You will only have a few seconds to memorise each given photograph and phrase before you can respond, so try your best to focus.</p><p>An example is given below. Press 'Continue' when you are ready.</p><img src='img/speaking_example_v2.jpg' style='width:800px;height:460px;''></img>",0,html-button-response,41,580412,0.0-4.0,23972,List2A,black,woman,,,,,,,,
8400,"<p>Before the experiment starts, you will watch two example trials. Press 'Continue'.</p>",0,html-button-response,42,589822,0.0-5.0,23972,List2A,black,woman,,,,,,,,
null,<img src='img/speaking_WW.gif'></img>,,html-keyboard-response,43,592832,0.0-6.0,23972,List2A,black,woman,,,,null,,,,
null,<p>is speaking to</p>,,html-keyboard-response,44,594839,0.0-7.0,23972,List2A,black,woman,,,,null,,,,
6481,<p><b>Answer:</b> jane is speaking to ruth</p>,0,html-button-response,45,601327,0.0-8.0,23972,List2A,black,woman,,,,,,,,
null,<img src='img/pointing_BM.gif'></img>,,html-keyboard-response,46,604335,0.0-9.0,23972,List2A,black,woman,,,,null,,,,
null,<p>are pointing at each other</p>,,html-keyboard-response,47,606342,0.0-10.0,23972,List2A,black,woman,,,,null,,,,
8886,<p><b>Answer:</b> fred and mike are pointing at each other</p>,0,html-button-response,48,615235,0.0-11.0,23972,List2A,black,woman,,,,,,,,
13628,"<p>Ready to start the experiment?</p><br><p><strong>Remember to describe the picture using a full sentence,</strong></p><p><strong> that combines the names of the people with the given phrase.</strong></p><p><strong> You do not need to capitalise names or use punctuation.</strong></p><br><p>Press 'Continue' to begin.</p>",0,html-button-response,49,629873,0.0-12.0,23972,List2A,black,woman,,,,,,,,
null,"<div style=""font-size:60px;"">+</div>",,html-keyboard-response,50,631383,0.0-13.0-0.0,23972,List2A,black,woman,,,,null,,,,
null,"<img src=""stim_listA/dance4.gif""</stim_listA>",,html-keyboard-response,51,633400,0.0-13.0-1.0,23972,List2A,black,woman,,,,null,,,,
null,are dancing with each other,,html-keyboard-response,52,635408,0.0-13.0-2.0,23972,List2A,black,woman,,,,null,,,,
27394,,,survey-text,53,662813,0.0-13.0-3.0,23972,List2A,black,woman,,,,,"{""Q0"":""Beth and Mike are dancing with each other. ""}","<img src=""stim_listA/dance4.gif""</stim_listA>",are dancing with each other,
null,"<div style=""font-size:60px;"">+</div>",,html-keyboard-response,54,663320,0.0-13.0-0.1,23972,List2A,black,woman,,,,null,,,,
null,"<img src=""stim_listA/hug8.gif""</stim_listA>",,html-keyboard-response,55,665329,0.0-13.0-1.1,23972,List2A,black,woman,,,,null,,,,
null,are hugging each other,,html-keyboard-response,56,667336,0.0-13.0-2.1,23972,List2A,black,woman,,,,null,,,,
25638,,,survey-text,57,692981,0.0-13.0-3.1,23972,List2A,black,woman,,,,,"{""Q0"":""Kate and Jane are hugging each other. ""}","<img src=""stim_listA/hug8.gif""</stim_listA>",are hugging each other,
null,"<div style=""font-size:60px;"">+</div>",,html-keyboard-response,58,693486,0.0-13.0-0.2,23972,List2A,black,woman,,,,null,,,,
null,"<img src=""stim_listA/touch2.gif""</stim_listA>",,html-keyboard-response,59,695514,0.0-13.0-1.2,23972,List2A,black,woman,,,,null,,,,
null,are touching each other,,html-keyboard-response,60,697520,0.0-13.0-2.2,23972,List2A,black,woman,,,,null,,,,
31182,,,survey-text,61,728710,0.0-13.0-3.2,23972,List2A,black,woman,,,,,"{""Q0"":""Ruth and Luke are touching each other.""}","<img src=""stim_listA/touch2.gif""</stim_listA>",are touching each other,
null,"<div style=""font-size:60px;"">+</div>",,html-keyboard-response,62,729216,0.0-13.0-0.3,23972,List2A,black,woman,,,,null,,,,
null,"<img src=""stim_listA/talk4.gif""</stim_listA>",,html-keyboard-response,63,731228,0.0-13.0-1.3,23972,List2A,black,woman,,,,null,,,,
null,are talking to each other,,html-keyboard-response,64,733234,0.0-13.0-2.3,23972,List2A,black,woman,,,,null,,,,
43423,,,survey-text,65,776664,0.0-13.0-3.3,23972,List2A,black,woman,,,,,"{""Q0"":""Mike and Kate are talking to each other. ""}","<img src=""stim_listA/talk4.gif""</stim_listA>",are talking to each other,
null,"<div style=""font-size:60px;"">+</div>",,html-keyboard-response,66,777168,0.0-13.0-0.4,23972,List2A,black,woman,,,,null,,,,
null,"<img src=""stim_listA/marry3.gif""</stim_listA>",,html-keyboard-response,67,779181,0.0-13.0-1.4,23972,List2A,black,woman,,,,null,,,,
null,is marrying,,html-keyboard-response,68,781188,0.0-13.0-2.4,23972,List2A,black,woman,,,,null,,,,
35530,,,survey-text,69,816724,0.0-13.0-3.4,23972,List2A,black,woman,,,,,"{""Q0"":""Mike is marrying Beth. ""}","<img src=""stim_listA/marry3.gif""</stim_listA>",is marrying,
null,"<div style=""font-size:60px;"">+</div>",,html-keyboard-response,70,817229,0.0-13.0-0.5,23972,List2A,black,woman,,,,null,,,,
null,"<img src=""stim_listA/shout8.gif""</stim_listA>",,html-keyboard-response,71,819241,0.0-13.0-1.5,23972,List2A,black,woman,,,,null,,,,
null,are shouting at each other,,html-keyboard-response,72,821247,0.0-13.0-2.5,23972,List2A,black,woman,,,,null,,,,
34151,,,survey-text,73,855404,0.0-13.0-3.5,23972,List2A,black,woman,,,,,"{""Q0"":""Jane and Kate are shouting at each other.""}","<img src=""stim_listA/shout8.gif""</stim_listA>",are shouting at each other,
null,"<div style=""font-size:60px;"">+</div>",,html-keyboard-response,74,855908,0.0-13.0-0.6,23972,List2A,black,woman,,,,null,,,,
null,"<img src=""stim_listA/marry5.gif""</stim_listA>",,html-keyboard-response,75,857920,0.0-13.0-1.6,23972,List2A,black,woman,,,,null,,,,
null,is marrying,,html-keyboard-response,76,859927,0.0-13.0-2.6,23972,List2A,black,woman,,,,null,,,,
21019,,,survey-text,77,880952,0.0-13.0-3.6,23972,List2A,black,woman,,,,,"{""Q0"":""Fred is marrying Dave.""}","<img src=""stim_listA/marry5.gif""</stim_listA>",is marrying,
null,"<div style=""font-size:60px;"">+</div>",,html-keyboard-response,78,881457,0.0-13.0-0.7,23972,List2A,black,woman,,,,null,,,,
null,"<img src=""stim_listA/fight5.gif""</stim_listA>",,html-keyboard-response,79,883470,0.0-13.0-1.7,23972,List2A,black,woman,,,,null,,,,
null,is fighting,,html-keyboard-response,80,885476,0.0-13.0-2.7,23972,List2A,black,woman,,,,null,,,,
18877,,,survey-text,81,904359,0.0-13.0-3.7,23972,List2A,black,woman,,,,,"{""Q0"":""Dave is fighting Mike.""}","<img src=""stim_listA/fight5.gif""</stim_listA>",is fighting,
null,"<div style=""font-size:60px;"">+</div>",,html-keyboard-response,82,904864,0.0-13.0-0.8,23972,List2A,black,woman,,,,null,,,,
null,"<img src=""stim_listA/marry7.gif""</stim_listA>",,html-keyboard-response,83,906876,0.0-13.0-1.8,23972,List2A,black,woman,,,,null,,,,
null,is marrying,,html-keyboard-response,84,908885,0.0-13.0-2.8,23972,List2A,black,woman,,,,null,,,,
19681,,,survey-text,85,928572,0.0-13.0-3.8,23972,List2A,black,woman,,,,,"{""Q0"":""Beth is marrying Ruth.""}","<img src=""stim_listA/marry7.gif""</stim_listA>",is marrying,
null,"<div style=""font-size:60px;"">+</div>",,html-keyboard-response,86,929076,0.0-13.0-0.9,23972,List2A,black,woman,,,,null,,,,
null,"<img src=""stim_listA/dance2.gif""</stim_listA>",,html-keyboard-response,87,931088,0.0-13.0-1.9,23972,List2A,black,woman,,,,null,,,,
null,are dancing with each other,,html-keyboard-response,88,933096,0.0-13.0-2.9,23972,List2A,black,woman,,,,null,,,,
36479,,,survey-text,89,969582,0.0-13.0-3.9,23972,List2A,black,woman,,,,,"{""Q0"":""Ruth is dancing with Dave.""}","<img src=""stim_listA/dance2.gif""</stim_listA>",are dancing with each other,
null,"<div style=""font-size:60px;"">+</div>",,html-keyboard-response,90,970086,0.0-13.0-0.10,23972,List2A,black,woman,,,,null,,,,
null,"<img src=""stim_listA/dance3.gif""</stim_listA>",,html-keyboard-response,91,972099,0.0-13.0-1.10,23972,List2A,black,woman,,,,null,,,,
null,is dancing with,,html-keyboard-response,92,974106,0.0-13.0-2.10,23972,List2A,black,woman,,,,null,,,,
25817,,,survey-text,93,999929,0.0-13.0-3.10,23972,List2A,black,woman,,,,,"{""Q0"":""Fred is dancing with Beth.""}","<img src=""stim_listA/dance3.gif""</stim_listA>",is dancing with,
null,"<div style=""font-size:60px;"">+</div>",,html-keyboard-response,94,1000434,0.0-13.0-0.11,23972,List2A,black,woman,,,,null,,,,
null,"<img src=""stim_listA/argue6.gif""</stim_listA>",,html-keyboard-response,95,1002446,0.0-13.0-1.11,23972,List2A,black,woman,,,,null,,,,
null,are arguing with each other,,html-keyboard-response,96,1004452,0.0-13.0-2.11,23972,List2A,black,woman,,,,null,,,,
29966,,,survey-text,97,1034426,0.0-13.0-3.11,23972,List2A,black,woman,,,,,"{""Q0"":""Luke and Mike are arguing with each other. ""}","<img src=""stim_listA/argue6.gif""</stim_listA>",are arguing with each other,
null,"<div style=""font-size:60px;"">+</div>",,html-keyboard-response,98,1034931,0.0-13.0-0.12,23972,List2A,black,woman,,,,null,,,,
null,"<img src=""stim_listA/kiss7.gif""</stim_listA>",,html-keyboard-response,99,1036943,0.0-13.0-1.12,23972,List2A,black,woman,,,,null,,,,
null,is kissing,,html-keyboard-response,100,1038950,0.0-13.0-2.12,23972,List2A,black,woman,,,,null,,,,
18901,,,survey-text,101,1057858,0.0-13.0-3.12,23972,List2A,black,woman,,,,,"{""Q0"":""Beth is kissing Ruth. ""}","<img src=""stim_listA/kiss7.gif""</stim_listA>",is kissing,
null,"<div style=""font-size:60px;"">+</div>",,html-keyboard-response,102,1058365,0.0-13.0-0.13,23972,List2A,black,woman,,,,null,,,,
null,"<img src=""stim_listA/meet1.gif""</stim_listA>",,html-keyboard-response,103,1060377,0.0-13.0-1.13,23972,List2A,black,woman,,,,null,,,,
null,is meeting,,html-keyboard-response,104,1062384,0.0-13.0-2.13,23972,List2A,black,woman,,,,null,,,,
32357,,,survey-text,105,1094748,0.0-13.0-3.13,23972,List2A,black,woman,,,,,"{""Q0"":""Dave is greeting Ruth. ""}","<img src=""stim_listA/meet1.gif""</stim_listA>",is meeting,
null,"<div style=""font-size:60px;"">+</div>",,html-keyboard-response,106,1095252,0.0-13.0-0.14,23972,List2A,black,woman,,,,null,,,,
null,"<img src=""stim_listA/shout2.gif""</stim_listA>",,html-keyboard-response,107,1097264,0.0-13.0-1.14,23972,List2A,black,woman,,,,null,,,,
null,are shouting at each other,,html-keyboard-response,108,1099271,0.0-13.0-2.14,23972,List2A,black,woman,,,,null,,,,
34876,,,survey-text,109,1134153,0.0-13.0-3.14,23972,List2A,black,woman,,,,,"{""Q0"":""Jane and Dave are shouting at each other. ""}","<img src=""stim_listA/shout2.gif""</stim_listA>",are shouting at each other,
null,"<div style=""font-size:60px;"">+</div>",,html-keyboard-response,110,1134657,0.0-13.0-0.15,23972,List2A,black,woman,,,,null,,,,
null,"<img src=""stim_listA/touch4.gif""</stim_listA>",,html-keyboard-response,111,1136669,0.0-13.0-1.15,23972,List2A,black,woman,,,,null,,,,
null,are touching each other,,html-keyboard-response,112,1138676,0.0-13.0-2.15,23972,List2A,black,woman,,,,null,,,,
17311,,,survey-text,113,1155993,0.0-13.0-3.15,23972,List2A,black,woman,,,,,"{""Q0"":""Fred and Beth are touching each other. ""}","<img src=""stim_listA/touch4.gif""</stim_listA>",are touching each other,
null,"<div style=""font-size:60px;"">+</div>",,html-keyboard-response,114,1156498,0.0-13.0-0.16,23972,List2A,black,woman,,,,null,,,,
null,"<img src=""stim_listA/touch7.gif""</stim_listA>",,html-keyboard-response,115,1158511,0.0-13.0-1.16,23972,List2A,black,woman,,,,null,,,,
null,is touching,,html-keyboard-response,116,1160518,0.0-13.0-2.16,23972,List2A,black,woman,,,,null,,,,
17052,,,survey-text,117,1177576,0.0-13.0-3.16,23972,List2A,black,woman,,,,,"{""Q0"":""Jane is touching Kate.""}","<img src=""stim_listA/touch7.gif""</stim_listA>",is touching,
null,"<div style=""font-size:60px;"">+</div>",,html-keyboard-response,118,1178081,0.0-13.0-0.17,23972,List2A,black,woman,,,,null,,,,
null,"<img src=""stim_listA/hug1.gif""</stim_listA>",,html-keyboard-response,119,1180093,0.0-13.0-1.17,23972,List2A,black,woman,,,,null,,,,
null,is hugging,,html-keyboard-response,120,1182100,0.0-13.0-2.17,23972,List2A,black,woman,,,,null,,,,
16461,,,survey-text,121,1198565,0.0-13.0-3.17,23972,List2A,black,woman,,,,,"{""Q0"":""Luke is hugging Ruth.""}","<img src=""stim_listA/hug1.gif""</stim_listA>",is hugging,
null,"<div style=""font-size:60px;"">+</div>",,html-keyboard-response,122,1199069,0.0-13.0-0.18,23972,List2A,black,woman,,,,null,,,,
null,"<img src=""stim_listA/marry2.gif""</stim_listA>",,html-keyboard-response,123,1201082,0.0-13.0-1.18,23972,List2A,black,woman,,,,null,,,,
null,are marrying each other,,html-keyboard-response,124,1203089,0.0-13.0-2.18,23972,List2A,black,woman,,,,null,,,,
23631,,,survey-text,125,1226726,0.0-13.0-3.18,23972,List2A,black,woman,,,,,"{""Q0"":""Jane and Luke are marrying each other. ""}","<img src=""stim_listA/marry2.gif""</stim_listA>",are marrying each other,
null,"<div style=""font-size:60px;"">+</div>",,html-keyboard-response,126,1227230,0.0-13.0-0.19,23972,List2A,black,woman,,,,null,,,,
null,"<img src=""stim_listA/shout1.gif""</stim_listA>",,html-keyboard-response,127,1229242,0.0-13.0-1.19,23972,List2A,black,woman,,,,null,,,,
null,is shouting at,,html-keyboard-response,128,1231249,0.0-13.0-2.19,23972,List2A,black,woman,,,,null,,,,
20392,,,survey-text,129,1251649,0.0-13.0-3.19,23972,List2A,black,woman,,,,,"{""Q0"":""Ruth is shouting at Luke.""}","<img src=""stim_listA/shout1.gif""</stim_listA>",is shouting at,
10880,"<img src='img/portrait_matrix_list2.JPG' style='width:900px;height:500px;''></img><p>If you have memorised all the portraits and names and are ready to start, press Continue.</p><p><strong>Please note: Your memory of these faces will be tested 4 times during this experiment.</strong></p>",0,html-button-response,130,1262532,0.0-14.0-0.0,23972,List2A,black,woman,,,,,,,,
3462,"<img src=""portrait/BM2.jpg""style=""width:400px;height:400px;""></img>",5,html-button-response,131,1267009,0.0-14.0-1.0,23972,List2A,black,woman,,TRUE,5,,,,,
null,CORRECT,,html-keyboard-response,132,1268518,0.0-14.0-2.0-0.0,23972,List2A,black,woman,,,,null,,,,
2631,"<img src=""portrait/BW1.jpg""style=""width:400px;height:400px;""></img>",0,html-button-response,133,1271160,0.0-14.0-4.0,23972,List2A,black,woman,,TRUE,0,,,,,
null,CORRECT,,html-keyboard-response,134,1272670,0.0-14.0-5.0-0.0,23972,List2A,black,woman,,,,null,,,,
2298,"<img src=""portrait/WM1.jpg""style=""width:400px;height:400px;""></img>",6,html-button-response,135,1274980,0.0-14.0-7.0,23972,List2A,black,woman,,TRUE,6,,,,,
null,CORRECT,,html-keyboard-response,136,1276490,0.0-14.0-8.0-0.0,23972,List2A,black,woman,,,,null,,,,
2752,"<img src=""portrait/BW2.jpg""style=""width:400px;height:400px;""></img>",2,html-button-response,137,1279253,0.0-14.0-10.0,23972,List2A,black,woman,,TRUE,2,,,,,
null,CORRECT,,html-keyboard-response,138,1280762,0.0-14.0-11.0-0.0,23972,List2A,black,woman,,,,null,,,,
1659,"<img src=""portrait/WM2.jpg""style=""width:400px;height:400px;""></img>",7,html-button-response,139,1282433,0.0-14.0-13.0,23972,List2A,black,woman,,TRUE,7,,,,,
null,CORRECT,,html-keyboard-response,140,1283943,0.0-14.0-14.0-0.0,23972,List2A,black,woman,,,,null,,,,
1913,"<img src=""portrait/BM1.jpg""style=""width:400px;height:400px;""></img>",4,html-button-response,141,1285868,0.0-14.0-16.0,23972,List2A,black,woman,,TRUE,4,,,,,
null,CORRECT,,html-keyboard-response,142,1287377,0.0-14.0-17.0-0.0,23972,List2A,black,woman,,,,null,,,,
1715,"<img src=""portrait/WW2.jpg""style=""width:400px;height:400px;""></img>",3,html-button-response,143,1289104,0.0-14.0-19.0,23972,List2A,black,woman,,TRUE,3,,,,,
null,CORRECT,,html-keyboard-response,144,1290613,0.0-14.0-20.0-0.0,23972,List2A,black,woman,,,,null,,,,
1945,"<img src=""portrait/WW1.jpg""style=""width:400px;height:400px;""></img>",1,html-button-response,145,1292568,0.0-14.0-22.0,23972,List2A,black,woman,,TRUE,1,,,,,
null,CORRECT,,html-keyboard-response,146,1294078,0.0-14.0-23.0-0.0,23972,List2A,black,woman,,,,null,,,,
2111,<p>You got 8 out of 8 right first time. Press Continue.</p>,0,html-button-response,147,1296200,0.0-14.0-25.0,23972,List2A,black,woman,,,,,,,,
null,"<div style=""font-size:60px;"">+</div>",,html-keyboard-response,148,1297714,0.0-15.0-0.0,23972,List2A,black,woman,,,,null,,,,
null,"<img src=""stim_listA/dance7.gif""</stim_listA>",,html-keyboard-response,149,1299726,0.0-15.0-1.0,23972,List2A,black,woman,,,,null,,,,
null,is dancing with,,html-keyboard-response,150,1301734,0.0-15.0-2.0,23972,List2A,black,woman,,,,null,,,,
25304,,,survey-text,151,1327044,0.0-15.0-3.0,23972,List2A,black,woman,,,,,"{""Q0"":""Kate is dancing with Jane. ""}","<img src=""stim_listA/dance7.gif""</stim_listA>",is dancing with,
null,"<div style=""font-size:60px;"">+</div>",,html-keyboard-response,152,1327549,0.0-15.0-0.1,23972,List2A,black,woman,,,,null,,,,
null,"<img src=""stim_listA/fight2.gif""</stim_listA>",,html-keyboard-response,153,1329562,0.0-15.0-1.1,23972,List2A,black,woman,,,,null,,,,
null,are fighting each other,,html-keyboard-response,154,1331570,0.0-15.0-2.1,23972,List2A,black,woman,,,,null,,,,
33466,,,survey-text,155,1365044,0.0-15.0-3.1,23972,List2A,black,woman,,,,,"{""Q0"":""Ruth and Luke are fighting each other. ""}","<img src=""stim_listA/fight2.gif""</stim_listA>",are fighting each other,
null,"<div style=""font-size:60px;"">+</div>",,html-keyboard-response,156,1365548,0.0-15.0-0.2,23972,List2A,black,woman,,,,null,,,,
null,"<img src=""stim_listA/shout5.gif""</stim_listA>",,html-keyboard-response,157,1367561,0.0-15.0-1.2,23972,List2A,black,woman,,,,null,,,,
null,is shouting at,,html-keyboard-response,158,1369568,0.0-15.0-2.2,23972,List2A,black,woman,,,,null,,,,
16586,,,survey-text,159,1386159,0.0-15.0-3.2,23972,List2A,black,woman,,,,,"{""Q0"":""Luke is shouting at Fred.""}","<img src=""stim_listA/shout5.gif""</stim_listA>",is shouting at,
null,"<div style=""font-size:60px;"">+</div>",,html-keyboard-response,160,1386664,0.0-15.0-0.3,23972,List2A,black,woman,,,,null,,,,
null,"<img src=""stim_listA/shout7.gif""</stim_listA>",,html-keyboard-response,161,1388676,0.0-15.0-1.3,23972,List2A,black,woman,,,,null,,,,
null,is shouting at,,html-keyboard-response,162,1390684,0.0-15.0-2.3,23972,List2A,black,woman,,,,null,,,,
11336,,,survey-text,163,1402026,0.0-15.0-3.3,23972,List2A,black,woman,,,,,"{""Q0"":""Ruth is shouting at Beth.""}","<img src=""stim_listA/shout7.gif""</stim_listA>",is shouting at,
null,"<div style=""font-size:60px;"">+</div>",,html-keyboard-response,164,1402532,0.0-15.0-0.4,23972,List2A,black,woman,,,,null,,,,
null,"<img src=""stim_listA/fight4.gif""</stim_listA>",,html-keyboard-response,165,1404544,0.0-15.0-1.4,23972,List2A,black,woman,,,,null,,,,
null,are fighting each other,,html-keyboard-response,166,1406552,0.0-15.0-2.4,23972,List2A,black,woman,,,,null,,,,
27721,,,survey-text,167,1434278,0.0-15.0-3.4,23972,List2A,black,woman,,,,,"{""Q0"":""Beth and Fred are fighting each other. ""}","<img src=""stim_listA/fight4.gif""</stim_listA>",are fighting each other,
null,"<div style=""font-size:60px;"">+</div>",,html-keyboard-response,168,1434783,0.0-15.0-0.5,23972,List2A,black,woman,,,,null,,,,
null,"<img src=""stim_listA/meet2.gif""</stim_listA>",,html-keyboard-response,169,1436796,0.0-15.0-1.5,23972,List2A,black,woman,,,,null,,,,
null,are meeting each other,,html-keyboard-response,170,1438804,0.0-15.0-2.5,23972,List2A,black,woman,,,,null,,,,
18607,,,survey-text,171,1457418,0.0-15.0-3.5,23972,List2A,black,woman,,,,,"{""Q0"":""Ruth and Luke are meeting each other. ""}","<img src=""stim_listA/meet2.gif""</stim_listA>",are meeting each other,
null,"<div style=""font-size:60px;"">+</div>",,html-keyboard-response,172,1457922,0.0-15.0-0.6,23972,List2A,black,woman,,,,null,,,,
null,"<img src=""stim_listA/talk1.gif""</stim_listA>",,html-keyboard-response,173,1459935,0.0-15.0-1.6,23972,List2A,black,woman,,,,null,,,,
null,is talking to,,html-keyboard-response,174,1461943,0.0-15.0-2.6,23972,List2A,black,woman,,,,null,,,,
19072,,,survey-text,175,1481022,0.0-15.0-3.6,23972,List2A,black,woman,,,,,"{""Q0"":""Luke is talking to Jane.""}","<img src=""stim_listA/talk1.gif""</stim_listA>",is talking to,
null,"<div style=""font-size:60px;"">+</div>",,html-keyboard-response,176,1481527,0.0-15.0-0.7,23972,List2A,black,woman,,,,null,,,,
null,"<img src=""stim_listA/shout4.gif""</stim_listA>",,html-keyboard-response,177,1483540,0.0-15.0-1.7,23972,List2A,black,woman,,,,null,,,,
null,are shouting at each other,,html-keyboard-response,178,1485547,0.0-15.0-2.7,23972,List2A,black,woman,,,,null,,,,
20653,,,survey-text,179,1506206,0.0-15.0-3.7,23972,List2A,black,woman,,,,,"{""Q0"":""Kate and Mike are shouting at each other. ""}","<img src=""stim_listA/shout4.gif""</stim_listA>",are shouting at each other,
null,"<div style=""font-size:60px;"">+</div>",,html-keyboard-response,180,1506710,0.0-15.0-0.8,23972,List2A,black,woman,,,,null,,,,
null,"<img src=""stim_listA/hug4.gif""</stim_listA>",,html-keyboard-response,181,1508725,0.0-15.0-1.8,23972,List2A,black,woman,,,,null,,,,
null,are hugging each other,,html-keyboard-response,182,1510733,0.0-15.0-2.8,23972,List2A,black,woman,,,,null,,,,
15728,,,survey-text,183,1526467,0.0-15.0-3.8,23972,List2A,black,woman,,,,,"{""Q0"":""Kate and Mike are hugging each other. ""}","<img src=""stim_listA/hug4.gif""</stim_listA>",are hugging each other,
null,"<div style=""font-size:60px;"">+</div>",,html-keyboard-response,184,1526972,0.0-15.0-0.9,23972,List2A,black,woman,,,,null,,,,
null,"<img src=""stim_listA/meet3.gif""</stim_listA>",,html-keyboard-response,185,1528985,0.0-15.0-1.9,23972,List2A,black,woman,,,,null,,,,
null,is meeting,,html-keyboard-response,186,1530993,0.0-15.0-2.9,23972,List2A,black,woman,,,,null,,,,
17480,,,survey-text,187,1548480,0.0-15.0-3.9,23972,List2A,black,woman,,,,,"{""Q0"":""Kate is meeting Mike. ""}","<img src=""stim_listA/meet3.gif""</stim_listA>",is meeting,
null,"<div style=""font-size:60px;"">+</div>",,html-keyboard-response,188,1548983,0.0-15.0-0.10,23972,List2A,black,woman,,,,null,,,,
null,"<img src=""stim_listA/shout6.gif""</stim_listA>",,html-keyboard-response,189,1550991,0.0-15.0-1.10,23972,List2A,black,woman,,,,null,,,,
null,are shouting at each other,,html-keyboard-response,190,1552998,0.0-15.0-2.10,23972,List2A,black,woman,,,,null,,,,
12952,,,survey-text,191,1565957,0.0-15.0-3.10,23972,List2A,black,woman,,,,,"{""Q0"":""Mike and Dave are shouting at each other. ""}","<img src=""stim_listA/shout6.gif""</stim_listA>",are shouting at each other,
null,"<div style=""font-size:60px;"">+</div>",,html-keyboard-response,192,1566461,0.0-15.0-0.11,23972,List2A,black,woman,,,,null,,,,
null,"<img src=""stim_listA/kiss6.gif""</stim_listA>",,html-keyboard-response,193,1568474,0.0-15.0-1.11,23972,List2A,black,woman,,,,null,,,,
null,are kissing each other,,html-keyboard-response,194,1570482,0.0-15.0-2.11,23972,List2A,black,woman,,,,null,,,,
23722,,,survey-text,195,1594227,0.0-15.0-3.11,23972,List2A,black,woman,,,,,"{""Q0"":""Dave and Mike are kissing each other. ""}","<img src=""stim_listA/kiss6.gif""</stim_listA>",are kissing each other,
null,"<div style=""font-size:60px;"">+</div>",,html-keyboard-response,196,1594731,0.0-15.0-0.12,23972,List2A,black,woman,,,,null,,,,
null,"<img src=""stim_listA/meet4.gif""</stim_listA>",,html-keyboard-response,197,1596744,0.0-15.0-1.12,23972,List2A,black,woman,,,,null,,,,
null,are meeting each other,,html-keyboard-response,198,1598751,0.0-15.0-2.12,23972,List2A,black,woman,,,,null,,,,
13117,,,survey-text,199,1611875,0.0-15.0-3.12,23972,List2A,black,woman,,,,,"{""Q0"":""Beth and Fred are meeting each other. ""}","<img src=""stim_listA/meet4.gif""</stim_listA>",are meeting each other,
null,"<div style=""font-size:60px;"">+</div>",,html-keyboard-response,200,1612381,0.0-15.0-0.13,23972,List2A,black,woman,,,,null,,,,
null,"<img src=""stim_listA/shout3.gif""</stim_listA>",,html-keyboard-response,201,1614395,0.0-15.0-1.13,23972,List2A,black,woman,,,,null,,,,
null,is shouting at,,html-keyboard-response,202,1616402,0.0-15.0-2.13,23972,List2A,black,woman,,,,null,,,,
12601,,,survey-text,203,1629010,0.0-15.0-3.13,23972,List2A,black,woman,,,,,"{""Q0"":""Beth is shouting at Fred. ""}","<img src=""stim_listA/shout3.gif""</stim_listA>",is shouting at,
null,"<div style=""font-size:60px;"">+</div>",,html-keyboard-response,204,1629515,0.0-15.0-0.14,23972,List2A,black,woman,,,,null,,,,
null,"<img src=""stim_listA/marry1.gif""</stim_listA>",,html-keyboard-response,205,1631528,0.0-15.0-1.14,23972,List2A,black,woman,,,,null,,,,
null,is marrying,,html-keyboard-response,206,1633536,0.0-15.0-2.14,23972,List2A,black,woman,,,,null,,,,
11152,,,survey-text,207,1644695,0.0-15.0-3.14,23972,List2A,black,woman,,,,,"{""Q0"":""Dave is marrying Ruth. ""}","<img src=""stim_listA/marry1.gif""</stim_listA>",is marrying,
null,"<div style=""font-size:60px;"">+</div>",,html-keyboard-response,208,1645199,0.0-15.0-0.15,23972,List2A,black,woman,,,,null,,,,
null,"<img src=""stim_listA/dance5.gif""</stim_listA>",,html-keyboard-response,209,1647212,0.0-15.0-1.15,23972,List2A,black,woman,,,,null,,,,
null,is dancing with,,html-keyboard-response,210,1649220,0.0-15.0-2.15,23972,List2A,black,woman,,,,null,,,,
15316,,,survey-text,211,1664542,0.0-15.0-3.15,23972,List2A,black,woman,,,,,"{""Q0"":""Luke is dancing with Mike. ""}","<img src=""stim_listA/dance5.gif""</stim_listA>",is dancing with,
null,"<div style=""font-size:60px;"">+</div>",,html-keyboard-response,212,1665047,0.0-15.0-0.16,23972,List2A,black,woman,,,,null,,,,
null,"<img src=""stim_listA/touch8.gif""</stim_listA>",,html-keyboard-response,213,1667061,0.0-15.0-1.16,23972,List2A,black,woman,,,,null,,,,
null,are touching each other,,html-keyboard-response,214,1669068,0.0-15.0-2.16,23972,List2A,black,woman,,,,null,,,,
19553,,,survey-text,215,1688627,0.0-15.0-3.16,23972,List2A,black,woman,,,,,"{""Q0"":""Beth and Ruth are touching each other. ""}","<img src=""stim_listA/touch8.gif""</stim_listA>",are touching each other,
null,"<div style=""font-size:60px;"">+</div>",,html-keyboard-response,216,1689131,0.0-15.0-0.17,23972,List2A,black,woman,,,,null,,,,
null,"<img src=""stim_listA/marry6.gif""</stim_listA>",,html-keyboard-response,217,1691144,0.0-15.0-1.17,23972,List2A,black,woman,,,,null,,,,
null,are marrying each other,,html-keyboard-response,218,1693151,0.0-15.0-2.17,23972,List2A,black,woman,,,,null,,,,
12810,,,survey-text,219,1705969,0.0-15.0-3.17,23972,List2A,black,woman,,,,,"{""Q0"":""Mike and Luke are marrying each other. ""}","<img src=""stim_listA/marry6.gif""</stim_listA>",are marrying each other,
null,"<div style=""font-size:60px;"">+</div>",,html-keyboard-response,220,1706473,0.0-15.0-0.18,23972,List2A,black,woman,,,,null,,,,
null,"<img src=""stim_listA/argue7.gif""</stim_listA>",,html-keyboard-response,221,1708484,0.0-15.0-1.18,23972,List2A,black,woman,,,,null,,,,
null,is arguing with,,html-keyboard-response,222,1710491,0.0-15.0-2.18,23972,List2A,black,woman,,,,null,,,,
17563,,,survey-text,223,1728061,0.0-15.0-3.18,23972,List2A,black,woman,,,,,"{""Q0"":""Jane is arguing with Beth. ""}","<img src=""stim_listA/argue7.gif""</stim_listA>",is arguing with,
null,"<div style=""font-size:60px;"">+</div>",,html-keyboard-response,224,1728566,0.0-15.0-0.19,23972,List2A,black,woman,,,,null,,,,
null,"<img src=""stim_listA/kiss5.gif""</stim_listA>",,html-keyboard-response,225,1730578,0.0-15.0-1.19,23972,List2A,black,woman,,,,null,,,,
null,is kissing,,html-keyboard-response,226,1732589,0.0-15.0-2.19,23972,List2A,black,woman,,,,null,,,,
13308,,,survey-text,227,1745904,0.0-15.0-3.19,23972,List2A,black,woman,,,,,"{""Q0"":""Luke is kissing Fred. ""}","<img src=""stim_listA/kiss5.gif""</stim_listA>",is kissing,
8512,"<img src='img/portrait_matrix_list2.JPG' style='width:900px;height:500px;''></img><p>If you have memorised all the portraits and names and are ready to start, press Continue.</p><p><strong>Please note: Your memory of these faces will be tested 4 times during this experiment.</strong></p>",0,html-button-response,228,1754421,0.0-16.0-0.0,23972,List2A,black,woman,,,,,,,,
2765,"<img src=""portrait/BM2.jpg""style=""width:400px;height:400px;""></img>",5,html-button-response,229,1758201,0.0-16.0-1.0,23972,List2A,black,woman,,TRUE,5,,,,,
null,CORRECT,,html-keyboard-response,230,1759710,0.0-16.0-2.0-0.0,23972,List2A,black,woman,,,,null,,,,
2036,"<img src=""portrait/WW1.jpg""style=""width:400px;height:400px;""></img>",1,html-button-response,231,1761757,0.0-16.0-4.0,23972,List2A,black,woman,,TRUE,1,,,,,
null,CORRECT,,html-keyboard-response,232,1763266,0.0-16.0-5.0-0.0,23972,List2A,black,woman,,,,null,,,,
2744,"<img src=""portrait/BM1.jpg""style=""width:400px;height:400px;""></img>",4,html-button-response,233,1766024,0.0-16.0-7.0,23972,List2A,black,woman,,TRUE,4,,,,,
null,CORRECT,,html-keyboard-response,234,1767534,0.0-16.0-8.0-0.0,23972,List2A,black,woman,,,,null,,,,
1673,"<img src=""portrait/BW1.jpg""style=""width:400px;height:400px;""></img>",0,html-button-response,235,1769218,0.0-16.0-10.0,23972,List2A,black,woman,,TRUE,0,,,,,
null,CORRECT,,html-keyboard-response,236,1770728,0.0-16.0-11.0-0.0,23972,List2A,black,woman,,,,null,,,,
1795,"<img src=""portrait/WM1.jpg""style=""width:400px;height:400px;""></img>",6,html-button-response,237,1772534,0.0-16.0-13.0,23972,List2A,black,woman,,TRUE,6,,,,,
null,CORRECT,,html-keyboard-response,238,1774045,0.0-16.0-14.0-0.0,23972,List2A,black,woman,,,,null,,,,
1524,"<img src=""portrait/WW2.jpg""style=""width:400px;height:400px;""></img>",3,html-button-response,239,1775581,0.0-16.0-16.0,23972,List2A,black,woman,,TRUE,3,,,,,
null,CORRECT,,html-keyboard-response,240,1777093,0.0-16.0-17.0-0.0,23972,List2A,black,woman,,,,null,,,,
1624,"<img src=""portrait/WM2.jpg""style=""width:400px;height:400px;""></img>",7,html-button-response,241,1778729,0.0-16.0-19.0,23972,List2A,black,woman,,TRUE,7,,,,,
null,CORRECT,,html-keyboard-response,242,1780239,0.0-16.0-20.0-0.0,23972,List2A,black,woman,,,,null,,,,
2457,"<img src=""portrait/BW2.jpg""style=""width:400px;height:400px;""></img>",2,html-button-response,243,1782708,0.0-16.0-22.0,23972,List2A,black,woman,,TRUE,2,,,,,
null,CORRECT,,html-keyboard-response,244,1784218,0.0-16.0-23.0-0.0,23972,List2A,black,woman,,,,null,,,,
2718,<p>You got 8 out of 8 right first time. Press Continue.</p>,0,html-button-response,245,1786948,0.0-16.0-25.0,23972,List2A,black,woman,,,,,,,,
null,"<div style=""font-size:60px;"">+</div>",,html-keyboard-response,246,1788461,0.0-17.0-0.0,23972,List2A,black,woman,,,,null,,,,
null,"<img src=""stim_listA/talk7.gif""</stim_listA>",,html-keyboard-response,247,1790474,0.0-17.0-1.0,23972,List2A,black,woman,,,,null,,,,
null,is talking to,,html-keyboard-response,248,1792484,0.0-17.0-2.0,23972,List2A,black,woman,,,,null,,,,
16581,,,survey-text,249,1809071,0.0-17.0-3.0,23972,List2A,black,woman,,,,,"{""Q0"":""Ruth is talking to Kate. ""}","<img src=""stim_listA/talk7.gif""</stim_listA>",is talking to,
null,"<div style=""font-size:60px;"">+</div>",,html-keyboard-response,250,1809577,0.0-17.0-0.1,23972,List2A,black,woman,,,,null,,,,
null,"<img src=""stim_listA/touch6.gif""</stim_listA>",,html-keyboard-response,251,1811590,0.0-17.0-1.1,23972,List2A,black,woman,,,,null,,,,
null,are touching each other,,html-keyboard-response,252,1813598,0.0-17.0-2.1,23972,List2A,black,woman,,,,null,,,,
16894,,,survey-text,253,1830499,0.0-17.0-3.1,23972,List2A,black,woman,,,,,"{""Q0"":""Fred and Luke are touching each other. ""}","<img src=""stim_listA/touch6.gif""</stim_listA>",are touching each other,
null,"<div style=""font-size:60px;"">+</div>",,html-keyboard-response,254,1831002,0.0-17.0-0.2,23972,List2A,black,woman,,,,null,,,,
null,"<img src=""stim_listA/hug2.gif""</stim_listA>",,html-keyboard-response,255,1833015,0.0-17.0-1.2,23972,List2A,black,woman,,,,null,,,,
null,are hugging each other,,html-keyboard-response,256,1835025,0.0-17.0-2.2,23972,List2A,black,woman,,,,null,,,,
13255,,,survey-text,257,1848286,0.0-17.0-3.2,23972,List2A,black,woman,,,,,"{""Q0"":""Jane and Dave are hugging each other. ""}","<img src=""stim_listA/hug2.gif""</stim_listA>",are hugging each other,
null,"<div style=""font-size:60px;"">+</div>",,html-keyboard-response,258,1848790,0.0-17.0-0.3,23972,List2A,black,woman,,,,null,,,,
null,"<img src=""stim_listA/kiss4.gif""</stim_listA>",,html-keyboard-response,259,1850805,0.0-17.0-1.3,23972,List2A,black,woman,,,,null,,,,
null,are kissing each other,,html-keyboard-response,260,1852813,0.0-17.0-2.3,23972,List2A,black,woman,,,,null,,,,
11439,,,survey-text,261,1864258,0.0-17.0-3.3,23972,List2A,black,woman,,,,,"{""Q0"":""Kate and Mike are kissing each other. ""}","<img src=""stim_listA/kiss4.gif""</stim_listA>",are kissing each other,
null,"<div style=""font-size:60px;"">+</div>",,html-keyboard-response,262,1864766,0.0-17.0-0.4,23972,List2A,black,woman,,,,null,,,,
null,"<img src=""stim_listA/fight7.gif""</stim_listA>",,html-keyboard-response,263,1866780,0.0-17.0-1.4,23972,List2A,black,woman,,,,null,,,,
null,is fighting,,html-keyboard-response,264,1868788,0.0-17.0-2.4,23972,List2A,black,woman,,,,null,,,,
13882,,,survey-text,265,1882677,0.0-17.0-3.4,23972,List2A,black,woman,,,,,"{""Q0"":""Kate is fighting Jane. ""}","<img src=""stim_listA/fight7.gif""</stim_listA>",is fighting,
null,"<div style=""font-size:60px;"">+</div>",,html-keyboard-response,266,1883180,0.0-17.0-0.5,23972,List2A,black,woman,,,,null,,,,
null,"<img src=""stim_listA/argue4.gif""</stim_listA>",,html-keyboard-response,267,1885187,0.0-17.0-1.5,23972,List2A,black,woman,,,,null,,,,
null,are arguing with each other,,html-keyboard-response,268,1887195,0.0-17.0-2.5,23972,List2A,black,woman,,,,null,,,,
25818,,,survey-text,269,1913019,0.0-17.0-3.5,23972,List2A,black,woman,,,,,"{""Q0"":""Kate and Fred are arguing with each other ""}","<img src=""stim_listA/argue4.gif""</stim_listA>",are arguing with each other,
null,"<div style=""font-size:60px;"">+</div>",,html-keyboard-response,270,1913525,0.0-17.0-0.6,23972,List2A,black,woman,,,,null,,,,
null,"<img src=""stim_listA/talk3.gif""</stim_listA>",,html-keyboard-response,271,1915538,0.0-17.0-1.6,23972,List2A,black,woman,,,,null,,,,
null,is talking to,,html-keyboard-response,272,1917546,0.0-17.0-2.6,23972,List2A,black,woman,,,,null,,,,
15334,,,survey-text,273,1932898,0.0-17.0-3.6,23972,List2A,black,woman,,,,,"{""Q0"":""Kate is talking to Fred. ""}","<img src=""stim_listA/talk3.gif""</stim_listA>",is talking to,
null,"<div style=""font-size:60px;"">+</div>",,html-keyboard-response,274,1933405,0.0-17.0-0.7,23972,List2A,black,woman,,,,null,,,,
null,"<img src=""stim_listA/fight6.gif""</stim_listA>",,html-keyboard-response,275,1935418,0.0-17.0-1.7,23972,List2A,black,woman,,,,null,,,,
null,are fighting each other,,html-keyboard-response,276,1937426,0.0-17.0-2.7,23972,List2A,black,woman,,,,null,,,,
12352,,,survey-text,277,1949785,0.0-17.0-3.7,23972,List2A,black,woman,,,,,"{""Q0"":""Fred and Luke are fighting each other. ""}","<img src=""stim_listA/fight6.gif""</stim_listA>",are fighting each other,
null,"<div style=""font-size:60px;"">+</div>",,html-keyboard-response,278,1950293,0.0-17.0-0.8,23972,List2A,black,woman,,,,null,,,,
null,"<img src=""stim_listA/dance6.gif""</stim_listA>",,html-keyboard-response,279,1952306,0.0-17.0-1.8,23972,List2A,black,woman,,,,null,,,,
null,are dancing with each other,,html-keyboard-response,280,1954314,0.0-17.0-2.8,23972,List2A,black,woman,,,,null,,,,
13876,,,survey-text,281,1968196,0.0-17.0-3.8,23972,List2A,black,woman,,,,,"{""Q0"":""Dave and Fred are dancing with each other. ""}","<img src=""stim_listA/dance6.gif""</stim_listA>",are dancing with each other,
null,"<div style=""font-size:60px;"">+</div>",,html-keyboard-response,282,1968700,0.0-17.0-0.9,23972,List2A,black,woman,,,,null,,,,
null,"<img src=""stim_listA/touch5.gif""</stim_listA>",,html-keyboard-response,283,1970714,0.0-17.0-1.9,23972,List2A,black,woman,,,,null,,,,
null,is touching,,html-keyboard-response,284,1972721,0.0-17.0-2.9,23972,List2A,black,woman,,,,null,,,,
12037,,,survey-text,285,1984765,0.0-17.0-3.9,23972,List2A,black,woman,,,,,"{""Q0"":""Dave is touching Mike. ""}","<img src=""stim_listA/touch5.gif""</stim_listA>",is touching,
null,"<div style=""font-size:60px;"">+</div>",,html-keyboard-response,286,1985270,0.0-17.0-0.10,23972,List2A,black,woman,,,,null,,,,
null,"<img src=""stim_listA/hug3.gif""</stim_listA>",,html-keyboard-response,287,1987284,0.0-17.0-1.10,23972,List2A,black,woman,,,,null,,,,
null,is hugging,,html-keyboard-response,288,1989295,0.0-17.0-2.10,23972,List2A,black,woman,,,,null,,,,
15686,,,survey-text,289,2004987,0.0-17.0-3.10,23972,List2A,black,woman,,,,,"{""Q0"":""Fred is hugging Beth. ""}","<img src=""stim_listA/hug3.gif""</stim_listA>",is hugging,
null,"<div style=""font-size:60px;"">+</div>",,html-keyboard-response,290,2005494,0.0-17.0-0.11,23972,List2A,black,woman,,,,null,,,,
null,"<img src=""stim_listA/touch3.gif""</stim_listA>",,html-keyboard-response,291,2007508,0.0-17.0-1.11,23972,List2A,black,woman,,,,null,,,,
null,is touching,,html-keyboard-response,292,2009516,0.0-17.0-2.11,23972,List2A,black,woman,,,,null,,,,
11749,,,survey-text,293,2021271,0.0-17.0-3.11,23972,List2A,black,woman,,,,,"{""Q0"":""Kate is touching Mike. ""}","<img src=""stim_listA/touch3.gif""</stim_listA>",is touching,
null,"<div style=""font-size:60px;"">+</div>",,html-keyboard-response,294,2021776,0.0-17.0-0.12,23972,List2A,black,woman,,,,null,,,,
null,"<img src=""stim_listA/touch1.gif""</stim_listA>",,html-keyboard-response,295,2023790,0.0-17.0-1.12,23972,List2A,black,woman,,,,null,,,,
null,is touching,,html-keyboard-response,296,2025797,0.0-17.0-2.12,23972,List2A,black,woman,,,,null,,,,
15747,,,survey-text,297,2041551,0.0-17.0-3.12,23972,List2A,black,woman,,,,,"{""Q0"":""Jane is touching Dave. ""}","<img src=""stim_listA/touch1.gif""</stim_listA>",is touching,
null,"<div style=""font-size:60px;"">+</div>",,html-keyboard-response,298,2042056,0.0-17.0-0.13,23972,List2A,black,woman,,,,null,,,,
null,"<img src=""stim_listA/talk6.gif""</stim_listA>",,html-keyboard-response,299,2044069,0.0-17.0-1.13,23972,List2A,black,woman,,,,null,,,,
null,are talking to each other,,html-keyboard-response,300,2046077,0.0-17.0-2.13,23972,List2A,black,woman,,,,null,,,,
16604,,,survey-text,301,2062688,0.0-17.0-3.13,23972,List2A,black,woman,,,,,"{""Q0"":""Fred and Dave are talking to each other. ""}","<img src=""stim_listA/talk6.gif""</stim_listA>",are talking to each other,
null,"<div style=""font-size:60px;"">+</div>",,html-keyboard-response,302,2063192,0.0-17.0-0.14,23972,List2A,black,woman,,,,null,,,,
null,"<img src=""stim_listA/argue3.gif""</stim_listA>",,html-keyboard-response,303,2065206,0.0-17.0-1.14,23972,List2A,black,woman,,,,null,,,,
null,is arguing with,,html-keyboard-response,304,2067214,0.0-17.0-2.14,23972,List2A,black,woman,,,,null,,,,
16968,,,survey-text,305,2084188,0.0-17.0-3.14,23972,List2A,black,woman,,,,,"{""Q0"":""Beth is arguing with Mike. ""}","<img src=""stim_listA/argue3.gif""</stim_listA>",is arguing with,
null,"<div style=""font-size:60px;"">+</div>",,html-keyboard-response,306,2084693,0.0-17.0-0.15,23972,List2A,black,woman,,,,null,,,,
null,"<img src=""stim_listA/fight3.gif""</stim_listA>",,html-keyboard-response,307,2086706,0.0-17.0-1.15,23972,List2A,black,woman,,,,null,,,,
null,is fighting,,html-keyboard-response,308,2088713,0.0-17.0-2.15,23972,List2A,black,woman,,,,null,,,,
14358,,,survey-text,309,2103078,0.0-17.0-3.15,23972,List2A,black,woman,,,,,"{""Q0"":""Mike is fighting Kate. ""}","<img src=""stim_listA/fight3.gif""</stim_listA>",is fighting,
null,"<div style=""font-size:60px;"">+</div>",,html-keyboard-response,310,2103583,0.0-17.0-0.16,23972,List2A,black,woman,,,,null,,,,
null,"<img src=""stim_listA/hug6.gif""</stim_listA>",,html-keyboard-response,311,2105596,0.0-17.0-1.16,23972,List2A,black,woman,,,,null,,,,
null,are hugging each other,,html-keyboard-response,312,2107605,0.0-17.0-2.16,23972,List2A,black,woman,,,,null,,,,
12809,,,survey-text,313,2120421,0.0-17.0-3.16,23972,List2A,black,woman,,,,,"{""Q0"":""Mike and Dave are hugging each other. ""}","<img src=""stim_listA/hug6.gif""</stim_listA>",are hugging each other,
null,"<div style=""font-size:60px;"">+</div>",,html-keyboard-response,314,2120926,0.0-17.0-0.17,23972,List2A,black,woman,,,,null,,,,
null,"<img src=""stim_listA/marry4.gif""</stim_listA>",,html-keyboard-response,315,2122939,0.0-17.0-1.17,23972,List2A,black,woman,,,,null,,,,
null,are marrying each other,,html-keyboard-response,316,2124947,0.0-17.0-2.17,23972,List2A,black,woman,,,,null,,,,
11797,,,survey-text,317,2136752,0.0-17.0-3.17,23972,List2A,black,woman,,,,,"{""Q0"":""Kate and Fred are marrying each other. ""}","<img src=""stim_listA/marry4.gif""</stim_listA>",are marrying each other,
null,"<div style=""font-size:60px;"">+</div>",,html-keyboard-response,318,2137256,0.0-17.0-0.18,23972,List2A,black,woman,,,,null,,,,
null,"<img src=""stim_listA/hug5.gif""</stim_listA>",,html-keyboard-response,319,2139270,0.0-17.0-1.18,23972,List2A,black,woman,,,,null,,,,
null,is hugging,,html-keyboard-response,320,2141278,0.0-17.0-2.18,23972,List2A,black,woman,,,,null,,,,
19988,,,survey-text,321,2161271,0.0-17.0-3.18,23972,List2A,black,woman,,,,,"{""Q0"":""Luke is hugging Fred. ""}","<img src=""stim_listA/hug5.gif""</stim_listA>",is hugging,
null,"<div style=""font-size:60px;"">+</div>",,html-keyboard-response,322,2161776,0.0-17.0-0.19,23972,List2A,black,woman,,,,null,,,,
null,"<img src=""stim_listA/marry8.gif""</stim_listA>",,html-keyboard-response,323,2163790,0.0-17.0-1.19,23972,List2A,black,woman,,,,null,,,,
null,are marrying each other,,html-keyboard-response,324,2165797,0.0-17.0-2.19,23972,List2A,black,woman,,,,null,,,,
14060,,,survey-text,325,2179864,0.0-17.0-3.19,23972,List2A,black,woman,,,,,"{""Q0"":""Kate and Ruth are marrying each other. ""}","<img src=""stim_listA/marry8.gif""</stim_listA>",are marrying each other,
3733,"<img src='img/portrait_matrix_list2.JPG' style='width:900px;height:500px;''></img><p>If you have memorised all the portraits and names and are ready to start, press Continue.</p><p><strong>Please note: Your memory of these faces will be tested 4 times during this experiment.</strong></p>",0,html-button-response,326,2183601,0.0-18.0-0.0,23972,List2A,black,woman,,,,,,,,
1920,"<img src=""portrait/BW2.jpg""style=""width:400px;height:400px;""></img>",2,html-button-response,327,2186536,0.0-18.0-1.0,23972,List2A,black,woman,,TRUE,2,,,,,
null,CORRECT,,html-keyboard-response,328,2188046,0.0-18.0-2.0-0.0,23972,List2A,black,woman,,,,null,,,,
2949,"<img src=""portrait/WW1.jpg""style=""width:400px;height:400px;""></img>",1,html-button-response,329,2191006,0.0-18.0-4.0,23972,List2A,black,woman,,TRUE,1,,,,,
null,CORRECT,,html-keyboard-response,330,2192516,0.0-18.0-5.0-0.0,23972,List2A,black,woman,,,,null,,,,
1761,"<img src=""portrait/BM2.jpg""style=""width:400px;height:400px;""></img>",5,html-button-response,331,2194290,0.0-18.0-7.0,23972,List2A,black,woman,,TRUE,5,,,,,
null,CORRECT,,html-keyboard-response,332,2195802,0.0-18.0-8.0-0.0,23972,List2A,black,woman,,,,null,,,,
1802,"<img src=""portrait/WM1.jpg""style=""width:400px;height:400px;""></img>",6,html-button-response,333,2197617,0.0-18.0-10.0,23972,List2A,black,woman,,TRUE,6,,,,,
null,CORRECT,,html-keyboard-response,334,2199129,0.0-18.0-11.0-0.0,23972,List2A,black,woman,,,,null,,,,
1758,"<img src=""portrait/BM1.jpg""style=""width:400px;height:400px;""></img>",4,html-button-response,335,2200901,0.0-18.0-13.0,23972,List2A,black,woman,,TRUE,4,,,,,
null,CORRECT,,html-keyboard-response,336,2202413,0.0-18.0-14.0-0.0,23972,List2A,black,woman,,,,null,,,,
1940,"<img src=""portrait/WW2.jpg""style=""width:400px;height:400px;""></img>",3,html-button-response,337,2204366,0.0-18.0-16.0,23972,List2A,black,woman,,TRUE,3,,,,,
null,CORRECT,,html-keyboard-response,338,2205876,0.0-18.0-17.0-0.0,23972,List2A,black,woman,,,,null,,,,
1824,"<img src=""portrait/WM2.jpg""style=""width:400px;height:400px;""></img>",7,html-button-response,339,2207713,0.0-18.0-19.0,23972,List2A,black,woman,,TRUE,7,,,,,
null,CORRECT,,html-keyboard-response,340,2209224,0.0-18.0-20.0-0.0,23972,List2A,black,woman,,,,null,,,,
2661,"<img src=""portrait/BW1.jpg""style=""width:400px;height:400px;""></img>",0,html-button-response,341,2211907,0.0-18.0-22.0,23972,List2A,black,woman,,TRUE,0,,,,,
null,CORRECT,,html-keyboard-response,342,2213418,0.0-18.0-23.0-0.0,23972,List2A,black,woman,,,,null,,,,
1619,<p>You got 8 out of 8 right first time. Press Continue.</p>,0,html-button-response,343,2215051,0.0-18.0-25.0,23972,List2A,black,woman,,,,,,,,
null,"<div style=""font-size:60px;"">+</div>",,html-keyboard-response,344,2216564,0.0-19.0-0.0,23972,List2A,black,woman,,,,null,,,,
null,"<img src=""stim_listA/dance1.gif""</stim_listA>",,html-keyboard-response,345,2218575,0.0-19.0-1.0,23972,List2A,black,woman,,,,null,,,,
null,is dancing with,,html-keyboard-response,346,2220580,0.0-19.0-2.0,23972,List2A,black,woman,,,,null,,,,
15657,,,survey-text,347,2236248,0.0-19.0-3.0,23972,List2A,black,woman,,,,,"{""Q0"":""Luke is dancing with Jane. ""}","<img src=""stim_listA/dance1.gif""</stim_listA>",is dancing with,
null,"<div style=""font-size:60px;"">+</div>",,html-keyboard-response,348,2236752,0.0-19.0-0.1,23972,List2A,black,woman,,,,null,,,,
null,"<img src=""stim_listA/argue5.gif""</stim_listA>",,html-keyboard-response,349,2238766,0.0-19.0-1.1,23972,List2A,black,woman,,,,null,,,,
null,is arguing with,,html-keyboard-response,350,2240775,0.0-19.0-2.1,23972,List2A,black,woman,,,,null,,,,
14362,,,survey-text,351,2255145,0.0-19.0-3.1,23972,List2A,black,woman,,,,,"{""Q0"":""Dave is arguing with Fred. ""}","<img src=""stim_listA/argue5.gif""</stim_listA>",is arguing with,
null,"<div style=""font-size:60px;"">+</div>",,html-keyboard-response,352,2255651,0.0-19.0-0.2,23972,List2A,black,woman,,,,null,,,,
null,"<img src=""stim_listA/talk8.gif""</stim_listA>",,html-keyboard-response,353,2257665,0.0-19.0-1.2,23972,List2A,black,woman,,,,null,,,,
null,are talking to each other,,html-keyboard-response,354,2259672,0.0-19.0-2.2,23972,List2A,black,woman,,,,null,,,,
18141,,,survey-text,355,2277820,0.0-19.0-3.2,23972,List2A,black,woman,,,,,"{""Q0"":""Beth and Jane are talking to each other. ""}","<img src=""stim_listA/talk8.gif""</stim_listA>",are talking to each other,
null,"<div style=""font-size:60px;"">+</div>",,html-keyboard-response,356,2278326,0.0-19.0-0.3,23972,List2A,black,woman,,,,null,,,,
null,"<img src=""stim_listA/argue2.gif""</stim_listA>",,html-keyboard-response,357,2280338,0.0-19.0-1.3,23972,List2A,black,woman,,,,null,,,,
null,are arguing with each other,,html-keyboard-response,358,2282345,0.0-19.0-2.3,23972,List2A,black,woman,,,,null,,,,
11966,,,survey-text,359,2294318,0.0-19.0-3.3,23972,List2A,black,woman,,,,,"{""Q0"":""Jane and Luke are arguing with each other. ""}","<img src=""stim_listA/argue2.gif""</stim_listA>",are arguing with each other,
null,"<div style=""font-size:60px;"">+</div>",,html-keyboard-response,360,2294823,0.0-19.0-0.4,23972,List2A,black,woman,,,,null,,,,
null,"<img src=""stim_listA/argue8.gif""</stim_listA>",,html-keyboard-response,361,2296836,0.0-19.0-1.4,23972,List2A,black,woman,,,,null,,,,
null,are arguing with each other,,html-keyboard-response,362,2298844,0.0-19.0-2.4,23972,List2A,black,woman,,,,null,,,,
16396,,,survey-text,363,2315247,0.0-19.0-3.4,23972,List2A,black,woman,,,,,"{""Q0"":""Kate and Ruth are arguing with each other. ""}","<img src=""stim_listA/argue8.gif""</stim_listA>",are arguing with each other,
null,"<div style=""font-size:60px;"">+</div>",,html-keyboard-response,364,2315752,0.0-19.0-0.5,23972,List2A,black,woman,,,,null,,,,
null,"<img src=""stim_listA/talk2.gif""</stim_listA>",,html-keyboard-response,365,2317767,0.0-19.0-1.5,23972,List2A,black,woman,,,,null,,,,
null,are talking to each other,,html-keyboard-response,366,2319775,0.0-19.0-2.5,23972,List2A,black,woman,,,,null,,,,
15413,,,survey-text,367,2335195,0.0-19.0-3.5,23972,List2A,black,woman,,,,,"{""Q0"":""Ruth and Dave are talking to each other ""}","<img src=""stim_listA/talk2.gif""</stim_listA>",are talking to each other,
null,"<div style=""font-size:60px;"">+</div>",,html-keyboard-response,368,2335702,0.0-19.0-0.6,23972,List2A,black,woman,,,,null,,,,
null,"<img src=""stim_listA/kiss3.gif""</stim_listA>",,html-keyboard-response,369,2337715,0.0-19.0-1.6,23972,List2A,black,woman,,,,null,,,,
null,is kissing,,html-keyboard-response,370,2339724,0.0-19.0-2.6,23972,List2A,black,woman,,,,null,,,,
10412,,,survey-text,371,2350144,0.0-19.0-3.6,23972,List2A,black,woman,,,,,"{""Q0"":""Beth is kissing Fred. ""}","<img src=""stim_listA/kiss3.gif""</stim_listA>",is kissing,
null,"<div style=""font-size:60px;"">+</div>",,html-keyboard-response,372,2350649,0.0-19.0-0.7,23972,List2A,black,woman,,,,null,,,,
null,"<img src=""stim_listA/argue1.gif""</stim_listA>",,html-keyboard-response,373,2352663,0.0-19.0-1.7,23972,List2A,black,woman,,,,null,,,,
null,is arguing with,,html-keyboard-response,374,2354671,0.0-19.0-2.7,23972,List2A,black,woman,,,,null,,,,
14650,,,survey-text,375,2369328,0.0-19.0-3.7,23972,List2A,black,woman,,,,,"{""Q0"":""Dave is arguing with Ruth. ""}","<img src=""stim_listA/argue1.gif""</stim_listA>",is arguing with,
null,"<div style=""font-size:60px;"">+</div>",,html-keyboard-response,376,2369833,0.0-19.0-0.8,23972,List2A,black,woman,,,,null,,,,
null,"<img src=""stim_listA/hug7.gif""</stim_listA>",,html-keyboard-response,377,2371846,0.0-19.0-1.8,23972,List2A,black,woman,,,,null,,,,
null,is hugging,,html-keyboard-response,378,2373855,0.0-19.0-2.8,23972,List2A,black,woman,,,,null,,,,
12921,,,survey-text,379,2386782,0.0-19.0-3.8,23972,List2A,black,woman,,,,,"{""Q0"":""Beth is hugging Ruth. ""}","<img src=""stim_listA/hug7.gif""</stim_listA>",is hugging,
null,"<div style=""font-size:60px;"">+</div>",,html-keyboard-response,380,2387287,0.0-19.0-0.9,23972,List2A,black,woman,,,,null,,,,
null,"<img src=""stim_listA/fight8.gif""</stim_listA>",,html-keyboard-response,381,2389299,0.0-19.0-1.9,23972,List2A,black,woman,,,,null,,,,
null,are fighting each other,,html-keyboard-response,382,2391308,0.0-19.0-2.9,23972,List2A,black,woman,,,,null,,,,
15896,,,survey-text,383,2407212,0.0-19.0-3.9,23972,List2A,black,woman,,,,,"{""Q0"":""Beth and Ruth are fighting each other. ""}","<img src=""stim_listA/fight8.gif""</stim_listA>",are fighting each other,
null,"<div style=""font-size:60px;"">+</div>",,html-keyboard-response,384,2407716,0.0-19.0-0.10,23972,List2A,black,woman,,,,null,,,,
null,"<img src=""stim_listA/dance8.gif""</stim_listA>",,html-keyboard-response,385,2409731,0.0-19.0-1.10,23972,List2A,black,woman,,,,null,,,,
null,are dancing with each other,,html-keyboard-response,386,2411740,0.0-19.0-2.10,23972,List2A,black,woman,,,,null,,,,
23372,,,survey-text,387,2435119,0.0-19.0-3.10,23972,List2A,black,woman,,,,,"{""Q0"":""Beth and Jane are dancing with each other. ""}","<img src=""stim_listA/dance8.gif""</stim_listA>",are dancing with each other,
null,"<div style=""font-size:60px;"">+</div>",,html-keyboard-response,388,2435624,0.0-19.0-0.11,23972,List2A,black,woman,,,,null,,,,
null,"<img src=""stim_listA/kiss2.gif""</stim_listA>",,html-keyboard-response,389,2437638,0.0-19.0-1.11,23972,List2A,black,woman,,,,null,,,,
null,are kissing each other,,html-keyboard-response,390,2439646,0.0-19.0-2.11,23972,List2A,black,woman,,,,null,,,,
18513,,,survey-text,391,2458166,0.0-19.0-3.11,23972,List2A,black,woman,,,,,"{""Q0"":""Jane and Dave are kissing each other. ""}","<img src=""stim_listA/kiss2.gif""</stim_listA>",are kissing each other,
null,"<div style=""font-size:60px;"">+</div>",,html-keyboard-response,392,2458672,0.0-19.0-0.12,23972,List2A,black,woman,,,,null,,,,
null,"<img src=""stim_listA/kiss1.gif""</stim_listA>",,html-keyboard-response,393,2460685,0.0-19.0-1.12,23972,List2A,black,woman,,,,null,,,,
null,is kissing,,html-keyboard-response,394,2462693,0.0-19.0-2.12,23972,List2A,black,woman,,,,null,,,,
13061,,,survey-text,395,2475762,0.0-19.0-3.12,23972,List2A,black,woman,,,,,"{""Q0"":""Ruth is kissing Luke. ""}","<img src=""stim_listA/kiss1.gif""</stim_listA>",is kissing,
null,"<div style=""font-size:60px;"">+</div>",,html-keyboard-response,396,2476268,0.0-19.0-0.13,23972,List2A,black,woman,,,,null,,,,
null,"<img src=""stim_listA/fight1.gif""</stim_listA>",,html-keyboard-response,397,2478281,0.0-19.0-1.13,23972,List2A,black,woman,,,,null,,,,
null,is fighting,,html-keyboard-response,398,2480287,0.0-19.0-2.13,23972,List2A,black,woman,,,,null,,,,
13463,,,survey-text,399,2493754,0.0-19.0-3.13,23972,List2A,black,woman,,,,,"{""Q0"":""Jane is fighting Dave. ""}","<img src=""stim_listA/fight1.gif""</stim_listA>",is fighting,
null,"<div style=""font-size:60px;"">+</div>",,html-keyboard-response,400,2494259,0.0-19.0-0.14,23972,List2A,black,woman,,,,null,,,,
null,"<img src=""stim_listA/meet6.gif""</stim_listA>",,html-keyboard-response,401,2496274,0.0-19.0-1.14,23972,List2A,black,woman,,,,null,,,,
null,are meeting each other,,html-keyboard-response,402,2498284,0.0-19.0-2.14,23972,List2A,black,woman,,,,null,,,,
20853,,,survey-text,403,2519144,0.0-19.0-3.14,23972,List2A,black,woman,,,,,"{""Q0"":""Luke and Fred are meeting each other. ""}","<img src=""stim_listA/meet6.gif""</stim_listA>",are meeting each other,
null,"<div style=""font-size:60px;"">+</div>",,html-keyboard-response,404,2519649,0.0-19.0-0.15,23972,List2A,black,woman,,,,null,,,,
null,"<img src=""stim_listA/kiss8.gif""</stim_listA>",,html-keyboard-response,405,2521663,0.0-19.0-1.15,23972,List2A,black,woman,,,,null,,,,
null,are kissing each other,,html-keyboard-response,406,2523671,0.0-19.0-2.15,23972,List2A,black,woman,,,,null,,,,
20942,,,survey-text,407,2544620,0.0-19.0-3.15,23972,List2A,black,woman,,,,,"{""Q0"":""Kate and Jane are kissing each other. ""}","<img src=""stim_listA/kiss8.gif""</stim_listA>",are kissing each other,
null,"<div style=""font-size:60px;"">+</div>",,html-keyboard-response,408,2545125,0.0-19.0-0.16,23972,List2A,black,woman,,,,null,,,,
null,"<img src=""stim_listA/meet7.gif""</stim_listA>",,html-keyboard-response,409,2547145,0.0-19.0-1.16,23972,List2A,black,woman,,,,null,,,,
null,is meeting,,html-keyboard-response,410,2549154,0.0-19.0-2.16,23972,List2A,black,woman,,,,null,,,,
15334,,,survey-text,411,2564494,0.0-19.0-3.16,23972,List2A,black,woman,,,,,"{""Q0"":""Jane is meeting Kate. ""}","<img src=""stim_listA/meet7.gif""</stim_listA>",is meeting,
null,"<div style=""font-size:60px;"">+</div>",,html-keyboard-response,412,2564999,0.0-19.0-0.17,23972,List2A,black,woman,,,,null,,,,
null,"<img src=""stim_listA/meet5.gif""</stim_listA>",,html-keyboard-response,413,2567013,0.0-19.0-1.17,23972,List2A,black,woman,,,,null,,,,
null,is meeting,,html-keyboard-response,414,2569019,0.0-19.0-2.17,23972,List2A,black,woman,,,,null,,,,
9486,,,survey-text,415,2578508,0.0-19.0-3.17,23972,List2A,black,woman,,,,,"{""Q0"":""Dave is meeting Mike. ""}","<img src=""stim_listA/meet5.gif""</stim_listA>",is meeting,
null,"<div style=""font-size:60px;"">+</div>",,html-keyboard-response,416,2579013,0.0-19.0-0.18,23972,List2A,black,woman,,,,null,,,,
null,"<img src=""stim_listA/meet8.gif""</stim_listA>",,html-keyboard-response,417,2581028,0.0-19.0-1.18,23972,List2A,black,woman,,,,null,,,,
null,are meeting each other,,html-keyboard-response,418,2583036,0.0-19.0-2.18,23972,List2A,black,woman,,,,null,,,,
11994,,,survey-text,419,2595037,0.0-19.0-3.18,23972,List2A,black,woman,,,,,"{""Q0"":""Beth and Ruth are meeting each other. ""}","<img src=""stim_listA/meet8.gif""</stim_listA>",are meeting each other,
null,"<div style=""font-size:60px;"">+</div>",,html-keyboard-response,420,2595542,0.0-19.0-0.19,23972,List2A,black,woman,,,,null,,,,
null,"<img src=""stim_listA/talk5.gif""</stim_listA>",,html-keyboard-response,421,2597556,0.0-19.0-1.19,23972,List2A,black,woman,,,,null,,,,
null,is talking to,,html-keyboard-response,422,2599564,0.0-19.0-2.19,23972,List2A,black,woman,,,,null,,,,
20016,,,survey-text,423,2619587,0.0-19.0-3.19,23972,List2A,black,woman,,,,,"{""Q0"":""Luke is talking to Mike. ""}","<img src=""stim_listA/talk5.gif""</stim_listA>",is talking to,
3992,<p>Thank you for completing that task.</p><p>The final part of this session is a short questionnaire.</p><p>Press Continue.</p>,0,html-button-response,424,2623583,0.0-20.0,23972,List2A,black,woman,,,,,,,,
60288,,,survey-text,425,2684886,0.0-21.0,23972,List2A,black,woman,,,,,"{""Q0"":""36"",""Q1"":""Shona"",""Q2"":""English "",""Q3"":""England "",""Q4"":""Black"",""Q5"":""Female ""}",,,demographics
64091,,,survey-likert,426,2749004,0.0-22.0,23972,List2A,black,woman,,,,,"{""Q0"":5,""Q1"":5,""Q2"":5,""Q3"":6,""Q4"":6,""Q5"":4,""Q6"":5,""Q7"":5,""Q8"":6,""Q9"":5,""Q10"":5,""Q11"":4,""Q12"":4,""Q13"":4}",,,likert_race
43102,,,survey-likert,427,2792133,0.0-23.0,23972,List2A,black,woman,,,,,"{""Q0"":6,""Q1"":6,""Q2"":6,""Q3"":6,""Q4"":6,""Q5"":4,""Q6"":5,""Q7"":5,""Q8"":6,""Q9"":6,""Q10"":4,""Q11"":4,""Q12"":3,""Q13"":3}",,,likert_gender
123467,,,survey-text,428,2915606,0.0-24.0,23972,List2A,black,woman,,,,,"{""Q0"":""ccc""}",,,worker_id
42400,,,external-html,429,2958098,0.0-25.0,23972,List2A,black,woman,debrief.html,,,,,,,
