rt,stimulus,button_pressed,trial_type,trial_index,time_elapsed,internal_node_id,subject,list,ppt_race,ppt_gender,url,first_guess,correct,key_press,responses,image_type,phrase_type,test_part
3287,Welcome to the experiment. Press Continue to begin.,0,html-button-response,0,3317,0.0-0.0,24074,List2B,white,woman,,,,,,,,
4826,,,external-html,1,9176,0.0-1.0,24074,List2B,white,woman,consent.html,,,,,,,
1073,"<p>On the next page, you will see portraits of 8 people and their names.</p><p>Your first task is to take a few minutes to memorise the names of these people.</p><p>You will have to recall their names during the rest of the experiment, so it is</p><p>essential that you try to memorise these people and their names as best as you can.</p><br><p><strong>You will then be tested on your memory of these names and portraits.</strong></p><br><p>The experiment will start after you have completed this memory test.</p><br><p>Ready?</p>",0,html-button-response,2,10249,0.0-2.0,24074,List2B,white,woman,,,,,,,,
23577,"<img src='img/portrait_matrix_list2.JPG' style='width:900px;height:500px;''></img><p>If you have memorised all the portraits and names and are ready to start, press Continue.</p><p><strong>Please note: Your memory of these faces will be tested 4 times during this experiment.</strong></p>",0,html-button-response,3,34829,0.0-3.0-0.0,24074,List2B,white,woman,,,,,,,,
14663,"<img src=""portrait/BW1.jpg""style=""width:400px;height:400px;""></img>",1,html-button-response,4,50494,0.0-3.0-1.0,24074,List2B,white,woman,,TRUE,0,,,,,
3808,"<img src=""portrait/BW1.jpg""style=""width:400px;height:400px;""></img>",0,html-button-response,5,55307,0.0-3.0-3.0-0.0,24074,List2B,white,woman,,FALSE,0,,,,,
null,CORRECT,,html-keyboard-response,6,56811,0.0-3.0-3.0-1.0-0.0,24074,List2B,white,woman,,,,null,,,,
3891,"<img src=""portrait/BM1.jpg""style=""width:400px;height:400px;""></img>",5,html-button-response,7,60704,0.0-3.0-4.0,24074,List2B,white,woman,,TRUE,4,,,,,
2077,"<img src=""portrait/BM1.jpg""style=""width:400px;height:400px;""></img>",4,html-button-response,8,63785,0.0-3.0-6.0-0.0,24074,List2B,white,woman,,FALSE,4,,,,,
null,CORRECT,,html-keyboard-response,9,65288,0.0-3.0-6.0-1.0-0.0,24074,List2B,white,woman,,,,null,,,,
1666,"<img src=""portrait/BW2.jpg""style=""width:400px;height:400px;""></img>",0,html-button-response,10,66955,0.0-3.0-7.0,24074,List2B,white,woman,,TRUE,2,,,,,
17069,"<img src=""portrait/BW2.jpg""style=""width:400px;height:400px;""></img>",2,html-button-response,11,85028,0.0-3.0-9.0-0.0,24074,List2B,white,woman,,FALSE,2,,,,,
null,CORRECT,,html-keyboard-response,12,86531,0.0-3.0-9.0-1.0-0.0,24074,List2B,white,woman,,,,null,,,,
3564,"<img src=""portrait/BM2.jpg""style=""width:400px;height:400px;""></img>",7,html-button-response,13,90096,0.0-3.0-10.0,24074,List2B,white,woman,,TRUE,5,,,,,
2497,"<img src=""portrait/BM2.jpg""style=""width:400px;height:400px;""></img>",5,html-button-response,14,93596,0.0-3.0-12.0-0.0,24074,List2B,white,woman,,FALSE,5,,,,,
null,CORRECT,,html-keyboard-response,15,95099,0.0-3.0-12.0-1.0-0.0,24074,List2B,white,woman,,,,null,,,,
2975,"<img src=""portrait/WM2.jpg""style=""width:400px;height:400px;""></img>",4,html-button-response,16,98074,0.0-3.0-13.0,24074,List2B,white,woman,,TRUE,7,,,,,
3539,"<img src=""portrait/WM2.jpg""style=""width:400px;height:400px;""></img>",7,html-button-response,17,102616,0.0-3.0-15.0-0.0,24074,List2B,white,woman,,FALSE,7,,,,,
null,CORRECT,,html-keyboard-response,18,104121,0.0-3.0-15.0-1.0-0.0,24074,List2B,white,woman,,,,null,,,,
3837,"<img src=""portrait/WW2.jpg""style=""width:400px;height:400px;""></img>",2,html-button-response,19,107959,0.0-3.0-16.0,24074,List2B,white,woman,,TRUE,3,,,,,
3235,"<img src=""portrait/WW2.jpg""style=""width:400px;height:400px;""></img>",3,html-button-response,20,112198,0.0-3.0-18.0-0.0,24074,List2B,white,woman,,FALSE,3,,,,,
null,CORRECT,,html-keyboard-response,21,113700,0.0-3.0-18.0-1.0-0.0,24074,List2B,white,woman,,,,null,,,,
2629,"<img src=""portrait/WW1.jpg""style=""width:400px;height:400px;""></img>",1,html-button-response,22,116330,0.0-3.0-19.0,24074,List2B,white,woman,,TRUE,1,,,,,
null,CORRECT,,html-keyboard-response,23,117835,0.0-3.0-20.0-0.0,24074,List2B,white,woman,,,,null,,,,
4439,"<img src=""portrait/WM1.jpg""style=""width:400px;height:400px;""></img>",6,html-button-response,24,122275,0.0-3.0-22.0,24074,List2B,white,woman,,TRUE,6,,,,,
null,CORRECT,,html-keyboard-response,25,123779,0.0-3.0-23.0-0.0,24074,List2B,white,woman,,,,null,,,,
1500,<p>You got 2 out of 8 right first time. Press Continue.</p>,0,html-button-response,26,125282,0.0-3.0-25.0,24074,List2B,white,woman,,,,,,,,
2221,"As you did not score 100%, the memory game will repeat. Press Continue.",0,html-button-response,27,128505,0.0-3.0-26.0-0.0,24074,List2B,white,woman,,,,,,,,
16692,"<img src='img/portrait_matrix_list2.JPG' style='width:900px;height:500px;''></img><p>If you have memorised all the portraits and names and are ready to start, press Continue.</p><p><strong>Please note: Your memory of these faces will be tested 4 times during this experiment.</strong></p>",0,html-button-response,28,146201,0.0-3.1-0.1,24074,List2B,white,woman,,,,,,,,
3883,"<img src=""portrait/BW1.jpg""style=""width:400px;height:400px;""></img>",0,html-button-response,29,151087,0.0-3.1-1.1,24074,List2B,white,woman,,TRUE,0,,,,,
null,CORRECT,,html-keyboard-response,30,152591,0.0-3.1-2.1-0.1,24074,List2B,white,woman,,,,null,,,,
2992,"<img src=""portrait/BM1.jpg""style=""width:400px;height:400px;""></img>",4,html-button-response,31,155586,0.0-3.1-4.1,24074,List2B,white,woman,,TRUE,4,,,,,
null,CORRECT,,html-keyboard-response,32,157089,0.0-3.1-5.1-0.1,24074,List2B,white,woman,,,,null,,,,
2642,"<img src=""portrait/BW2.jpg""style=""width:400px;height:400px;""></img>",2,html-button-response,33,159732,0.0-3.1-7.1,24074,List2B,white,woman,,TRUE,2,,,,,
null,CORRECT,,html-keyboard-response,34,161237,0.0-3.1-8.1-0.1,24074,List2B,white,woman,,,,null,,,,
2984,"<img src=""portrait/BM2.jpg""style=""width:400px;height:400px;""></img>",5,html-button-response,35,164223,0.0-3.1-10.1,24074,List2B,white,woman,,TRUE,5,,,,,
null,CORRECT,,html-keyboard-response,36,165726,0.0-3.1-11.1-0.1,24074,List2B,white,woman,,,,null,,,,
3020,"<img src=""portrait/WM2.jpg""style=""width:400px;height:400px;""></img>",7,html-button-response,37,168748,0.0-3.1-13.1,24074,List2B,white,woman,,TRUE,7,,,,,
null,CORRECT,,html-keyboard-response,38,170250,0.0-3.1-14.1-0.1,24074,List2B,white,woman,,,,null,,,,
3028,"<img src=""portrait/WW2.jpg""style=""width:400px;height:400px;""></img>",3,html-button-response,39,173280,0.0-3.1-16.1,24074,List2B,white,woman,,TRUE,3,,,,,
null,CORRECT,,html-keyboard-response,40,174784,0.0-3.1-17.1-0.1,24074,List2B,white,woman,,,,null,,,,
3393,"<img src=""portrait/WW1.jpg""style=""width:400px;height:400px;""></img>",1,html-button-response,41,178179,0.0-3.1-19.1,24074,List2B,white,woman,,TRUE,1,,,,,
null,CORRECT,,html-keyboard-response,42,179684,0.0-3.1-20.1-0.1,24074,List2B,white,woman,,,,null,,,,
3119,"<img src=""portrait/WM1.jpg""style=""width:400px;height:400px;""></img>",6,html-button-response,43,182804,0.0-3.1-22.1,24074,List2B,white,woman,,TRUE,6,,,,,
null,CORRECT,,html-keyboard-response,44,184307,0.0-3.1-23.1-0.1,24074,List2B,white,woman,,,,null,,,,
1007,<p>You got 8 out of 8 right first time. Press Continue.</p>,0,html-button-response,45,185317,0.0-3.1-25.1,24074,List2B,white,woman,,,,,,,,
55411,"<p>In this experiment, you will view photographs of the people from the memory game interacting.</p><p>By using the <strong>exact</strong> phrase given <i>after</i> the photograph appears and recalling the correct names of the people in the photographs, form a sentence describing the interaction. You do not need to capitalise names.</p><p>Type your answer in the space provided. Please complete every sentence before moving onto the next trial.</p><p>You will only have a few seconds to memorise each given photograph and phrase before you can respond, so try your best to focus.</p><p>An example is given below. Press 'Continue' when you are ready.</p><img src='img/speaking_example_v2.jpg' style='width:800px;height:460px;''></img>",0,html-button-response,46,241731,0.0-4.0,24074,List2B,white,woman,,,,,,,,
2238,"<p>Before the experiment starts, you will watch two example trials. Press 'Continue'.</p>",0,html-button-response,47,244973,0.0-5.0,24074,List2B,white,woman,,,,,,,,
null,<img src='img/speaking_WW.gif'></img>,,html-keyboard-response,48,247977,0.0-6.0,24074,List2B,white,woman,,,,null,,,,
null,<p>is speaking to</p>,,html-keyboard-response,49,249980,0.0-7.0,24074,List2B,white,woman,,,,null,,,,
1234,<p><b>Answer:</b> jane is speaking to ruth</p>,0,html-button-response,50,251214,0.0-8.0,24074,List2B,white,woman,,,,,,,,
null,<img src='img/pointing_BM.gif'></img>,,html-keyboard-response,51,254217,0.0-9.0,24074,List2B,white,woman,,,,null,,,,
null,<p>are pointing at each other</p>,,html-keyboard-response,52,256218,0.0-10.0,24074,List2B,white,woman,,,,null,,,,
1064,<p><b>Answer:</b> fred and mike are pointing at each other</p>,0,html-button-response,53,257284,0.0-11.0,24074,List2B,white,woman,,,,,,,,
3396,"<p>Ready to start the experiment?</p><br><p><strong>Remember to describe the picture using a full sentence,</strong></p><p><strong>that combines the names of the people with the given phrase.</strong></p><p><strong>If you do not do this correctly you will not be paid.</strong></p><p><strong> You do not need to capitalise names or use punctuation.</strong></p><br><p>Press 'Continue' to begin.</p>",0,html-button-response,54,261682,0.0-12.0,24074,List2B,white,woman,,,,,,,,
null,"<div style=""font-size:60px;"">+</div>",,html-keyboard-response,55,263186,0.0-13.0-0.0,24074,List2B,white,woman,,,,null,,,,
null,"<img src=""stim_listB/touch2.gif""</stim_listB>",,html-keyboard-response,56,265190,0.0-13.0-1.0,24074,List2B,white,woman,,,,null,,,,
null,are touching each other,,html-keyboard-response,57,267192,0.0-13.0-2.0,24074,List2B,white,woman,,,,null,,,,
14501,,,survey-text,58,281695,0.0-13.0-3.0,24074,List2B,white,woman,,,,,"{""Q0"":""Ruth and Luke are touching each other.""}","<img src=""stim_listB/touch2.gif""</stim_listB>",are touching each other,
null,"<div style=""font-size:60px;"">+</div>",,html-keyboard-response,59,282196,0.0-13.0-0.1,24074,List2B,white,woman,,,,null,,,,
null,"<img src=""stim_listB/fight6.gif""</stim_listB>",,html-keyboard-response,60,284199,0.0-13.0-1.1,24074,List2B,white,woman,,,,null,,,,
null,are fighting each other,,html-keyboard-response,61,286201,0.0-13.0-2.1,24074,List2B,white,woman,,,,null,,,,
13362,,,survey-text,62,299565,0.0-13.0-3.1,24074,List2B,white,woman,,,,,"{""Q0"":""Fred and Luke are fighting each other.""}","<img src=""stim_listB/fight6.gif""</stim_listB>",are fighting each other,
null,"<div style=""font-size:60px;"">+</div>",,html-keyboard-response,63,300066,0.0-13.0-0.2,24074,List2B,white,woman,,,,null,,,,
null,"<img src=""stim_listB/kiss7.gif""</stim_listB>",,html-keyboard-response,64,302069,0.0-13.0-1.2,24074,List2B,white,woman,,,,null,,,,
null,is kissing,,html-keyboard-response,65,304071,0.0-13.0-2.2,24074,List2B,white,woman,,,,null,,,,
15012,,,survey-text,66,319084,0.0-13.0-3.2,24074,List2B,white,woman,,,,,"{""Q0"":""Ruth is kissing Beth.""}","<img src=""stim_listB/kiss7.gif""</stim_listB>",is kissing,
null,"<div style=""font-size:60px;"">+</div>",,html-keyboard-response,67,319585,0.0-13.0-0.3,24074,List2B,white,woman,,,,null,,,,
null,"<img src=""stim_listB/hug4.gif""</stim_listB>",,html-keyboard-response,68,321587,0.0-13.0-1.3,24074,List2B,white,woman,,,,null,,,,
null,are hugging each other,,html-keyboard-response,69,323588,0.0-13.0-2.3,24074,List2B,white,woman,,,,null,,,,
10092,,,survey-text,70,333681,0.0-13.0-3.3,24074,List2B,white,woman,,,,,"{""Q0"":""Kate and Mike are hugging each other.""}","<img src=""stim_listB/hug4.gif""</stim_listB>",are hugging each other,
null,"<div style=""font-size:60px;"">+</div>",,html-keyboard-response,71,334183,0.0-13.0-0.4,24074,List2B,white,woman,,,,null,,,,
null,"<img src=""stim_listB/hug8.gif""</stim_listB>",,html-keyboard-response,72,336186,0.0-13.0-1.4,24074,List2B,white,woman,,,,null,,,,
null,are hugging each other,,html-keyboard-response,73,338188,0.0-13.0-2.4,24074,List2B,white,woman,,,,null,,,,
7675,,,survey-text,74,345863,0.0-13.0-3.4,24074,List2B,white,woman,,,,,"{""Q0"":""Kate and Jane are hugging each other.""}","<img src=""stim_listB/hug8.gif""</stim_listB>",are hugging each other,
null,"<div style=""font-size:60px;"">+</div>",,html-keyboard-response,75,346364,0.0-13.0-0.5,24074,List2B,white,woman,,,,null,,,,
null,"<img src=""stim_listB/meet5.gif""</stim_listB>",,html-keyboard-response,76,348368,0.0-13.0-1.5,24074,List2B,white,woman,,,,null,,,,
null,is meeting,,html-keyboard-response,77,350370,0.0-13.0-2.5,24074,List2B,white,woman,,,,null,,,,
8083,,,survey-text,78,358455,0.0-13.0-3.5,24074,List2B,white,woman,,,,,"{""Q0"":""Dave is meeting Mike.""}","<img src=""stim_listB/meet5.gif""</stim_listB>",is meeting,
null,"<div style=""font-size:60px;"">+</div>",,html-keyboard-response,79,358956,0.0-13.0-0.6,24074,List2B,white,woman,,,,null,,,,
null,"<img src=""stim_listB/marry2.gif""</stim_listB>",,html-keyboard-response,80,360958,0.0-13.0-1.6,24074,List2B,white,woman,,,,null,,,,
null,are marrying each other,,html-keyboard-response,81,362961,0.0-13.0-2.6,24074,List2B,white,woman,,,,null,,,,
8204,,,survey-text,82,371165,0.0-13.0-3.6,24074,List2B,white,woman,,,,,"{""Q0"":""Luke and Jane are marrying each other.""}","<img src=""stim_listB/marry2.gif""</stim_listB>",are marrying each other,
null,"<div style=""font-size:60px;"">+</div>",,html-keyboard-response,83,371669,0.0-13.0-0.7,24074,List2B,white,woman,,,,null,,,,
null,"<img src=""stim_listB/marry3.gif""</stim_listB>",,html-keyboard-response,84,373671,0.0-13.0-1.7,24074,List2B,white,woman,,,,null,,,,
null,is marrying,,html-keyboard-response,85,375673,0.0-13.0-2.7,24074,List2B,white,woman,,,,null,,,,
9788,,,survey-text,86,385462,0.0-13.0-3.7,24074,List2B,white,woman,,,,,"{""Q0"":""Beth is marrying Mike.""}","<img src=""stim_listB/marry3.gif""</stim_listB>",is marrying,
null,"<div style=""font-size:60px;"">+</div>",,html-keyboard-response,87,385963,0.0-13.0-0.8,24074,List2B,white,woman,,,,null,,,,
null,"<img src=""stim_listB/kiss5.gif""</stim_listB>",,html-keyboard-response,88,387967,0.0-13.0-1.8,24074,List2B,white,woman,,,,null,,,,
null,is kissing,,html-keyboard-response,89,389969,0.0-13.0-2.8,24074,List2B,white,woman,,,,null,,,,
7724,,,survey-text,90,397694,0.0-13.0-3.8,24074,List2B,white,woman,,,,,"{""Q0"":""Luke is kissing Fred.""}","<img src=""stim_listB/kiss5.gif""</stim_listB>",is kissing,
null,"<div style=""font-size:60px;"">+</div>",,html-keyboard-response,91,398195,0.0-13.0-0.9,24074,List2B,white,woman,,,,null,,,,
null,"<img src=""stim_listB/marry7.gif""</stim_listB>",,html-keyboard-response,92,400198,0.0-13.0-1.9,24074,List2B,white,woman,,,,null,,,,
null,is marrying,,html-keyboard-response,93,402200,0.0-13.0-2.9,24074,List2B,white,woman,,,,null,,,,
6696,,,survey-text,94,408897,0.0-13.0-3.9,24074,List2B,white,woman,,,,,"{""Q0"":""Beth is marrying Jane.""}","<img src=""stim_listB/marry7.gif""</stim_listB>",is marrying,
null,"<div style=""font-size:60px;"">+</div>",,html-keyboard-response,95,409398,0.0-13.0-0.10,24074,List2B,white,woman,,,,null,,,,
null,"<img src=""stim_listB/fight5.gif""</stim_listB>",,html-keyboard-response,96,411401,0.0-13.0-1.10,24074,List2B,white,woman,,,,null,,,,
null,is fighting,,html-keyboard-response,97,413404,0.0-13.0-2.10,24074,List2B,white,woman,,,,null,,,,
7172,,,survey-text,98,420577,0.0-13.0-3.10,24074,List2B,white,woman,,,,,"{""Q0"":""Mike is fighting Dave.""}","<img src=""stim_listB/fight5.gif""</stim_listB>",is fighting,
null,"<div style=""font-size:60px;"">+</div>",,html-keyboard-response,99,421078,0.0-13.0-0.11,24074,List2B,white,woman,,,,null,,,,
null,"<img src=""stim_listB/touch6.gif""</stim_listB>",,html-keyboard-response,100,423081,0.0-13.0-1.11,24074,List2B,white,woman,,,,null,,,,
null,are touching each other,,html-keyboard-response,101,425082,0.0-13.0-2.11,24074,List2B,white,woman,,,,null,,,,
7665,,,survey-text,102,432748,0.0-13.0-3.11,24074,List2B,white,woman,,,,,"{""Q0"":""Luke and Fred are touching each other.""}","<img src=""stim_listB/touch6.gif""</stim_listB>",are touching each other,
null,"<div style=""font-size:60px;"">+</div>",,html-keyboard-response,103,433251,0.0-13.0-0.12,24074,List2B,white,woman,,,,null,,,,
null,"<img src=""stim_listB/argue8.gif""</stim_listB>",,html-keyboard-response,104,435253,0.0-13.0-1.12,24074,List2B,white,woman,,,,null,,,,
null,are arguing with each other,,html-keyboard-response,105,437256,0.0-13.0-2.12,24074,List2B,white,woman,,,,null,,,,
11036,,,survey-text,106,448294,0.0-13.0-3.12,24074,List2B,white,woman,,,,,"{""Q0"":""Ruth and Kate are arguing with each other.""}","<img src=""stim_listB/argue8.gif""</stim_listB>",are arguing with each other,
null,"<div style=""font-size:60px;"">+</div>",,html-keyboard-response,107,448795,0.0-13.0-0.13,24074,List2B,white,woman,,,,null,,,,
null,"<img src=""stim_listB/shout6.gif""</stim_listB>",,html-keyboard-response,108,450799,0.0-13.0-1.13,24074,List2B,white,woman,,,,null,,,,
null,are shouting at each other,,html-keyboard-response,109,452800,0.0-13.0-2.13,24074,List2B,white,woman,,,,null,,,,
9423,,,survey-text,110,462224,0.0-13.0-3.13,24074,List2B,white,woman,,,,,"{""Q0"":""Dave and Mike are shouting at each other.""}","<img src=""stim_listB/shout6.gif""</stim_listB>",are shouting at each other,
null,"<div style=""font-size:60px;"">+</div>",,html-keyboard-response,111,462725,0.0-13.0-0.14,24074,List2B,white,woman,,,,null,,,,
null,"<img src=""stim_listB/dance8.gif""</stim_listB>",,html-keyboard-response,112,464728,0.0-13.0-1.14,24074,List2B,white,woman,,,,null,,,,
null,are dancing with each other,,html-keyboard-response,113,466730,0.0-13.0-2.14,24074,List2B,white,woman,,,,null,,,,
10770,,,survey-text,114,477501,0.0-13.0-3.14,24074,List2B,white,woman,,,,,"{""Q0"":""Beth and Jane are dancing with each other.""}","<img src=""stim_listB/dance8.gif""</stim_listB>",are dancing with each other,
null,"<div style=""font-size:60px;"">+</div>",,html-keyboard-response,115,478003,0.0-13.0-0.15,24074,List2B,white,woman,,,,null,,,,
null,"<img src=""stim_listB/dance2.gif""</stim_listB>",,html-keyboard-response,116,480007,0.0-13.0-1.15,24074,List2B,white,woman,,,,null,,,,
null,are dancing with each other,,html-keyboard-response,117,482008,0.0-13.0-2.15,24074,List2B,white,woman,,,,null,,,,
11671,,,survey-text,118,493680,0.0-13.0-3.15,24074,List2B,white,woman,,,,,"{""Q0"":""Dave and Ruth are dancing with each other.""}","<img src=""stim_listB/dance2.gif""</stim_listB>",are dancing with each other,
null,"<div style=""font-size:60px;"">+</div>",,html-keyboard-response,119,494181,0.0-13.0-0.16,24074,List2B,white,woman,,,,null,,,,
null,"<img src=""stim_listB/shout3.gif""</stim_listB>",,html-keyboard-response,120,496183,0.0-13.0-1.16,24074,List2B,white,woman,,,,null,,,,
null,is shouting at,,html-keyboard-response,121,498184,0.0-13.0-2.16,24074,List2B,white,woman,,,,null,,,,
6426,,,survey-text,122,504612,0.0-13.0-3.16,24074,List2B,white,woman,,,,,"{""Q0"":""Beth is shouting at Fred.""}","<img src=""stim_listB/shout3.gif""</stim_listB>",is shouting at,
null,"<div style=""font-size:60px;"">+</div>",,html-keyboard-response,123,505113,0.0-13.0-0.17,24074,List2B,white,woman,,,,null,,,,
null,"<img src=""stim_listB/argue7.gif""</stim_listB>",,html-keyboard-response,124,507115,0.0-13.0-1.17,24074,List2B,white,woman,,,,null,,,,
null,is arguing with,,html-keyboard-response,125,509117,0.0-13.0-2.17,24074,List2B,white,woman,,,,null,,,,
6671,,,survey-text,126,515789,0.0-13.0-3.17,24074,List2B,white,woman,,,,,"{""Q0"":""Beth is arguing with Jane.""}","<img src=""stim_listB/argue7.gif""</stim_listB>",is arguing with,
null,"<div style=""font-size:60px;"">+</div>",,html-keyboard-response,127,516290,0.0-13.0-0.18,24074,List2B,white,woman,,,,null,,,,
null,"<img src=""stim_listB/touch7.gif""</stim_listB>",,html-keyboard-response,128,518293,0.0-13.0-1.18,24074,List2B,white,woman,,,,null,,,,
null,is touching,,html-keyboard-response,129,521041,0.0-13.0-2.18,24074,List2B,white,woman,,,,null,,,,
8270,,,survey-text,130,529313,0.0-13.0-3.18,24074,List2B,white,woman,,,,,"{""Q0"":""Kate and Jane are touching.""}","<img src=""stim_listB/touch7.gif""</stim_listB>",is touching,
null,"<div style=""font-size:60px;"">+</div>",,html-keyboard-response,131,529814,0.0-13.0-0.19,24074,List2B,white,woman,,,,null,,,,
null,"<img src=""stim_listB/meet1.gif""</stim_listB>",,html-keyboard-response,132,531817,0.0-13.0-1.19,24074,List2B,white,woman,,,,null,,,,
null,is meeting,,html-keyboard-response,133,533819,0.0-13.0-2.19,24074,List2B,white,woman,,,,null,,,,
8607,,,survey-text,134,542427,0.0-13.0-3.19,24074,List2B,white,woman,,,,,"{""Q0"":""Dave is meeting Jane.""}","<img src=""stim_listB/meet1.gif""</stim_listB>",is meeting,
2114,"<img src='img/portrait_matrix_list2.JPG' style='width:900px;height:500px;''></img><p>If you have memorised all the portraits and names and are ready to start, press Continue.</p><p><strong>Please note: Your memory of these faces will be tested 4 times during this experiment.</strong></p>",0,html-button-response,135,544543,0.0-14.0-0.0,24074,List2B,white,woman,,,,,,,,
4021,"<img src=""portrait/BM2.jpg""style=""width:400px;height:400px;""></img>",5,html-button-response,136,549565,0.0-14.0-1.0,24074,List2B,white,woman,,TRUE,5,,,,,
null,CORRECT,,html-keyboard-response,137,551072,0.0-14.0-2.0-0.0,24074,List2B,white,woman,,,,null,,,,
4058,"<img src=""portrait/WW2.jpg""style=""width:400px;height:400px;""></img>",3,html-button-response,138,555131,0.0-14.0-4.0,24074,List2B,white,woman,,TRUE,3,,,,,
null,CORRECT,,html-keyboard-response,139,556634,0.0-14.0-5.0-0.0,24074,List2B,white,woman,,,,null,,,,
4061,"<img src=""portrait/BW1.jpg""style=""width:400px;height:400px;""></img>",0,html-button-response,140,560696,0.0-14.0-7.0,24074,List2B,white,woman,,TRUE,0,,,,,
null,CORRECT,,html-keyboard-response,141,562200,0.0-14.0-8.0-0.0,24074,List2B,white,woman,,,,null,,,,
3137,"<img src=""portrait/WW1.jpg""style=""width:400px;height:400px;""></img>",1,html-button-response,142,565338,0.0-14.0-10.0,24074,List2B,white,woman,,TRUE,1,,,,,
null,CORRECT,,html-keyboard-response,143,566843,0.0-14.0-11.0-0.0,24074,List2B,white,woman,,,,null,,,,
3865,"<img src=""portrait/WM1.jpg""style=""width:400px;height:400px;""></img>",6,html-button-response,144,570710,0.0-14.0-13.0,24074,List2B,white,woman,,TRUE,6,,,,,
null,CORRECT,,html-keyboard-response,145,572212,0.0-14.0-14.0-0.0,24074,List2B,white,woman,,,,null,,,,
5634,"<img src=""portrait/BM1.jpg""style=""width:400px;height:400px;""></img>",4,html-button-response,146,577848,0.0-14.0-16.0,24074,List2B,white,woman,,TRUE,4,,,,,
null,CORRECT,,html-keyboard-response,147,579351,0.0-14.0-17.0-0.0,24074,List2B,white,woman,,,,null,,,,
1902,"<img src=""portrait/WM2.jpg""style=""width:400px;height:400px;""></img>",7,html-button-response,148,581253,0.0-14.0-19.0,24074,List2B,white,woman,,TRUE,7,,,,,
null,CORRECT,,html-keyboard-response,149,582758,0.0-14.0-20.0-0.0,24074,List2B,white,woman,,,,null,,,,
3883,"<img src=""portrait/BW2.jpg""style=""width:400px;height:400px;""></img>",2,html-button-response,150,586646,0.0-14.0-22.0,24074,List2B,white,woman,,TRUE,2,,,,,
null,CORRECT,,html-keyboard-response,151,588150,0.0-14.0-23.0-0.0,24074,List2B,white,woman,,,,null,,,,
1199,<p>You got 8 out of 8 right first time. Press Continue.</p>,0,html-button-response,152,589351,0.0-14.0-25.0,24074,List2B,white,woman,,,,,,,,
null,"<div style=""font-size:60px;"">+</div>",,html-keyboard-response,153,590857,0.0-15.0-0.0,24074,List2B,white,woman,,,,null,,,,
null,"<img src=""stim_listB/marry8.gif""</stim_listB>",,html-keyboard-response,154,592859,0.0-15.0-1.0,24074,List2B,white,woman,,,,null,,,,
null,are marrying each other,,html-keyboard-response,155,594862,0.0-15.0-2.0,24074,List2B,white,woman,,,,null,,,,
9804,,,survey-text,156,604668,0.0-15.0-3.0,24074,List2B,white,woman,,,,,"{""Q0"":""Kate and Ruth are marrying each other.""}","<img src=""stim_listB/marry8.gif""</stim_listB>",are marrying each other,
null,"<div style=""font-size:60px;"">+</div>",,html-keyboard-response,157,605169,0.0-15.0-0.1,24074,List2B,white,woman,,,,null,,,,
null,"<img src=""stim_listB/talk5.gif""</stim_listB>",,html-keyboard-response,158,607172,0.0-15.0-1.1,24074,List2B,white,woman,,,,null,,,,
null,is talking to,,html-keyboard-response,159,609174,0.0-15.0-2.1,24074,List2B,white,woman,,,,null,,,,
4662,,,survey-text,160,613838,0.0-15.0-3.1,24074,List2B,white,woman,,,,,"{""Q0"":""Luke is talking to Mike.""}","<img src=""stim_listB/talk5.gif""</stim_listB>",is talking to,
null,"<div style=""font-size:60px;"">+</div>",,html-keyboard-response,161,614339,0.0-15.0-0.2,24074,List2B,white,woman,,,,null,,,,
null,"<img src=""stim_listB/shout7.gif""</stim_listB>",,html-keyboard-response,162,616342,0.0-15.0-1.2,24074,List2B,white,woman,,,,null,,,,
null,is shouting at,,html-keyboard-response,163,618349,0.0-15.0-2.2,24074,List2B,white,woman,,,,null,,,,
5240,,,survey-text,164,623589,0.0-15.0-3.2,24074,List2B,white,woman,,,,,"{""Q0"":""Ruth is shouting at Beth.""}","<img src=""stim_listB/shout7.gif""</stim_listB>",is shouting at,
null,"<div style=""font-size:60px;"">+</div>",,html-keyboard-response,165,624090,0.0-15.0-0.3,24074,List2B,white,woman,,,,null,,,,
null,"<img src=""stim_listB/argue2.gif""</stim_listB>",,html-keyboard-response,166,626094,0.0-15.0-1.3,24074,List2B,white,woman,,,,null,,,,
null,are arguing with each other,,html-keyboard-response,167,628099,0.0-15.0-2.3,24074,List2B,white,woman,,,,null,,,,
10103,,,survey-text,168,638204,0.0-15.0-3.3,24074,List2B,white,woman,,,,,"{""Q0"":""Jane and Luke are arguing with each other.""}","<img src=""stim_listB/argue2.gif""</stim_listB>",are arguing with each other,
null,"<div style=""font-size:60px;"">+</div>",,html-keyboard-response,169,638705,0.0-15.0-0.4,24074,List2B,white,woman,,,,null,,,,
null,"<img src=""stim_listB/dance4.gif""</stim_listB>",,html-keyboard-response,170,640709,0.0-15.0-1.4,24074,List2B,white,woman,,,,null,,,,
null,are dancing with each other,,html-keyboard-response,171,642710,0.0-15.0-2.4,24074,List2B,white,woman,,,,null,,,,
8812,,,survey-text,172,651523,0.0-15.0-3.4,24074,List2B,white,woman,,,,,"{""Q0"":""Beth and Mike are dancing with each other.""}","<img src=""stim_listB/dance4.gif""</stim_listB>",are dancing with each other,
null,"<div style=""font-size:60px;"">+</div>",,html-keyboard-response,173,652024,0.0-15.0-0.5,24074,List2B,white,woman,,,,null,,,,
null,"<img src=""stim_listB/talk1.gif""</stim_listB>",,html-keyboard-response,174,654026,0.0-15.0-1.5,24074,List2B,white,woman,,,,null,,,,
null,is talking to,,html-keyboard-response,175,656029,0.0-15.0-2.5,24074,List2B,white,woman,,,,null,,,,
4781,,,survey-text,176,660811,0.0-15.0-3.5,24074,List2B,white,woman,,,,,"{""Q0"":""Luke is talking to Beth.""}","<img src=""stim_listB/talk1.gif""</stim_listB>",is talking to,
null,"<div style=""font-size:60px;"">+</div>",,html-keyboard-response,177,661313,0.0-15.0-0.6,24074,List2B,white,woman,,,,null,,,,
null,"<img src=""stim_listB/hug2.gif""</stim_listB>",,html-keyboard-response,178,663316,0.0-15.0-1.6,24074,List2B,white,woman,,,,null,,,,
null,are hugging each other,,html-keyboard-response,179,665317,0.0-15.0-2.6,24074,List2B,white,woman,,,,null,,,,
7246,,,survey-text,180,672565,0.0-15.0-3.6,24074,List2B,white,woman,,,,,"{""Q0"":""Dave and Beth are hugging each other.""}","<img src=""stim_listB/hug2.gif""</stim_listB>",are hugging each other,
null,"<div style=""font-size:60px;"">+</div>",,html-keyboard-response,181,673068,0.0-15.0-0.7,24074,List2B,white,woman,,,,null,,,,
null,"<img src=""stim_listB/meet8.gif""</stim_listB>",,html-keyboard-response,182,675069,0.0-15.0-1.7,24074,List2B,white,woman,,,,null,,,,
null,are meeting each other,,html-keyboard-response,183,677071,0.0-15.0-2.7,24074,List2B,white,woman,,,,null,,,,
10411,,,survey-text,184,687484,0.0-15.0-3.7,24074,List2B,white,woman,,,,,"{""Q0"":""Ruth and Beth are meeting each other.""}","<img src=""stim_listB/meet8.gif""</stim_listB>",are meeting each other,
null,"<div style=""font-size:60px;"">+</div>",,html-keyboard-response,185,687984,0.0-15.0-0.8,24074,List2B,white,woman,,,,null,,,,
null,"<img src=""stim_listB/fight4.gif""</stim_listB>",,html-keyboard-response,186,689987,0.0-15.0-1.8,24074,List2B,white,woman,,,,null,,,,
null,are fighting each other,,html-keyboard-response,187,691989,0.0-15.0-2.8,24074,List2B,white,woman,,,,null,,,,
7022,,,survey-text,188,699013,0.0-15.0-3.8,24074,List2B,white,woman,,,,,"{""Q0"":""Fred and Beth are fighting each other.""}","<img src=""stim_listB/fight4.gif""</stim_listB>",are fighting each other,
null,"<div style=""font-size:60px;"">+</div>",,html-keyboard-response,189,699514,0.0-15.0-0.9,24074,List2B,white,woman,,,,null,,,,
null,"<img src=""stim_listB/touch4.gif""</stim_listB>",,html-keyboard-response,190,701517,0.0-15.0-1.9,24074,List2B,white,woman,,,,null,,,,
null,are touching each other,,html-keyboard-response,191,703518,0.0-15.0-2.9,24074,List2B,white,woman,,,,null,,,,
7469,,,survey-text,192,710989,0.0-15.0-3.9,24074,List2B,white,woman,,,,,"{""Q0"":""Beth and Fred are touching each other.""}","<img src=""stim_listB/touch4.gif""</stim_listB>",are touching each other,
null,"<div style=""font-size:60px;"">+</div>",,html-keyboard-response,193,711491,0.0-15.0-0.10,24074,List2B,white,woman,,,,null,,,,
null,"<img src=""stim_listB/shout1.gif""</stim_listB>",,html-keyboard-response,194,713495,0.0-15.0-1.10,24074,List2B,white,woman,,,,null,,,,
null,is shouting at,,html-keyboard-response,195,715497,0.0-15.0-2.10,24074,List2B,white,woman,,,,null,,,,
6179,,,survey-text,196,721676,0.0-15.0-3.10,24074,List2B,white,woman,,,,,"{""Q0"":""Luke is shouting at Ruth.""}","<img src=""stim_listB/shout1.gif""</stim_listB>",is shouting at,
null,"<div style=""font-size:60px;"">+</div>",,html-keyboard-response,197,722178,0.0-15.0-0.11,24074,List2B,white,woman,,,,null,,,,
null,"<img src=""stim_listB/talk4.gif""</stim_listB>",,html-keyboard-response,198,724208,0.0-15.0-1.11,24074,List2B,white,woman,,,,null,,,,
null,are talking to each other,,html-keyboard-response,199,726210,0.0-15.0-2.11,24074,List2B,white,woman,,,,null,,,,
6924,,,survey-text,200,733136,0.0-15.0-3.11,24074,List2B,white,woman,,,,,"{""Q0"":""Mike and Beth are talking to each other.""}","<img src=""stim_listB/talk4.gif""</stim_listB>",are talking to each other,
null,"<div style=""font-size:60px;"">+</div>",,html-keyboard-response,201,733638,0.0-15.0-0.12,24074,List2B,white,woman,,,,null,,,,
null,"<img src=""stim_listB/argue4.gif""</stim_listB>",,html-keyboard-response,202,735641,0.0-15.0-1.12,24074,List2B,white,woman,,,,null,,,,
null,are arguing with each other,,html-keyboard-response,203,737643,0.0-15.0-2.12,24074,List2B,white,woman,,,,null,,,,
6620,,,survey-text,204,744263,0.0-15.0-3.12,24074,List2B,white,woman,,,,,"{""Q0"":""Fred and Kate are arguing with each other.""}","<img src=""stim_listB/argue4.gif""</stim_listB>",are arguing with each other,
null,"<div style=""font-size:60px;"">+</div>",,html-keyboard-response,205,744764,0.0-15.0-0.13,24074,List2B,white,woman,,,,null,,,,
null,"<img src=""stim_listB/fight7.gif""</stim_listB>",,html-keyboard-response,206,746768,0.0-15.0-1.13,24074,List2B,white,woman,,,,null,,,,
null,is fighting,,html-keyboard-response,207,748770,0.0-15.0-2.13,24074,List2B,white,woman,,,,null,,,,
5574,,,survey-text,208,754345,0.0-15.0-3.13,24074,List2B,white,woman,,,,,"{""Q0"":""Jane is fighting Kate.""}","<img src=""stim_listB/fight7.gif""</stim_listB>",is fighting,
null,"<div style=""font-size:60px;"">+</div>",,html-keyboard-response,209,754846,0.0-15.0-0.14,24074,List2B,white,woman,,,,null,,,,
null,"<img src=""stim_listB/meet2.gif""</stim_listB>",,html-keyboard-response,210,756849,0.0-15.0-1.14,24074,List2B,white,woman,,,,null,,,,
null,are meeting each other,,html-keyboard-response,211,758850,0.0-15.0-2.14,24074,List2B,white,woman,,,,null,,,,
6343,,,survey-text,212,765194,0.0-15.0-3.14,24074,List2B,white,woman,,,,,"{""Q0"":""Luke and Ruth are meeting each other.""}","<img src=""stim_listB/meet2.gif""</stim_listB>",are meeting each other,
null,"<div style=""font-size:60px;"">+</div>",,html-keyboard-response,213,765695,0.0-15.0-0.15,24074,List2B,white,woman,,,,null,,,,
null,"<img src=""stim_listB/meet3.gif""</stim_listB>",,html-keyboard-response,214,767698,0.0-15.0-1.15,24074,List2B,white,woman,,,,null,,,,
null,is meeting,,html-keyboard-response,215,769701,0.0-15.0-2.15,24074,List2B,white,woman,,,,null,,,,
3928,,,survey-text,216,773630,0.0-15.0-3.15,24074,List2B,white,woman,,,,,"{""Q0"":""Kate is meeting Mike.""}","<img src=""stim_listB/meet3.gif""</stim_listB>",is meeting,
null,"<div style=""font-size:60px;"">+</div>",,html-keyboard-response,217,774131,0.0-15.0-0.16,24074,List2B,white,woman,,,,null,,,,
null,"<img src=""stim_listB/dance5.gif""</stim_listB>",,html-keyboard-response,218,776133,0.0-15.0-1.16,24074,List2B,white,woman,,,,null,,,,
null,is dancing with,,html-keyboard-response,219,778135,0.0-15.0-2.16,24074,List2B,white,woman,,,,null,,,,
5203,,,survey-text,220,783340,0.0-15.0-3.16,24074,List2B,white,woman,,,,,"{""Q0"":""Luke is dancing with Mike.""}","<img src=""stim_listB/dance5.gif""</stim_listB>",is dancing with,
null,"<div style=""font-size:60px;"">+</div>",,html-keyboard-response,221,783842,0.0-15.0-0.17,24074,List2B,white,woman,,,,null,,,,
null,"<img src=""stim_listB/kiss1.gif""</stim_listB>",,html-keyboard-response,222,785844,0.0-15.0-1.17,24074,List2B,white,woman,,,,null,,,,
null,is kissing,,html-keyboard-response,223,787846,0.0-15.0-2.17,24074,List2B,white,woman,,,,null,,,,
4941,,,survey-text,224,792788,0.0-15.0-3.17,24074,List2B,white,woman,,,,,"{""Q0"":""Luke is kissing Ruth.""}","<img src=""stim_listB/kiss1.gif""</stim_listB>",is kissing,
null,"<div style=""font-size:60px;"">+</div>",,html-keyboard-response,225,793289,0.0-15.0-0.18,24074,List2B,white,woman,,,,null,,,,
null,"<img src=""stim_listB/talk6.gif""</stim_listB>",,html-keyboard-response,226,795293,0.0-15.0-1.18,24074,List2B,white,woman,,,,null,,,,
null,are talking to each other,,html-keyboard-response,227,797294,0.0-15.0-2.18,24074,List2B,white,woman,,,,null,,,,
7308,,,survey-text,228,804604,0.0-15.0-3.18,24074,List2B,white,woman,,,,,"{""Q0"":""Dave and Fred are talking to each other.""}","<img src=""stim_listB/talk6.gif""</stim_listB>",are talking to each other,
null,"<div style=""font-size:60px;"">+</div>",,html-keyboard-response,229,805105,0.0-15.0-0.19,24074,List2B,white,woman,,,,null,,,,
null,"<img src=""stim_listB/fight3.gif""</stim_listB>",,html-keyboard-response,230,807109,0.0-15.0-1.19,24074,List2B,white,woman,,,,null,,,,
null,is fighting,,html-keyboard-response,231,809110,0.0-15.0-2.19,24074,List2B,white,woman,,,,null,,,,
4061,,,survey-text,232,813173,0.0-15.0-3.19,24074,List2B,white,woman,,,,,"{""Q0"":""Kate is fighting Mike.""}","<img src=""stim_listB/fight3.gif""</stim_listB>",is fighting,
1205,"<img src='img/portrait_matrix_list2.JPG' style='width:900px;height:500px;''></img><p>If you have memorised all the portraits and names and are ready to start, press Continue.</p><p><strong>Please note: Your memory of these faces will be tested 4 times during this experiment.</strong></p>",0,html-button-response,233,814379,0.0-16.0-0.0,24074,List2B,white,woman,,,,,,,,
2199,"<img src=""portrait/BM1.jpg""style=""width:400px;height:400px;""></img>",4,html-button-response,234,817580,0.0-16.0-1.0,24074,List2B,white,woman,,TRUE,4,,,,,
null,CORRECT,,html-keyboard-response,235,819083,0.0-16.0-2.0-0.0,24074,List2B,white,woman,,,,null,,,,
1422,"<img src=""portrait/WM2.jpg""style=""width:400px;height:400px;""></img>",7,html-button-response,236,820506,0.0-16.0-4.0,24074,List2B,white,woman,,TRUE,7,,,,,
null,CORRECT,,html-keyboard-response,237,822010,0.0-16.0-5.0-0.0,24074,List2B,white,woman,,,,null,,,,
2233,"<img src=""portrait/WM1.jpg""style=""width:400px;height:400px;""></img>",6,html-button-response,238,824244,0.0-16.0-7.0,24074,List2B,white,woman,,TRUE,6,,,,,
null,CORRECT,,html-keyboard-response,239,825745,0.0-16.0-8.0-0.0,24074,List2B,white,woman,,,,null,,,,
8749,"<img src=""portrait/BM2.jpg""style=""width:400px;height:400px;""></img>",5,html-button-response,240,834495,0.0-16.0-10.0,24074,List2B,white,woman,,TRUE,5,,,,,
null,CORRECT,,html-keyboard-response,241,835999,0.0-16.0-11.0-0.0,24074,List2B,white,woman,,,,null,,,,
2052,"<img src=""portrait/WW1.jpg""style=""width:400px;height:400px;""></img>",1,html-button-response,242,838053,0.0-16.0-13.0,24074,List2B,white,woman,,TRUE,1,,,,,
null,CORRECT,,html-keyboard-response,243,839556,0.0-16.0-14.0-0.0,24074,List2B,white,woman,,,,null,,,,
3237,"<img src=""portrait/WW2.jpg""style=""width:400px;height:400px;""></img>",3,html-button-response,244,842795,0.0-16.0-16.0,24074,List2B,white,woman,,TRUE,3,,,,,
null,CORRECT,,html-keyboard-response,245,844297,0.0-16.0-17.0-0.0,24074,List2B,white,woman,,,,null,,,,
4944,"<img src=""portrait/BW2.jpg""style=""width:400px;height:400px;""></img>",2,html-button-response,246,849242,0.0-16.0-19.0,24074,List2B,white,woman,,TRUE,2,,,,,
null,CORRECT,,html-keyboard-response,247,850746,0.0-16.0-20.0-0.0,24074,List2B,white,woman,,,,null,,,,
3922,"<img src=""portrait/BW1.jpg""style=""width:400px;height:400px;""></img>",0,html-button-response,248,854671,0.0-16.0-22.0,24074,List2B,white,woman,,TRUE,0,,,,,
null,CORRECT,,html-keyboard-response,249,856175,0.0-16.0-23.0-0.0,24074,List2B,white,woman,,,,null,,,,
1003,<p>You got 8 out of 8 right first time. Press Continue.</p>,0,html-button-response,250,857179,0.0-16.0-25.0,24074,List2B,white,woman,,,,,,,,
null,"<div style=""font-size:60px;"">+</div>",,html-keyboard-response,251,858681,0.0-17.0-0.0,24074,List2B,white,woman,,,,null,,,,
null,"<img src=""stim_listB/shout5.gif""</stim_listB>",,html-keyboard-response,252,860685,0.0-17.0-1.0,24074,List2B,white,woman,,,,null,,,,
null,is shouting at,,html-keyboard-response,253,862686,0.0-17.0-2.0,24074,List2B,white,woman,,,,null,,,,
6482,,,survey-text,254,869170,0.0-17.0-3.0,24074,List2B,white,woman,,,,,"{""Q0"":""Luke is shouting at Fred.""}","<img src=""stim_listB/shout5.gif""</stim_listB>",is shouting at,
null,"<div style=""font-size:60px;"">+</div>",,html-keyboard-response,255,869671,0.0-17.0-0.1,24074,List2B,white,woman,,,,null,,,,
null,"<img src=""stim_listB/touch3.gif""</stim_listB>",,html-keyboard-response,256,871674,0.0-17.0-1.1,24074,List2B,white,woman,,,,null,,,,
null,is touching,,html-keyboard-response,257,873676,0.0-17.0-2.1,24074,List2B,white,woman,,,,null,,,,
4633,,,survey-text,258,878310,0.0-17.0-3.1,24074,List2B,white,woman,,,,,"{""Q0"":""Mike is touching Kate.""}","<img src=""stim_listB/touch3.gif""</stim_listB>",is touching,
null,"<div style=""font-size:60px;"">+</div>",,html-keyboard-response,259,878811,0.0-17.0-0.2,24074,List2B,white,woman,,,,null,,,,
null,"<img src=""stim_listB/kiss6.gif""</stim_listB>",,html-keyboard-response,260,880813,0.0-17.0-1.2,24074,List2B,white,woman,,,,null,,,,
null,are kissing each other,,html-keyboard-response,261,882815,0.0-17.0-2.2,24074,List2B,white,woman,,,,null,,,,
5684,,,survey-text,262,888501,0.0-17.0-3.2,24074,List2B,white,woman,,,,,"{""Q0"":""Dave and Mike are kissing each other.""}","<img src=""stim_listB/kiss6.gif""</stim_listB>",are kissing each other,
null,"<div style=""font-size:60px;"">+</div>",,html-keyboard-response,263,889002,0.0-17.0-0.3,24074,List2B,white,woman,,,,null,,,,
null,"<img src=""stim_listB/talk8.gif""</stim_listB>",,html-keyboard-response,264,891006,0.0-17.0-1.3,24074,List2B,white,woman,,,,null,,,,
null,are talking to each other,,html-keyboard-response,265,893009,0.0-17.0-2.3,24074,List2B,white,woman,,,,null,,,,
7184,,,survey-text,266,900194,0.0-17.0-3.3,24074,List2B,white,woman,,,,,"{""Q0"":""Jane and Beth are talking to each other.""}","<img src=""stim_listB/talk8.gif""</stim_listB>",are talking to each other,
null,"<div style=""font-size:60px;"">+</div>",,html-keyboard-response,267,900697,0.0-17.0-0.4,24074,List2B,white,woman,,,,null,,,,
null,"<img src=""stim_listB/kiss4.gif""</stim_listB>",,html-keyboard-response,268,902701,0.0-17.0-1.4,24074,List2B,white,woman,,,,null,,,,
null,are kissing each other,,html-keyboard-response,269,904704,0.0-17.0-2.4,24074,List2B,white,woman,,,,null,,,,
7392,,,survey-text,270,912097,0.0-17.0-3.4,24074,List2B,white,woman,,,,,"{""Q0"":""Mike and Kate are kissing each other.""}","<img src=""stim_listB/kiss4.gif""</stim_listB>",are kissing each other,
null,"<div style=""font-size:60px;"">+</div>",,html-keyboard-response,271,912599,0.0-17.0-0.5,24074,List2B,white,woman,,,,null,,,,
null,"<img src=""stim_listB/fight8.gif""</stim_listB>",,html-keyboard-response,272,914603,0.0-17.0-1.5,24074,List2B,white,woman,,,,null,,,,
null,are fighting each other,,html-keyboard-response,273,916605,0.0-17.0-2.5,24074,List2B,white,woman,,,,null,,,,
5637,,,survey-text,274,922243,0.0-17.0-3.5,24074,List2B,white,woman,,,,,"{""Q0"":""Ruth and Beth are fighting each other.""}","<img src=""stim_listB/fight8.gif""</stim_listB>",are fighting each other,
null,"<div style=""font-size:60px;"">+</div>",,html-keyboard-response,275,922746,0.0-17.0-0.6,24074,List2B,white,woman,,,,null,,,,
null,"<img src=""stim_listB/kiss3.gif""</stim_listB>",,html-keyboard-response,276,924749,0.0-17.0-1.6,24074,List2B,white,woman,,,,null,,,,
null,is kissing,,html-keyboard-response,277,926751,0.0-17.0-2.6,24074,List2B,white,woman,,,,null,,,,
4771,,,survey-text,278,931524,0.0-17.0-3.6,24074,List2B,white,woman,,,,,"{""Q0"":""Fred is kissing Beth.""}","<img src=""stim_listB/kiss3.gif""</stim_listB>",is kissing,
null,"<div style=""font-size:60px;"">+</div>",,html-keyboard-response,279,932025,0.0-17.0-0.7,24074,List2B,white,woman,,,,null,,,,
null,"<img src=""stim_listB/touch1.gif""</stim_listB>",,html-keyboard-response,280,934028,0.0-17.0-1.7,24074,List2B,white,woman,,,,null,,,,
null,is touching,,html-keyboard-response,281,936030,0.0-17.0-2.7,24074,List2B,white,woman,,,,null,,,,
6069,,,survey-text,282,942100,0.0-17.0-3.7,24074,List2B,white,woman,,,,,"{""Q0"":""Jane is touching Dave.""}","<img src=""stim_listB/touch1.gif""</stim_listB>",is touching,
null,"<div style=""font-size:60px;"">+</div>",,html-keyboard-response,283,942601,0.0-17.0-0.8,24074,List2B,white,woman,,,,null,,,,
null,"<img src=""stim_listB/fight2.gif""</stim_listB>",,html-keyboard-response,284,944604,0.0-17.0-1.8,24074,List2B,white,woman,,,,null,,,,
null,are fighting each other,,html-keyboard-response,285,946605,0.0-17.0-2.8,24074,List2B,white,woman,,,,null,,,,
5266,,,survey-text,286,951872,0.0-17.0-3.8,24074,List2B,white,woman,,,,,"{""Q0"":""Ruth and Luke are fighting each other.""}","<img src=""stim_listB/fight2.gif""</stim_listB>",are fighting each other,
null,"<div style=""font-size:60px;"">+</div>",,html-keyboard-response,287,952374,0.0-17.0-0.9,24074,List2B,white,woman,,,,null,,,,
null,"<img src=""stim_listB/marry1.gif""</stim_listB>",,html-keyboard-response,288,954378,0.0-17.0-1.9,24074,List2B,white,woman,,,,null,,,,
null,is marrying,,html-keyboard-response,289,956379,0.0-17.0-2.9,24074,List2B,white,woman,,,,null,,,,
6225,,,survey-text,290,962605,0.0-17.0-3.9,24074,List2B,white,woman,,,,,"{""Q0"":""Ruth is marrying Dave.""}","<img src=""stim_listB/marry1.gif""</stim_listB>",is marrying,
null,"<div style=""font-size:60px;"">+</div>",,html-keyboard-response,291,963106,0.0-17.0-0.10,24074,List2B,white,woman,,,,null,,,,
null,"<img src=""stim_listB/meet6.gif""</stim_listB>",,html-keyboard-response,292,965110,0.0-17.0-1.10,24074,List2B,white,woman,,,,null,,,,
null,are meeting each other,,html-keyboard-response,293,967111,0.0-17.0-2.10,24074,List2B,white,woman,,,,null,,,,
8749,,,survey-text,294,975861,0.0-17.0-3.10,24074,List2B,white,woman,,,,,"{""Q0"":""Luke and Fred are meeting each other.""}","<img src=""stim_listB/meet6.gif""</stim_listB>",are meeting each other,
null,"<div style=""font-size:60px;"">+</div>",,html-keyboard-response,295,976363,0.0-17.0-0.11,24074,List2B,white,woman,,,,null,,,,
null,"<img src=""stim_listB/talk3.gif""</stim_listB>",,html-keyboard-response,296,978366,0.0-17.0-1.11,24074,List2B,white,woman,,,,null,,,,
null,is talking to,,html-keyboard-response,297,980367,0.0-17.0-2.11,24074,List2B,white,woman,,,,null,,,,
6174,,,survey-text,298,986541,0.0-17.0-3.11,24074,List2B,white,woman,,,,,"{""Q0"":""Kate is talking to Fred.""}","<img src=""stim_listB/talk3.gif""</stim_listB>",is talking to,
null,"<div style=""font-size:60px;"">+</div>",,html-keyboard-response,299,987045,0.0-17.0-0.12,24074,List2B,white,woman,,,,null,,,,
null,"<img src=""stim_listB/argue1.gif""</stim_listB>",,html-keyboard-response,300,989048,0.0-17.0-1.12,24074,List2B,white,woman,,,,null,,,,
null,is arguing with,,html-keyboard-response,301,991049,0.0-17.0-2.12,24074,List2B,white,woman,,,,null,,,,
6997,,,survey-text,302,998047,0.0-17.0-3.12,24074,List2B,white,woman,,,,,"{""Q0"":""Dave is arguing with Ruth.""}","<img src=""stim_listB/argue1.gif""</stim_listB>",is arguing with,
null,"<div style=""font-size:60px;"">+</div>",,html-keyboard-response,303,998548,0.0-17.0-0.13,24074,List2B,white,woman,,,,null,,,,
null,"<img src=""stim_listB/marry5.gif""</stim_listB>",,html-keyboard-response,304,1000551,0.0-17.0-1.13,24074,List2B,white,woman,,,,null,,,,
null,is marrying,,html-keyboard-response,305,1002552,0.0-17.0-2.13,24074,List2B,white,woman,,,,null,,,,
6562,,,survey-text,306,1009115,0.0-17.0-3.13,24074,List2B,white,woman,,,,,"{""Q0"":""Dave is marrying Fred.""}","<img src=""stim_listB/marry5.gif""</stim_listB>",is marrying,
null,"<div style=""font-size:60px;"">+</div>",,html-keyboard-response,307,1009617,0.0-17.0-0.14,24074,List2B,white,woman,,,,null,,,,
null,"<img src=""stim_listB/dance7.gif""</stim_listB>",,html-keyboard-response,308,1011620,0.0-17.0-1.14,24074,List2B,white,woman,,,,null,,,,
null,is dancing with,,html-keyboard-response,309,1013623,0.0-17.0-2.14,24074,List2B,white,woman,,,,null,,,,
4295,,,survey-text,310,1017920,0.0-17.0-3.14,24074,List2B,white,woman,,,,,"{""Q0"":""Ruth is dancing with Kate.""}","<img src=""stim_listB/dance7.gif""</stim_listB>",is dancing with,
null,"<div style=""font-size:60px;"">+</div>",,html-keyboard-response,311,1018422,0.0-17.0-0.15,24074,List2B,white,woman,,,,null,,,,
null,"<img src=""stim_listB/argue5.gif""</stim_listB>",,html-keyboard-response,312,1020426,0.0-17.0-1.15,24074,List2B,white,woman,,,,null,,,,
null,is arguing with,,html-keyboard-response,313,1022428,0.0-17.0-2.15,24074,List2B,white,woman,,,,null,,,,
4249,,,survey-text,314,1026678,0.0-17.0-3.15,24074,List2B,white,woman,,,,,"{""Q0"":""Dave is arguing with Fred.""}","<img src=""stim_listB/argue5.gif""</stim_listB>",is arguing with,
null,"<div style=""font-size:60px;"">+</div>",,html-keyboard-response,315,1027181,0.0-17.0-0.16,24074,List2B,white,woman,,,,null,,,,
null,"<img src=""stim_listB/hug7.gif""</stim_listB>",,html-keyboard-response,316,1029184,0.0-17.0-1.16,24074,List2B,white,woman,,,,null,,,,
null,is hugging,,html-keyboard-response,317,1031187,0.0-17.0-2.16,24074,List2B,white,woman,,,,null,,,,
6437,,,survey-text,318,1037626,0.0-17.0-3.16,24074,List2B,white,woman,,,,,"{""Q0"":""Ruth is hugging Beth.""}","<img src=""stim_listB/hug7.gif""</stim_listB>",is hugging,
null,"<div style=""font-size:60px;"">+</div>",,html-keyboard-response,319,1038128,0.0-17.0-0.17,24074,List2B,white,woman,,,,null,,,,
null,"<img src=""stim_listB/kiss8.gif""</stim_listB>",,html-keyboard-response,320,1040129,0.0-17.0-1.17,24074,List2B,white,woman,,,,null,,,,
null,are kissing each other,,html-keyboard-response,321,1042131,0.0-17.0-2.17,24074,List2B,white,woman,,,,null,,,,
7981,,,survey-text,322,1050113,0.0-17.0-3.17,24074,List2B,white,woman,,,,,"{""Q0"":""Jane and Kate are kissing each other.""}","<img src=""stim_listB/kiss8.gif""</stim_listB>",are kissing each other,
null,"<div style=""font-size:60px;"">+</div>",,html-keyboard-response,323,1050615,0.0-17.0-0.18,24074,List2B,white,woman,,,,null,,,,
null,"<img src=""stim_listB/hug6.gif""</stim_listB>",,html-keyboard-response,324,1052619,0.0-17.0-1.18,24074,List2B,white,woman,,,,null,,,,
null,are hugging each other,,html-keyboard-response,325,1054620,0.0-17.0-2.18,24074,List2B,white,woman,,,,null,,,,
6866,,,survey-text,326,1061491,0.0-17.0-3.18,24074,List2B,white,woman,,,,,"{""Q0"":""Dave and Mike are hugging each other.""}","<img src=""stim_listB/hug6.gif""</stim_listB>",are hugging each other,
null,"<div style=""font-size:60px;"">+</div>",,html-keyboard-response,327,1061994,0.0-17.0-0.19,24074,List2B,white,woman,,,,null,,,,
null,"<img src=""stim_listB/argue6.gif""</stim_listB>",,html-keyboard-response,328,1063997,0.0-17.0-1.19,24074,List2B,white,woman,,,,null,,,,
null,are arguing with each other,,html-keyboard-response,329,1065999,0.0-17.0-2.19,24074,List2B,white,woman,,,,null,,,,
7263,,,survey-text,330,1073263,0.0-17.0-3.19,24074,List2B,white,woman,,,,,"{""Q0"":""Luke and Mike are arguing with each other.""}","<img src=""stim_listB/argue6.gif""</stim_listB>",are arguing with each other,
1272,"<img src='img/portrait_matrix_list2.JPG' style='width:900px;height:500px;''></img><p>If you have memorised all the portraits and names and are ready to start, press Continue.</p><p><strong>Please note: Your memory of these faces will be tested 4 times during this experiment.</strong></p>",0,html-button-response,331,1074536,0.0-18.0-0.0,24074,List2B,white,woman,,,,,,,,
2724,"<img src=""portrait/WM1.jpg""style=""width:400px;height:400px;""></img>",6,html-button-response,332,1078264,0.0-18.0-1.0,24074,List2B,white,woman,,TRUE,6,,,,,
null,CORRECT,,html-keyboard-response,333,1079767,0.0-18.0-2.0-0.0,24074,List2B,white,woman,,,,null,,,,
1590,"<img src=""portrait/BM2.jpg""style=""width:400px;height:400px;""></img>",5,html-button-response,334,1081359,0.0-18.0-4.0,24074,List2B,white,woman,,TRUE,5,,,,,
null,CORRECT,,html-keyboard-response,335,1082863,0.0-18.0-5.0-0.0,24074,List2B,white,woman,,,,null,,,,
5940,"<img src=""portrait/BW1.jpg""style=""width:400px;height:400px;""></img>",0,html-button-response,336,1088805,0.0-18.0-7.0,24074,List2B,white,woman,,TRUE,0,,,,,
null,CORRECT,,html-keyboard-response,337,1090311,0.0-18.0-8.0-0.0,24074,List2B,white,woman,,,,null,,,,
2260,"<img src=""portrait/WW2.jpg""style=""width:400px;height:400px;""></img>",3,html-button-response,338,1092573,0.0-18.0-10.0,24074,List2B,white,woman,,TRUE,3,,,,,
null,CORRECT,,html-keyboard-response,339,1094075,0.0-18.0-11.0-0.0,24074,List2B,white,woman,,,,null,,,,
1628,"<img src=""portrait/WM2.jpg""style=""width:400px;height:400px;""></img>",7,html-button-response,340,1095705,0.0-18.0-13.0,24074,List2B,white,woman,,TRUE,7,,,,,
null,CORRECT,,html-keyboard-response,341,1097208,0.0-18.0-14.0-0.0,24074,List2B,white,woman,,,,null,,,,
3235,"<img src=""portrait/BW2.jpg""style=""width:400px;height:400px;""></img>",2,html-button-response,342,1100444,0.0-18.0-16.0,24074,List2B,white,woman,,TRUE,2,,,,,
null,CORRECT,,html-keyboard-response,343,1101949,0.0-18.0-17.0-0.0,24074,List2B,white,woman,,,,null,,,,
2369,"<img src=""portrait/BM1.jpg""style=""width:400px;height:400px;""></img>",4,html-button-response,344,1104320,0.0-18.0-19.0,24074,List2B,white,woman,,TRUE,4,,,,,
null,CORRECT,,html-keyboard-response,345,1105825,0.0-18.0-20.0-0.0,24074,List2B,white,woman,,,,null,,,,
1187,"<img src=""portrait/WW1.jpg""style=""width:400px;height:400px;""></img>",1,html-button-response,346,1107013,0.0-18.0-22.0,24074,List2B,white,woman,,TRUE,1,,,,,
null,CORRECT,,html-keyboard-response,347,1108516,0.0-18.0-23.0-0.0,24074,List2B,white,woman,,,,null,,,,
884,<p>You got 8 out of 8 right first time. Press Continue.</p>,0,html-button-response,348,1109402,0.0-18.0-25.0,24074,List2B,white,woman,,,,,,,,
null,"<div style=""font-size:60px;"">+</div>",,html-keyboard-response,349,1110905,0.0-19.0-0.0,24074,List2B,white,woman,,,,null,,,,
null,"<img src=""stim_listB/touch8.gif""</stim_listB>",,html-keyboard-response,350,1112908,0.0-19.0-1.0,24074,List2B,white,woman,,,,null,,,,
null,are touching each other,,html-keyboard-response,351,1114910,0.0-19.0-2.0,24074,List2B,white,woman,,,,null,,,,
8113,,,survey-text,352,1123024,0.0-19.0-3.0,24074,List2B,white,woman,,,,,"{""Q0"":""Ruth and Beth are touching each other.""}","<img src=""stim_listB/touch8.gif""</stim_listB>",are touching each other,
null,"<div style=""font-size:60px;"">+</div>",,html-keyboard-response,353,1123526,0.0-19.0-0.1,24074,List2B,white,woman,,,,null,,,,
null,"<img src=""stim_listB/fight1.gif""</stim_listB>",,html-keyboard-response,354,1125528,0.0-19.0-1.1,24074,List2B,white,woman,,,,null,,,,
null,is fighting,,html-keyboard-response,355,1127530,0.0-19.0-2.1,24074,List2B,white,woman,,,,null,,,,
4233,,,survey-text,356,1131765,0.0-19.0-3.1,24074,List2B,white,woman,,,,,"{""Q0"":""Jane is fighting Dave.""}","<img src=""stim_listB/fight1.gif""</stim_listB>",is fighting,
null,"<div style=""font-size:60px;"">+</div>",,html-keyboard-response,357,1132267,0.0-19.0-0.2,24074,List2B,white,woman,,,,null,,,,
null,"<img src=""stim_listB/shout4.gif""</stim_listB>",,html-keyboard-response,358,1134270,0.0-19.0-1.2,24074,List2B,white,woman,,,,null,,,,
null,are shouting at each other,,html-keyboard-response,359,1136273,0.0-19.0-2.2,24074,List2B,white,woman,,,,null,,,,
6524,,,survey-text,360,1142798,0.0-19.0-3.2,24074,List2B,white,woman,,,,,"{""Q0"":""Kate and Mike are shouting at each other.""}","<img src=""stim_listB/shout4.gif""</stim_listB>",are shouting at each other,
null,"<div style=""font-size:60px;"">+</div>",,html-keyboard-response,361,1143300,0.0-19.0-0.3,24074,List2B,white,woman,,,,null,,,,
null,"<img src=""stim_listB/dance1.gif""</stim_listB>",,html-keyboard-response,362,1145302,0.0-19.0-1.3,24074,List2B,white,woman,,,,null,,,,
null,is dancing with,,html-keyboard-response,363,1147303,0.0-19.0-2.3,24074,List2B,white,woman,,,,null,,,,
4608,,,survey-text,364,1151912,0.0-19.0-3.3,24074,List2B,white,woman,,,,,"{""Q0"":""Luke is dancing with Jane.""}","<img src=""stim_listB/dance1.gif""</stim_listB>",is dancing with,
null,"<div style=""font-size:60px;"">+</div>",,html-keyboard-response,365,1152414,0.0-19.0-0.4,24074,List2B,white,woman,,,,null,,,,
null,"<img src=""stim_listB/shout8.gif""</stim_listB>",,html-keyboard-response,366,1154418,0.0-19.0-1.4,24074,List2B,white,woman,,,,null,,,,
null,are shouting at each other,,html-keyboard-response,367,1156420,0.0-19.0-2.4,24074,List2B,white,woman,,,,null,,,,
7798,,,survey-text,368,1164219,0.0-19.0-3.4,24074,List2B,white,woman,,,,,"{""Q0"":""Jane and Kate are shouting at each other.""}","<img src=""stim_listB/shout8.gif""</stim_listB>",are shouting at each other,
null,"<div style=""font-size:60px;"">+</div>",,html-keyboard-response,369,1164721,0.0-19.0-0.5,24074,List2B,white,woman,,,,null,,,,
null,"<img src=""stim_listB/marry6.gif""</stim_listB>",,html-keyboard-response,370,1166724,0.0-19.0-1.5,24074,List2B,white,woman,,,,null,,,,
null,are marrying each other,,html-keyboard-response,371,1168726,0.0-19.0-2.5,24074,List2B,white,woman,,,,null,,,,
9919,,,survey-text,372,1178646,0.0-19.0-3.5,24074,List2B,white,woman,,,,,"{""Q0"":""Luke and Mike are marrying each other.""}","<img src=""stim_listB/marry6.gif""</stim_listB>",are marrying each other,
null,"<div style=""font-size:60px;"">+</div>",,html-keyboard-response,373,1179148,0.0-19.0-0.6,24074,List2B,white,woman,,,,null,,,,
null,"<img src=""stim_listB/meet4.gif""</stim_listB>",,html-keyboard-response,374,1181153,0.0-19.0-1.6,24074,List2B,white,woman,,,,null,,,,
null,are meeting each other,,html-keyboard-response,375,1183155,0.0-19.0-2.6,24074,List2B,white,woman,,,,null,,,,
6770,,,survey-text,376,1189926,0.0-19.0-3.6,24074,List2B,white,woman,,,,,"{""Q0"":""Fred and Beth are meeting each other.""}","<img src=""stim_listB/meet4.gif""</stim_listB>",are meeting each other,
null,"<div style=""font-size:60px;"">+</div>",,html-keyboard-response,377,1190427,0.0-19.0-0.7,24074,List2B,white,woman,,,,null,,,,
null,"<img src=""stim_listB/touch5.gif""</stim_listB>",,html-keyboard-response,378,1192431,0.0-19.0-1.7,24074,List2B,white,woman,,,,null,,,,
null,is touching,,html-keyboard-response,379,1194433,0.0-19.0-2.7,24074,List2B,white,woman,,,,null,,,,
3980,,,survey-text,380,1198414,0.0-19.0-3.7,24074,List2B,white,woman,,,,,"{""Q0"":""Mike is touching Dave.""}","<img src=""stim_listB/touch5.gif""</stim_listB>",is touching,
null,"<div style=""font-size:60px;"">+</div>",,html-keyboard-response,381,1198915,0.0-19.0-0.8,24074,List2B,white,woman,,,,null,,,,
null,"<img src=""stim_listB/shout2.gif""</stim_listB>",,html-keyboard-response,382,1200918,0.0-19.0-1.8,24074,List2B,white,woman,,,,null,,,,
null,are shouting at each other,,html-keyboard-response,383,1202920,0.0-19.0-2.8,24074,List2B,white,woman,,,,null,,,,
5924,,,survey-text,384,1208845,0.0-19.0-3.8,24074,List2B,white,woman,,,,,"{""Q0"":""Dave and Jane are shouting at each other.""}","<img src=""stim_listB/shout2.gif""</stim_listB>",are shouting at each other,
null,"<div style=""font-size:60px;"">+</div>",,html-keyboard-response,385,1209346,0.0-19.0-0.9,24074,List2B,white,woman,,,,null,,,,
null,"<img src=""stim_listB/hug1.gif""</stim_listB>",,html-keyboard-response,386,1211348,0.0-19.0-1.9,24074,List2B,white,woman,,,,null,,,,
null,is hugging,,html-keyboard-response,387,1213349,0.0-19.0-2.9,24074,List2B,white,woman,,,,null,,,,
3938,,,survey-text,388,1217288,0.0-19.0-3.9,24074,List2B,white,woman,,,,,"{""Q0"":""Ruth is hugging Luke.""}","<img src=""stim_listB/hug1.gif""</stim_listB>",is hugging,
null,"<div style=""font-size:60px;"">+</div>",,html-keyboard-response,389,1217789,0.0-19.0-0.10,24074,List2B,white,woman,,,,null,,,,
null,"<img src=""stim_listB/hug5.gif""</stim_listB>",,html-keyboard-response,390,1219792,0.0-19.0-1.10,24074,List2B,white,woman,,,,null,,,,
null,is hugging,,html-keyboard-response,391,1221793,0.0-19.0-2.10,24074,List2B,white,woman,,,,null,,,,
4146,,,survey-text,392,1225941,0.0-19.0-3.10,24074,List2B,white,woman,,,,,"{""Q0"":""Luke is hugging Fred.""}","<img src=""stim_listB/hug5.gif""</stim_listB>",is hugging,
null,"<div style=""font-size:60px;"">+</div>",,html-keyboard-response,393,1226442,0.0-19.0-0.11,24074,List2B,white,woman,,,,null,,,,
null,"<img src=""stim_listB/talk7.gif""</stim_listB>",,html-keyboard-response,394,1228445,0.0-19.0-1.11,24074,List2B,white,woman,,,,null,,,,
null,is talking to,,html-keyboard-response,395,1230447,0.0-19.0-2.11,24074,List2B,white,woman,,,,null,,,,
6876,,,survey-text,396,1237324,0.0-19.0-3.11,24074,List2B,white,woman,,,,,"{""Q0"":""Ruth is talking to Kate.""}","<img src=""stim_listB/talk7.gif""</stim_listB>",is talking to,
null,"<div style=""font-size:60px;"">+</div>",,html-keyboard-response,397,1237826,0.0-19.0-0.12,24074,List2B,white,woman,,,,null,,,,
null,"<img src=""stim_listB/dance3.gif""</stim_listB>",,html-keyboard-response,398,1239829,0.0-19.0-1.12,24074,List2B,white,woman,,,,null,,,,
null,is dancing with,,html-keyboard-response,399,1241831,0.0-19.0-2.12,24074,List2B,white,woman,,,,null,,,,
4976,,,survey-text,400,1246810,0.0-19.0-3.12,24074,List2B,white,woman,,,,,"{""Q0"":""Kate is dancing with Fred.""}","<img src=""stim_listB/dance3.gif""</stim_listB>",is dancing with,
null,"<div style=""font-size:60px;"">+</div>",,html-keyboard-response,401,1247312,0.0-19.0-0.13,24074,List2B,white,woman,,,,null,,,,
null,"<img src=""stim_listB/marry4.gif""</stim_listB>",,html-keyboard-response,402,1249315,0.0-19.0-1.13,24074,List2B,white,woman,,,,null,,,,
null,are marrying each other,,html-keyboard-response,403,1251317,0.0-19.0-2.13,24074,List2B,white,woman,,,,null,,,,
5886,,,survey-text,404,1257203,0.0-19.0-3.13,24074,List2B,white,woman,,,,,"{""Q0"":""Fred and Kate are marrying each other.""}","<img src=""stim_listB/marry4.gif""</stim_listB>",are marrying each other,
null,"<div style=""font-size:60px;"">+</div>",,html-keyboard-response,405,1257705,0.0-19.0-0.14,24074,List2B,white,woman,,,,null,,,,
null,"<img src=""stim_listB/talk2.gif""</stim_listB>",,html-keyboard-response,406,1259707,0.0-19.0-1.14,24074,List2B,white,woman,,,,null,,,,
null,are talking to each other,,html-keyboard-response,407,1261709,0.0-19.0-2.14,24074,List2B,white,woman,,,,null,,,,
7171,,,survey-text,408,1268883,0.0-19.0-3.14,24074,List2B,white,woman,,,,,"{""Q0"":""Dave and Ruth are talking to each other.""}","<img src=""stim_listB/talk2.gif""</stim_listB>",are talking to each other,
null,"<div style=""font-size:60px;"">+</div>",,html-keyboard-response,409,1269384,0.0-19.0-0.15,24074,List2B,white,woman,,,,null,,,,
null,"<img src=""stim_listB/kiss2.gif""</stim_listB>",,html-keyboard-response,410,1271387,0.0-19.0-1.15,24074,List2B,white,woman,,,,null,,,,
null,are kissing each other,,html-keyboard-response,411,1273389,0.0-19.0-2.15,24074,List2B,white,woman,,,,null,,,,
5863,,,survey-text,412,1279253,0.0-19.0-3.15,24074,List2B,white,woman,,,,,"{""Q0"":""Dave and Jane are kissing each other.""}","<img src=""stim_listB/kiss2.gif""</stim_listB>",are kissing each other,
null,"<div style=""font-size:60px;"">+</div>",,html-keyboard-response,413,1279754,0.0-19.0-0.16,24074,List2B,white,woman,,,,null,,,,
null,"<img src=""stim_listB/hug3.gif""</stim_listB>",,html-keyboard-response,414,1281758,0.0-19.0-1.16,24074,List2B,white,woman,,,,null,,,,
null,is hugging,,html-keyboard-response,415,1283760,0.0-19.0-2.16,24074,List2B,white,woman,,,,null,,,,
3711,,,survey-text,416,1287472,0.0-19.0-3.16,24074,List2B,white,woman,,,,,"{""Q0"":""Beth is hugging Fred.""}","<img src=""stim_listB/hug3.gif""</stim_listB>",is hugging,
null,"<div style=""font-size:60px;"">+</div>",,html-keyboard-response,417,1287974,0.0-19.0-0.17,24074,List2B,white,woman,,,,null,,,,
null,"<img src=""stim_listB/argue3.gif""</stim_listB>",,html-keyboard-response,418,1289977,0.0-19.0-1.17,24074,List2B,white,woman,,,,null,,,,
null,is arguing with,,html-keyboard-response,419,1291980,0.0-19.0-2.17,24074,List2B,white,woman,,,,null,,,,
4651,,,survey-text,420,1296631,0.0-19.0-3.17,24074,List2B,white,woman,,,,,"{""Q0"":""Beth is arguing with Mike.""}","<img src=""stim_listB/argue3.gif""</stim_listB>",is arguing with,
null,"<div style=""font-size:60px;"">+</div>",,html-keyboard-response,421,1297132,0.0-19.0-0.18,24074,List2B,white,woman,,,,null,,,,
null,"<img src=""stim_listB/dance6.gif""</stim_listB>",,html-keyboard-response,422,1299135,0.0-19.0-1.18,24074,List2B,white,woman,,,,null,,,,
null,are dancing with each other,,html-keyboard-response,423,1301137,0.0-19.0-2.18,24074,List2B,white,woman,,,,null,,,,
6599,,,survey-text,424,1307738,0.0-19.0-3.18,24074,List2B,white,woman,,,,,"{""Q0"":""Dave and Fred are dancing with each other.""}","<img src=""stim_listB/dance6.gif""</stim_listB>",are dancing with each other,
null,"<div style=""font-size:60px;"">+</div>",,html-keyboard-response,425,1308239,0.0-19.0-0.19,24074,List2B,white,woman,,,,null,,,,
null,"<img src=""stim_listB/meet7.gif""</stim_listB>",,html-keyboard-response,426,1310243,0.0-19.0-1.19,24074,List2B,white,woman,,,,null,,,,
null,is meeting,,html-keyboard-response,427,1312244,0.0-19.0-2.19,24074,List2B,white,woman,,,,null,,,,
7633,,,survey-text,428,1319878,0.0-19.0-3.19,24074,List2B,white,woman,,,,,"{""Q0"":""Kate is meeting Jane.""}","<img src=""stim_listB/meet7.gif""</stim_listB>",is meeting,
1755,<p>Thank you for completing that task.</p><p>The final part of this session is a short questionnaire.</p><p>Press Continue.</p>,0,html-button-response,429,1321634,0.0-20.0,24074,List2B,white,woman,,,,,,,,
12729,,,survey-text,430,1335367,0.0-21.0,24074,List2B,white,woman,,,,,"{""Q0"":""23"",""Q1"":""English"",""Q2"":""English"",""Q3"":""England"",""Q4"":""White"",""Q5"":""Female""}",,,demographics
52661,,,survey-likert,431,1388033,0.0-22.0,24074,List2B,white,woman,,,,,"{""Q0"":3,""Q1"":3,""Q2"":3,""Q3"":3,""Q4"":1,""Q5"":3,""Q6"":3,""Q7"":5,""Q8"":1,""Q9"":1,""Q10"":3,""Q11"":3,""Q12"":3,""Q13"":1}",,,likert_race
30049,,,survey-likert,432,1418091,0.0-23.0,24074,List2B,white,woman,,,,,"{""Q0"":5,""Q1"":5,""Q2"":5,""Q3"":5,""Q4"":5,""Q5"":5,""Q6"":5,""Q7"":5,""Q8"":5,""Q9"":5,""Q10"":3,""Q11"":3,""Q12"":3,""Q13"":3}",,,likert_gender
8906,,,survey-text,433,1427002,0.0-24.0,24074,List2B,white,woman,,,,,"{""Q0"":""ccc""}",,,worker_id
2317,,,external-html,434,1429381,0.0-25.0,24074,List2B,white,woman,debrief.html,,,,,,,
