rt,stimulus,button_pressed,trial_type,trial_index,time_elapsed,internal_node_id,subject,list,ppt_race,ppt_gender,url,first_guess,correct,key_press,responses,image_type,phrase_type,test_part
1893,Welcome to the experiment. Press Continue to begin.,0,html-button-response,0,1903,0.0-0.0,25330,List1B,white,man,,,,,,,,
115691,,,external-html,1,118652,0.0-1.0,25330,List1B,white,man,consent.html,,,,,,,
40446,"<p>On the next page, you will see portraits of 8 people and their names.</p><p>Your first task is to take a few minutes to memorise the names of these people.</p><p>You will have to recall their names during the rest of the experiment, so it is</p><p>essential that you try to memorise these people and their names as best as you can.</p><br><p><strong>You will then be tested on your memory of these names and portraits.</strong></p><br><p>The experiment will start after you have completed this memory test.</p><br><p>Ready?</p>",0,html-button-response,2,159112,0.0-2.0,25330,List1B,white,man,,,,,,,,
357220,"<img src='img/portrait_matrix_list1.JPG' style='width:900px;height:500px;''></img><p>If you have memorised all the portraits and names and are ready to start, press Continue.</p><p><strong>Please note: Your memory of these faces will be tested 4 times during this experiment.</strong></p>",0,html-button-response,3,517337,0.0-3.0-0.0,25330,List1B,white,man,,,,,,,,
6430,"<img src=""portrait/WM2.jpg""style=""width:400px;height:400px;""></img>",7,html-button-response,4,524775,0.0-3.0-1.0,25330,List1B,white,man,,TRUE,7,,,,,
null,CORRECT,,html-keyboard-response,5,526288,0.0-3.0-2.0-0.0,25330,List1B,white,man,,,,null,,,,
9288,"<img src=""portrait/WW1.jpg""style=""width:400px;height:400px;""></img>",1,html-button-response,6,535584,0.0-3.0-4.0,25330,List1B,white,man,,TRUE,1,,,,,
null,CORRECT,,html-keyboard-response,7,537088,0.0-3.0-5.0-0.0,25330,List1B,white,man,,,,null,,,,
128814,"<img src=""portrait/BW2.jpg""style=""width:400px;height:400px;""></img>",2,html-button-response,8,665916,0.0-3.0-7.0,25330,List1B,white,man,,TRUE,2,,,,,
null,CORRECT,,html-keyboard-response,9,667438,0.0-3.0-8.0-0.0,25330,List1B,white,man,,,,null,,,,
3939,"<img src=""portrait/BW1.jpg""style=""width:400px;height:400px;""></img>",0,html-button-response,10,671391,0.0-3.0-10.0,25330,List1B,white,man,,TRUE,0,,,,,
null,CORRECT,,html-keyboard-response,11,672894,0.0-3.0-11.0-0.0,25330,List1B,white,man,,,,null,,,,
9874,"<img src=""portrait/BM2.jpg""style=""width:400px;height:400px;""></img>",5,html-button-response,12,682773,0.0-3.0-13.0,25330,List1B,white,man,,TRUE,5,,,,,
null,CORRECT,,html-keyboard-response,13,684279,0.0-3.0-14.0-0.0,25330,List1B,white,man,,,,null,,,,
3106,"<img src=""portrait/BM1.jpg""style=""width:400px;height:400px;""></img>",4,html-button-response,14,687395,0.0-3.0-16.0,25330,List1B,white,man,,TRUE,4,,,,,
null,CORRECT,,html-keyboard-response,15,688902,0.0-3.0-17.0-0.0,25330,List1B,white,man,,,,null,,,,
3731,"<img src=""portrait/WW2.jpg""style=""width:400px;height:400px;""></img>",3,html-button-response,16,692640,0.0-3.0-19.0,25330,List1B,white,man,,TRUE,3,,,,,
null,CORRECT,,html-keyboard-response,17,694146,0.0-3.0-20.0-0.0,25330,List1B,white,man,,,,null,,,,
7446,"<img src=""portrait/WM1.jpg""style=""width:400px;height:400px;""></img>",6,html-button-response,18,701600,0.0-3.0-22.0,25330,List1B,white,man,,TRUE,6,,,,,
null,CORRECT,,html-keyboard-response,19,703106,0.0-3.0-23.0-0.0,25330,List1B,white,man,,,,null,,,,
2281,<p>You got 8 out of 8 right first time. Press Continue.</p>,0,html-button-response,20,705393,0.0-3.0-25.0,25330,List1B,white,man,,,,,,,,
53866,"<p>In this experiment, you will view photographs of the people from the memory game interacting.</p><p>By using the <strong>exact</strong> phrase given <i>after</i> the photograph appears and recalling the correct names of the people in the photographs, form a sentence describing the interaction. You do not need to capitalise names.</p><p>Type your answer in the space provided. Please complete every sentence before moving onto the next trial.</p><p>You will only have a few seconds to memorise each given photograph and phrase before you can respond, so try your best to focus.</p><p>An example is given below. Press 'Continue' when you are ready.</p><img src='img/speaking_example_v2.jpg' style='width:800px;height:460px;''></img>",0,html-button-response,21,760268,0.0-4.0,25330,List1B,white,man,,,,,,,,
2602,"<p>Before the experiment starts, you will watch two example trials. Press 'Continue'.</p>",0,html-button-response,22,763876,0.0-5.0,25330,List1B,white,man,,,,,,,,
null,<img src='img/speaking_WW.gif'></img>,,html-keyboard-response,23,766881,0.0-6.0,25330,List1B,white,man,,,,null,,,,
null,<p>is speaking to</p>,,html-keyboard-response,24,768888,0.0-7.0,25330,List1B,white,man,,,,null,,,,
3893,<p><b>Answer:</b> kate is speaking to beth</p>,0,html-button-response,25,772785,0.0-8.0,25330,List1B,white,man,,,,,,,,
null,<img src='img/pointing_BM.gif'></img>,,html-keyboard-response,26,775791,0.0-9.0,25330,List1B,white,man,,,,null,,,,
null,<p>are pointing at each other</p>,,html-keyboard-response,27,777794,0.0-10.0,25330,List1B,white,man,,,,null,,,,
6511,<p><b>Answer:</b> luke and dave are pointing at each other</p>,0,html-button-response,28,784309,0.0-11.0,25330,List1B,white,man,,,,,,,,
9554,"<p>Ready to start the experiment?</p><br><p><strong>Remember to describe the picture using a full sentence,</strong></p><p><strong>that combines the names of the people with the given phrase.</strong></p><p><strong>If you do not do this correctly you will not be paid.</strong></p><p><strong> You do not need to capitalise names or use punctuation.</strong></p><br><p>Press 'Continue' to begin.</p>",0,html-button-response,29,794871,0.0-12.0,25330,List1B,white,man,,,,,,,,
null,"<div style=""font-size:60px;"">+</div>",,html-keyboard-response,30,796375,0.0-13.0-0.0,25330,List1B,white,man,,,,null,,,,
null,"<img src=""stim_listB/dance3.gif""</stim_listB>",,html-keyboard-response,31,798383,0.0-13.0-1.0,25330,List1B,white,man,,,,null,,,,
null,is dancing with,,html-keyboard-response,32,800388,0.0-13.0-2.0,25330,List1B,white,man,,,,null,,,,
35460,,,survey-text,33,835856,0.0-13.0-3.0,25330,List1B,white,man,,,,,"{""Q0"":""Luke is dancing with Jane""}","<img src=""stim_listB/dance3.gif""</stim_listB>",is dancing with,
null,"<div style=""font-size:60px;"">+</div>",,html-keyboard-response,34,836364,0.0-13.0-0.1,25330,List1B,white,man,,,,null,,,,
null,"<img src=""stim_listB/shout6.gif""</stim_listB>",,html-keyboard-response,35,838368,0.0-13.0-1.1,25330,List1B,white,man,,,,null,,,,
null,are shouting at each other,,html-keyboard-response,36,840372,0.0-13.0-2.1,25330,List1B,white,man,,,,null,,,,
20441,,,survey-text,37,860817,0.0-13.0-3.1,25330,List1B,white,man,,,,,"{""Q0"":""Mike and Dave are shouting at each other""}","<img src=""stim_listB/shout6.gif""</stim_listB>",are shouting at each other,
null,"<div style=""font-size:60px;"">+</div>",,html-keyboard-response,38,861320,0.0-13.0-0.2,25330,List1B,white,man,,,,null,,,,
null,"<img src=""stim_listB/kiss4.gif""</stim_listB>",,html-keyboard-response,39,863325,0.0-13.0-1.2,25330,List1B,white,man,,,,null,,,,
null,are kissing each other,,html-keyboard-response,40,865332,0.0-13.0-2.2,25330,List1B,white,man,,,,null,,,,
24115,,,survey-text,41,889452,0.0-13.0-3.2,25330,List1B,white,man,,,,,"{""Q0"":""Dave and Jane are kissing each other""}","<img src=""stim_listB/kiss4.gif""</stim_listB>",are kissing each other,
null,"<div style=""font-size:60px;"">+</div>",,html-keyboard-response,42,889958,0.0-13.0-0.3,25330,List1B,white,man,,,,null,,,,
null,"<img src=""stim_listB/marry6.gif""</stim_listB>",,html-keyboard-response,43,891966,0.0-13.0-1.3,25330,List1B,white,man,,,,null,,,,
null,are marrying each other,,html-keyboard-response,44,893971,0.0-13.0-2.3,25330,List1B,white,man,,,,null,,,,
17759,,,survey-text,45,911737,0.0-13.0-3.3,25330,List1B,white,man,,,,,"{""Q0"":""Dave and Fred are marrying each other""}","<img src=""stim_listB/marry6.gif""</stim_listB>",are marrying each other,
null,"<div style=""font-size:60px;"">+</div>",,html-keyboard-response,46,912241,0.0-13.0-0.4,25330,List1B,white,man,,,,null,,,,
null,"<img src=""stim_listB/marry1.gif""</stim_listB>",,html-keyboard-response,47,914248,0.0-13.0-1.4,25330,List1B,white,man,,,,null,,,,
null,is marrying,,html-keyboard-response,48,916252,0.0-13.0-2.4,25330,List1B,white,man,,,,null,,,,
10509,,,survey-text,49,926768,0.0-13.0-3.4,25330,List1B,white,man,,,,,"{""Q0"":""Beth is marrying Mike""}","<img src=""stim_listB/marry1.gif""</stim_listB>",is marrying,
null,"<div style=""font-size:60px;"">+</div>",,html-keyboard-response,50,927271,0.0-13.0-0.5,25330,List1B,white,man,,,,null,,,,
null,"<img src=""stim_listB/talk4.gif""</stim_listB>",,html-keyboard-response,51,929278,0.0-13.0-1.5,25330,List1B,white,man,,,,null,,,,
null,are talking to each other,,html-keyboard-response,52,931283,0.0-13.0-2.5,25330,List1B,white,man,,,,null,,,,
46381,,,survey-text,53,977669,0.0-13.0-3.5,25330,List1B,white,man,,,,,"{""Q0"":""Dave and Ruth are talking to each other""}","<img src=""stim_listB/talk4.gif""</stim_listB>",are talking to each other,
null,"<div style=""font-size:60px;"">+</div>",,html-keyboard-response,54,978172,0.0-13.0-0.6,25330,List1B,white,man,,,,null,,,,
null,"<img src=""stim_listB/talk3.gif""</stim_listB>",,html-keyboard-response,55,980177,0.0-13.0-1.6,25330,List1B,white,man,,,,null,,,,
null,is talking to,,html-keyboard-response,56,982180,0.0-13.0-2.6,25330,List1B,white,man,,,,null,,,,
38504,,,survey-text,57,1020689,0.0-13.0-3.6,25330,List1B,white,man,,,,,"{""Q0"":""Jane is talking to Luke""}","<img src=""stim_listB/talk3.gif""</stim_listB>",is talking to,
null,"<div style=""font-size:60px;"">+</div>",,html-keyboard-response,58,1021192,0.0-13.0-0.7,25330,List1B,white,man,,,,null,,,,
null,"<img src=""stim_listB/hug7.gif""</stim_listB>",,html-keyboard-response,59,1023197,0.0-13.0-1.7,25330,List1B,white,man,,,,null,,,,
null,is hugging,,html-keyboard-response,60,1025202,0.0-13.0-2.7,25330,List1B,white,man,,,,null,,,,
20751,,,survey-text,61,1045957,0.0-13.0-3.7,25330,List1B,white,man,,,,,"{""Q0"":""Beth is hugging Ruth""}","<img src=""stim_listB/hug7.gif""</stim_listB>",is hugging,
null,"<div style=""font-size:60px;"">+</div>",,html-keyboard-response,62,1046461,0.0-13.0-0.8,25330,List1B,white,man,,,,null,,,,
null,"<img src=""stim_listB/talk7.gif""</stim_listB>",,html-keyboard-response,63,1048466,0.0-13.0-1.8,25330,List1B,white,man,,,,null,,,,
null,is talking to,,html-keyboard-response,64,1050470,0.0-13.0-2.8,25330,List1B,white,man,,,,null,,,,
13632,,,survey-text,65,1064107,0.0-13.0-3.8,25330,List1B,white,man,,,,,"{""Q0"":""Beth is talking to Jane""}","<img src=""stim_listB/talk7.gif""</stim_listB>",is talking to,
null,"<div style=""font-size:60px;"">+</div>",,html-keyboard-response,66,1064610,0.0-13.0-0.9,25330,List1B,white,man,,,,null,,,,
null,"<img src=""stim_listB/argue8.gif""</stim_listB>",,html-keyboard-response,67,1066618,0.0-13.0-1.9,25330,List1B,white,man,,,,null,,,,
null,are arguing with each other,,html-keyboard-response,68,1068621,0.0-13.0-2.9,25330,List1B,white,man,,,,null,,,,
16667,,,survey-text,69,1085292,0.0-13.0-3.9,25330,List1B,white,man,,,,,"{""Q0"":""Beth and Jane are arguing with each other""}","<img src=""stim_listB/argue8.gif""</stim_listB>",are arguing with each other,
null,"<div style=""font-size:60px;"">+</div>",,html-keyboard-response,70,1085794,0.0-13.0-0.10,25330,List1B,white,man,,,,null,,,,
null,"<img src=""stim_listB/kiss2.gif""</stim_listB>",,html-keyboard-response,71,1087799,0.0-13.0-1.10,25330,List1B,white,man,,,,null,,,,
null,are kissing each other,,html-keyboard-response,72,1089803,0.0-13.0-2.10,25330,List1B,white,man,,,,null,,,,
14613,,,survey-text,73,1104419,0.0-13.0-3.10,25330,List1B,white,man,,,,,"{""Q0"":""Mike and Kate are kissing each other ""}","<img src=""stim_listB/kiss2.gif""</stim_listB>",are kissing each other,
null,"<div style=""font-size:60px;"">+</div>",,html-keyboard-response,74,1104924,0.0-13.0-0.11,25330,List1B,white,man,,,,null,,,,
null,"<img src=""stim_listB/fight8.gif""</stim_listB>",,html-keyboard-response,75,1106931,0.0-13.0-1.11,25330,List1B,white,man,,,,null,,,,
null,are fighting each other,,html-keyboard-response,76,1108936,0.0-13.0-2.11,25330,List1B,white,man,,,,null,,,,
17183,,,survey-text,77,1126123,0.0-13.0-3.11,25330,List1B,white,man,,,,,"{""Q0"":""Beth and Ruth are fighting each other""}","<img src=""stim_listB/fight8.gif""</stim_listB>",are fighting each other,
null,"<div style=""font-size:60px;"">+</div>",,html-keyboard-response,78,1126627,0.0-13.0-0.12,25330,List1B,white,man,,,,null,,,,
null,"<img src=""stim_listB/kiss7.gif""</stim_listB>",,html-keyboard-response,79,1128631,0.0-13.0-1.12,25330,List1B,white,man,,,,null,,,,
null,is kissing,,html-keyboard-response,80,1130635,0.0-13.0-2.12,25330,List1B,white,man,,,,null,,,,
8121,,,survey-text,81,1138761,0.0-13.0-3.12,25330,List1B,white,man,,,,,"{""Q0"":""Beth is kissing Ruth ""}","<img src=""stim_listB/kiss7.gif""</stim_listB>",is kissing,
null,"<div style=""font-size:60px;"">+</div>",,html-keyboard-response,82,1139264,0.0-13.0-0.13,25330,List1B,white,man,,,,null,,,,
null,"<img src=""stim_listB/argue6.gif""</stim_listB>",,html-keyboard-response,83,1141268,0.0-13.0-1.13,25330,List1B,white,man,,,,null,,,,
null,are arguing with each other,,html-keyboard-response,84,1143272,0.0-13.0-2.13,25330,List1B,white,man,,,,null,,,,
17338,,,survey-text,85,1160614,0.0-13.0-3.13,25330,List1B,white,man,,,,,"{""Q0"":""Fred and Dave are arguing with each other""}","<img src=""stim_listB/argue6.gif""</stim_listB>",are arguing with each other,
null,"<div style=""font-size:60px;"">+</div>",,html-keyboard-response,86,1161118,0.0-13.0-0.14,25330,List1B,white,man,,,,null,,,,
null,"<img src=""stim_listB/talk8.gif""</stim_listB>",,html-keyboard-response,87,1163122,0.0-13.0-1.14,25330,List1B,white,man,,,,null,,,,
null,are talking to each other,,html-keyboard-response,88,1165126,0.0-13.0-2.14,25330,List1B,white,man,,,,null,,,,
19636,,,survey-text,89,1184766,0.0-13.0-3.14,25330,List1B,white,man,,,,,"{""Q0"":""Ruth and Kate are talking to each other""}","<img src=""stim_listB/talk8.gif""</stim_listB>",are talking to each other,
null,"<div style=""font-size:60px;"">+</div>",,html-keyboard-response,90,1185268,0.0-13.0-0.15,25330,List1B,white,man,,,,null,,,,
null,"<img src=""stim_listB/touch8.gif""</stim_listB>",,html-keyboard-response,91,1187273,0.0-13.0-1.15,25330,List1B,white,man,,,,null,,,,
null,are touching each other,,html-keyboard-response,92,1189277,0.0-13.0-2.15,25330,List1B,white,man,,,,null,,,,
17601,,,survey-text,93,1206882,0.0-13.0-3.15,25330,List1B,white,man,,,,,"{""Q0"":""Beth and Kate are touching each other""}","<img src=""stim_listB/touch8.gif""</stim_listB>",are touching each other,
null,"<div style=""font-size:60px;"">+</div>",,html-keyboard-response,94,1207385,0.0-13.0-0.16,25330,List1B,white,man,,,,null,,,,
null,"<img src=""stim_listB/argue5.gif""</stim_listB>",,html-keyboard-response,95,1209389,0.0-13.0-1.16,25330,List1B,white,man,,,,null,,,,
null,is arguing with,,html-keyboard-response,96,1211394,0.0-13.0-2.16,25330,List1B,white,man,,,,null,,,,
13859,,,survey-text,97,1225256,0.0-13.0-3.16,25330,List1B,white,man,,,,,"{""Q0"":""Mike is arguing with Luke ""}","<img src=""stim_listB/argue5.gif""</stim_listB>",is arguing with,
null,"<div style=""font-size:60px;"">+</div>",,html-keyboard-response,98,1225759,0.0-13.0-0.17,25330,List1B,white,man,,,,null,,,,
null,"<img src=""stim_listB/talk5.gif""</stim_listB>",,html-keyboard-response,99,1227763,0.0-13.0-1.17,25330,List1B,white,man,,,,null,,,,
null,is talking to,,html-keyboard-response,100,1229767,0.0-13.0-2.17,25330,List1B,white,man,,,,null,,,,
12428,,,survey-text,101,1242200,0.0-13.0-3.17,25330,List1B,white,man,,,,,"{""Q0"":""Dave is talking to Fred ""}","<img src=""stim_listB/talk5.gif""</stim_listB>",is talking to,
null,"<div style=""font-size:60px;"">+</div>",,html-keyboard-response,102,1242703,0.0-13.0-0.18,25330,List1B,white,man,,,,null,,,,
null,"<img src=""stim_listB/kiss3.gif""</stim_listB>",,html-keyboard-response,103,1244707,0.0-13.0-1.18,25330,List1B,white,man,,,,null,,,,
null,is kissing,,html-keyboard-response,104,1246711,0.0-13.0-2.18,25330,List1B,white,man,,,,null,,,,
9198,,,survey-text,105,1255913,0.0-13.0-3.18,25330,List1B,white,man,,,,,"{""Q0"":""Ruth is kissing Luke ""}","<img src=""stim_listB/kiss3.gif""</stim_listB>",is kissing,
null,"<div style=""font-size:60px;"">+</div>",,html-keyboard-response,106,1256417,0.0-13.0-0.19,25330,List1B,white,man,,,,null,,,,
null,"<img src=""stim_listB/argue1.gif""</stim_listB>",,html-keyboard-response,107,1258421,0.0-13.0-1.19,25330,List1B,white,man,,,,null,,,,
null,is arguing with,,html-keyboard-response,108,1260426,0.0-13.0-2.19,25330,List1B,white,man,,,,null,,,,
13538,,,survey-text,109,1273968,0.0-13.0-3.19,25330,List1B,white,man,,,,,"{""Q0"":""Beth is arguing with Mike""}","<img src=""stim_listB/argue1.gif""</stim_listB>",is arguing with,
35580,"<img src='img/portrait_matrix_list1.JPG' style='width:900px;height:500px;''></img><p>If you have memorised all the portraits and names and are ready to start, press Continue.</p><p><strong>Please note: Your memory of these faces will be tested 4 times during this experiment.</strong></p>",0,html-button-response,110,1309553,0.0-14.0-0.0,25330,List1B,white,man,,,,,,,,
6570,"<img src=""portrait/WM2.jpg""style=""width:400px;height:400px;""></img>",7,html-button-response,111,1317130,0.0-14.0-1.0,25330,List1B,white,man,,TRUE,7,,,,,
null,CORRECT,,html-keyboard-response,112,1318634,0.0-14.0-2.0-0.0,25330,List1B,white,man,,,,null,,,,
3560,"<img src=""portrait/WW1.jpg""style=""width:400px;height:400px;""></img>",1,html-button-response,113,1322203,0.0-14.0-4.0,25330,List1B,white,man,,TRUE,1,,,,,
null,CORRECT,,html-keyboard-response,114,1323707,0.0-14.0-5.0-0.0,25330,List1B,white,man,,,,null,,,,
2392,"<img src=""portrait/BM1.jpg""style=""width:400px;height:400px;""></img>",4,html-button-response,115,1326106,0.0-14.0-7.0,25330,List1B,white,man,,TRUE,4,,,,,
null,CORRECT,,html-keyboard-response,116,1327612,0.0-14.0-8.0-0.0,25330,List1B,white,man,,,,null,,,,
5589,"<img src=""portrait/BW2.jpg""style=""width:400px;height:400px;""></img>",2,html-button-response,117,1333208,0.0-14.0-10.0,25330,List1B,white,man,,TRUE,2,,,,,
null,CORRECT,,html-keyboard-response,118,1334713,0.0-14.0-11.0-0.0,25330,List1B,white,man,,,,null,,,,
4340,"<img src=""portrait/BM2.jpg""style=""width:400px;height:400px;""></img>",5,html-button-response,119,1339060,0.0-14.0-13.0,25330,List1B,white,man,,TRUE,5,,,,,
null,CORRECT,,html-keyboard-response,120,1340565,0.0-14.0-14.0-0.0,25330,List1B,white,man,,,,null,,,,
5641,"<img src=""portrait/WM1.jpg""style=""width:400px;height:400px;""></img>",6,html-button-response,121,1346211,0.0-14.0-16.0,25330,List1B,white,man,,TRUE,6,,,,,
null,CORRECT,,html-keyboard-response,122,1347716,0.0-14.0-17.0-0.0,25330,List1B,white,man,,,,null,,,,
4472,"<img src=""portrait/WW2.jpg""style=""width:400px;height:400px;""></img>",3,html-button-response,123,1352193,0.0-14.0-19.0,25330,List1B,white,man,,TRUE,3,,,,,
null,CORRECT,,html-keyboard-response,124,1353696,0.0-14.0-20.0-0.0,25330,List1B,white,man,,,,null,,,,
3687,"<img src=""portrait/BW1.jpg""style=""width:400px;height:400px;""></img>",0,html-button-response,125,1357393,0.0-14.0-22.0,25330,List1B,white,man,,TRUE,0,,,,,
null,CORRECT,,html-keyboard-response,126,1358898,0.0-14.0-23.0-0.0,25330,List1B,white,man,,,,null,,,,
2983,<p>You got 8 out of 8 right first time. Press Continue.</p>,0,html-button-response,127,1361886,0.0-14.0-25.0,25330,List1B,white,man,,,,,,,,
null,"<div style=""font-size:60px;"">+</div>",,html-keyboard-response,128,1363394,0.0-15.0-0.0,25330,List1B,white,man,,,,null,,,,
null,"<img src=""stim_listB/talk2.gif""</stim_listB>",,html-keyboard-response,129,1365402,0.0-15.0-1.0,25330,List1B,white,man,,,,null,,,,
null,are talking to each other,,html-keyboard-response,130,1367406,0.0-15.0-2.0,25330,List1B,white,man,,,,null,,,,
15176,,,survey-text,131,1382588,0.0-15.0-3.0,25330,List1B,white,man,,,,,"{""Q0"":""Beth and mike are talking to each other""}","<img src=""stim_listB/talk2.gif""</stim_listB>",are talking to each other,
null,"<div style=""font-size:60px;"">+</div>",,html-keyboard-response,132,1383092,0.0-15.0-0.1,25330,List1B,white,man,,,,null,,,,
null,"<img src=""stim_listB/hug5.gif""</stim_listB>",,html-keyboard-response,133,1385100,0.0-15.0-1.1,25330,List1B,white,man,,,,null,,,,
null,is hugging,,html-keyboard-response,134,1387103,0.0-15.0-2.1,25330,List1B,white,man,,,,null,,,,
9042,,,survey-text,135,1396151,0.0-15.0-3.1,25330,List1B,white,man,,,,,"{""Q0"":""Fred is hugging Luke ""}","<img src=""stim_listB/hug5.gif""</stim_listB>",is hugging,
null,"<div style=""font-size:60px;"">+</div>",,html-keyboard-response,136,1396755,0.0-15.0-0.2,25330,List1B,white,man,,,,null,,,,
null,"<img src=""stim_listB/shout7.gif""</stim_listB>",,html-keyboard-response,137,1398769,0.0-15.0-1.2,25330,List1B,white,man,,,,null,,,,
null,is shouting at,,html-keyboard-response,138,1401742,0.0-15.0-2.2,25330,List1B,white,man,,,,null,,,,
11180,,,survey-text,139,1412941,0.0-15.0-3.2,25330,List1B,white,man,,,,,"{""Q0"":""Beth is shouting at Jane ""}","<img src=""stim_listB/shout7.gif""</stim_listB>",is shouting at,
null,"<div style=""font-size:60px;"">+</div>",,html-keyboard-response,140,1413446,0.0-15.0-0.3,25330,List1B,white,man,,,,null,,,,
null,"<img src=""stim_listB/fight7.gif""</stim_listB>",,html-keyboard-response,141,1415452,0.0-15.0-1.3,25330,List1B,white,man,,,,null,,,,
null,is fighting,,html-keyboard-response,142,1417457,0.0-15.0-2.3,25330,List1B,white,man,,,,null,,,,
9885,,,survey-text,143,1427348,0.0-15.0-3.3,25330,List1B,white,man,,,,,"{""Q0"":""Kate is fighting Jane ""}","<img src=""stim_listB/fight7.gif""</stim_listB>",is fighting,
null,"<div style=""font-size:60px;"">+</div>",,html-keyboard-response,144,1427852,0.0-15.0-0.4,25330,List1B,white,man,,,,null,,,,
null,"<img src=""stim_listB/dance5.gif""</stim_listB>",,html-keyboard-response,145,1429857,0.0-15.0-1.4,25330,List1B,white,man,,,,null,,,,
null,is dancing with,,html-keyboard-response,146,1431862,0.0-15.0-2.4,25330,List1B,white,man,,,,null,,,,
8511,,,survey-text,147,1440378,0.0-15.0-3.4,25330,List1B,white,man,,,,,"{""Q0"":""Fred is dancing with Dave ""}","<img src=""stim_listB/dance5.gif""</stim_listB>",is dancing with,
null,"<div style=""font-size:60px;"">+</div>",,html-keyboard-response,148,1440883,0.0-15.0-0.5,25330,List1B,white,man,,,,null,,,,
null,"<img src=""stim_listB/meet5.gif""</stim_listB>",,html-keyboard-response,149,1442887,0.0-15.0-1.5,25330,List1B,white,man,,,,null,,,,
null,is meeting,,html-keyboard-response,150,1444891,0.0-15.0-2.5,25330,List1B,white,man,,,,null,,,,
7447,,,survey-text,151,1452342,0.0-15.0-3.5,25330,List1B,white,man,,,,,"{""Q0"":""Mike is meeting Dave ""}","<img src=""stim_listB/meet5.gif""</stim_listB>",is meeting,
null,"<div style=""font-size:60px;"">+</div>",,html-keyboard-response,152,1452848,0.0-15.0-0.6,25330,List1B,white,man,,,,null,,,,
null,"<img src=""stim_listB/fight6.gif""</stim_listB>",,html-keyboard-response,153,1454855,0.0-15.0-1.6,25330,List1B,white,man,,,,null,,,,
null,are fighting each other,,html-keyboard-response,154,1456859,0.0-15.0-2.6,25330,List1B,white,man,,,,null,,,,
12291,,,survey-text,155,1469157,0.0-15.0-3.6,25330,List1B,white,man,,,,,"{""Q0"":""Dave and Fred are fighting each other ""}","<img src=""stim_listB/fight6.gif""</stim_listB>",are fighting each other,
null,"<div style=""font-size:60px;"">+</div>",,html-keyboard-response,156,1469660,0.0-15.0-0.7,25330,List1B,white,man,,,,null,,,,
null,"<img src=""stim_listB/kiss1.gif""</stim_listB>",,html-keyboard-response,157,1471667,0.0-15.0-1.7,25330,List1B,white,man,,,,null,,,,
null,is kissing,,html-keyboard-response,158,1473672,0.0-15.0-2.7,25330,List1B,white,man,,,,null,,,,
7701,,,survey-text,159,1481377,0.0-15.0-3.7,25330,List1B,white,man,,,,,"{""Q0"":""Beth is kissing mike ""}","<img src=""stim_listB/kiss1.gif""</stim_listB>",is kissing,
null,"<div style=""font-size:60px;"">+</div>",,html-keyboard-response,160,1481884,0.0-15.0-0.8,25330,List1B,white,man,,,,null,,,,
null,"<img src=""stim_listB/hug4.gif""</stim_listB>",,html-keyboard-response,161,1483893,0.0-15.0-1.8,25330,List1B,white,man,,,,null,,,,
null,are hugging each other,,html-keyboard-response,162,1485896,0.0-15.0-2.8,25330,List1B,white,man,,,,null,,,,
15247,,,survey-text,163,1501150,0.0-15.0-3.8,25330,List1B,white,man,,,,,"{""Q0"":""Dave and Jane are hugging each other""}","<img src=""stim_listB/hug4.gif""</stim_listB>",are hugging each other,
null,"<div style=""font-size:60px;"">+</div>",,html-keyboard-response,164,1501656,0.0-15.0-0.9,25330,List1B,white,man,,,,null,,,,
null,"<img src=""stim_listB/touch3.gif""</stim_listB>",,html-keyboard-response,165,1503663,0.0-15.0-1.9,25330,List1B,white,man,,,,null,,,,
null,is touching,,html-keyboard-response,166,1505668,0.0-15.0-2.9,25330,List1B,white,man,,,,null,,,,
11841,,,survey-text,167,1517515,0.0-15.0-3.9,25330,List1B,white,man,,,,,"{""Q0"":""Dave is touching Jane ""}","<img src=""stim_listB/touch3.gif""</stim_listB>",is touching,
null,"<div style=""font-size:60px;"">+</div>",,html-keyboard-response,168,1518019,0.0-15.0-0.10,25330,List1B,white,man,,,,null,,,,
null,"<img src=""stim_listB/marry8.gif""</stim_listB>",,html-keyboard-response,169,1520024,0.0-15.0-1.10,25330,List1B,white,man,,,,null,,,,
null,are marrying each other,,html-keyboard-response,170,1522029,0.0-15.0-2.10,25330,List1B,white,man,,,,null,,,,
11957,,,survey-text,171,1533991,0.0-15.0-3.10,25330,List1B,white,man,,,,,"{""Q0"":""Beth and Jane are marrying each other""}","<img src=""stim_listB/marry8.gif""</stim_listB>",are marrying each other,
null,"<div style=""font-size:60px;"">+</div>",,html-keyboard-response,172,1534498,0.0-15.0-0.11,25330,List1B,white,man,,,,null,,,,
null,"<img src=""stim_listB/hug8.gif""</stim_listB>",,html-keyboard-response,173,1536503,0.0-15.0-1.11,25330,List1B,white,man,,,,null,,,,
null,are hugging each other,,html-keyboard-response,174,1538509,0.0-15.0-2.11,25330,List1B,white,man,,,,null,,,,
14407,,,survey-text,175,1552920,0.0-15.0-3.11,25330,List1B,white,man,,,,,"{""Q0"":""Jane and Kate are hugging each other""}","<img src=""stim_listB/hug8.gif""</stim_listB>",are hugging each other,
null,"<div style=""font-size:60px;"">+</div>",,html-keyboard-response,176,1553423,0.0-15.0-0.12,25330,List1B,white,man,,,,null,,,,
null,"<img src=""stim_listB/marry4.gif""</stim_listB>",,html-keyboard-response,177,1555428,0.0-15.0-1.12,25330,List1B,white,man,,,,null,,,,
null,are marrying each other,,html-keyboard-response,178,1557432,0.0-15.0-2.12,25330,List1B,white,man,,,,null,,,,
12277,,,survey-text,179,1569713,0.0-15.0-3.12,25330,List1B,white,man,,,,,"{""Q0"":""Luke and Jane are marrying each other""}","<img src=""stim_listB/marry4.gif""</stim_listB>",are marrying each other,
null,"<div style=""font-size:60px;"">+</div>",,html-keyboard-response,180,1570217,0.0-15.0-0.13,25330,List1B,white,man,,,,null,,,,
null,"<img src=""stim_listB/shout5.gif""</stim_listB>",,html-keyboard-response,181,1572224,0.0-15.0-1.13,25330,List1B,white,man,,,,null,,,,
null,is shouting at,,html-keyboard-response,182,1574228,0.0-15.0-2.13,25330,List1B,white,man,,,,null,,,,
12645,,,survey-text,183,1586877,0.0-15.0-3.13,25330,List1B,white,man,,,,,"{""Q0"":""Luke is shouting at mike""}","<img src=""stim_listB/shout5.gif""</stim_listB>",is shouting at,
null,"<div style=""font-size:60px;"">+</div>",,html-keyboard-response,184,1587382,0.0-15.0-0.14,25330,List1B,white,man,,,,null,,,,
null,"<img src=""stim_listB/argue2.gif""</stim_listB>",,html-keyboard-response,185,1589386,0.0-15.0-1.14,25330,List1B,white,man,,,,null,,,,
null,are arguing with each other,,html-keyboard-response,186,1591390,0.0-15.0-2.14,25330,List1B,white,man,,,,null,,,,
12753,,,survey-text,187,1604147,0.0-15.0-3.14,25330,List1B,white,man,,,,,"{""Q0"":""Kate and mike are arguing with each other""}","<img src=""stim_listB/argue2.gif""</stim_listB>",are arguing with each other,
null,"<div style=""font-size:60px;"">+</div>",,html-keyboard-response,188,1604650,0.0-15.0-0.15,25330,List1B,white,man,,,,null,,,,
null,"<img src=""stim_listB/meet8.gif""</stim_listB>",,html-keyboard-response,189,1606655,0.0-15.0-1.15,25330,List1B,white,man,,,,null,,,,
null,are meeting each other,,html-keyboard-response,190,1608660,0.0-15.0-2.15,25330,List1B,white,man,,,,null,,,,
10759,,,survey-text,191,1619426,0.0-15.0-3.15,25330,List1B,white,man,,,,,"{""Q0"":""Beth and Ruth are meeting each other""}","<img src=""stim_listB/meet8.gif""</stim_listB>",are meeting each other,
null,"<div style=""font-size:60px;"">+</div>",,html-keyboard-response,192,1619930,0.0-15.0-0.16,25330,List1B,white,man,,,,null,,,,
null,"<img src=""stim_listB/dance8.gif""</stim_listB>",,html-keyboard-response,193,1621933,0.0-15.0-1.16,25330,List1B,white,man,,,,null,,,,
null,are dancing with each other,,html-keyboard-response,194,1623937,0.0-15.0-2.16,25330,List1B,white,man,,,,null,,,,
15474,,,survey-text,195,1639417,0.0-15.0-3.16,25330,List1B,white,man,,,,,"{""Q0"":""Kate and Ruth are dancing with each other ""}","<img src=""stim_listB/dance8.gif""</stim_listB>",are dancing with each other,
null,"<div style=""font-size:60px;"">+</div>",,html-keyboard-response,196,1639921,0.0-15.0-0.17,25330,List1B,white,man,,,,null,,,,
null,"<img src=""stim_listB/fight2.gif""</stim_listB>",,html-keyboard-response,197,1641926,0.0-15.0-1.17,25330,List1B,white,man,,,,null,,,,
null,are fighting each other,,html-keyboard-response,198,1643931,0.0-15.0-2.17,25330,List1B,white,man,,,,null,,,,
11496,,,survey-text,199,1655431,0.0-15.0-3.17,25330,List1B,white,man,,,,,"{""Q0"":""Mike and Beth are fighting each other""}","<img src=""stim_listB/fight2.gif""</stim_listB>",are fighting each other,
null,"<div style=""font-size:60px;"">+</div>",,html-keyboard-response,200,1655934,0.0-15.0-0.18,25330,List1B,white,man,,,,null,,,,
null,"<img src=""stim_listB/touch5.gif""</stim_listB>",,html-keyboard-response,201,1657937,0.0-15.0-1.18,25330,List1B,white,man,,,,null,,,,
null,is touching,,html-keyboard-response,202,1659942,0.0-15.0-2.18,25330,List1B,white,man,,,,null,,,,
7560,,,survey-text,203,1667506,0.0-15.0-3.18,25330,List1B,white,man,,,,,"{""Q0"":""Mike is touching Dave ""}","<img src=""stim_listB/touch5.gif""</stim_listB>",is touching,
null,"<div style=""font-size:60px;"">+</div>",,html-keyboard-response,204,1668009,0.0-15.0-0.19,25330,List1B,white,man,,,,null,,,,
null,"<img src=""stim_listB/argue7.gif""</stim_listB>",,html-keyboard-response,205,1670012,0.0-15.0-1.19,25330,List1B,white,man,,,,null,,,,
null,is arguing with,,html-keyboard-response,206,1672016,0.0-15.0-2.19,25330,List1B,white,man,,,,null,,,,
11255,,,survey-text,207,1683276,0.0-15.0-3.19,25330,List1B,white,man,,,,,"{""Q0"":""Kate is arguing with Ruth ""}","<img src=""stim_listB/argue7.gif""</stim_listB>",is arguing with,
34625,"<img src='img/portrait_matrix_list1.JPG' style='width:900px;height:500px;''></img><p>If you have memorised all the portraits and names and are ready to start, press Continue.</p><p><strong>Please note: Your memory of these faces will be tested 4 times during this experiment.</strong></p>",0,html-button-response,208,1717911,0.0-16.0-0.0,25330,List1B,white,man,,,,,,,,
6903,"<img src=""portrait/WM1.jpg""style=""width:400px;height:400px;""></img>",6,html-button-response,209,1725836,0.0-16.0-1.0,25330,List1B,white,man,,TRUE,6,,,,,
null,CORRECT,,html-keyboard-response,210,1727347,0.0-16.0-2.0-0.0,25330,List1B,white,man,,,,null,,,,
4909,"<img src=""portrait/BM2.jpg""style=""width:400px;height:400px;""></img>",5,html-button-response,211,1732268,0.0-16.0-4.0,25330,List1B,white,man,,TRUE,5,,,,,
null,CORRECT,,html-keyboard-response,212,1733773,0.0-16.0-5.0-0.0,25330,List1B,white,man,,,,null,,,,
2815,"<img src=""portrait/WW1.jpg""style=""width:400px;height:400px;""></img>",1,html-button-response,213,1736594,0.0-16.0-7.0,25330,List1B,white,man,,TRUE,1,,,,,
null,CORRECT,,html-keyboard-response,214,1738101,0.0-16.0-8.0-0.0,25330,List1B,white,man,,,,null,,,,
3249,"<img src=""portrait/BW1.jpg""style=""width:400px;height:400px;""></img>",0,html-button-response,215,1741356,0.0-16.0-10.0,25330,List1B,white,man,,TRUE,0,,,,,
null,CORRECT,,html-keyboard-response,216,1742861,0.0-16.0-11.0-0.0,25330,List1B,white,man,,,,null,,,,
4284,"<img src=""portrait/BM1.jpg""style=""width:400px;height:400px;""></img>",4,html-button-response,217,1747151,0.0-16.0-13.0,25330,List1B,white,man,,TRUE,4,,,,,
null,CORRECT,,html-keyboard-response,218,1748657,0.0-16.0-14.0-0.0,25330,List1B,white,man,,,,null,,,,
4211,"<img src=""portrait/WW2.jpg""style=""width:400px;height:400px;""></img>",3,html-button-response,219,1752875,0.0-16.0-16.0,25330,List1B,white,man,,TRUE,3,,,,,
null,CORRECT,,html-keyboard-response,220,1754381,0.0-16.0-17.0-0.0,25330,List1B,white,man,,,,null,,,,
4994,"<img src=""portrait/BW2.jpg""style=""width:400px;height:400px;""></img>",2,html-button-response,221,1759382,0.0-16.0-19.0,25330,List1B,white,man,,TRUE,2,,,,,
null,CORRECT,,html-keyboard-response,222,1760887,0.0-16.0-20.0-0.0,25330,List1B,white,man,,,,null,,,,
2414,"<img src=""portrait/WM2.jpg""style=""width:400px;height:400px;""></img>",7,html-button-response,223,1763307,0.0-16.0-22.0,25330,List1B,white,man,,TRUE,7,,,,,
null,CORRECT,,html-keyboard-response,224,1764811,0.0-16.0-23.0-0.0,25330,List1B,white,man,,,,null,,,,
1989,<p>You got 8 out of 8 right first time. Press Continue.</p>,0,html-button-response,225,1766807,0.0-16.0-25.0,25330,List1B,white,man,,,,,,,,
null,"<div style=""font-size:60px;"">+</div>",,html-keyboard-response,226,1768321,0.0-17.0-0.0,25330,List1B,white,man,,,,null,,,,
null,"<img src=""stim_listB/fight4.gif""</stim_listB>",,html-keyboard-response,227,1770328,0.0-17.0-1.0,25330,List1B,white,man,,,,null,,,,
null,are fighting each other,,html-keyboard-response,228,1772330,0.0-17.0-2.0,25330,List1B,white,man,,,,null,,,,
16179,,,survey-text,229,1788516,0.0-17.0-3.0,25330,List1B,white,man,,,,,"{""Q0"":""Luke and Ruth are fighting each other""}","<img src=""stim_listB/fight4.gif""</stim_listB>",are fighting each other,
null,"<div style=""font-size:60px;"">+</div>",,html-keyboard-response,230,1789029,0.0-17.0-0.1,25330,List1B,white,man,,,,null,,,,
null,"<img src=""stim_listB/shout3.gif""</stim_listB>",,html-keyboard-response,231,1791040,0.0-17.0-1.1,25330,List1B,white,man,,,,null,,,,
null,is shouting at,,html-keyboard-response,232,1793045,0.0-17.0-2.1,25330,List1B,white,man,,,,null,,,,
11199,,,survey-text,233,1804259,0.0-17.0-3.1,25330,List1B,white,man,,,,,"{""Q0"":""Luke is shouting at Ruth ""}","<img src=""stim_listB/shout3.gif""</stim_listB>",is shouting at,
null,"<div style=""font-size:60px;"">+</div>",,html-keyboard-response,234,1804763,0.0-17.0-0.2,25330,List1B,white,man,,,,null,,,,
null,"<img src=""stim_listB/argue3.gif""</stim_listB>",,html-keyboard-response,235,1806767,0.0-17.0-1.2,25330,List1B,white,man,,,,null,,,,
null,is arguing with,,html-keyboard-response,236,1808772,0.0-17.0-2.2,25330,List1B,white,man,,,,null,,,,
9722,,,survey-text,237,1818499,0.0-17.0-3.2,25330,List1B,white,man,,,,,"{""Q0"":""Dave is arguing with Ruth ""}","<img src=""stim_listB/argue3.gif""</stim_listB>",is arguing with,
null,"<div style=""font-size:60px;"">+</div>",,html-keyboard-response,238,1819004,0.0-17.0-0.3,25330,List1B,white,man,,,,null,,,,
null,"<img src=""stim_listB/marry5.gif""</stim_listB>",,html-keyboard-response,239,1821009,0.0-17.0-1.3,25330,List1B,white,man,,,,null,,,,
null,is marrying,,html-keyboard-response,240,1823013,0.0-17.0-2.3,25330,List1B,white,man,,,,null,,,,
9153,,,survey-text,241,1832170,0.0-17.0-3.3,25330,List1B,white,man,,,,,"{""Q0"":""Luke is marrying mike ""}","<img src=""stim_listB/marry5.gif""</stim_listB>",is marrying,
null,"<div style=""font-size:60px;"">+</div>",,html-keyboard-response,242,1832673,0.0-17.0-0.4,25330,List1B,white,man,,,,null,,,,
null,"<img src=""stim_listB/talk1.gif""</stim_listB>",,html-keyboard-response,243,1834680,0.0-17.0-1.4,25330,List1B,white,man,,,,null,,,,
null,is talking to,,html-keyboard-response,244,1836686,0.0-17.0-2.4,25330,List1B,white,man,,,,null,,,,
9451,,,survey-text,245,1846142,0.0-17.0-3.4,25330,List1B,white,man,,,,,"{""Q0"":""Fred is talking to Kate ""}","<img src=""stim_listB/talk1.gif""</stim_listB>",is talking to,
null,"<div style=""font-size:60px;"">+</div>",,html-keyboard-response,246,1846646,0.0-17.0-0.5,25330,List1B,white,man,,,,null,,,,
null,"<img src=""stim_listB/dance7.gif""</stim_listB>",,html-keyboard-response,247,1848650,0.0-17.0-1.5,25330,List1B,white,man,,,,null,,,,
null,is dancing with,,html-keyboard-response,248,1850655,0.0-17.0-2.5,25330,List1B,white,man,,,,null,,,,
9939,,,survey-text,249,1860600,0.0-17.0-3.5,25330,List1B,white,man,,,,,"{""Q0"":""Jane is dancing with Beth ""}","<img src=""stim_listB/dance7.gif""</stim_listB>",is dancing with,
null,"<div style=""font-size:60px;"">+</div>",,html-keyboard-response,250,1861106,0.0-17.0-0.6,25330,List1B,white,man,,,,null,,,,
null,"<img src=""stim_listB/hug3.gif""</stim_listB>",,html-keyboard-response,251,1863110,0.0-17.0-1.6,25330,List1B,white,man,,,,null,,,,
null,is hugging,,html-keyboard-response,252,1865114,0.0-17.0-2.6,25330,List1B,white,man,,,,null,,,,
9497,,,survey-text,253,1874615,0.0-17.0-3.6,25330,List1B,white,man,,,,,"{""Q0"":""Dave is hugging Jane ""}","<img src=""stim_listB/hug3.gif""</stim_listB>",is hugging,
null,"<div style=""font-size:60px;"">+</div>",,html-keyboard-response,254,1875120,0.0-17.0-0.7,25330,List1B,white,man,,,,null,,,,
null,"<img src=""stim_listB/marry3.gif""</stim_listB>",,html-keyboard-response,255,1877124,0.0-17.0-1.7,25330,List1B,white,man,,,,null,,,,
null,is marrying,,html-keyboard-response,256,1879130,0.0-17.0-2.7,25330,List1B,white,man,,,,null,,,,
13242,,,survey-text,257,1892377,0.0-17.0-3.7,25330,List1B,white,man,,,,,"{""Q0"":""Dave is marrying Jane ""}","<img src=""stim_listB/marry3.gif""</stim_listB>",is marrying,
null,"<div style=""font-size:60px;"">+</div>",,html-keyboard-response,258,1892881,0.0-17.0-0.8,25330,List1B,white,man,,,,null,,,,
null,"<img src=""stim_listB/meet7.gif""</stim_listB>",,html-keyboard-response,259,1894885,0.0-17.0-1.8,25330,List1B,white,man,,,,null,,,,
null,is meeting,,html-keyboard-response,260,1896890,0.0-17.0-2.8,25330,List1B,white,man,,,,null,,,,
12346,,,survey-text,261,1909243,0.0-17.0-3.8,25330,List1B,white,man,,,,,"{""Q0"":""Jane is meeting Kate ""}","<img src=""stim_listB/meet7.gif""</stim_listB>",is meeting,
null,"<div style=""font-size:60px;"">+</div>",,html-keyboard-response,262,1909749,0.0-17.0-0.9,25330,List1B,white,man,,,,null,,,,
null,"<img src=""stim_listB/touch6.gif""</stim_listB>",,html-keyboard-response,263,1911757,0.0-17.0-1.9,25330,List1B,white,man,,,,null,,,,
null,are touching each other,,html-keyboard-response,264,1913764,0.0-17.0-2.9,25330,List1B,white,man,,,,null,,,,
15033,,,survey-text,265,1928804,0.0-17.0-3.9,25330,List1B,white,man,,,,,"{""Q0"":""Fred and Luke are touching each other""}","<img src=""stim_listB/touch6.gif""</stim_listB>",are touching each other,
null,"<div style=""font-size:60px;"">+</div>",,html-keyboard-response,266,1929309,0.0-17.0-0.10,25330,List1B,white,man,,,,null,,,,
null,"<img src=""stim_listB/touch1.gif""</stim_listB>",,html-keyboard-response,267,1931313,0.0-17.0-1.10,25330,List1B,white,man,,,,null,,,,
null,is touching,,html-keyboard-response,268,1933317,0.0-17.0-2.10,25330,List1B,white,man,,,,null,,,,
14480,,,survey-text,269,1947802,0.0-17.0-3.10,25330,List1B,white,man,,,,,"{""Q0"":""Mike is touching Kate ""}","<img src=""stim_listB/touch1.gif""</stim_listB>",is touching,
null,"<div style=""font-size:60px;"">+</div>",,html-keyboard-response,270,1948305,0.0-17.0-0.11,25330,List1B,white,man,,,,null,,,,
null,"<img src=""stim_listB/argue4.gif""</stim_listB>",,html-keyboard-response,271,1950312,0.0-17.0-1.11,25330,List1B,white,man,,,,null,,,,
null,are arguing with each other,,html-keyboard-response,272,1952316,0.0-17.0-2.11,25330,List1B,white,man,,,,null,,,,
14848,,,survey-text,273,1967169,0.0-17.0-3.11,25330,List1B,white,man,,,,,"{""Q0"":""Luke and Jane are arguing with each other""}","<img src=""stim_listB/argue4.gif""</stim_listB>",are arguing with each other,
null,"<div style=""font-size:60px;"">+</div>",,html-keyboard-response,274,1967673,0.0-17.0-0.12,25330,List1B,white,man,,,,null,,,,
null,"<img src=""stim_listB/touch2.gif""</stim_listB>",,html-keyboard-response,275,1969678,0.0-17.0-1.12,25330,List1B,white,man,,,,null,,,,
null,are touching each other,,html-keyboard-response,276,1971681,0.0-17.0-2.12,25330,List1B,white,man,,,,null,,,,
16140,,,survey-text,277,1987824,0.0-17.0-3.12,25330,List1B,white,man,,,,,"{""Q0"":""Beth and Fred are touching each other ""}","<img src=""stim_listB/touch2.gif""</stim_listB>",are touching each other,
null,"<div style=""font-size:60px;"">+</div>",,html-keyboard-response,278,1988330,0.0-17.0-0.13,25330,List1B,white,man,,,,null,,,,
null,"<img src=""stim_listB/marry7.gif""</stim_listB>",,html-keyboard-response,279,1990337,0.0-17.0-1.13,25330,List1B,white,man,,,,null,,,,
null,is marrying,,html-keyboard-response,280,1992341,0.0-17.0-2.13,25330,List1B,white,man,,,,null,,,,
9948,,,survey-text,281,2002294,0.0-17.0-3.13,25330,List1B,white,man,,,,,"{""Q0"":""Jane is marrying Kate ""}","<img src=""stim_listB/marry7.gif""</stim_listB>",is marrying,
null,"<div style=""font-size:60px;"">+</div>",,html-keyboard-response,282,2002799,0.0-17.0-0.14,25330,List1B,white,man,,,,null,,,,
null,"<img src=""stim_listB/hug2.gif""</stim_listB>",,html-keyboard-response,283,2004804,0.0-17.0-1.14,25330,List1B,white,man,,,,null,,,,
null,are hugging each other,,html-keyboard-response,284,2006807,0.0-17.0-2.14,25330,List1B,white,man,,,,null,,,,
12598,,,survey-text,285,2019411,0.0-17.0-3.14,25330,List1B,white,man,,,,,"{""Q0"":""Mike and Kate are hugging each other ""}","<img src=""stim_listB/hug2.gif""</stim_listB>",are hugging each other,
null,"<div style=""font-size:60px;"">+</div>",,html-keyboard-response,286,2019914,0.0-17.0-0.15,25330,List1B,white,man,,,,null,,,,
null,"<img src=""stim_listB/hug1.gif""</stim_listB>",,html-keyboard-response,287,2021922,0.0-17.0-1.15,25330,List1B,white,man,,,,null,,,,
null,is hugging,,html-keyboard-response,288,2023926,0.0-17.0-2.15,25330,List1B,white,man,,,,null,,,,
8463,,,survey-text,289,2032399,0.0-17.0-3.15,25330,List1B,white,man,,,,,"{""Q0"":""Beth is hugging Fred ""}","<img src=""stim_listB/hug1.gif""</stim_listB>",is hugging,
null,"<div style=""font-size:60px;"">+</div>",,html-keyboard-response,290,2032904,0.0-17.0-0.16,25330,List1B,white,man,,,,null,,,,
null,"<img src=""stim_listB/shout1.gif""</stim_listB>",,html-keyboard-response,291,2034908,0.0-17.0-1.16,25330,List1B,white,man,,,,null,,,,
null,is shouting at,,html-keyboard-response,292,2036915,0.0-17.0-2.16,25330,List1B,white,man,,,,null,,,,
8456,,,survey-text,293,2045374,0.0-17.0-3.16,25330,List1B,white,man,,,,,"{""Q0"":""Beth is shouting at Fred ""}","<img src=""stim_listB/shout1.gif""</stim_listB>",is shouting at,
null,"<div style=""font-size:60px;"">+</div>",,html-keyboard-response,294,2045878,0.0-17.0-0.17,25330,List1B,white,man,,,,null,,,,
null,"<img src=""stim_listB/meet2.gif""</stim_listB>",,html-keyboard-response,295,2047882,0.0-17.0-1.17,25330,List1B,white,man,,,,null,,,,
null,are meeting each other,,html-keyboard-response,296,2049886,0.0-17.0-2.17,25330,List1B,white,man,,,,null,,,,
11752,,,survey-text,297,2061641,0.0-17.0-3.17,25330,List1B,white,man,,,,,"{""Q0"":""Fred and Beth are meeting each other ""}","<img src=""stim_listB/meet2.gif""</stim_listB>",are meeting each other,
null,"<div style=""font-size:60px;"">+</div>",,html-keyboard-response,298,2062143,0.0-17.0-0.18,25330,List1B,white,man,,,,null,,,,
null,"<img src=""stim_listB/meet6.gif""</stim_listB>",,html-keyboard-response,299,2064147,0.0-17.0-1.18,25330,List1B,white,man,,,,null,,,,
null,are meeting each other,,html-keyboard-response,300,2066151,0.0-17.0-2.18,25330,List1B,white,man,,,,null,,,,
10111,,,survey-text,301,2076267,0.0-17.0-3.18,25330,List1B,white,man,,,,,"{""Q0"":""Fred and Luke are meeting each other""}","<img src=""stim_listB/meet6.gif""</stim_listB>",are meeting each other,
null,"<div style=""font-size:60px;"">+</div>",,html-keyboard-response,302,2076769,0.0-17.0-0.19,25330,List1B,white,man,,,,null,,,,
null,"<img src=""stim_listB/talk6.gif""</stim_listB>",,html-keyboard-response,303,2078774,0.0-17.0-1.19,25330,List1B,white,man,,,,null,,,,
null,are talking to each other,,html-keyboard-response,304,2080778,0.0-17.0-2.19,25330,List1B,white,man,,,,null,,,,
14959,,,survey-text,305,2095742,0.0-17.0-3.19,25330,List1B,white,man,,,,,"{""Q0"":""Dave and mike are talking to each other ""}","<img src=""stim_listB/talk6.gif""</stim_listB>",are talking to each other,
12616,"<img src='img/portrait_matrix_list1.JPG' style='width:900px;height:500px;''></img><p>If you have memorised all the portraits and names and are ready to start, press Continue.</p><p><strong>Please note: Your memory of these faces will be tested 4 times during this experiment.</strong></p>",0,html-button-response,306,2108364,0.0-18.0-0.0,25330,List1B,white,man,,,,,,,,
9609,"<img src=""portrait/WM1.jpg""style=""width:400px;height:400px;""></img>",6,html-button-response,307,2118982,0.0-18.0-1.0,25330,List1B,white,man,,TRUE,6,,,,,
null,CORRECT,,html-keyboard-response,308,2120494,0.0-18.0-2.0-0.0,25330,List1B,white,man,,,,null,,,,
2630,"<img src=""portrait/BW1.jpg""style=""width:400px;height:400px;""></img>",0,html-button-response,309,2123132,0.0-18.0-4.0,25330,List1B,white,man,,TRUE,0,,,,,
null,CORRECT,,html-keyboard-response,310,2124637,0.0-18.0-5.0-0.0,25330,List1B,white,man,,,,null,,,,
2336,"<img src=""portrait/BM1.jpg""style=""width:400px;height:400px;""></img>",4,html-button-response,311,2126979,0.0-18.0-7.0,25330,List1B,white,man,,TRUE,4,,,,,
null,CORRECT,,html-keyboard-response,312,2128484,0.0-18.0-8.0-0.0,25330,List1B,white,man,,,,null,,,,
4361,"<img src=""portrait/WM2.jpg""style=""width:400px;height:400px;""></img>",7,html-button-response,313,2132853,0.0-18.0-10.0,25330,List1B,white,man,,TRUE,7,,,,,
null,CORRECT,,html-keyboard-response,314,2134372,0.0-18.0-11.0-0.0,25330,List1B,white,man,,,,null,,,,
20185,"<img src=""portrait/WW2.jpg""style=""width:400px;height:400px;""></img>",3,html-button-response,315,2154570,0.0-18.0-13.0,25330,List1B,white,man,,TRUE,3,,,,,
null,CORRECT,,html-keyboard-response,316,2156080,0.0-18.0-14.0-0.0,25330,List1B,white,man,,,,null,,,,
2184,"<img src=""portrait/WW1.jpg""style=""width:400px;height:400px;""></img>",1,html-button-response,317,2158271,0.0-18.0-16.0,25330,List1B,white,man,,TRUE,1,,,,,
null,CORRECT,,html-keyboard-response,318,2159776,0.0-18.0-17.0-0.0,25330,List1B,white,man,,,,null,,,,
4026,"<img src=""portrait/BM2.jpg""style=""width:400px;height:400px;""></img>",5,html-button-response,319,2163808,0.0-18.0-19.0,25330,List1B,white,man,,TRUE,5,,,,,
null,CORRECT,,html-keyboard-response,320,2165316,0.0-18.0-20.0-0.0,25330,List1B,white,man,,,,null,,,,
3904,"<img src=""portrait/BW2.jpg""style=""width:400px;height:400px;""></img>",2,html-button-response,321,2169226,0.0-18.0-22.0,25330,List1B,white,man,,TRUE,2,,,,,
null,CORRECT,,html-keyboard-response,322,2170733,0.0-18.0-23.0-0.0,25330,List1B,white,man,,,,null,,,,
1522,<p>You got 8 out of 8 right first time. Press Continue.</p>,0,html-button-response,323,2172261,0.0-18.0-25.0,25330,List1B,white,man,,,,,,,,
null,"<div style=""font-size:60px;"">+</div>",,html-keyboard-response,324,2173773,0.0-19.0-0.0,25330,List1B,white,man,,,,null,,,,
null,"<img src=""stim_listB/shout8.gif""</stim_listB>",,html-keyboard-response,325,2175782,0.0-19.0-1.0,25330,List1B,white,man,,,,null,,,,
null,are shouting at each other,,html-keyboard-response,326,2177788,0.0-19.0-2.0,25330,List1B,white,man,,,,null,,,,
12311,,,survey-text,327,2190104,0.0-19.0-3.0,25330,List1B,white,man,,,,,"{""Q0"":""Kate and Jane are shouting at each other""}","<img src=""stim_listB/shout8.gif""</stim_listB>",are shouting at each other,
null,"<div style=""font-size:60px;"">+</div>",,html-keyboard-response,328,2190610,0.0-19.0-0.1,25330,List1B,white,man,,,,null,,,,
null,"<img src=""stim_listB/fight3.gif""</stim_listB>",,html-keyboard-response,329,2192615,0.0-19.0-1.1,25330,List1B,white,man,,,,null,,,,
null,is fighting,,html-keyboard-response,330,2194620,0.0-19.0-2.1,25330,List1B,white,man,,,,null,,,,
11527,,,survey-text,331,2206152,0.0-19.0-3.1,25330,List1B,white,man,,,,,"{""Q0"":""Dave is fighting Jane ""}","<img src=""stim_listB/fight3.gif""</stim_listB>",is fighting,
null,"<div style=""font-size:60px;"">+</div>",,html-keyboard-response,332,2206657,0.0-19.0-0.2,25330,List1B,white,man,,,,null,,,,
null,"<img src=""stim_listB/dance1.gif""</stim_listB>",,html-keyboard-response,333,2208660,0.0-19.0-1.2,25330,List1B,white,man,,,,null,,,,
null,is dancing with,,html-keyboard-response,334,2210665,0.0-19.0-2.2,25330,List1B,white,man,,,,null,,,,
9077,,,survey-text,335,2219748,0.0-19.0-3.2,25330,List1B,white,man,,,,,"{""Q0"":""Kate is dancing with Fred ""}","<img src=""stim_listB/dance1.gif""</stim_listB>",is dancing with,
null,"<div style=""font-size:60px;"">+</div>",,html-keyboard-response,336,2220252,0.0-19.0-0.3,25330,List1B,white,man,,,,null,,,,
null,"<img src=""stim_listB/kiss5.gif""</stim_listB>",,html-keyboard-response,337,2222260,0.0-19.0-1.3,25330,List1B,white,man,,,,null,,,,
null,is kissing,,html-keyboard-response,338,2224265,0.0-19.0-2.3,25330,List1B,white,man,,,,null,,,,
9718,,,survey-text,339,2233988,0.0-19.0-3.3,25330,List1B,white,man,,,,,"{""Q0"":""Luke is kissing mike""}","<img src=""stim_listB/kiss5.gif""</stim_listB>",is kissing,
null,"<div style=""font-size:60px;"">+</div>",,html-keyboard-response,340,2234493,0.0-19.0-0.4,25330,List1B,white,man,,,,null,,,,
null,"<img src=""stim_listB/dance4.gif""</stim_listB>",,html-keyboard-response,341,2236501,0.0-19.0-1.4,25330,List1B,white,man,,,,null,,,,
null,are dancing with each other,,html-keyboard-response,342,2238505,0.0-19.0-2.4,25330,List1B,white,man,,,,null,,,,
14953,,,survey-text,343,2253461,0.0-19.0-3.4,25330,List1B,white,man,,,,,"{""Q0"":""Dave and Ruth are dancing with each other""}","<img src=""stim_listB/dance4.gif""</stim_listB>",are dancing with each other,
null,"<div style=""font-size:60px;"">+</div>",,html-keyboard-response,344,2253964,0.0-19.0-0.5,25330,List1B,white,man,,,,null,,,,
null,"<img src=""stim_listB/kiss6.gif""</stim_listB>",,html-keyboard-response,345,2255971,0.0-19.0-1.5,25330,List1B,white,man,,,,null,,,,
null,are kissing each other,,html-keyboard-response,346,2257978,0.0-19.0-2.5,25330,List1B,white,man,,,,null,,,,
10858,,,survey-text,347,2268845,0.0-19.0-3.5,25330,List1B,white,man,,,,,"{""Q0"":""Dave and mike are kissing each other""}","<img src=""stim_listB/kiss6.gif""</stim_listB>",are kissing each other,
null,"<div style=""font-size:60px;"">+</div>",,html-keyboard-response,348,2269349,0.0-19.0-0.6,25330,List1B,white,man,,,,null,,,,
null,"<img src=""stim_listB/kiss8.gif""</stim_listB>",,html-keyboard-response,349,2271354,0.0-19.0-1.6,25330,List1B,white,man,,,,null,,,,
null,are kissing each other,,html-keyboard-response,350,2273359,0.0-19.0-2.6,25330,List1B,white,man,,,,null,,,,
11368,,,survey-text,351,2284733,0.0-19.0-3.6,25330,List1B,white,man,,,,,"{""Q0"":""Kate and Jane are kissing each other""}","<img src=""stim_listB/kiss8.gif""</stim_listB>",are kissing each other,
null,"<div style=""font-size:60px;"">+</div>",,html-keyboard-response,352,2285241,0.0-19.0-0.7,25330,List1B,white,man,,,,null,,,,
null,"<img src=""stim_listB/meet4.gif""</stim_listB>",,html-keyboard-response,353,2287247,0.0-19.0-1.7,25330,List1B,white,man,,,,null,,,,
null,are meeting each other,,html-keyboard-response,354,2289251,0.0-19.0-2.7,25330,List1B,white,man,,,,null,,,,
15076,,,survey-text,355,2304332,0.0-19.0-3.7,25330,List1B,white,man,,,,,"{""Q0"":""Jane and Dave are meeting each other""}","<img src=""stim_listB/meet4.gif""</stim_listB>",are meeting each other,
null,"<div style=""font-size:60px;"">+</div>",,html-keyboard-response,356,2304837,0.0-19.0-0.8,25330,List1B,white,man,,,,null,,,,
null,"<img src=""stim_listB/touch7.gif""</stim_listB>",,html-keyboard-response,357,2306843,0.0-19.0-1.8,25330,List1B,white,man,,,,null,,,,
null,is touching,,html-keyboard-response,358,2308847,0.0-19.0-2.8,25330,List1B,white,man,,,,null,,,,
10612,,,survey-text,359,2319464,0.0-19.0-3.8,25330,List1B,white,man,,,,,"{""Q0"":""Kate is touching Jane""}","<img src=""stim_listB/touch7.gif""</stim_listB>",is touching,
null,"<div style=""font-size:60px;"">+</div>",,html-keyboard-response,360,2319969,0.0-19.0-0.9,25330,List1B,white,man,,,,null,,,,
null,"<img src=""stim_listB/fight1.gif""</stim_listB>",,html-keyboard-response,361,2321976,0.0-19.0-1.9,25330,List1B,white,man,,,,null,,,,
null,is fighting,,html-keyboard-response,362,2323981,0.0-19.0-2.9,25330,List1B,white,man,,,,null,,,,
8643,,,survey-text,363,2332630,0.0-19.0-3.9,25330,List1B,white,man,,,,,"{""Q0"":""Mike is fighting Kate ""}","<img src=""stim_listB/fight1.gif""</stim_listB>",is fighting,
null,"<div style=""font-size:60px;"">+</div>",,html-keyboard-response,364,2333135,0.0-19.0-0.10,25330,List1B,white,man,,,,null,,,,
null,"<img src=""stim_listB/shout2.gif""</stim_listB>",,html-keyboard-response,365,2335139,0.0-19.0-1.10,25330,List1B,white,man,,,,null,,,,
null,are shouting at each other,,html-keyboard-response,366,2337145,0.0-19.0-2.10,25330,List1B,white,man,,,,null,,,,
12634,,,survey-text,367,2349783,0.0-19.0-3.10,25330,List1B,white,man,,,,,"{""Q0"":""Mike and Kate are shouting at each other""}","<img src=""stim_listB/shout2.gif""</stim_listB>",are shouting at each other,
null,"<div style=""font-size:60px;"">+</div>",,html-keyboard-response,368,2350288,0.0-19.0-0.11,25330,List1B,white,man,,,,null,,,,
null,"<img src=""stim_listB/fight5.gif""</stim_listB>",,html-keyboard-response,369,2352293,0.0-19.0-1.11,25330,List1B,white,man,,,,null,,,,
null,is fighting,,html-keyboard-response,370,2354297,0.0-19.0-2.11,25330,List1B,white,man,,,,null,,,,
9465,,,survey-text,371,2363766,0.0-19.0-3.11,25330,List1B,white,man,,,,,"{""Q0"":""Mike is fighting Dave ""}","<img src=""stim_listB/fight5.gif""</stim_listB>",is fighting,
null,"<div style=""font-size:60px;"">+</div>",,html-keyboard-response,372,2364272,0.0-19.0-0.12,25330,List1B,white,man,,,,null,,,,
null,"<img src=""stim_listB/hug6.gif""</stim_listB>",,html-keyboard-response,373,2366277,0.0-19.0-1.12,25330,List1B,white,man,,,,null,,,,
null,are hugging each other,,html-keyboard-response,374,2368281,0.0-19.0-2.12,25330,List1B,white,man,,,,null,,,,
15524,,,survey-text,375,2383811,0.0-19.0-3.12,25330,List1B,white,man,,,,,"{""Q0"":""Mike and Dave are hugging each other""}","<img src=""stim_listB/hug6.gif""</stim_listB>",are hugging each other,
null,"<div style=""font-size:60px;"">+</div>",,html-keyboard-response,376,2384324,0.0-19.0-0.13,25330,List1B,white,man,,,,null,,,,
null,"<img src=""stim_listB/meet3.gif""</stim_listB>",,html-keyboard-response,377,2386332,0.0-19.0-1.13,25330,List1B,white,man,,,,null,,,,
null,is meeting,,html-keyboard-response,378,2388338,0.0-19.0-2.13,25330,List1B,white,man,,,,null,,,,
8286,,,survey-text,379,2396631,0.0-19.0-3.13,25330,List1B,white,man,,,,,"{""Q0"":""Dave is meeting Jane ""}","<img src=""stim_listB/meet3.gif""</stim_listB>",is meeting,
null,"<div style=""font-size:60px;"">+</div>",,html-keyboard-response,380,2397136,0.0-19.0-0.14,25330,List1B,white,man,,,,null,,,,
null,"<img src=""stim_listB/shout4.gif""</stim_listB>",,html-keyboard-response,381,2399143,0.0-19.0-1.14,25330,List1B,white,man,,,,null,,,,
null,are shouting at each other,,html-keyboard-response,382,2401147,0.0-19.0-2.14,25330,List1B,white,man,,,,null,,,,
11892,,,survey-text,383,2413045,0.0-19.0-3.14,25330,List1B,white,man,,,,,"{""Q0"":""Dave and Jane are shouting at each other ""}","<img src=""stim_listB/shout4.gif""</stim_listB>",are shouting at each other,
null,"<div style=""font-size:60px;"">+</div>",,html-keyboard-response,384,2413549,0.0-19.0-0.15,25330,List1B,white,man,,,,null,,,,
null,"<img src=""stim_listB/touch4.gif""</stim_listB>",,html-keyboard-response,385,2415556,0.0-19.0-1.15,25330,List1B,white,man,,,,null,,,,
null,are touching each other,,html-keyboard-response,386,2417563,0.0-19.0-2.15,25330,List1B,white,man,,,,null,,,,
10933,,,survey-text,387,2428501,0.0-19.0-3.15,25330,List1B,white,man,,,,,"{""Q0"":""Ruth and Luke are touching each other""}","<img src=""stim_listB/touch4.gif""</stim_listB>",are touching each other,
null,"<div style=""font-size:60px;"">+</div>",,html-keyboard-response,388,2429004,0.0-19.0-0.16,25330,List1B,white,man,,,,null,,,,
null,"<img src=""stim_listB/marry2.gif""</stim_listB>",,html-keyboard-response,389,2431011,0.0-19.0-1.16,25330,List1B,white,man,,,,null,,,,
null,are marrying each other,,html-keyboard-response,390,2433014,0.0-19.0-2.16,25330,List1B,white,man,,,,null,,,,
11991,,,survey-text,391,2445007,0.0-19.0-3.16,25330,List1B,white,man,,,,,"{""Q0"":""Fred and Kate are marrying each other""}","<img src=""stim_listB/marry2.gif""</stim_listB>",are marrying each other,
null,"<div style=""font-size:60px;"">+</div>",,html-keyboard-response,392,2445511,0.0-19.0-0.17,25330,List1B,white,man,,,,null,,,,
null,"<img src=""stim_listB/meet1.gif""</stim_listB>",,html-keyboard-response,393,2447515,0.0-19.0-1.17,25330,List1B,white,man,,,,null,,,,
null,is meeting,,html-keyboard-response,394,2449520,0.0-19.0-2.17,25330,List1B,white,man,,,,null,,,,
16025,,,survey-text,395,2465549,0.0-19.0-3.17,25330,List1B,white,man,,,,,"{""Q0"":""Kate is meeting mike ""}","<img src=""stim_listB/meet1.gif""</stim_listB>",is meeting,
null,"<div style=""font-size:60px;"">+</div>",,html-keyboard-response,396,2466054,0.0-19.0-0.18,25330,List1B,white,man,,,,null,,,,
null,"<img src=""stim_listB/dance2.gif""</stim_listB>",,html-keyboard-response,397,2468059,0.0-19.0-1.18,25330,List1B,white,man,,,,null,,,,
null,are dancing with each other,,html-keyboard-response,398,2470064,0.0-19.0-2.18,25330,List1B,white,man,,,,null,,,,
14671,,,survey-text,399,2484739,0.0-19.0-3.18,25330,List1B,white,man,,,,,"{""Q0"":""Beth and mike are dancing with each other ""}","<img src=""stim_listB/dance2.gif""</stim_listB>",are dancing with each other,
null,"<div style=""font-size:60px;"">+</div>",,html-keyboard-response,400,2485247,0.0-19.0-0.19,25330,List1B,white,man,,,,null,,,,
null,"<img src=""stim_listB/dance6.gif""</stim_listB>",,html-keyboard-response,401,2487251,0.0-19.0-1.19,25330,List1B,white,man,,,,null,,,,
null,are dancing with each other,,html-keyboard-response,402,2489255,0.0-19.0-2.19,25330,List1B,white,man,,,,null,,,,
17757,,,survey-text,403,2507016,0.0-19.0-3.19,25330,List1B,white,man,,,,,"{""Q0"":""Mike and Luke are dancing with each other""}","<img src=""stim_listB/dance6.gif""</stim_listB>",are dancing with each other,
4273,<p>Thank you for completing that task.</p><p>The final part of this session is a short questionnaire.</p><p>Press Continue.</p>,0,html-button-response,404,2511296,0.0-20.0,25330,List1B,white,man,,,,,,,,
48076,,,survey-text,405,2560379,0.0-21.0,25330,List1B,white,man,,,,,"{""Q0"":""39"",""Q1"":""English"",""Q2"":""English"",""Q3"":""England"",""Q4"":""White"",""Q5"":""Male""}",,,demographics
73925,,,survey-likert,406,2634331,0.0-22.0,25330,List1B,white,man,,,,,"{""Q0"":4,""Q1"":4,""Q2"":3,""Q3"":4,""Q4"":3,""Q5"":4,""Q6"":3,""Q7"":4,""Q8"":3,""Q9"":3,""Q10"":3,""Q11"":3,""Q12"":4,""Q13"":3}",,,likert_race
53392,,,survey-likert,407,2687739,0.0-23.0,25330,List1B,white,man,,,,,"{""Q0"":4,""Q1"":4,""Q2"":3,""Q3"":4,""Q4"":3,""Q5"":3,""Q6"":3,""Q7"":3,""Q8"":4,""Q9"":3,""Q10"":3,""Q11"":3,""Q12"":4,""Q13"":3}",,,likert_gender
15798,,,survey-text,408,2703546,0.0-24.0,25330,List1B,white,man,,,,,"{""Q0"":""ccc""}",,,worker_id
33275,,,external-html,409,2736930,0.0-25.0,25330,List1B,white,man,debrief.html,,,,,,,
