rt,stimulus,button_pressed,trial_type,trial_index,time_elapsed,internal_node_id,subject,list,ppt_race,ppt_gender,url,first_guess,correct,key_press,responses,image_type,phrase_type,test_part
5111,Welcome to the experiment. Press Continue to begin.,0,html-button-response,0,5116,0.0-0.0,33436,List1A,black,man,,,,,,,,
80455,,,external-html,1,86859,0.0-1.0,33436,List1A,black,man,consent.html,,,,,,,
16890,"<p>On the next page, you will see portraits of 8 people and their names.</p><p>Your first task is to take a few minutes to memorise the names of these people.</p><p>You will have to recall their names during the rest of the experiment, so it is</p><p>essential that you try to memorise these people and their names as best as you can.</p><br><p><strong>You will then be tested on your memory of these names and portraits.</strong></p><br><p>The experiment will start after you have completed this memory test.</p><br><p>Ready?</p>",0,html-button-response,2,103750,0.0-2.0,33436,List1A,black,man,,,,,,,,
72932,"<img src='img/portrait_matrix_list1.JPG' style='width:900px;height:500px;''></img><p>If you have memorised all the portraits and names and are ready to start, press Continue.</p><p><strong>Please note: Your memory of these faces will be tested 4 times during this experiment.</strong></p>",0,html-button-response,3,177684,0.0-3.0-0.0,33436,List1A,black,man,,,,,,,,
14240,"<img src=""portrait/WW1.jpg""style=""width:400px;height:400px;""></img>",1,html-button-response,4,192927,0.0-3.0-1.0,33436,List1A,black,man,,TRUE,1,,,,,
null,CORRECT,,html-keyboard-response,5,194433,0.0-3.0-2.0-0.0,33436,List1A,black,man,,,,null,,,,
23481,"<img src=""portrait/WM2.jpg""style=""width:400px;height:400px;""></img>",7,html-button-response,6,217916,0.0-3.0-4.0,33436,List1A,black,man,,TRUE,7,,,,,
null,CORRECT,,html-keyboard-response,7,219421,0.0-3.0-5.0-0.0,33436,List1A,black,man,,,,null,,,,
3156,"<img src=""portrait/WW2.jpg""style=""width:400px;height:400px;""></img>",3,html-button-response,8,222578,0.0-3.0-7.0,33436,List1A,black,man,,TRUE,3,,,,,
null,CORRECT,,html-keyboard-response,9,224080,0.0-3.0-8.0-0.0,33436,List1A,black,man,,,,null,,,,
4300,"<img src=""portrait/BW1.jpg""style=""width:400px;height:400px;""></img>",0,html-button-response,10,228382,0.0-3.0-10.0,33436,List1A,black,man,,TRUE,0,,,,,
null,CORRECT,,html-keyboard-response,11,229886,0.0-3.0-11.0-0.0,33436,List1A,black,man,,,,null,,,,
4285,"<img src=""portrait/WM1.jpg""style=""width:400px;height:400px;""></img>",6,html-button-response,12,234172,0.0-3.0-13.0,33436,List1A,black,man,,TRUE,6,,,,,
null,CORRECT,,html-keyboard-response,13,235677,0.0-3.0-14.0-0.0,33436,List1A,black,man,,,,null,,,,
5691,"<img src=""portrait/BM1.jpg""style=""width:400px;height:400px;""></img>",4,html-button-response,14,241370,0.0-3.0-16.0,33436,List1A,black,man,,TRUE,4,,,,,
null,CORRECT,,html-keyboard-response,15,242874,0.0-3.0-17.0-0.0,33436,List1A,black,man,,,,null,,,,
2968,"<img src=""portrait/BM2.jpg""style=""width:400px;height:400px;""></img>",5,html-button-response,16,245844,0.0-3.0-19.0,33436,List1A,black,man,,TRUE,5,,,,,
null,CORRECT,,html-keyboard-response,17,247348,0.0-3.0-20.0-0.0,33436,List1A,black,man,,,,null,,,,
3124,"<img src=""portrait/BW2.jpg""style=""width:400px;height:400px;""></img>",2,html-button-response,18,250474,0.0-3.0-22.0,33436,List1A,black,man,,TRUE,2,,,,,
null,CORRECT,,html-keyboard-response,19,251976,0.0-3.0-23.0-0.0,33436,List1A,black,man,,,,null,,,,
2553,<p>You got 8 out of 8 right first time. Press Continue.</p>,0,html-button-response,20,254532,0.0-3.0-25.0,33436,List1A,black,man,,,,,,,,
62521,"<p>In this experiment, you will view photographs of the people from the memory game interacting.</p><p>By using the <strong>exact</strong> phrase given <i>after</i> the photograph appears and recalling the correct names of the people in the photographs, form a sentence describing the interaction. You do not need to capitalise names.</p><p>Type your answer in the space provided. Please complete every sentence before moving onto the next trial.</p><p>You will only have a few seconds to memorise each given photograph and phrase before you can respond, so try your best to focus.</p><p>An example is given below. Press 'Continue' when you are ready.</p><img src='img/speaking_example_v2.jpg' style='width:800px;height:460px;''></img>",0,html-button-response,21,318060,0.0-4.0,33436,List1A,black,man,,,,,,,,
3911,"<p>Before the experiment starts, you will watch two example trials. Press 'Continue'.</p>",0,html-button-response,22,322972,0.0-5.0,33436,List1A,black,man,,,,,,,,
null,<img src='img/speaking_WW.gif'></img>,,html-keyboard-response,23,325974,0.0-6.0,33436,List1A,black,man,,,,null,,,,
null,<p>is speaking to</p>,,html-keyboard-response,24,327976,0.0-7.0,33436,List1A,black,man,,,,null,,,,
5047,<p><b>Answer:</b> kate is speaking to beth</p>,0,html-button-response,25,333024,0.0-8.0,33436,List1A,black,man,,,,,,,,
null,<img src='img/pointing_BM.gif'></img>,,html-keyboard-response,26,336026,0.0-9.0,33436,List1A,black,man,,,,null,,,,
null,<p>are pointing at each other</p>,,html-keyboard-response,27,338028,0.0-10.0,33436,List1A,black,man,,,,null,,,,
3661,<p><b>Answer:</b> luke and dave are pointing at each other</p>,0,html-button-response,28,341690,0.0-11.0,33436,List1A,black,man,,,,,,,,
12130,"<p>Ready to start the experiment?</p><br><p><strong>Remember to describe the picture using a full sentence,</strong></p><p><strong>that combines the names of the people with the given phrase.</strong></p><p><strong>If you do not do this correctly you will not be paid.</strong></p><p><strong> You do not need to capitalise names or use punctuation.</strong></p><br><p>Press 'Continue' to begin.</p>",0,html-button-response,29,354822,0.0-12.0,33436,List1A,black,man,,,,,,,,
null,"<div style=""font-size:60px;"">+</div>",,html-keyboard-response,30,356324,0.0-13.0-0.0,33436,List1A,black,man,,,,null,,,,
null,"<img src=""stim_listA/talk6.gif""</stim_listA>",,html-keyboard-response,31,358327,0.0-13.0-1.0,33436,List1A,black,man,,,,null,,,,
null,are talking to each other,,html-keyboard-response,32,360330,0.0-13.0-2.0,33436,List1A,black,man,,,,null,,,,
12813,,,survey-text,33,373146,0.0-13.0-3.0,33436,List1A,black,man,,,,,"{""Q0"":""mike and luke are talking to each other""}","<img src=""stim_listA/talk6.gif""</stim_listA>",are talking to each other,
null,"<div style=""font-size:60px;"">+</div>",,html-keyboard-response,34,373647,0.0-13.0-0.1,33436,List1A,black,man,,,,null,,,,
null,"<img src=""stim_listA/argue4.gif""</stim_listA>",,html-keyboard-response,35,375650,0.0-13.0-1.1,33436,List1A,black,man,,,,null,,,,
null,are arguing with each other,,html-keyboard-response,36,377653,0.0-13.0-2.1,33436,List1A,black,man,,,,null,,,,
17539,,,survey-text,37,395193,0.0-13.0-3.1,33436,List1A,black,man,,,,,"{""Q0"":""jane and luke are arguing with each other""}","<img src=""stim_listA/argue4.gif""</stim_listA>",are arguing with each other,
null,"<div style=""font-size:60px;"">+</div>",,html-keyboard-response,38,395696,0.0-13.0-0.2,33436,List1A,black,man,,,,null,,,,
null,"<img src=""stim_listA/meet4.gif""</stim_listA>",,html-keyboard-response,39,397699,0.0-13.0-1.2,33436,List1A,black,man,,,,null,,,,
null,are meeting each other,,html-keyboard-response,40,399700,0.0-13.0-2.2,33436,List1A,black,man,,,,null,,,,
15446,,,survey-text,41,415148,0.0-13.0-3.2,33436,List1A,black,man,,,,,"{""Q0"":""beth and luke are meeting each other""}","<img src=""stim_listA/meet4.gif""</stim_listA>",are meeting each other,
null,"<div style=""font-size:60px;"">+</div>",,html-keyboard-response,42,415649,0.0-13.0-0.3,33436,List1A,black,man,,,,null,,,,
null,"<img src=""stim_listA/dance2.gif""</stim_listA>",,html-keyboard-response,43,417653,0.0-13.0-1.3,33436,List1A,black,man,,,,null,,,,
null,are dancing with each other,,html-keyboard-response,44,419654,0.0-13.0-2.3,33436,List1A,black,man,,,,null,,,,
14894,,,survey-text,45,434549,0.0-13.0-3.3,33436,List1A,black,man,,,,,"{""Q0"":""mike and beth are dancing with each other""}","<img src=""stim_listA/dance2.gif""</stim_listA>",are dancing with each other,
null,"<div style=""font-size:60px;"">+</div>",,html-keyboard-response,46,435050,0.0-13.0-0.4,33436,List1A,black,man,,,,null,,,,
null,"<img src=""stim_listA/fight3.gif""</stim_listA>",,html-keyboard-response,47,437054,0.0-13.0-1.4,33436,List1A,black,man,,,,null,,,,
null,is fighting,,html-keyboard-response,48,439056,0.0-13.0-2.4,33436,List1A,black,man,,,,null,,,,
22830,,,survey-text,49,461887,0.0-13.0-3.4,33436,List1A,black,man,,,,,"{""Q0"":""dave and ruth is fighting""}","<img src=""stim_listA/fight3.gif""</stim_listA>",is fighting,
null,"<div style=""font-size:60px;"">+</div>",,html-keyboard-response,50,462388,0.0-13.0-0.5,33436,List1A,black,man,,,,null,,,,
null,"<img src=""stim_listA/kiss5.gif""</stim_listA>",,html-keyboard-response,51,464391,0.0-13.0-1.5,33436,List1A,black,man,,,,null,,,,
null,is kissing,,html-keyboard-response,52,466392,0.0-13.0-2.5,33436,List1A,black,man,,,,null,,,,
21399,,,survey-text,53,487792,0.0-13.0-3.5,33436,List1A,black,man,,,,,"{""Q0"":""luke is kissing mike""}","<img src=""stim_listA/kiss5.gif""</stim_listA>",is kissing,
null,"<div style=""font-size:60px;"">+</div>",,html-keyboard-response,54,488293,0.0-13.0-0.6,33436,List1A,black,man,,,,null,,,,
null,"<img src=""stim_listA/hug8.gif""</stim_listA>",,html-keyboard-response,55,490296,0.0-13.0-1.6,33436,List1A,black,man,,,,null,,,,
null,are hugging each other,,html-keyboard-response,56,492297,0.0-13.0-2.6,33436,List1A,black,man,,,,null,,,,
16309,,,survey-text,57,508608,0.0-13.0-3.6,33436,List1A,black,man,,,,,"{""Q0"":""beth and kate are hugging each other""}","<img src=""stim_listA/hug8.gif""</stim_listA>",are hugging each other,
null,"<div style=""font-size:60px;"">+</div>",,html-keyboard-response,58,509109,0.0-13.0-0.7,33436,List1A,black,man,,,,null,,,,
null,"<img src=""stim_listA/argue3.gif""</stim_listA>",,html-keyboard-response,59,511113,0.0-13.0-1.7,33436,List1A,black,man,,,,null,,,,
null,is arguing with,,html-keyboard-response,60,513118,0.0-13.0-2.7,33436,List1A,black,man,,,,null,,,,
16377,,,survey-text,61,529496,0.0-13.0-3.7,33436,List1A,black,man,,,,,"{""Q0"":""dave is arguing with beth""}","<img src=""stim_listA/argue3.gif""</stim_listA>",is arguing with,
null,"<div style=""font-size:60px;"">+</div>",,html-keyboard-response,62,529997,0.0-13.0-0.8,33436,List1A,black,man,,,,null,,,,
null,"<img src=""stim_listA/hug2.gif""</stim_listA>",,html-keyboard-response,63,532000,0.0-13.0-1.8,33436,List1A,black,man,,,,null,,,,
null,are hugging each other,,html-keyboard-response,64,534002,0.0-13.0-2.8,33436,List1A,black,man,,,,null,,,,
14340,,,survey-text,65,548344,0.0-13.0-3.8,33436,List1A,black,man,,,,,"{""Q0"":""mike and kate are hugging each other""}","<img src=""stim_listA/hug2.gif""</stim_listA>",are hugging each other,
null,"<div style=""font-size:60px;"">+</div>",,html-keyboard-response,66,548847,0.0-13.0-0.9,33436,List1A,black,man,,,,null,,,,
null,"<img src=""stim_listA/talk1.gif""</stim_listA>",,html-keyboard-response,67,550850,0.0-13.0-1.9,33436,List1A,black,man,,,,null,,,,
null,is talking to,,html-keyboard-response,68,552853,0.0-13.0-2.9,33436,List1A,black,man,,,,null,,,,
8487,,,survey-text,69,561342,0.0-13.0-3.9,33436,List1A,black,man,,,,,"{""Q0"":""kate is talking to fred""}","<img src=""stim_listA/talk1.gif""</stim_listA>",is talking to,
null,"<div style=""font-size:60px;"">+</div>",,html-keyboard-response,70,561843,0.0-13.0-0.10,33436,List1A,black,man,,,,null,,,,
null,"<img src=""stim_listA/argue5.gif""</stim_listA>",,html-keyboard-response,71,563847,0.0-13.0-1.10,33436,List1A,black,man,,,,null,,,,
null,is arguing with,,html-keyboard-response,72,565849,0.0-13.0-2.10,33436,List1A,black,man,,,,null,,,,
10958,,,survey-text,73,576808,0.0-13.0-3.10,33436,List1A,black,man,,,,,"{""Q0"":""mike is arguing with luke""}","<img src=""stim_listA/argue5.gif""</stim_listA>",is arguing with,
null,"<div style=""font-size:60px;"">+</div>",,html-keyboard-response,74,577309,0.0-13.0-0.11,33436,List1A,black,man,,,,null,,,,
null,"<img src=""stim_listA/talk7.gif""</stim_listA>",,html-keyboard-response,75,579312,0.0-13.0-1.11,33436,List1A,black,man,,,,null,,,,
null,is talking to,,html-keyboard-response,76,581314,0.0-13.0-2.11,33436,List1A,black,man,,,,null,,,,
12517,,,survey-text,77,593832,0.0-13.0-3.11,33436,List1A,black,man,,,,,"{""Q0"":""beth is talking to jane""}","<img src=""stim_listA/talk7.gif""</stim_listA>",is talking to,
null,"<div style=""font-size:60px;"">+</div>",,html-keyboard-response,78,594333,0.0-13.0-0.12,33436,List1A,black,man,,,,null,,,,
null,"<img src=""stim_listA/argue1.gif""</stim_listA>",,html-keyboard-response,79,596336,0.0-13.0-1.12,33436,List1A,black,man,,,,null,,,,
null,is arguing with,,html-keyboard-response,80,598337,0.0-13.0-2.12,33436,List1A,black,man,,,,null,,,,
10160,,,survey-text,81,608498,0.0-13.0-3.12,33436,List1A,black,man,,,,,"{""Q0"":""beth is arguing with mike""}","<img src=""stim_listA/argue1.gif""</stim_listA>",is arguing with,
null,"<div style=""font-size:60px;"">+</div>",,html-keyboard-response,82,609000,0.0-13.0-0.13,33436,List1A,black,man,,,,null,,,,
null,"<img src=""stim_listA/marry5.gif""</stim_listA>",,html-keyboard-response,83,611002,0.0-13.0-1.13,33436,List1A,black,man,,,,null,,,,
null,is marrying,,html-keyboard-response,84,613004,0.0-13.0-2.13,33436,List1A,black,man,,,,null,,,,
10137,,,survey-text,85,623143,0.0-13.0-3.13,33436,List1A,black,man,,,,,"{""Q0"":""luke is marrying mike""}","<img src=""stim_listA/marry5.gif""</stim_listA>",is marrying,
null,"<div style=""font-size:60px;"">+</div>",,html-keyboard-response,86,623644,0.0-13.0-0.14,33436,List1A,black,man,,,,null,,,,
null,"<img src=""stim_listA/fight1.gif""</stim_listA>",,html-keyboard-response,87,625646,0.0-13.0-1.14,33436,List1A,black,man,,,,null,,,,
null,is fighting,,html-keyboard-response,88,627649,0.0-13.0-2.14,33436,List1A,black,man,,,,null,,,,
10062,,,survey-text,89,637712,0.0-13.0-3.14,33436,List1A,black,man,,,,,"{""Q0"":""luke is fighting mike""}","<img src=""stim_listA/fight1.gif""</stim_listA>",is fighting,
null,"<div style=""font-size:60px;"">+</div>",,html-keyboard-response,90,638214,0.0-13.0-0.15,33436,List1A,black,man,,,,null,,,,
null,"<img src=""stim_listA/dance4.gif""</stim_listA>",,html-keyboard-response,91,640216,0.0-13.0-1.15,33436,List1A,black,man,,,,null,,,,
null,are dancing with each other,,html-keyboard-response,92,642218,0.0-13.0-2.15,33436,List1A,black,man,,,,null,,,,
25484,,,survey-text,93,667704,0.0-13.0-3.15,33436,List1A,black,man,,,,,"{""Q0"":""dave and ruth are dancing with each other""}","<img src=""stim_listA/dance4.gif""</stim_listA>",are dancing with each other,
null,"<div style=""font-size:60px;"">+</div>",,html-keyboard-response,94,668207,0.0-13.0-0.16,33436,List1A,black,man,,,,null,,,,
null,"<img src=""stim_listA/dance3.gif""</stim_listA>",,html-keyboard-response,95,670210,0.0-13.0-1.16,33436,List1A,black,man,,,,null,,,,
null,is dancing with,,html-keyboard-response,96,672212,0.0-13.0-2.16,33436,List1A,black,man,,,,null,,,,
17622,,,survey-text,97,689836,0.0-13.0-3.16,33436,List1A,black,man,,,,,"{""Q0"":""jane is dancing with luke""}","<img src=""stim_listA/dance3.gif""</stim_listA>",is dancing with,
null,"<div style=""font-size:60px;"">+</div>",,html-keyboard-response,98,690337,0.0-13.0-0.17,33436,List1A,black,man,,,,null,,,,
null,"<img src=""stim_listA/shout8.gif""</stim_listA>",,html-keyboard-response,99,692339,0.0-13.0-1.17,33436,List1A,black,man,,,,null,,,,
null,are shouting at each other,,html-keyboard-response,100,694342,0.0-13.0-2.17,33436,List1A,black,man,,,,null,,,,
24635,,,survey-text,101,718978,0.0-13.0-3.17,33436,List1A,black,man,,,,,"{""Q0"":""kate and jane are shouting at each other""}","<img src=""stim_listA/shout8.gif""</stim_listA>",are shouting at each other,
null,"<div style=""font-size:60px;"">+</div>",,html-keyboard-response,102,719479,0.0-13.0-0.18,33436,List1A,black,man,,,,null,,,,
null,"<img src=""stim_listA/hug1.gif""</stim_listA>",,html-keyboard-response,103,721481,0.0-13.0-1.18,33436,List1A,black,man,,,,null,,,,
null,is hugging,,html-keyboard-response,104,723483,0.0-13.0-2.18,33436,List1A,black,man,,,,null,,,,
11630,,,survey-text,105,735114,0.0-13.0-3.18,33436,List1A,black,man,,,,,"{""Q0"":""fred is hugging beth""}","<img src=""stim_listA/hug1.gif""</stim_listA>",is hugging,
null,"<div style=""font-size:60px;"">+</div>",,html-keyboard-response,106,735615,0.0-13.0-0.19,33436,List1A,black,man,,,,null,,,,
null,"<img src=""stim_listA/kiss6.gif""</stim_listA>",,html-keyboard-response,107,737617,0.0-13.0-1.19,33436,List1A,black,man,,,,null,,,,
null,are kissing each other,,html-keyboard-response,108,739620,0.0-13.0-2.19,33436,List1A,black,man,,,,null,,,,
12618,,,survey-text,109,752240,0.0-13.0-3.19,33436,List1A,black,man,,,,,"{""Q0"":""dave and mike are kissing each other""}","<img src=""stim_listA/kiss6.gif""</stim_listA>",are kissing each other,
12037,"<img src='img/portrait_matrix_list1.JPG' style='width:900px;height:500px;''></img><p>If you have memorised all the portraits and names and are ready to start, press Continue.</p><p><strong>Please note: Your memory of these faces will be tested 4 times during this experiment.</strong></p>",0,html-button-response,110,764278,0.0-14.0-0.0,33436,List1A,black,man,,,,,,,,
2857,"<img src=""portrait/WW2.jpg""style=""width:400px;height:400px;""></img>",3,html-button-response,111,768138,0.0-14.0-1.0,33436,List1A,black,man,,TRUE,3,,,,,
null,CORRECT,,html-keyboard-response,112,769643,0.0-14.0-2.0-0.0,33436,List1A,black,man,,,,null,,,,
2301,"<img src=""portrait/BM1.jpg""style=""width:400px;height:400px;""></img>",4,html-button-response,113,771946,0.0-14.0-4.0,33436,List1A,black,man,,TRUE,4,,,,,
null,CORRECT,,html-keyboard-response,114,773450,0.0-14.0-5.0-0.0,33436,List1A,black,man,,,,null,,,,
2332,"<img src=""portrait/BW2.jpg""style=""width:400px;height:400px;""></img>",2,html-button-response,115,775784,0.0-14.0-7.0,33436,List1A,black,man,,TRUE,2,,,,,
null,CORRECT,,html-keyboard-response,116,777289,0.0-14.0-8.0-0.0,33436,List1A,black,man,,,,null,,,,
2385,"<img src=""portrait/WM1.jpg""style=""width:400px;height:400px;""></img>",6,html-button-response,117,779676,0.0-14.0-10.0,33436,List1A,black,man,,TRUE,6,,,,,
null,CORRECT,,html-keyboard-response,118,781180,0.0-14.0-11.0-0.0,33436,List1A,black,man,,,,null,,,,
1988,"<img src=""portrait/BM2.jpg""style=""width:400px;height:400px;""></img>",5,html-button-response,119,783170,0.0-14.0-13.0,33436,List1A,black,man,,TRUE,5,,,,,
null,CORRECT,,html-keyboard-response,120,784673,0.0-14.0-14.0-0.0,33436,List1A,black,man,,,,null,,,,
2497,"<img src=""portrait/WW1.jpg""style=""width:400px;height:400px;""></img>",1,html-button-response,121,787173,0.0-14.0-16.0,33436,List1A,black,man,,TRUE,1,,,,,
null,CORRECT,,html-keyboard-response,122,788675,0.0-14.0-17.0-0.0,33436,List1A,black,man,,,,null,,,,
2051,"<img src=""portrait/WM2.jpg""style=""width:400px;height:400px;""></img>",7,html-button-response,123,790729,0.0-14.0-19.0,33436,List1A,black,man,,TRUE,7,,,,,
null,CORRECT,,html-keyboard-response,124,792231,0.0-14.0-20.0-0.0,33436,List1A,black,man,,,,null,,,,
4911,"<img src=""portrait/BW1.jpg""style=""width:400px;height:400px;""></img>",0,html-button-response,125,797144,0.0-14.0-22.0,33436,List1A,black,man,,TRUE,0,,,,,
null,CORRECT,,html-keyboard-response,126,798648,0.0-14.0-23.0-0.0,33436,List1A,black,man,,,,null,,,,
3885,<p>You got 8 out of 8 right first time. Press Continue.</p>,0,html-button-response,127,802534,0.0-14.0-25.0,33436,List1A,black,man,,,,,,,,
null,"<div style=""font-size:60px;"">+</div>",,html-keyboard-response,128,804039,0.0-15.0-0.0,33436,List1A,black,man,,,,null,,,,
null,"<img src=""stim_listA/marry6.gif""</stim_listA>",,html-keyboard-response,129,806042,0.0-15.0-1.0,33436,List1A,black,man,,,,null,,,,
null,are marrying each other,,html-keyboard-response,130,808043,0.0-15.0-2.0,33436,List1A,black,man,,,,null,,,,
12348,,,survey-text,131,820392,0.0-15.0-3.0,33436,List1A,black,man,,,,,"{""Q0"":""fred and dave are marrying each other""}","<img src=""stim_listA/marry6.gif""</stim_listA>",are marrying each other,
null,"<div style=""font-size:60px;"">+</div>",,html-keyboard-response,132,820894,0.0-15.0-0.1,33436,List1A,black,man,,,,null,,,,
null,"<img src=""stim_listA/hug3.gif""</stim_listA>",,html-keyboard-response,133,822895,0.0-15.0-1.1,33436,List1A,black,man,,,,null,,,,
null,is hugging,,html-keyboard-response,134,824899,0.0-15.0-2.1,33436,List1A,black,man,,,,null,,,,
7235,,,survey-text,135,832134,0.0-15.0-3.1,33436,List1A,black,man,,,,,"{""Q0"":""ruth is hugging luke""}","<img src=""stim_listA/hug3.gif""</stim_listA>",is hugging,
null,"<div style=""font-size:60px;"">+</div>",,html-keyboard-response,136,832635,0.0-15.0-0.2,33436,List1A,black,man,,,,null,,,,
null,"<img src=""stim_listA/marry8.gif""</stim_listA>",,html-keyboard-response,137,834639,0.0-15.0-1.2,33436,List1A,black,man,,,,null,,,,
null,are marrying each other,,html-keyboard-response,138,836641,0.0-15.0-2.2,33436,List1A,black,man,,,,null,,,,
16172,,,survey-text,139,852815,0.0-15.0-3.2,33436,List1A,black,man,,,,,"{""Q0"":""jane and kate are marrying each other""}","<img src=""stim_listA/marry8.gif""</stim_listA>",are marrying each other,
null,"<div style=""font-size:60px;"">+</div>",,html-keyboard-response,140,853316,0.0-15.0-0.3,33436,List1A,black,man,,,,null,,,,
null,"<img src=""stim_listA/meet3.gif""</stim_listA>",,html-keyboard-response,141,855319,0.0-15.0-1.3,33436,List1A,black,man,,,,null,,,,
null,is meeting,,html-keyboard-response,142,857322,0.0-15.0-2.3,33436,List1A,black,man,,,,null,,,,
10571,,,survey-text,143,867895,0.0-15.0-3.3,33436,List1A,black,man,,,,,"{""Q0"":""jane is meeting dave""}","<img src=""stim_listA/meet3.gif""</stim_listA>",is meeting,
null,"<div style=""font-size:60px;"">+</div>",,html-keyboard-response,144,868396,0.0-15.0-0.4,33436,List1A,black,man,,,,null,,,,
null,"<img src=""stim_listA/dance7.gif""</stim_listA>",,html-keyboard-response,145,870398,0.0-15.0-1.4,33436,List1A,black,man,,,,null,,,,
null,is dancing with,,html-keyboard-response,146,872400,0.0-15.0-2.4,33436,List1A,black,man,,,,null,,,,
12157,,,survey-text,147,884559,0.0-15.0-3.4,33436,List1A,black,man,,,,,"{""Q0"":""beth is dancing with jane""}","<img src=""stim_listA/dance7.gif""</stim_listA>",is dancing with,
null,"<div style=""font-size:60px;"">+</div>",,html-keyboard-response,148,885062,0.0-15.0-0.5,33436,List1A,black,man,,,,null,,,,
null,"<img src=""stim_listA/shout7.gif""</stim_listA>",,html-keyboard-response,149,887065,0.0-15.0-1.5,33436,List1A,black,man,,,,null,,,,
null,is shouting at,,html-keyboard-response,150,889068,0.0-15.0-2.5,33436,List1A,black,man,,,,null,,,,
14376,,,survey-text,151,903445,0.0-15.0-3.5,33436,List1A,black,man,,,,,"{""Q0"":""beth is shouting at ruth""}","<img src=""stim_listA/shout7.gif""</stim_listA>",is shouting at,
null,"<div style=""font-size:60px;"">+</div>",,html-keyboard-response,152,903947,0.0-15.0-0.6,33436,List1A,black,man,,,,null,,,,
null,"<img src=""stim_listA/dance5.gif""</stim_listA>",,html-keyboard-response,153,905950,0.0-15.0-1.6,33436,List1A,black,man,,,,null,,,,
null,is dancing with,,html-keyboard-response,154,907952,0.0-15.0-2.6,33436,List1A,black,man,,,,null,,,,
10658,,,survey-text,155,918612,0.0-15.0-3.6,33436,List1A,black,man,,,,,"{""Q0"":""dave is dancing with fred""}","<img src=""stim_listA/dance5.gif""</stim_listA>",is dancing with,
null,"<div style=""font-size:60px;"">+</div>",,html-keyboard-response,156,919113,0.0-15.0-0.7,33436,List1A,black,man,,,,null,,,,
null,"<img src=""stim_listA/hug4.gif""</stim_listA>",,html-keyboard-response,157,921116,0.0-15.0-1.7,33436,List1A,black,man,,,,null,,,,
null,are hugging each other,,html-keyboard-response,158,923119,0.0-15.0-2.7,33436,List1A,black,man,,,,null,,,,
17003,,,survey-text,159,940124,0.0-15.0-3.7,33436,List1A,black,man,,,,,"{""Q0"":""dave and jane are hugging each other""}","<img src=""stim_listA/hug4.gif""</stim_listA>",are hugging each other,
null,"<div style=""font-size:60px;"">+</div>",,html-keyboard-response,160,940626,0.0-15.0-0.8,33436,List1A,black,man,,,,null,,,,
null,"<img src=""stim_listA/kiss1.gif""</stim_listA>",,html-keyboard-response,161,942629,0.0-15.0-1.8,33436,List1A,black,man,,,,null,,,,
null,is kissing,,html-keyboard-response,162,944630,0.0-15.0-2.8,33436,List1A,black,man,,,,null,,,,
10314,,,survey-text,163,954946,0.0-15.0-3.8,33436,List1A,black,man,,,,,"{""Q0"":""beth is kissing fred""}","<img src=""stim_listA/kiss1.gif""</stim_listA>",is kissing,
null,"<div style=""font-size:60px;"">+</div>",,html-keyboard-response,164,955447,0.0-15.0-0.9,33436,List1A,black,man,,,,null,,,,
null,"<img src=""stim_listA/talk8.gif""</stim_listA>",,html-keyboard-response,165,957450,0.0-15.0-1.9,33436,List1A,black,man,,,,null,,,,
null,are talking to each other,,html-keyboard-response,166,959453,0.0-15.0-2.9,33436,List1A,black,man,,,,null,,,,
13551,,,survey-text,167,973006,0.0-15.0-3.9,33436,List1A,black,man,,,,,"{""Q0"":""ruth and kate are talking to each other""}","<img src=""stim_listA/talk8.gif""</stim_listA>",are talking to each other,
null,"<div style=""font-size:60px;"">+</div>",,html-keyboard-response,168,973507,0.0-15.0-0.10,33436,List1A,black,man,,,,null,,,,
null,"<img src=""stim_listA/talk2.gif""</stim_listA>",,html-keyboard-response,169,975509,0.0-15.0-1.10,33436,List1A,black,man,,,,null,,,,
null,are talking to each other,,html-keyboard-response,170,977510,0.0-15.0-2.10,33436,List1A,black,man,,,,null,,,,
14313,,,survey-text,171,991824,0.0-15.0-3.10,33436,List1A,black,man,,,,,"{""Q0"":""mike and beth are talking to each other""}","<img src=""stim_listA/talk2.gif""</stim_listA>",are talking to each other,
null,"<div style=""font-size:60px;"">+</div>",,html-keyboard-response,172,992325,0.0-15.0-0.11,33436,List1A,black,man,,,,null,,,,
null,"<img src=""stim_listA/meet7.gif""</stim_listA>",,html-keyboard-response,173,994329,0.0-15.0-1.11,33436,List1A,black,man,,,,null,,,,
null,is meeting,,html-keyboard-response,174,996331,0.0-15.0-2.11,33436,List1A,black,man,,,,null,,,,
10054,,,survey-text,175,1006388,0.0-15.0-3.11,33436,List1A,black,man,,,,,"{""Q0"":""kate is meeting jane""}","<img src=""stim_listA/meet7.gif""</stim_listA>",is meeting,
null,"<div style=""font-size:60px;"">+</div>",,html-keyboard-response,176,1006889,0.0-15.0-0.12,33436,List1A,black,man,,,,null,,,,
null,"<img src=""stim_listA/marry3.gif""</stim_listA>",,html-keyboard-response,177,1008892,0.0-15.0-1.12,33436,List1A,black,man,,,,null,,,,
null,is marrying,,html-keyboard-response,178,1010894,0.0-15.0-2.12,33436,List1A,black,man,,,,null,,,,
10621,,,survey-text,179,1021516,0.0-15.0-3.12,33436,List1A,black,man,,,,,"{""Q0"":""dave is marrying ruth""}","<img src=""stim_listA/marry3.gif""</stim_listA>",is marrying,
null,"<div style=""font-size:60px;"">+</div>",,html-keyboard-response,180,1022017,0.0-15.0-0.13,33436,List1A,black,man,,,,null,,,,
null,"<img src=""stim_listA/shout6.gif""</stim_listA>",,html-keyboard-response,181,1024020,0.0-15.0-1.13,33436,List1A,black,man,,,,null,,,,
null,are shouting at each other,,html-keyboard-response,182,1026022,0.0-15.0-2.13,33436,List1A,black,man,,,,null,,,,
20661,,,survey-text,183,1046684,0.0-15.0-3.13,33436,List1A,black,man,,,,,"{""Q0"":""dave and mike are shouting at each other""}","<img src=""stim_listA/shout6.gif""</stim_listA>",are shouting at each other,
null,"<div style=""font-size:60px;"">+</div>",,html-keyboard-response,184,1047187,0.0-15.0-0.14,33436,List1A,black,man,,,,null,,,,
null,"<img src=""stim_listA/touch4.gif""</stim_listA>",,html-keyboard-response,185,1049189,0.0-15.0-1.14,33436,List1A,black,man,,,,null,,,,
null,are touching each other,,html-keyboard-response,186,1051191,0.0-15.0-2.14,33436,List1A,black,man,,,,null,,,,
14141,,,survey-text,187,1065333,0.0-15.0-3.14,33436,List1A,black,man,,,,,"{""Q0"":""luke and ruth are touching each other""}","<img src=""stim_listA/touch4.gif""</stim_listA>",are touching each other,
null,"<div style=""font-size:60px;"">+</div>",,html-keyboard-response,188,1065834,0.0-15.0-0.15,33436,List1A,black,man,,,,null,,,,
null,"<img src=""stim_listA/marry1.gif""</stim_listA>",,html-keyboard-response,189,1067836,0.0-15.0-1.15,33436,List1A,black,man,,,,null,,,,
null,is marrying,,html-keyboard-response,190,1069837,0.0-15.0-2.15,33436,List1A,black,man,,,,null,,,,
16107,,,survey-text,191,1085945,0.0-15.0-3.15,33436,List1A,black,man,,,,,"{""Q0"":""mike is marrying beth""}","<img src=""stim_listA/marry1.gif""</stim_listA>",is marrying,
null,"<div style=""font-size:60px;"">+</div>",,html-keyboard-response,192,1086447,0.0-15.0-0.16,33436,List1A,black,man,,,,null,,,,
null,"<img src=""stim_listA/fight5.gif""</stim_listA>",,html-keyboard-response,193,1088450,0.0-15.0-1.16,33436,List1A,black,man,,,,null,,,,
null,is fighting,,html-keyboard-response,194,1090452,0.0-15.0-2.16,33436,List1A,black,man,,,,null,,,,
9719,,,survey-text,195,1100173,0.0-15.0-3.16,33436,List1A,black,man,,,,,"{""Q0"":""mike is fighting dave""}","<img src=""stim_listA/fight5.gif""</stim_listA>",is fighting,
null,"<div style=""font-size:60px;"">+</div>",,html-keyboard-response,196,1100674,0.0-15.0-0.17,33436,List1A,black,man,,,,null,,,,
null,"<img src=""stim_listA/meet1.gif""</stim_listA>",,html-keyboard-response,197,1102677,0.0-15.0-1.17,33436,List1A,black,man,,,,null,,,,
null,is meeting,,html-keyboard-response,198,1104678,0.0-15.0-2.17,33436,List1A,black,man,,,,null,,,,
10371,,,survey-text,199,1115051,0.0-15.0-3.17,33436,List1A,black,man,,,,,"{""Q0"":""mike is meeting kate""}","<img src=""stim_listA/meet1.gif""</stim_listA>",is meeting,
null,"<div style=""font-size:60px;"">+</div>",,html-keyboard-response,200,1115553,0.0-15.0-0.18,33436,List1A,black,man,,,,null,,,,
null,"<img src=""stim_listA/argue7.gif""</stim_listA>",,html-keyboard-response,201,1117555,0.0-15.0-1.18,33436,List1A,black,man,,,,null,,,,
null,is arguing with,,html-keyboard-response,202,1119558,0.0-15.0-2.18,33436,List1A,black,man,,,,null,,,,
12874,,,survey-text,203,1132433,0.0-15.0-3.18,33436,List1A,black,man,,,,,"{""Q0"":""ruth is arguing with kate""}","<img src=""stim_listA/argue7.gif""</stim_listA>",is arguing with,
null,"<div style=""font-size:60px;"">+</div>",,html-keyboard-response,204,1132935,0.0-15.0-0.19,33436,List1A,black,man,,,,null,,,,
null,"<img src=""stim_listA/marry7.gif""</stim_listA>",,html-keyboard-response,205,1134938,0.0-15.0-1.19,33436,List1A,black,man,,,,null,,,,
null,is marrying,,html-keyboard-response,206,1136940,0.0-15.0-2.19,33436,List1A,black,man,,,,null,,,,
11193,,,survey-text,207,1148134,0.0-15.0-3.19,33436,List1A,black,man,,,,,"{""Q0"":""ruth is marrying kate""}","<img src=""stim_listA/marry7.gif""</stim_listA>",is marrying,
5531,"<img src='img/portrait_matrix_list1.JPG' style='width:900px;height:500px;''></img><p>If you have memorised all the portraits and names and are ready to start, press Continue.</p><p><strong>Please note: Your memory of these faces will be tested 4 times during this experiment.</strong></p>",0,html-button-response,208,1153666,0.0-16.0-0.0,33436,List1A,black,man,,,,,,,,
2318,"<img src=""portrait/BM1.jpg""style=""width:400px;height:400px;""></img>",4,html-button-response,209,1156989,0.0-16.0-1.0,33436,List1A,black,man,,TRUE,4,,,,,
null,CORRECT,,html-keyboard-response,210,1158493,0.0-16.0-2.0-0.0,33436,List1A,black,man,,,,null,,,,
2309,"<img src=""portrait/WW1.jpg""style=""width:400px;height:400px;""></img>",1,html-button-response,211,1160804,0.0-16.0-4.0,33436,List1A,black,man,,TRUE,1,,,,,
null,CORRECT,,html-keyboard-response,212,1162309,0.0-16.0-5.0-0.0,33436,List1A,black,man,,,,null,,,,
1744,"<img src=""portrait/WM2.jpg""style=""width:400px;height:400px;""></img>",7,html-button-response,213,1164055,0.0-16.0-7.0,33436,List1A,black,man,,TRUE,7,,,,,
null,CORRECT,,html-keyboard-response,214,1165557,0.0-16.0-8.0-0.0,33436,List1A,black,man,,,,null,,,,
2022,"<img src=""portrait/WM1.jpg""style=""width:400px;height:400px;""></img>",6,html-button-response,215,1167580,0.0-16.0-10.0,33436,List1A,black,man,,TRUE,6,,,,,
null,CORRECT,,html-keyboard-response,216,1169083,0.0-16.0-11.0-0.0,33436,List1A,black,man,,,,null,,,,
1630,"<img src=""portrait/BW1.jpg""style=""width:400px;height:400px;""></img>",0,html-button-response,217,1170714,0.0-16.0-13.0,33436,List1A,black,man,,TRUE,0,,,,,
null,CORRECT,,html-keyboard-response,218,1172216,0.0-16.0-14.0-0.0,33436,List1A,black,man,,,,null,,,,
1614,"<img src=""portrait/BW2.jpg""style=""width:400px;height:400px;""></img>",2,html-button-response,219,1173833,0.0-16.0-16.0,33436,List1A,black,man,,TRUE,2,,,,,
null,CORRECT,,html-keyboard-response,220,1175336,0.0-16.0-17.0-0.0,33436,List1A,black,man,,,,null,,,,
1871,"<img src=""portrait/BM2.jpg""style=""width:400px;height:400px;""></img>",5,html-button-response,221,1177209,0.0-16.0-19.0,33436,List1A,black,man,,TRUE,5,,,,,
null,CORRECT,,html-keyboard-response,222,1178712,0.0-16.0-20.0-0.0,33436,List1A,black,man,,,,null,,,,
1834,"<img src=""portrait/WW2.jpg""style=""width:400px;height:400px;""></img>",3,html-button-response,223,1180547,0.0-16.0-22.0,33436,List1A,black,man,,TRUE,3,,,,,
null,CORRECT,,html-keyboard-response,224,1182050,0.0-16.0-23.0-0.0,33436,List1A,black,man,,,,null,,,,
2654,<p>You got 8 out of 8 right first time. Press Continue.</p>,0,html-button-response,225,1184706,0.0-16.0-25.0,33436,List1A,black,man,,,,,,,,
null,"<div style=""font-size:60px;"">+</div>",,html-keyboard-response,226,1186209,0.0-17.0-0.0,33436,List1A,black,man,,,,null,,,,
null,"<img src=""stim_listA/touch6.gif""</stim_listA>",,html-keyboard-response,227,1188212,0.0-17.0-1.0,33436,List1A,black,man,,,,null,,,,
null,are touching each other,,html-keyboard-response,228,1190214,0.0-17.0-2.0,33436,List1A,black,man,,,,null,,,,
16157,,,survey-text,229,1206373,0.0-17.0-3.0,33436,List1A,black,man,,,,,"{""Q0"":""fred and dave are touching each other""}","<img src=""stim_listA/touch6.gif""</stim_listA>",are touching each other,
null,"<div style=""font-size:60px;"">+</div>",,html-keyboard-response,230,1206874,0.0-17.0-0.1,33436,List1A,black,man,,,,null,,,,
null,"<img src=""stim_listA/meet2.gif""</stim_listA>",,html-keyboard-response,231,1208877,0.0-17.0-1.1,33436,List1A,black,man,,,,null,,,,
null,are meeting each other,,html-keyboard-response,232,1210879,0.0-17.0-2.1,33436,List1A,black,man,,,,null,,,,
11429,,,survey-text,233,1222309,0.0-17.0-3.1,33436,List1A,black,man,,,,,"{""Q0"":""fred and beth are meeting each other""}","<img src=""stim_listA/meet2.gif""</stim_listA>",are meeting each other,
null,"<div style=""font-size:60px;"">+</div>",,html-keyboard-response,234,1222811,0.0-17.0-0.2,33436,List1A,black,man,,,,null,,,,
null,"<img src=""stim_listA/fight2.gif""</stim_listA>",,html-keyboard-response,235,1224814,0.0-17.0-1.2,33436,List1A,black,man,,,,null,,,,
null,are fighting each other,,html-keyboard-response,236,1226816,0.0-17.0-2.2,33436,List1A,black,man,,,,null,,,,
13489,,,survey-text,237,1240307,0.0-17.0-3.2,33436,List1A,black,man,,,,,"{""Q0"":""fred and beth are fighting each other""}","<img src=""stim_listA/fight2.gif""</stim_listA>",are fighting each other,
null,"<div style=""font-size:60px;"">+</div>",,html-keyboard-response,238,1240808,0.0-17.0-0.3,33436,List1A,black,man,,,,null,,,,
null,"<img src=""stim_listA/fight8.gif""</stim_listA>",,html-keyboard-response,239,1242811,0.0-17.0-1.3,33436,List1A,black,man,,,,null,,,,
null,are fighting each other,,html-keyboard-response,240,1244813,0.0-17.0-2.3,33436,List1A,black,man,,,,null,,,,
16090,,,survey-text,241,1260905,0.0-17.0-3.3,33436,List1A,black,man,,,,,"{""Q0"":""ruth and beth are fighting each other""}","<img src=""stim_listA/fight8.gif""</stim_listA>",are fighting each other,
null,"<div style=""font-size:60px;"">+</div>",,html-keyboard-response,242,1261406,0.0-17.0-0.4,33436,List1A,black,man,,,,null,,,,
null,"<img src=""stim_listA/argue6.gif""</stim_listA>",,html-keyboard-response,243,1263409,0.0-17.0-1.4,33436,List1A,black,man,,,,null,,,,
null,are arguing with each other,,html-keyboard-response,244,1265410,0.0-17.0-2.4,33436,List1A,black,man,,,,null,,,,
14645,,,survey-text,245,1280057,0.0-17.0-3.4,33436,List1A,black,man,,,,,"{""Q0"":""dave and fred are arguing with each other""}","<img src=""stim_listA/argue6.gif""</stim_listA>",are arguing with each other,
null,"<div style=""font-size:60px;"">+</div>",,html-keyboard-response,246,1280559,0.0-17.0-0.5,33436,List1A,black,man,,,,null,,,,
null,"<img src=""stim_listA/meet5.gif""</stim_listA>",,html-keyboard-response,247,1282561,0.0-17.0-1.5,33436,List1A,black,man,,,,null,,,,
null,is meeting,,html-keyboard-response,248,1284563,0.0-17.0-2.5,33436,List1A,black,man,,,,null,,,,
9358,,,survey-text,249,1293922,0.0-17.0-3.5,33436,List1A,black,man,,,,,"{""Q0"":""mike is meeting dave""}","<img src=""stim_listA/meet5.gif""</stim_listA>",is meeting,
null,"<div style=""font-size:60px;"">+</div>",,html-keyboard-response,250,1294425,0.0-17.0-0.6,33436,List1A,black,man,,,,null,,,,
null,"<img src=""stim_listA/talk3.gif""</stim_listA>",,html-keyboard-response,251,1296429,0.0-17.0-1.6,33436,List1A,black,man,,,,null,,,,
null,is talking to,,html-keyboard-response,252,1298431,0.0-17.0-2.6,33436,List1A,black,man,,,,null,,,,
13401,,,survey-text,253,1311832,0.0-17.0-3.6,33436,List1A,black,man,,,,,"{""Q0"":""jane is talking to luke""}","<img src=""stim_listA/talk3.gif""</stim_listA>",is talking to,
null,"<div style=""font-size:60px;"">+</div>",,html-keyboard-response,254,1312334,0.0-17.0-0.7,33436,List1A,black,man,,,,null,,,,
null,"<img src=""stim_listA/fight6.gif""</stim_listA>",,html-keyboard-response,255,1314338,0.0-17.0-1.7,33436,List1A,black,man,,,,null,,,,
null,are fighting each other,,html-keyboard-response,256,1316341,0.0-17.0-2.7,33436,List1A,black,man,,,,null,,,,
13964,,,survey-text,257,1330307,0.0-17.0-3.7,33436,List1A,black,man,,,,,"{""Q0"":""fred and luke are fighting each other""}","<img src=""stim_listA/fight6.gif""</stim_listA>",are fighting each other,
null,"<div style=""font-size:60px;"">+</div>",,html-keyboard-response,258,1330809,0.0-17.0-0.8,33436,List1A,black,man,,,,null,,,,
null,"<img src=""stim_listA/shout1.gif""</stim_listA>",,html-keyboard-response,259,1332812,0.0-17.0-1.8,33436,List1A,black,man,,,,null,,,,
null,is shouting at,,html-keyboard-response,260,1334814,0.0-17.0-2.8,33436,List1A,black,man,,,,null,,,,
13266,,,survey-text,261,1348081,0.0-17.0-3.8,33436,List1A,black,man,,,,,"{""Q0"":""beth is shouting at fred""}","<img src=""stim_listA/shout1.gif""</stim_listA>",is shouting at,
null,"<div style=""font-size:60px;"">+</div>",,html-keyboard-response,262,1348583,0.0-17.0-0.9,33436,List1A,black,man,,,,null,,,,
null,"<img src=""stim_listA/talk5.gif""</stim_listA>",,html-keyboard-response,263,1350586,0.0-17.0-1.9,33436,List1A,black,man,,,,null,,,,
null,is talking to,,html-keyboard-response,264,1352588,0.0-17.0-2.9,33436,List1A,black,man,,,,null,,,,
10955,,,survey-text,265,1363545,0.0-17.0-3.9,33436,List1A,black,man,,,,,"{""Q0"":""fred is talking to dave""}","<img src=""stim_listA/talk5.gif""</stim_listA>",is talking to,
null,"<div style=""font-size:60px;"">+</div>",,html-keyboard-response,266,1364047,0.0-17.0-0.10,33436,List1A,black,man,,,,null,,,,
null,"<img src=""stim_listA/shout2.gif""</stim_listA>",,html-keyboard-response,267,1366049,0.0-17.0-1.10,33436,List1A,black,man,,,,null,,,,
null,are shouting at each other,,html-keyboard-response,268,1368050,0.0-17.0-2.10,33436,List1A,black,man,,,,null,,,,
17251,,,survey-text,269,1385303,0.0-17.0-3.10,33436,List1A,black,man,,,,,"{""Q0"":""mike and kate are shouting at each other""}","<img src=""stim_listA/shout2.gif""</stim_listA>",are shouting at each other,
null,"<div style=""font-size:60px;"">+</div>",,html-keyboard-response,270,1385804,0.0-17.0-0.11,33436,List1A,black,man,,,,null,,,,
null,"<img src=""stim_listA/dance8.gif""</stim_listA>",,html-keyboard-response,271,1387807,0.0-17.0-1.11,33436,List1A,black,man,,,,null,,,,
null,are dancing with each other,,html-keyboard-response,272,1389809,0.0-17.0-2.11,33436,List1A,black,man,,,,null,,,,
12307,,,survey-text,273,1402117,0.0-17.0-3.11,33436,List1A,black,man,,,,,"{""Q0"":""kate and ruth are dancing with each other""}","<img src=""stim_listA/dance8.gif""</stim_listA>",are dancing with each other,
null,"<div style=""font-size:60px;"">+</div>",,html-keyboard-response,274,1402620,0.0-17.0-0.12,33436,List1A,black,man,,,,null,,,,
null,"<img src=""stim_listA/marry4.gif""</stim_listA>",,html-keyboard-response,275,1404623,0.0-17.0-1.12,33436,List1A,black,man,,,,null,,,,
null,are marrying each other,,html-keyboard-response,276,1406625,0.0-17.0-2.12,33436,List1A,black,man,,,,null,,,,
14095,,,survey-text,277,1420721,0.0-17.0-3.12,33436,List1A,black,man,,,,,"{""Q0"":""luke and jane are marrying each other""}","<img src=""stim_listA/marry4.gif""</stim_listA>",are marrying each other,
null,"<div style=""font-size:60px;"">+</div>",,html-keyboard-response,278,1421222,0.0-17.0-0.13,33436,List1A,black,man,,,,null,,,,
null,"<img src=""stim_listA/fight7.gif""</stim_listA>",,html-keyboard-response,279,1423225,0.0-17.0-1.13,33436,List1A,black,man,,,,null,,,,
null,is fighting,,html-keyboard-response,280,1425227,0.0-17.0-2.13,33436,List1A,black,man,,,,null,,,,
11091,,,survey-text,281,1436319,0.0-17.0-3.13,33436,List1A,black,man,,,,,"{""Q0"":""kate is fighting jane""}","<img src=""stim_listA/fight7.gif""</stim_listA>",is fighting,
null,"<div style=""font-size:60px;"">+</div>",,html-keyboard-response,282,1436822,0.0-17.0-0.14,33436,List1A,black,man,,,,null,,,,
null,"<img src=""stim_listA/kiss3.gif""</stim_listA>",,html-keyboard-response,283,1438824,0.0-17.0-1.14,33436,List1A,black,man,,,,null,,,,
null,is kissing,,html-keyboard-response,284,1440825,0.0-17.0-2.14,33436,List1A,black,man,,,,null,,,,
10510,,,survey-text,285,1451337,0.0-17.0-3.14,33436,List1A,black,man,,,,,"{""Q0"":""ruth is kissing luke""}","<img src=""stim_listA/kiss3.gif""</stim_listA>",is kissing,
null,"<div style=""font-size:60px;"">+</div>",,html-keyboard-response,286,1451838,0.0-17.0-0.15,33436,List1A,black,man,,,,null,,,,
null,"<img src=""stim_listA/dance1.gif""</stim_listA>",,html-keyboard-response,287,1453841,0.0-17.0-1.15,33436,List1A,black,man,,,,null,,,,
null,is dancing with,,html-keyboard-response,288,1455843,0.0-17.0-2.15,33436,List1A,black,man,,,,null,,,,
10690,,,survey-text,289,1466535,0.0-17.0-3.15,33436,List1A,black,man,,,,,"{""Q0"":""fred is dancing with kate""}","<img src=""stim_listA/dance1.gif""</stim_listA>",is dancing with,
null,"<div style=""font-size:60px;"">+</div>",,html-keyboard-response,290,1467036,0.0-17.0-0.16,33436,List1A,black,man,,,,null,,,,
null,"<img src=""stim_listA/kiss2.gif""</stim_listA>",,html-keyboard-response,291,1469039,0.0-17.0-1.16,33436,List1A,black,man,,,,null,,,,
null,are kissing each other,,html-keyboard-response,292,1471040,0.0-17.0-2.16,33436,List1A,black,man,,,,null,,,,
15373,,,survey-text,293,1486414,0.0-17.0-3.16,33436,List1A,black,man,,,,,"{""Q0"":""mike and kate are kissing each other""}","<img src=""stim_listA/kiss2.gif""</stim_listA>",are kissing each other,
null,"<div style=""font-size:60px;"">+</div>",,html-keyboard-response,294,1486916,0.0-17.0-0.17,33436,List1A,black,man,,,,null,,,,
null,"<img src=""stim_listA/hug7.gif""</stim_listA>",,html-keyboard-response,295,1488920,0.0-17.0-1.17,33436,List1A,black,man,,,,null,,,,
null,is hugging,,html-keyboard-response,296,1490921,0.0-17.0-2.17,33436,List1A,black,man,,,,null,,,,
10298,,,survey-text,297,1501220,0.0-17.0-3.17,33436,List1A,black,man,,,,,"{""Q0"":""beth is hugging ruth""}","<img src=""stim_listA/hug7.gif""</stim_listA>",is hugging,
null,"<div style=""font-size:60px;"">+</div>",,html-keyboard-response,298,1501722,0.0-17.0-0.18,33436,List1A,black,man,,,,null,,,,
null,"<img src=""stim_listA/meet8.gif""</stim_listA>",,html-keyboard-response,299,1503724,0.0-17.0-1.18,33436,List1A,black,man,,,,null,,,,
null,are meeting each other,,html-keyboard-response,300,1505725,0.0-17.0-2.18,33436,List1A,black,man,,,,null,,,,
14418,,,survey-text,301,1520145,0.0-17.0-3.18,33436,List1A,black,man,,,,,"{""Q0"":""ruth and beth are meeting each other""}","<img src=""stim_listA/meet8.gif""</stim_listA>",are meeting each other,
null,"<div style=""font-size:60px;"">+</div>",,html-keyboard-response,302,1520645,0.0-17.0-0.19,33436,List1A,black,man,,,,null,,,,
null,"<img src=""stim_listA/kiss7.gif""</stim_listA>",,html-keyboard-response,303,1522647,0.0-17.0-1.19,33436,List1A,black,man,,,,null,,,,
null,is kissing,,html-keyboard-response,304,1524648,0.0-17.0-2.19,33436,List1A,black,man,,,,null,,,,
9949,,,survey-text,305,1534598,0.0-17.0-3.19,33436,List1A,black,man,,,,,"{""Q0"":""ruth is kissing beth""}","<img src=""stim_listA/kiss7.gif""</stim_listA>",is kissing,
3689,"<img src='img/portrait_matrix_list1.JPG' style='width:900px;height:500px;''></img><p>If you have memorised all the portraits and names and are ready to start, press Continue.</p><p><strong>Please note: Your memory of these faces will be tested 4 times during this experiment.</strong></p>",0,html-button-response,306,1538288,0.0-18.0-0.0,33436,List1A,black,man,,,,,,,,
2451,"<img src=""portrait/BM2.jpg""style=""width:400px;height:400px;""></img>",5,html-button-response,307,1541743,0.0-18.0-1.0,33436,List1A,black,man,,TRUE,5,,,,,
null,CORRECT,,html-keyboard-response,308,1543245,0.0-18.0-2.0-0.0,33436,List1A,black,man,,,,null,,,,
2053,"<img src=""portrait/BW1.jpg""style=""width:400px;height:400px;""></img>",0,html-button-response,309,1545301,0.0-18.0-4.0,33436,List1A,black,man,,TRUE,0,,,,,
null,CORRECT,,html-keyboard-response,310,1546803,0.0-18.0-5.0-0.0,33436,List1A,black,man,,,,null,,,,
1713,"<img src=""portrait/BM1.jpg""style=""width:400px;height:400px;""></img>",4,html-button-response,311,1548519,0.0-18.0-7.0,33436,List1A,black,man,,TRUE,4,,,,,
null,CORRECT,,html-keyboard-response,312,1550021,0.0-18.0-8.0-0.0,33436,List1A,black,man,,,,null,,,,
1434,"<img src=""portrait/WW2.jpg""style=""width:400px;height:400px;""></img>",3,html-button-response,313,1551457,0.0-18.0-10.0,33436,List1A,black,man,,TRUE,3,,,,,
null,CORRECT,,html-keyboard-response,314,1552960,0.0-18.0-11.0-0.0,33436,List1A,black,man,,,,null,,,,
1988,"<img src=""portrait/WW1.jpg""style=""width:400px;height:400px;""></img>",1,html-button-response,315,1554951,0.0-18.0-13.0,33436,List1A,black,man,,TRUE,1,,,,,
null,CORRECT,,html-keyboard-response,316,1556453,0.0-18.0-14.0-0.0,33436,List1A,black,man,,,,null,,,,
2044,"<img src=""portrait/WM2.jpg""style=""width:400px;height:400px;""></img>",7,html-button-response,317,1558499,0.0-18.0-16.0,33436,List1A,black,man,,TRUE,7,,,,,
null,CORRECT,,html-keyboard-response,318,1560002,0.0-18.0-17.0-0.0,33436,List1A,black,man,,,,null,,,,
2166,"<img src=""portrait/WM1.jpg""style=""width:400px;height:400px;""></img>",6,html-button-response,319,1562171,0.0-18.0-19.0,33436,List1A,black,man,,TRUE,6,,,,,
null,CORRECT,,html-keyboard-response,320,1563673,0.0-18.0-20.0-0.0,33436,List1A,black,man,,,,null,,,,
2138,"<img src=""portrait/BW2.jpg""style=""width:400px;height:400px;""></img>",2,html-button-response,321,1565813,0.0-18.0-22.0,33436,List1A,black,man,,TRUE,2,,,,,
null,CORRECT,,html-keyboard-response,322,1567317,0.0-18.0-23.0-0.0,33436,List1A,black,man,,,,null,,,,
2748,<p>You got 8 out of 8 right first time. Press Continue.</p>,0,html-button-response,323,1570067,0.0-18.0-25.0,33436,List1A,black,man,,,,,,,,
null,"<div style=""font-size:60px;"">+</div>",,html-keyboard-response,324,1571570,0.0-19.0-0.0,33436,List1A,black,man,,,,null,,,,
null,"<img src=""stim_listA/touch8.gif""</stim_listA>",,html-keyboard-response,325,1573572,0.0-19.0-1.0,33436,List1A,black,man,,,,null,,,,
null,are touching each other,,html-keyboard-response,326,1575575,0.0-19.0-2.0,33436,List1A,black,man,,,,null,,,,
15406,,,survey-text,327,1590983,0.0-19.0-3.0,33436,List1A,black,man,,,,,"{""Q0"":""ruth and beth  are touching each other""}","<img src=""stim_listA/touch8.gif""</stim_listA>",are touching each other,
null,"<div style=""font-size:60px;"">+</div>",,html-keyboard-response,328,1591484,0.0-19.0-0.1,33436,List1A,black,man,,,,null,,,,
null,"<img src=""stim_listA/fight4.gif""</stim_listA>",,html-keyboard-response,329,1593487,0.0-19.0-1.1,33436,List1A,black,man,,,,null,,,,
null,are fighting each other,,html-keyboard-response,330,1595488,0.0-19.0-2.1,33436,List1A,black,man,,,,null,,,,
17567,,,survey-text,331,1613057,0.0-19.0-3.1,33436,List1A,black,man,,,,,"{""Q0"":""ruth and luke are fighting each other""}","<img src=""stim_listA/fight4.gif""</stim_listA>",are fighting each other,
null,"<div style=""font-size:60px;"">+</div>",,html-keyboard-response,332,1613560,0.0-19.0-0.2,33436,List1A,black,man,,,,null,,,,
null,"<img src=""stim_listA/marry2.gif""</stim_listA>",,html-keyboard-response,333,1615562,0.0-19.0-1.2,33436,List1A,black,man,,,,null,,,,
null,are marrying each other,,html-keyboard-response,334,1617563,0.0-19.0-2.2,33436,List1A,black,man,,,,null,,,,
12904,,,survey-text,335,1630469,0.0-19.0-3.2,33436,List1A,black,man,,,,,"{""Q0"":""fred and kate are marrying each other""}","<img src=""stim_listA/marry2.gif""</stim_listA>",are marrying each other,
null,"<div style=""font-size:60px;"">+</div>",,html-keyboard-response,336,1630970,0.0-19.0-0.3,33436,List1A,black,man,,,,null,,,,
null,"<img src=""stim_listA/hug5.gif""</stim_listA>",,html-keyboard-response,337,1632973,0.0-19.0-1.3,33436,List1A,black,man,,,,null,,,,
null,is hugging,,html-keyboard-response,338,1634974,0.0-19.0-2.3,33436,List1A,black,man,,,,null,,,,
11741,,,survey-text,339,1646717,0.0-19.0-3.3,33436,List1A,black,man,,,,,"{""Q0"":""fred is hugging luke""}","<img src=""stim_listA/hug5.gif""</stim_listA>",is hugging,
null,"<div style=""font-size:60px;"">+</div>",,html-keyboard-response,340,1647218,0.0-19.0-0.4,33436,List1A,black,man,,,,null,,,,
null,"<img src=""stim_listA/touch3.gif""</stim_listA>",,html-keyboard-response,341,1649222,0.0-19.0-1.4,33436,List1A,black,man,,,,null,,,,
null,is touching,,html-keyboard-response,342,1651223,0.0-19.0-2.4,33436,List1A,black,man,,,,null,,,,
9327,,,survey-text,343,1660551,0.0-19.0-3.4,33436,List1A,black,man,,,,,"{""Q0"":""dave is touching jane""}","<img src=""stim_listA/touch3.gif""</stim_listA>",is touching,
null,"<div style=""font-size:60px;"">+</div>",,html-keyboard-response,344,1661053,0.0-19.0-0.5,33436,List1A,black,man,,,,null,,,,
null,"<img src=""stim_listA/touch5.gif""</stim_listA>",,html-keyboard-response,345,1663056,0.0-19.0-1.5,33436,List1A,black,man,,,,null,,,,
null,is touching,,html-keyboard-response,346,1665058,0.0-19.0-2.5,33436,List1A,black,man,,,,null,,,,
20301,,,survey-text,347,1685361,0.0-19.0-3.5,33436,List1A,black,man,,,,,"{""Q0"":""mike is touching dave ""}","<img src=""stim_listA/touch5.gif""</stim_listA>",is touching,
null,"<div style=""font-size:60px;"">+</div>",,html-keyboard-response,348,1685863,0.0-19.0-0.6,33436,List1A,black,man,,,,null,,,,
null,"<img src=""stim_listA/argue8.gif""</stim_listA>",,html-keyboard-response,349,1687866,0.0-19.0-1.6,33436,List1A,black,man,,,,null,,,,
null,are arguing with each other,,html-keyboard-response,350,1689868,0.0-19.0-2.6,33436,List1A,black,man,,,,null,,,,
16200,,,survey-text,351,1706069,0.0-19.0-3.6,33436,List1A,black,man,,,,,"{""Q0"":""jane and beth are arguing with each other""}","<img src=""stim_listA/argue8.gif""</stim_listA>",are arguing with each other,
null,"<div style=""font-size:60px;"">+</div>",,html-keyboard-response,352,1706570,0.0-19.0-0.7,33436,List1A,black,man,,,,null,,,,
null,"<img src=""stim_listA/shout4.gif""</stim_listA>",,html-keyboard-response,353,1708573,0.0-19.0-1.7,33436,List1A,black,man,,,,null,,,,
null,are shouting at each other,,html-keyboard-response,354,1710575,0.0-19.0-2.7,33436,List1A,black,man,,,,null,,,,
11805,,,survey-text,355,1722381,0.0-19.0-3.7,33436,List1A,black,man,,,,,"{""Q0"":""jane and dave are shouting at each other""}","<img src=""stim_listA/shout4.gif""</stim_listA>",are shouting at each other,
null,"<div style=""font-size:60px;"">+</div>",,html-keyboard-response,356,1722884,0.0-19.0-0.8,33436,List1A,black,man,,,,null,,,,
null,"<img src=""stim_listA/touch1.gif""</stim_listA>",,html-keyboard-response,357,1724887,0.0-19.0-1.8,33436,List1A,black,man,,,,null,,,,
null,is touching,,html-keyboard-response,358,1726889,0.0-19.0-2.8,33436,List1A,black,man,,,,null,,,,
12253,,,survey-text,359,1739143,0.0-19.0-3.8,33436,List1A,black,man,,,,,"{""Q0"":""kate is touching mike""}","<img src=""stim_listA/touch1.gif""</stim_listA>",is touching,
null,"<div style=""font-size:60px;"">+</div>",,html-keyboard-response,360,1739646,0.0-19.0-0.9,33436,List1A,black,man,,,,null,,,,
null,"<img src=""stim_listA/touch2.gif""</stim_listA>",,html-keyboard-response,361,1741648,0.0-19.0-1.9,33436,List1A,black,man,,,,null,,,,
null,are touching each other,,html-keyboard-response,362,1743653,0.0-19.0-2.9,33436,List1A,black,man,,,,null,,,,
15738,,,survey-text,363,1759391,0.0-19.0-3.9,33436,List1A,black,man,,,,,"{""Q0"":""fred and beth are touching each other""}","<img src=""stim_listA/touch2.gif""</stim_listA>",are touching each other,
null,"<div style=""font-size:60px;"">+</div>",,html-keyboard-response,364,1759893,0.0-19.0-0.10,33436,List1A,black,man,,,,null,,,,
null,"<img src=""stim_listA/touch7.gif""</stim_listA>",,html-keyboard-response,365,1761897,0.0-19.0-1.10,33436,List1A,black,man,,,,null,,,,
null,is touching,,html-keyboard-response,366,1763900,0.0-19.0-2.10,33436,List1A,black,man,,,,null,,,,
12686,,,survey-text,367,1776587,0.0-19.0-3.10,33436,List1A,black,man,,,,,"{""Q0"":""kate is touching jane""}","<img src=""stim_listA/touch7.gif""</stim_listA>",is touching,
null,"<div style=""font-size:60px;"">+</div>",,html-keyboard-response,368,1777090,0.0-19.0-0.11,33436,List1A,black,man,,,,null,,,,
null,"<img src=""stim_listA/dance6.gif""</stim_listA>",,html-keyboard-response,369,1779092,0.0-19.0-1.11,33436,List1A,black,man,,,,null,,,,
null,are dancing with each other,,html-keyboard-response,370,1781094,0.0-19.0-2.11,33436,List1A,black,man,,,,null,,,,
12963,,,survey-text,371,1794057,0.0-19.0-3.11,33436,List1A,black,man,,,,,"{""Q0"":""luke and mike are dancing with each other""}","<img src=""stim_listA/dance6.gif""</stim_listA>",are dancing with each other,
null,"<div style=""font-size:60px;"">+</div>",,html-keyboard-response,372,1794559,0.0-19.0-0.12,33436,List1A,black,man,,,,null,,,,
null,"<img src=""stim_listA/kiss4.gif""</stim_listA>",,html-keyboard-response,373,1796561,0.0-19.0-1.12,33436,List1A,black,man,,,,null,,,,
null,are kissing each other,,html-keyboard-response,374,1798563,0.0-19.0-2.12,33436,List1A,black,man,,,,null,,,,
13449,,,survey-text,375,1812014,0.0-19.0-3.12,33436,List1A,black,man,,,,,"{""Q0"":""dave and jane are kissing each other""}","<img src=""stim_listA/kiss4.gif""</stim_listA>",are kissing each other,
null,"<div style=""font-size:60px;"">+</div>",,html-keyboard-response,376,1812515,0.0-19.0-0.13,33436,List1A,black,man,,,,null,,,,
null,"<img src=""stim_listA/argue2.gif""</stim_listA>",,html-keyboard-response,377,1814517,0.0-19.0-1.13,33436,List1A,black,man,,,,null,,,,
null,are arguing with each other,,html-keyboard-response,378,1816518,0.0-19.0-2.13,33436,List1A,black,man,,,,null,,,,
12180,,,survey-text,379,1828699,0.0-19.0-3.13,33436,List1A,black,man,,,,,"{""Q0"":""fred and kate are arguing with each other""}","<img src=""stim_listA/argue2.gif""</stim_listA>",are arguing with each other,
null,"<div style=""font-size:60px;"">+</div>",,html-keyboard-response,380,1829200,0.0-19.0-0.14,33436,List1A,black,man,,,,null,,,,
null,"<img src=""stim_listA/shout3.gif""</stim_listA>",,html-keyboard-response,381,1831203,0.0-19.0-1.14,33436,List1A,black,man,,,,null,,,,
null,is shouting at,,html-keyboard-response,382,1833204,0.0-19.0-2.14,33436,List1A,black,man,,,,null,,,,
10474,,,survey-text,383,1843679,0.0-19.0-3.14,33436,List1A,black,man,,,,,"{""Q0"":""ruth is shouting at luke""}","<img src=""stim_listA/shout3.gif""</stim_listA>",is shouting at,
null,"<div style=""font-size:60px;"">+</div>",,html-keyboard-response,384,1844181,0.0-19.0-0.15,33436,List1A,black,man,,,,null,,,,
null,"<img src=""stim_listA/talk4.gif""</stim_listA>",,html-keyboard-response,385,1846187,0.0-19.0-1.15,33436,List1A,black,man,,,,null,,,,
null,are talking to each other,,html-keyboard-response,386,1848189,0.0-19.0-2.15,33436,List1A,black,man,,,,null,,,,
13369,,,survey-text,387,1861559,0.0-19.0-3.15,33436,List1A,black,man,,,,,"{""Q0"":""ruth and dave are talking to each other""}","<img src=""stim_listA/talk4.gif""</stim_listA>",are talking to each other,
null,"<div style=""font-size:60px;"">+</div>",,html-keyboard-response,388,1862061,0.0-19.0-0.16,33436,List1A,black,man,,,,null,,,,
null,"<img src=""stim_listA/kiss8.gif""</stim_listA>",,html-keyboard-response,389,1864064,0.0-19.0-1.16,33436,List1A,black,man,,,,null,,,,
null,are kissing each other,,html-keyboard-response,390,1866065,0.0-19.0-2.16,33436,List1A,black,man,,,,null,,,,
11889,,,survey-text,391,1877955,0.0-19.0-3.16,33436,List1A,black,man,,,,,"{""Q0"":""jane and kate are kissing each other""}","<img src=""stim_listA/kiss8.gif""</stim_listA>",are kissing each other,
null,"<div style=""font-size:60px;"">+</div>",,html-keyboard-response,392,1878457,0.0-19.0-0.17,33436,List1A,black,man,,,,null,,,,
null,"<img src=""stim_listA/meet6.gif""</stim_listA>",,html-keyboard-response,393,1880460,0.0-19.0-1.17,33436,List1A,black,man,,,,null,,,,
null,are meeting each other,,html-keyboard-response,394,1882462,0.0-19.0-2.17,33436,List1A,black,man,,,,null,,,,
13474,,,survey-text,395,1895937,0.0-19.0-3.17,33436,List1A,black,man,,,,,"{""Q0"":""luke and fred are meeting each other""}","<img src=""stim_listA/meet6.gif""</stim_listA>",are meeting each other,
null,"<div style=""font-size:60px;"">+</div>",,html-keyboard-response,396,1896439,0.0-19.0-0.18,33436,List1A,black,man,,,,null,,,,
null,"<img src=""stim_listA/shout5.gif""</stim_listA>",,html-keyboard-response,397,1898442,0.0-19.0-1.18,33436,List1A,black,man,,,,null,,,,
null,is shouting at,,html-keyboard-response,398,1900443,0.0-19.0-2.18,33436,List1A,black,man,,,,null,,,,
13523,,,survey-text,399,1913967,0.0-19.0-3.18,33436,List1A,black,man,,,,,"{""Q0"":""luke is shouting at fred""}","<img src=""stim_listA/shout5.gif""</stim_listA>",is shouting at,
null,"<div style=""font-size:60px;"">+</div>",,html-keyboard-response,400,1914469,0.0-19.0-0.19,33436,List1A,black,man,,,,null,,,,
null,"<img src=""stim_listA/hug6.gif""</stim_listA>",,html-keyboard-response,401,1916471,0.0-19.0-1.19,33436,List1A,black,man,,,,null,,,,
null,are hugging each other,,html-keyboard-response,402,1918472,0.0-19.0-2.19,33436,List1A,black,man,,,,null,,,,
16812,,,survey-text,403,1935285,0.0-19.0-3.19,33436,List1A,black,man,,,,,"{""Q0"":""dave and mike are hugging each other""}","<img src=""stim_listA/hug6.gif""</stim_listA>",are hugging each other,
6712,<p>Thank you for completing that task.</p><p>The final part of this session is a short questionnaire.</p><p>Press Continue.</p>,0,html-button-response,404,1941999,0.0-20.0,33436,List1A,black,man,,,,,,,,
29912,,,survey-text,405,1972915,0.0-21.0,33436,List1A,black,man,,,,,"{""Q0"":""48"",""Q1"":""English"",""Q2"":""English"",""Q3"":""United States "",""Q4"":""African American"",""Q5"":""male""}",,,demographics
75633,,,survey-likert,406,2048556,0.0-22.0,33436,List1A,black,man,,,,,"{""Q0"":5,""Q1"":5,""Q2"":5,""Q3"":5,""Q4"":5,""Q5"":4,""Q6"":5,""Q7"":4,""Q8"":4,""Q9"":5,""Q10"":4,""Q11"":5,""Q12"":4,""Q13"":4}",,,likert_race
54921,,,survey-likert,407,2103499,0.0-23.0,33436,List1A,black,man,,,,,"{""Q0"":6,""Q1"":5,""Q2"":6,""Q3"":6,""Q4"":6,""Q5"":5,""Q6"":5,""Q7"":5,""Q8"":6,""Q9"":6,""Q10"":5,""Q11"":5,""Q12"":5,""Q13"":4}",,,likert_gender
12221,,,survey-text,408,2115739,0.0-24.0,33436,List1A,black,man,,,,,"{""Q0"":""ccc""}",,,worker_id
29758,,,external-html,409,2145771,0.0-25.0,33436,List1A,black,man,debrief.html,,,,,,,
