rt,stimulus,button_pressed,trial_type,trial_index,time_elapsed,internal_node_id,subject,list,ppt_race,ppt_gender,url,first_guess,correct,key_press,responses,image_type,phrase_type,test_part
1915,Welcome to the experiment. Press Continue to begin.,0,html-button-response,0,1917,0.0-0.0,3639,List2B,white,woman,,,,,,,,
16401,,,external-html,1,19487,0.0-1.0,3639,List2B,white,woman,consent.html,,,,,,,
6259,"<p>On the next page, you will see portraits of 8 people and their names.</p><p>Your first task is to take a few minutes to memorise the names of these people.</p><p>You will have to recall their names during the rest of the experiment, so it is</p><p>essential that you try to memorise these people and their names as best as you can.</p><br><p><strong>You will then be tested on your memory of these names and portraits.</strong></p><br><p>The experiment will start after you have completed this memory test.</p><br><p>Ready?</p>",0,html-button-response,2,25746,0.0-2.0,3639,List2B,white,woman,,,,,,,,
20691,"<img src='img/portrait_matrix_list2.JPG' style='width:900px;height:500px;''></img><p>If you have memorised all the portraits and names and are ready to start, press Continue.</p><p><strong>Please note: Your memory of these faces will be tested 4 times during this experiment.</strong></p>",0,html-button-response,3,47439,0.0-3.0-0.0,3639,List2B,white,woman,,,,,,,,
4387,"<img src=""portrait/WW2.jpg""style=""width:400px;height:400px;""></img>",3,html-button-response,4,52829,0.0-3.0-1.0,3639,List2B,white,woman,,TRUE,3,,,,,
null,CORRECT,,html-keyboard-response,5,54339,0.0-3.0-2.0-0.0,3639,List2B,white,woman,,,,null,,,,
9081,"<img src=""portrait/WW1.jpg""style=""width:400px;height:400px;""></img>",1,html-button-response,6,63422,0.0-3.0-4.0,3639,List2B,white,woman,,TRUE,1,,,,,
null,CORRECT,,html-keyboard-response,7,64925,0.0-3.0-5.0-0.0,3639,List2B,white,woman,,,,null,,,,
3750,"<img src=""portrait/BM1.jpg""style=""width:400px;height:400px;""></img>",4,html-button-response,8,68676,0.0-3.0-7.0,3639,List2B,white,woman,,TRUE,4,,,,,
null,CORRECT,,html-keyboard-response,9,70178,0.0-3.0-8.0-0.0,3639,List2B,white,woman,,,,null,,,,
2208,"<img src=""portrait/WM1.jpg""style=""width:400px;height:400px;""></img>",5,html-button-response,10,72389,0.0-3.0-10.0,3639,List2B,white,woman,,TRUE,6,,,,,
3691,"<img src=""portrait/WM1.jpg""style=""width:400px;height:400px;""></img>",6,html-button-response,11,77084,0.0-3.0-12.0-0.0,3639,List2B,white,woman,,FALSE,6,,,,,
null,CORRECT,,html-keyboard-response,12,78587,0.0-3.0-12.0-1.0-0.0,3639,List2B,white,woman,,,,null,,,,
4546,"<img src=""portrait/BM2.jpg""style=""width:400px;height:400px;""></img>",5,html-button-response,13,83134,0.0-3.0-13.0,3639,List2B,white,woman,,TRUE,5,,,,,
null,CORRECT,,html-keyboard-response,14,84638,0.0-3.0-14.0-0.0,3639,List2B,white,woman,,,,null,,,,
8942,"<img src=""portrait/BW1.jpg""style=""width:400px;height:400px;""></img>",0,html-button-response,15,93582,0.0-3.0-16.0,3639,List2B,white,woman,,TRUE,0,,,,,
null,CORRECT,,html-keyboard-response,16,95084,0.0-3.0-17.0-0.0,3639,List2B,white,woman,,,,null,,,,
1730,"<img src=""portrait/BW2.jpg""style=""width:400px;height:400px;""></img>",2,html-button-response,17,96816,0.0-3.0-19.0,3639,List2B,white,woman,,TRUE,2,,,,,
null,CORRECT,,html-keyboard-response,18,98318,0.0-3.0-20.0-0.0,3639,List2B,white,woman,,,,null,,,,
2236,"<img src=""portrait/WM2.jpg""style=""width:400px;height:400px;""></img>",7,html-button-response,19,100556,0.0-3.0-22.0,3639,List2B,white,woman,,TRUE,7,,,,,
null,CORRECT,,html-keyboard-response,20,102058,0.0-3.0-23.0-0.0,3639,List2B,white,woman,,,,null,,,,
914,<p>You got 7 out of 8 right first time. Press Continue.</p>,0,html-button-response,21,102976,0.0-3.0-25.0,3639,List2B,white,woman,,,,,,,,
5175,"As you did not score 100%, the memory game will repeat. Press Continue.",0,html-button-response,22,109154,0.0-3.0-26.0-0.0,3639,List2B,white,woman,,,,,,,,
6642,"<img src='img/portrait_matrix_list2.JPG' style='width:900px;height:500px;''></img><p>If you have memorised all the portraits and names and are ready to start, press Continue.</p><p><strong>Please note: Your memory of these faces will be tested 4 times during this experiment.</strong></p>",0,html-button-response,23,116802,0.0-3.1-0.1,3639,List2B,white,woman,,,,,,,,
4631,"<img src=""portrait/WW2.jpg""style=""width:400px;height:400px;""></img>",3,html-button-response,24,122436,0.0-3.1-1.1,3639,List2B,white,woman,,TRUE,3,,,,,
null,CORRECT,,html-keyboard-response,25,123939,0.0-3.1-2.1-0.1,3639,List2B,white,woman,,,,null,,,,
2323,"<img src=""portrait/WW1.jpg""style=""width:400px;height:400px;""></img>",1,html-button-response,26,126263,0.0-3.1-4.1,3639,List2B,white,woman,,TRUE,1,,,,,
null,CORRECT,,html-keyboard-response,27,127765,0.0-3.1-5.1-0.1,3639,List2B,white,woman,,,,null,,,,
3117,"<img src=""portrait/BM1.jpg""style=""width:400px;height:400px;""></img>",4,html-button-response,28,130884,0.0-3.1-7.1,3639,List2B,white,woman,,TRUE,4,,,,,
null,CORRECT,,html-keyboard-response,29,132388,0.0-3.1-8.1-0.1,3639,List2B,white,woman,,,,null,,,,
2271,"<img src=""portrait/WM1.jpg""style=""width:400px;height:400px;""></img>",6,html-button-response,30,134661,0.0-3.1-10.1,3639,List2B,white,woman,,TRUE,6,,,,,
null,CORRECT,,html-keyboard-response,31,136164,0.0-3.1-11.1-0.1,3639,List2B,white,woman,,,,null,,,,
3158,"<img src=""portrait/BM2.jpg""style=""width:400px;height:400px;""></img>",5,html-button-response,32,139323,0.0-3.1-13.1,3639,List2B,white,woman,,TRUE,5,,,,,
null,CORRECT,,html-keyboard-response,33,140826,0.0-3.1-14.1-0.1,3639,List2B,white,woman,,,,null,,,,
2119,"<img src=""portrait/BW1.jpg""style=""width:400px;height:400px;""></img>",0,html-button-response,34,142947,0.0-3.1-16.1,3639,List2B,white,woman,,TRUE,0,,,,,
null,CORRECT,,html-keyboard-response,35,144449,0.0-3.1-17.1-0.1,3639,List2B,white,woman,,,,null,,,,
3548,"<img src=""portrait/BW2.jpg""style=""width:400px;height:400px;""></img>",2,html-button-response,36,147999,0.0-3.1-19.1,3639,List2B,white,woman,,TRUE,2,,,,,
null,CORRECT,,html-keyboard-response,37,149502,0.0-3.1-20.1-0.1,3639,List2B,white,woman,,,,null,,,,
1228,"<img src=""portrait/WM2.jpg""style=""width:400px;height:400px;""></img>",7,html-button-response,38,150731,0.0-3.1-22.1,3639,List2B,white,woman,,TRUE,7,,,,,
null,CORRECT,,html-keyboard-response,39,152235,0.0-3.1-23.1-0.1,3639,List2B,white,woman,,,,null,,,,
1075,<p>You got 8 out of 8 right first time. Press Continue.</p>,0,html-button-response,40,153311,0.0-3.1-25.1,3639,List2B,white,woman,,,,,,,,
23294,"<p>In this experiment, you will view photographs of the people from the memory game interacting.</p><p>By using the <strong>exact</strong> phrase given <i>after</i> the photograph appears and recalling the correct names of the people in the photographs, form a sentence describing the interaction. You do not need to capitalise names.</p><p>Type your answer in the space provided. Please complete every sentence before moving onto the next trial.</p><p>You will only have a few seconds to memorise each given photograph and phrase before you can respond, so try your best to focus.</p><p>An example is given below. Press 'Continue' when you are ready.</p><img src='img/speaking_example_v2.jpg' style='width:800px;height:460px;''></img>",0,html-button-response,41,177607,0.0-4.0,3639,List2B,white,woman,,,,,,,,
3244,"<p>Before the experiment starts, you will watch two example trials. Press 'Continue'.</p>",0,html-button-response,42,181853,0.0-5.0,3639,List2B,white,woman,,,,,,,,
null,<img src='img/speaking_WW.gif'></img>,,html-keyboard-response,43,184855,0.0-6.0,3639,List2B,white,woman,,,,null,,,,
null,<p>is speaking to</p>,,html-keyboard-response,44,186857,0.0-7.0,3639,List2B,white,woman,,,,null,,,,
1813,<p><b>Answer:</b> jane is speaking to ruth</p>,0,html-button-response,45,188671,0.0-8.0,3639,List2B,white,woman,,,,,,,,
null,<img src='img/pointing_BM.gif'></img>,,html-keyboard-response,46,191674,0.0-9.0,3639,List2B,white,woman,,,,null,,,,
null,<p>are pointing at each other</p>,,html-keyboard-response,47,193676,0.0-10.0,3639,List2B,white,woman,,,,null,,,,
8743,<p><b>Answer:</b> fred and mike are pointing at each other</p>,0,html-button-response,48,202421,0.0-11.0,3639,List2B,white,woman,,,,,,,,
4734,"<p>Ready to start the experiment?</p><br><p><strong>Remember to describe the picture using a full sentence,</strong></p><p><strong>that combines the names of the people with the given phrase.</strong></p><p><strong>If you do not do this correctly you will not be paid.</strong></p><p><strong> You do not need to capitalise names or use punctuation.</strong></p><br><p>Press 'Continue' to begin.</p>",0,html-button-response,49,208158,0.0-12.0,3639,List2B,white,woman,,,,,,,,
null,"<div style=""font-size:60px;"">+</div>",,html-keyboard-response,50,209660,0.0-13.0-0.0,3639,List2B,white,woman,,,,null,,,,
null,"<img src=""stim_listB/fight3.gif""</stim_listB>",,html-keyboard-response,51,211665,0.0-13.0-1.0,3639,List2B,white,woman,,,,null,,,,
null,is fighting,,html-keyboard-response,52,213666,0.0-13.0-2.0,3639,List2B,white,woman,,,,null,,,,
8099,,,survey-text,53,221767,0.0-13.0-3.0,3639,List2B,white,woman,,,,,"{""Q0"":""kate is fighting fred""}","<img src=""stim_listB/fight3.gif""</stim_listB>",is fighting,
null,"<div style=""font-size:60px;"">+</div>",,html-keyboard-response,54,222269,0.0-13.0-0.1,3639,List2B,white,woman,,,,null,,,,
null,"<img src=""stim_listB/fight1.gif""</stim_listB>",,html-keyboard-response,55,224271,0.0-13.0-1.1,3639,List2B,white,woman,,,,null,,,,
null,is fighting,,html-keyboard-response,56,226273,0.0-13.0-2.1,3639,List2B,white,woman,,,,null,,,,
7289,,,survey-text,57,233564,0.0-13.0-3.1,3639,List2B,white,woman,,,,,"{""Q0"":""jane is fighting dave""}","<img src=""stim_listB/fight1.gif""</stim_listB>",is fighting,
null,"<div style=""font-size:60px;"">+</div>",,html-keyboard-response,58,234065,0.0-13.0-0.2,3639,List2B,white,woman,,,,null,,,,
null,"<img src=""stim_listB/marry6.gif""</stim_listB>",,html-keyboard-response,59,236073,0.0-13.0-1.2,3639,List2B,white,woman,,,,null,,,,
null,are marrying each other,,html-keyboard-response,60,238076,0.0-13.0-2.2,3639,List2B,white,woman,,,,null,,,,
8744,,,survey-text,61,246822,0.0-13.0-3.2,3639,List2B,white,woman,,,,,"{""Q0"":""luke is fighting mike""}","<img src=""stim_listB/marry6.gif""</stim_listB>",are marrying each other,
null,"<div style=""font-size:60px;"">+</div>",,html-keyboard-response,62,247324,0.0-13.0-0.3,3639,List2B,white,woman,,,,null,,,,
null,"<img src=""stim_listB/argue4.gif""</stim_listB>",,html-keyboard-response,63,249327,0.0-13.0-1.3,3639,List2B,white,woman,,,,null,,,,
null,are arguing with each other,,html-keyboard-response,64,251328,0.0-13.0-2.3,3639,List2B,white,woman,,,,null,,,,
6214,,,survey-text,65,257543,0.0-13.0-3.3,3639,List2B,white,woman,,,,,"{""Q0"":""""}","<img src=""stim_listB/argue4.gif""</stim_listB>",are arguing with each other,
null,"<div style=""font-size:60px;"">+</div>",,html-keyboard-response,66,258045,0.0-13.0-0.4,3639,List2B,white,woman,,,,null,,,,
null,"<img src=""stim_listB/kiss5.gif""</stim_listB>",,html-keyboard-response,67,260048,0.0-13.0-1.4,3639,List2B,white,woman,,,,null,,,,
null,is kissing,,html-keyboard-response,68,262049,0.0-13.0-2.4,3639,List2B,white,woman,,,,null,,,,
10042,,,survey-text,69,272092,0.0-13.0-3.4,3639,List2B,white,woman,,,,,"{""Q0"":""fred is kissing luke""}","<img src=""stim_listB/kiss5.gif""</stim_listB>",is kissing,
null,"<div style=""font-size:60px;"">+</div>",,html-keyboard-response,70,272593,0.0-13.0-0.5,3639,List2B,white,woman,,,,null,,,,
null,"<img src=""stim_listB/meet2.gif""</stim_listB>",,html-keyboard-response,71,274602,0.0-13.0-1.5,3639,List2B,white,woman,,,,null,,,,
null,are meeting each other,,html-keyboard-response,72,276604,0.0-13.0-2.5,3639,List2B,white,woman,,,,null,,,,
10069,,,survey-text,73,286674,0.0-13.0-3.5,3639,List2B,white,woman,,,,,"{""Q0"":""luke and jane are meeting each other""}","<img src=""stim_listB/meet2.gif""</stim_listB>",are meeting each other,
null,"<div style=""font-size:60px;"">+</div>",,html-keyboard-response,74,287175,0.0-13.0-0.6,3639,List2B,white,woman,,,,null,,,,
null,"<img src=""stim_listB/dance1.gif""</stim_listB>",,html-keyboard-response,75,289178,0.0-13.0-1.6,3639,List2B,white,woman,,,,null,,,,
null,is dancing with,,html-keyboard-response,76,291180,0.0-13.0-2.6,3639,List2B,white,woman,,,,null,,,,
5373,,,survey-text,77,296555,0.0-13.0-3.6,3639,List2B,white,woman,,,,,"{""Q0"":""jane is dancing with luke""}","<img src=""stim_listB/dance1.gif""</stim_listB>",is dancing with,
null,"<div style=""font-size:60px;"">+</div>",,html-keyboard-response,78,297057,0.0-13.0-0.7,3639,List2B,white,woman,,,,null,,,,
null,"<img src=""stim_listB/marry4.gif""</stim_listB>",,html-keyboard-response,79,299060,0.0-13.0-1.7,3639,List2B,white,woman,,,,null,,,,
null,are marrying each other,,html-keyboard-response,80,301062,0.0-13.0-2.7,3639,List2B,white,woman,,,,null,,,,
6655,,,survey-text,81,307719,0.0-13.0-3.7,3639,List2B,white,woman,,,,,"{""Q0"":""kate and fred are marrying each other""}","<img src=""stim_listB/marry4.gif""</stim_listB>",are marrying each other,
null,"<div style=""font-size:60px;"">+</div>",,html-keyboard-response,82,308221,0.0-13.0-0.8,3639,List2B,white,woman,,,,null,,,,
null,"<img src=""stim_listB/hug4.gif""</stim_listB>",,html-keyboard-response,83,310224,0.0-13.0-1.8,3639,List2B,white,woman,,,,null,,,,
null,are hugging each other,,html-keyboard-response,84,312225,0.0-13.0-2.8,3639,List2B,white,woman,,,,null,,,,
8229,,,survey-text,85,320456,0.0-13.0-3.8,3639,List2B,white,woman,,,,,"{""Q0"":""kate and mike are hugging each other""}","<img src=""stim_listB/hug4.gif""</stim_listB>",are hugging each other,
null,"<div style=""font-size:60px;"">+</div>",,html-keyboard-response,86,320958,0.0-13.0-0.9,3639,List2B,white,woman,,,,null,,,,
null,"<img src=""stim_listB/talk7.gif""</stim_listB>",,html-keyboard-response,87,322960,0.0-13.0-1.9,3639,List2B,white,woman,,,,null,,,,
null,is talking to,,html-keyboard-response,88,324962,0.0-13.0-2.9,3639,List2B,white,woman,,,,null,,,,
5911,,,survey-text,89,330875,0.0-13.0-3.9,3639,List2B,white,woman,,,,,"{""Q0"":""kate is talking to jane""}","<img src=""stim_listB/talk7.gif""</stim_listB>",is talking to,
null,"<div style=""font-size:60px;"">+</div>",,html-keyboard-response,90,331376,0.0-13.0-0.10,3639,List2B,white,woman,,,,null,,,,
null,"<img src=""stim_listB/shout4.gif""</stim_listB>",,html-keyboard-response,91,333379,0.0-13.0-1.10,3639,List2B,white,woman,,,,null,,,,
null,are shouting at each other,,html-keyboard-response,92,335381,0.0-13.0-2.10,3639,List2B,white,woman,,,,null,,,,
7274,,,survey-text,93,342656,0.0-13.0-3.10,3639,List2B,white,woman,,,,,"{""Q0"":""kate and mike are shouting at each other""}","<img src=""stim_listB/shout4.gif""</stim_listB>",are shouting at each other,
null,"<div style=""font-size:60px;"">+</div>",,html-keyboard-response,94,343158,0.0-13.0-0.11,3639,List2B,white,woman,,,,null,,,,
null,"<img src=""stim_listB/meet4.gif""</stim_listB>",,html-keyboard-response,95,345163,0.0-13.0-1.11,3639,List2B,white,woman,,,,null,,,,
null,are meeting each other,,html-keyboard-response,96,347165,0.0-13.0-2.11,3639,List2B,white,woman,,,,null,,,,
4711,,,survey-text,97,351877,0.0-13.0-3.11,3639,List2B,white,woman,,,,,"{""Q0"":""fred and beth are meeting each other""}","<img src=""stim_listB/meet4.gif""</stim_listB>",are meeting each other,
null,"<div style=""font-size:60px;"">+</div>",,html-keyboard-response,98,352379,0.0-13.0-0.12,3639,List2B,white,woman,,,,null,,,,
null,"<img src=""stim_listB/hug2.gif""</stim_listB>",,html-keyboard-response,99,354382,0.0-13.0-1.12,3639,List2B,white,woman,,,,null,,,,
null,are hugging each other,,html-keyboard-response,100,356384,0.0-13.0-2.12,3639,List2B,white,woman,,,,null,,,,
6110,,,survey-text,101,362496,0.0-13.0-3.12,3639,List2B,white,woman,,,,,"{""Q0"":""jane and dave are hugging each other""}","<img src=""stim_listB/hug2.gif""</stim_listB>",are hugging each other,
null,"<div style=""font-size:60px;"">+</div>",,html-keyboard-response,102,362997,0.0-13.0-0.13,3639,List2B,white,woman,,,,null,,,,
null,"<img src=""stim_listB/shout2.gif""</stim_listB>",,html-keyboard-response,103,365001,0.0-13.0-1.13,3639,List2B,white,woman,,,,null,,,,
null,are shouting at each other,,html-keyboard-response,104,367003,0.0-13.0-2.13,3639,List2B,white,woman,,,,null,,,,
6872,,,survey-text,105,373876,0.0-13.0-3.13,3639,List2B,white,woman,,,,,"{""Q0"":""jane and dave are shouting at each other""}","<img src=""stim_listB/shout2.gif""</stim_listB>",are shouting at each other,
null,"<div style=""font-size:60px;"">+</div>",,html-keyboard-response,106,374377,0.0-13.0-0.14,3639,List2B,white,woman,,,,null,,,,
null,"<img src=""stim_listB/marry7.gif""</stim_listB>",,html-keyboard-response,107,376380,0.0-13.0-1.14,3639,List2B,white,woman,,,,null,,,,
null,is marrying,,html-keyboard-response,108,378383,0.0-13.0-2.14,3639,List2B,white,woman,,,,null,,,,
4522,,,survey-text,109,382905,0.0-13.0-3.14,3639,List2B,white,woman,,,,,"{""Q0"":""jane is marrying beth""}","<img src=""stim_listB/marry7.gif""</stim_listB>",is marrying,
null,"<div style=""font-size:60px;"">+</div>",,html-keyboard-response,110,383407,0.0-13.0-0.15,3639,List2B,white,woman,,,,null,,,,
null,"<img src=""stim_listB/kiss2.gif""</stim_listB>",,html-keyboard-response,111,385409,0.0-13.0-1.15,3639,List2B,white,woman,,,,null,,,,
null,are kissing each other,,html-keyboard-response,112,387411,0.0-13.0-2.15,3639,List2B,white,woman,,,,null,,,,
6718,,,survey-text,113,394130,0.0-13.0-3.15,3639,List2B,white,woman,,,,,"{""Q0"":""jane and dave are marrying each other""}","<img src=""stim_listB/kiss2.gif""</stim_listB>",are kissing each other,
null,"<div style=""font-size:60px;"">+</div>",,html-keyboard-response,114,394631,0.0-13.0-0.16,3639,List2B,white,woman,,,,null,,,,
null,"<img src=""stim_listB/touch6.gif""</stim_listB>",,html-keyboard-response,115,396634,0.0-13.0-1.16,3639,List2B,white,woman,,,,null,,,,
null,are touching each other,,html-keyboard-response,116,398636,0.0-13.0-2.16,3639,List2B,white,woman,,,,null,,,,
5113,,,survey-text,117,403750,0.0-13.0-3.16,3639,List2B,white,woman,,,,,"{""Q0"":""fred and luke are touching each other""}","<img src=""stim_listB/touch6.gif""</stim_listB>",are touching each other,
null,"<div style=""font-size:60px;"">+</div>",,html-keyboard-response,118,404251,0.0-13.0-0.17,3639,List2B,white,woman,,,,null,,,,
null,"<img src=""stim_listB/meet3.gif""</stim_listB>",,html-keyboard-response,119,406254,0.0-13.0-1.17,3639,List2B,white,woman,,,,null,,,,
null,is meeting,,html-keyboard-response,120,408256,0.0-13.0-2.17,3639,List2B,white,woman,,,,null,,,,
3565,,,survey-text,121,411822,0.0-13.0-3.17,3639,List2B,white,woman,,,,,"{""Q0"":""kate is meeting mike""}","<img src=""stim_listB/meet3.gif""</stim_listB>",is meeting,
null,"<div style=""font-size:60px;"">+</div>",,html-keyboard-response,122,412323,0.0-13.0-0.18,3639,List2B,white,woman,,,,null,,,,
null,"<img src=""stim_listB/dance3.gif""</stim_listB>",,html-keyboard-response,123,414327,0.0-13.0-1.18,3639,List2B,white,woman,,,,null,,,,
null,is dancing with,,html-keyboard-response,124,416329,0.0-13.0-2.18,3639,List2B,white,woman,,,,null,,,,
3604,,,survey-text,125,419934,0.0-13.0-3.18,3639,List2B,white,woman,,,,,"{""Q0"":""beth is dancing with fred""}","<img src=""stim_listB/dance3.gif""</stim_listB>",is dancing with,
null,"<div style=""font-size:60px;"">+</div>",,html-keyboard-response,126,420435,0.0-13.0-0.19,3639,List2B,white,woman,,,,null,,,,
null,"<img src=""stim_listB/argue7.gif""</stim_listB>",,html-keyboard-response,127,422438,0.0-13.0-1.19,3639,List2B,white,woman,,,,null,,,,
null,is arguing with,,html-keyboard-response,128,424440,0.0-13.0-2.19,3639,List2B,white,woman,,,,null,,,,
4921,,,survey-text,129,429363,0.0-13.0-3.19,3639,List2B,white,woman,,,,,"{""Q0"":""beth is arguing with jane""}","<img src=""stim_listB/argue7.gif""</stim_listB>",is arguing with,
4880,"<img src='img/portrait_matrix_list2.JPG' style='width:900px;height:500px;''></img><p>If you have memorised all the portraits and names and are ready to start, press Continue.</p><p><strong>Please note: Your memory of these faces will be tested 4 times during this experiment.</strong></p>",0,html-button-response,130,434244,0.0-14.0-0.0,3639,List2B,white,woman,,,,,,,,
4549,"<img src=""portrait/BW2.jpg""style=""width:400px;height:400px;""></img>",2,html-button-response,131,439796,0.0-14.0-1.0,3639,List2B,white,woman,,TRUE,2,,,,,
null,CORRECT,,html-keyboard-response,132,441298,0.0-14.0-2.0-0.0,3639,List2B,white,woman,,,,null,,,,
7872,"<img src=""portrait/WW1.jpg""style=""width:400px;height:400px;""></img>",1,html-button-response,133,449173,0.0-14.0-4.0,3639,List2B,white,woman,,TRUE,1,,,,,
null,CORRECT,,html-keyboard-response,134,450676,0.0-14.0-5.0-0.0,3639,List2B,white,woman,,,,null,,,,
2107,"<img src=""portrait/BW1.jpg""style=""width:400px;height:400px;""></img>",0,html-button-response,135,452785,0.0-14.0-7.0,3639,List2B,white,woman,,TRUE,0,,,,,
null,CORRECT,,html-keyboard-response,136,454288,0.0-14.0-8.0-0.0,3639,List2B,white,woman,,,,null,,,,
2860,"<img src=""portrait/WM2.jpg""style=""width:400px;height:400px;""></img>",7,html-button-response,137,457150,0.0-14.0-10.0,3639,List2B,white,woman,,TRUE,7,,,,,
null,CORRECT,,html-keyboard-response,138,458653,0.0-14.0-11.0-0.0,3639,List2B,white,woman,,,,null,,,,
3450,"<img src=""portrait/WW2.jpg""style=""width:400px;height:400px;""></img>",3,html-button-response,139,462106,0.0-14.0-13.0,3639,List2B,white,woman,,TRUE,3,,,,,
null,CORRECT,,html-keyboard-response,140,463610,0.0-14.0-14.0-0.0,3639,List2B,white,woman,,,,null,,,,
3790,"<img src=""portrait/BM2.jpg""style=""width:400px;height:400px;""></img>",5,html-button-response,141,467402,0.0-14.0-16.0,3639,List2B,white,woman,,TRUE,5,,,,,
null,CORRECT,,html-keyboard-response,142,468904,0.0-14.0-17.0-0.0,3639,List2B,white,woman,,,,null,,,,
1734,"<img src=""portrait/WM1.jpg""style=""width:400px;height:400px;""></img>",6,html-button-response,143,470647,0.0-14.0-19.0,3639,List2B,white,woman,,TRUE,6,,,,,
null,CORRECT,,html-keyboard-response,144,472149,0.0-14.0-20.0-0.0,3639,List2B,white,woman,,,,null,,,,
2505,"<img src=""portrait/BM1.jpg""style=""width:400px;height:400px;""></img>",4,html-button-response,145,474657,0.0-14.0-22.0,3639,List2B,white,woman,,TRUE,4,,,,,
null,CORRECT,,html-keyboard-response,146,476159,0.0-14.0-23.0-0.0,3639,List2B,white,woman,,,,null,,,,
717,<p>You got 8 out of 8 right first time. Press Continue.</p>,0,html-button-response,147,476877,0.0-14.0-25.0,3639,List2B,white,woman,,,,,,,,
null,"<div style=""font-size:60px;"">+</div>",,html-keyboard-response,148,478380,0.0-15.0-0.0,3639,List2B,white,woman,,,,null,,,,
null,"<img src=""stim_listB/touch4.gif""</stim_listB>",,html-keyboard-response,149,480383,0.0-15.0-1.0,3639,List2B,white,woman,,,,null,,,,
null,are touching each other,,html-keyboard-response,150,482385,0.0-15.0-2.0,3639,List2B,white,woman,,,,null,,,,
6525,,,survey-text,151,488911,0.0-15.0-3.0,3639,List2B,white,woman,,,,,"{""Q0"":""fred and beth are touching each other""}","<img src=""stim_listB/touch4.gif""</stim_listB>",are touching each other,
null,"<div style=""font-size:60px;"">+</div>",,html-keyboard-response,152,489414,0.0-15.0-0.1,3639,List2B,white,woman,,,,null,,,,
null,"<img src=""stim_listB/marry3.gif""</stim_listB>",,html-keyboard-response,153,491417,0.0-15.0-1.1,3639,List2B,white,woman,,,,null,,,,
null,is marrying,,html-keyboard-response,154,493418,0.0-15.0-2.1,3639,List2B,white,woman,,,,null,,,,
6139,,,survey-text,155,499558,0.0-15.0-3.1,3639,List2B,white,woman,,,,,"{""Q0"":""beth is marrying mike""}","<img src=""stim_listB/marry3.gif""</stim_listB>",is marrying,
null,"<div style=""font-size:60px;"">+</div>",,html-keyboard-response,156,500061,0.0-15.0-0.2,3639,List2B,white,woman,,,,null,,,,
null,"<img src=""stim_listB/dance7.gif""</stim_listB>",,html-keyboard-response,157,502064,0.0-15.0-1.2,3639,List2B,white,woman,,,,null,,,,
null,is dancing with,,html-keyboard-response,158,504067,0.0-15.0-2.2,3639,List2B,white,woman,,,,null,,,,
8063,,,survey-text,159,512131,0.0-15.0-3.2,3639,List2B,white,woman,,,,,"{""Q0"":""kate is dancing with ruth""}","<img src=""stim_listB/dance7.gif""</stim_listB>",is dancing with,
null,"<div style=""font-size:60px;"">+</div>",,html-keyboard-response,160,512632,0.0-15.0-0.3,3639,List2B,white,woman,,,,null,,,,
null,"<img src=""stim_listB/meet6.gif""</stim_listB>",,html-keyboard-response,161,514634,0.0-15.0-1.3,3639,List2B,white,woman,,,,null,,,,
null,are meeting each other,,html-keyboard-response,162,516636,0.0-15.0-2.3,3639,List2B,white,woman,,,,null,,,,
5194,,,survey-text,163,521831,0.0-15.0-3.3,3639,List2B,white,woman,,,,,"{""Q0"":""fred and luke are meeting each other""}","<img src=""stim_listB/meet6.gif""</stim_listB>",are meeting each other,
null,"<div style=""font-size:60px;"">+</div>",,html-keyboard-response,164,522333,0.0-15.0-0.4,3639,List2B,white,woman,,,,null,,,,
null,"<img src=""stim_listB/fight6.gif""</stim_listB>",,html-keyboard-response,165,524336,0.0-15.0-1.4,3639,List2B,white,woman,,,,null,,,,
null,are fighting each other,,html-keyboard-response,166,526338,0.0-15.0-2.4,3639,List2B,white,woman,,,,null,,,,
5211,,,survey-text,167,531550,0.0-15.0-3.4,3639,List2B,white,woman,,,,,"{""Q0"":""fred and luke are fighting each other""}","<img src=""stim_listB/fight6.gif""</stim_listB>",are fighting each other,
null,"<div style=""font-size:60px;"">+</div>",,html-keyboard-response,168,532052,0.0-15.0-0.5,3639,List2B,white,woman,,,,null,,,,
null,"<img src=""stim_listB/hug6.gif""</stim_listB>",,html-keyboard-response,169,534055,0.0-15.0-1.5,3639,List2B,white,woman,,,,null,,,,
null,are hugging each other,,html-keyboard-response,170,536058,0.0-15.0-2.5,3639,List2B,white,woman,,,,null,,,,
5445,,,survey-text,171,541504,0.0-15.0-3.5,3639,List2B,white,woman,,,,,"{""Q0"":""dave and mike are hugging each other""}","<img src=""stim_listB/hug6.gif""</stim_listB>",are hugging each other,
null,"<div style=""font-size:60px;"">+</div>",,html-keyboard-response,172,542007,0.0-15.0-0.6,3639,List2B,white,woman,,,,null,,,,
null,"<img src=""stim_listB/talk4.gif""</stim_listB>",,html-keyboard-response,173,544012,0.0-15.0-1.6,3639,List2B,white,woman,,,,null,,,,
null,are talking to each other,,html-keyboard-response,174,546013,0.0-15.0-2.6,3639,List2B,white,woman,,,,null,,,,
10004,,,survey-text,175,556019,0.0-15.0-3.6,3639,List2B,white,woman,,,,,"{""Q0"":""beth and mike are meeting each other""}","<img src=""stim_listB/talk4.gif""</stim_listB>",are talking to each other,
null,"<div style=""font-size:60px;"">+</div>",,html-keyboard-response,176,556521,0.0-15.0-0.7,3639,List2B,white,woman,,,,null,,,,
null,"<img src=""stim_listB/argue2.gif""</stim_listB>",,html-keyboard-response,177,558523,0.0-15.0-1.7,3639,List2B,white,woman,,,,null,,,,
null,are arguing with each other,,html-keyboard-response,178,560525,0.0-15.0-2.7,3639,List2B,white,woman,,,,null,,,,
5875,,,survey-text,179,566402,0.0-15.0-3.7,3639,List2B,white,woman,,,,,"{""Q0"":""jane and luke are arguing with each other""}","<img src=""stim_listB/argue2.gif""</stim_listB>",are arguing with each other,
null,"<div style=""font-size:60px;"">+</div>",,html-keyboard-response,180,566903,0.0-15.0-0.8,3639,List2B,white,woman,,,,null,,,,
null,"<img src=""stim_listB/dance8.gif""</stim_listB>",,html-keyboard-response,181,568906,0.0-15.0-1.8,3639,List2B,white,woman,,,,null,,,,
null,are dancing with each other,,html-keyboard-response,182,570908,0.0-15.0-2.8,3639,List2B,white,woman,,,,null,,,,
6764,,,survey-text,183,577674,0.0-15.0-3.8,3639,List2B,white,woman,,,,,"{""Q0"":""jane and beth are dancing with each other""}","<img src=""stim_listB/dance8.gif""</stim_listB>",are dancing with each other,
null,"<div style=""font-size:60px;"">+</div>",,html-keyboard-response,184,578176,0.0-15.0-0.9,3639,List2B,white,woman,,,,null,,,,
null,"<img src=""stim_listB/shout5.gif""</stim_listB>",,html-keyboard-response,185,580179,0.0-15.0-1.9,3639,List2B,white,woman,,,,null,,,,
null,is shouting at,,html-keyboard-response,186,582182,0.0-15.0-2.9,3639,List2B,white,woman,,,,null,,,,
5237,,,survey-text,187,587420,0.0-15.0-3.9,3639,List2B,white,woman,,,,,"{""Q0"":""fred is shouting at luke""}","<img src=""stim_listB/shout5.gif""</stim_listB>",is shouting at,
null,"<div style=""font-size:60px;"">+</div>",,html-keyboard-response,188,587922,0.0-15.0-0.10,3639,List2B,white,woman,,,,null,,,,
null,"<img src=""stim_listB/kiss3.gif""</stim_listB>",,html-keyboard-response,189,589926,0.0-15.0-1.10,3639,List2B,white,woman,,,,null,,,,
null,is kissing,,html-keyboard-response,190,591928,0.0-15.0-2.10,3639,List2B,white,woman,,,,null,,,,
4052,,,survey-text,191,595981,0.0-15.0-3.10,3639,List2B,white,woman,,,,,"{""Q0"":""beth is kissing fred""}","<img src=""stim_listB/kiss3.gif""</stim_listB>",is kissing,
null,"<div style=""font-size:60px;"">+</div>",,html-keyboard-response,192,596483,0.0-15.0-0.11,3639,List2B,white,woman,,,,null,,,,
null,"<img src=""stim_listB/shout6.gif""</stim_listB>",,html-keyboard-response,193,598487,0.0-15.0-1.11,3639,List2B,white,woman,,,,null,,,,
null,are shouting at each other,,html-keyboard-response,194,600489,0.0-15.0-2.11,3639,List2B,white,woman,,,,null,,,,
6361,,,survey-text,195,606852,0.0-15.0-3.11,3639,List2B,white,woman,,,,,"{""Q0"":""dave and mike are shouting at each other""}","<img src=""stim_listB/shout6.gif""</stim_listB>",are shouting at each other,
null,"<div style=""font-size:60px;"">+</div>",,html-keyboard-response,196,607353,0.0-15.0-0.12,3639,List2B,white,woman,,,,null,,,,
null,"<img src=""stim_listB/meet7.gif""</stim_listB>",,html-keyboard-response,197,609359,0.0-15.0-1.12,3639,List2B,white,woman,,,,null,,,,
null,is meeting,,html-keyboard-response,198,611360,0.0-15.0-2.12,3639,List2B,white,woman,,,,null,,,,
5955,,,survey-text,199,617316,0.0-15.0-3.12,3639,List2B,white,woman,,,,,"{""Q0"":""jane is meeting kate""}","<img src=""stim_listB/meet7.gif""</stim_listB>",is meeting,
null,"<div style=""font-size:60px;"">+</div>",,html-keyboard-response,200,617817,0.0-15.0-0.13,3639,List2B,white,woman,,,,null,,,,
null,"<img src=""stim_listB/meet8.gif""</stim_listB>",,html-keyboard-response,201,619820,0.0-15.0-1.13,3639,List2B,white,woman,,,,null,,,,
null,are meeting each other,,html-keyboard-response,202,621822,0.0-15.0-2.13,3639,List2B,white,woman,,,,null,,,,
5011,,,survey-text,203,626834,0.0-15.0-3.13,3639,List2B,white,woman,,,,,"{""Q0"":""ruth and beth are meeting each other""}","<img src=""stim_listB/meet8.gif""</stim_listB>",are meeting each other,
null,"<div style=""font-size:60px;"">+</div>",,html-keyboard-response,204,627336,0.0-15.0-0.14,3639,List2B,white,woman,,,,null,,,,
null,"<img src=""stim_listB/fight4.gif""</stim_listB>",,html-keyboard-response,205,629339,0.0-15.0-1.14,3639,List2B,white,woman,,,,null,,,,
null,are fighting each other,,html-keyboard-response,206,631341,0.0-15.0-2.14,3639,List2B,white,woman,,,,null,,,,
5624,,,survey-text,207,636965,0.0-15.0-3.14,3639,List2B,white,woman,,,,,"{""Q0"":""beth and fred are fighting each other""}","<img src=""stim_listB/fight4.gif""</stim_listB>",are fighting each other,
null,"<div style=""font-size:60px;"">+</div>",,html-keyboard-response,208,637467,0.0-15.0-0.15,3639,List2B,white,woman,,,,null,,,,
null,"<img src=""stim_listB/shout8.gif""</stim_listB>",,html-keyboard-response,209,639470,0.0-15.0-1.15,3639,List2B,white,woman,,,,null,,,,
null,are shouting at each other,,html-keyboard-response,210,641472,0.0-15.0-2.15,3639,List2B,white,woman,,,,null,,,,
11160,,,survey-text,211,652633,0.0-15.0-3.15,3639,List2B,white,woman,,,,,"{""Q0"":""jane and kate are shouting at each other""}","<img src=""stim_listB/shout8.gif""</stim_listB>",are shouting at each other,
null,"<div style=""font-size:60px;"">+</div>",,html-keyboard-response,212,653135,0.0-15.0-0.16,3639,List2B,white,woman,,,,null,,,,
null,"<img src=""stim_listB/shout3.gif""</stim_listB>",,html-keyboard-response,213,655139,0.0-15.0-1.16,3639,List2B,white,woman,,,,null,,,,
null,is shouting at,,html-keyboard-response,214,657141,0.0-15.0-2.16,3639,List2B,white,woman,,,,null,,,,
6374,,,survey-text,215,663516,0.0-15.0-3.16,3639,List2B,white,woman,,,,,"{""Q0"":""beth is shouting at fred""}","<img src=""stim_listB/shout3.gif""</stim_listB>",is shouting at,
null,"<div style=""font-size:60px;"">+</div>",,html-keyboard-response,216,664017,0.0-15.0-0.17,3639,List2B,white,woman,,,,null,,,,
null,"<img src=""stim_listB/hug3.gif""</stim_listB>",,html-keyboard-response,217,666020,0.0-15.0-1.17,3639,List2B,white,woman,,,,null,,,,
null,is hugging,,html-keyboard-response,218,668022,0.0-15.0-2.17,3639,List2B,white,woman,,,,null,,,,
4097,,,survey-text,219,672121,0.0-15.0-3.17,3639,List2B,white,woman,,,,,"{""Q0"":""beth is hugging fred""}","<img src=""stim_listB/hug3.gif""</stim_listB>",is hugging,
null,"<div style=""font-size:60px;"">+</div>",,html-keyboard-response,220,672623,0.0-15.0-0.18,3639,List2B,white,woman,,,,null,,,,
null,"<img src=""stim_listB/hug1.gif""</stim_listB>",,html-keyboard-response,221,674626,0.0-15.0-1.18,3639,List2B,white,woman,,,,null,,,,
null,is hugging,,html-keyboard-response,222,676628,0.0-15.0-2.18,3639,List2B,white,woman,,,,null,,,,
4453,,,survey-text,223,681082,0.0-15.0-3.18,3639,List2B,white,woman,,,,,"{""Q0"":""kate is hugging luke""}","<img src=""stim_listB/hug1.gif""</stim_listB>",is hugging,
null,"<div style=""font-size:60px;"">+</div>",,html-keyboard-response,224,681585,0.0-15.0-0.19,3639,List2B,white,woman,,,,null,,,,
null,"<img src=""stim_listB/touch1.gif""</stim_listB>",,html-keyboard-response,225,683590,0.0-15.0-1.19,3639,List2B,white,woman,,,,null,,,,
null,is touching,,html-keyboard-response,226,685592,0.0-15.0-2.19,3639,List2B,white,woman,,,,null,,,,
5256,,,survey-text,227,690849,0.0-15.0-3.19,3639,List2B,white,woman,,,,,"{""Q0"":""jane is touching dave""}","<img src=""stim_listB/touch1.gif""</stim_listB>",is touching,
8309,"<img src='img/portrait_matrix_list2.JPG' style='width:900px;height:500px;''></img><p>If you have memorised all the portraits and names and are ready to start, press Continue.</p><p><strong>Please note: Your memory of these faces will be tested 4 times during this experiment.</strong></p>",0,html-button-response,228,699159,0.0-16.0-0.0,3639,List2B,white,woman,,,,,,,,
3109,"<img src=""portrait/WW1.jpg""style=""width:400px;height:400px;""></img>",1,html-button-response,229,703271,0.0-16.0-1.0,3639,List2B,white,woman,,TRUE,1,,,,,
null,CORRECT,,html-keyboard-response,230,704772,0.0-16.0-2.0-0.0,3639,List2B,white,woman,,,,null,,,,
1540,"<img src=""portrait/WM1.jpg""style=""width:400px;height:400px;""></img>",6,html-button-response,231,706314,0.0-16.0-4.0,3639,List2B,white,woman,,TRUE,6,,,,,
null,CORRECT,,html-keyboard-response,232,707817,0.0-16.0-5.0-0.0,3639,List2B,white,woman,,,,null,,,,
1578,"<img src=""portrait/BW1.jpg""style=""width:400px;height:400px;""></img>",0,html-button-response,233,709397,0.0-16.0-7.0,3639,List2B,white,woman,,TRUE,0,,,,,
null,CORRECT,,html-keyboard-response,234,710902,0.0-16.0-8.0-0.0,3639,List2B,white,woman,,,,null,,,,
1065,"<img src=""portrait/BM1.jpg""style=""width:400px;height:400px;""></img>",4,html-button-response,235,711969,0.0-16.0-10.0,3639,List2B,white,woman,,TRUE,4,,,,,
null,CORRECT,,html-keyboard-response,236,713471,0.0-16.0-11.0-0.0,3639,List2B,white,woman,,,,null,,,,
1428,"<img src=""portrait/WM2.jpg""style=""width:400px;height:400px;""></img>",7,html-button-response,237,714901,0.0-16.0-13.0,3639,List2B,white,woman,,TRUE,7,,,,,
null,CORRECT,,html-keyboard-response,238,716405,0.0-16.0-14.0-0.0,3639,List2B,white,woman,,,,null,,,,
2691,"<img src=""portrait/BW2.jpg""style=""width:400px;height:400px;""></img>",2,html-button-response,239,719098,0.0-16.0-16.0,3639,List2B,white,woman,,TRUE,2,,,,,
null,CORRECT,,html-keyboard-response,240,720600,0.0-16.0-17.0-0.0,3639,List2B,white,woman,,,,null,,,,
2803,"<img src=""portrait/BM2.jpg""style=""width:400px;height:400px;""></img>",5,html-button-response,241,723406,0.0-16.0-19.0,3639,List2B,white,woman,,TRUE,5,,,,,
null,CORRECT,,html-keyboard-response,242,724909,0.0-16.0-20.0-0.0,3639,List2B,white,woman,,,,null,,,,
3278,"<img src=""portrait/WW2.jpg""style=""width:400px;height:400px;""></img>",0,html-button-response,243,728188,0.0-16.0-22.0,3639,List2B,white,woman,,TRUE,3,,,,,
1797,"<img src=""portrait/WW2.jpg""style=""width:400px;height:400px;""></img>",3,html-button-response,244,730987,0.0-16.0-24.0-0.0,3639,List2B,white,woman,,FALSE,3,,,,,
null,CORRECT,,html-keyboard-response,245,732490,0.0-16.0-24.0-1.0-0.0,3639,List2B,white,woman,,,,null,,,,
743,<p>You got 7 out of 8 right first time. Press Continue.</p>,0,html-button-response,246,733234,0.0-16.0-25.0,3639,List2B,white,woman,,,,,,,,
1224,"As you did not score 100%, the memory game will repeat. Press Continue.",0,html-button-response,247,735460,0.0-16.0-26.0-0.0,3639,List2B,white,woman,,,,,,,,
1550,"<img src='img/portrait_matrix_list2.JPG' style='width:900px;height:500px;''></img><p>If you have memorised all the portraits and names and are ready to start, press Continue.</p><p><strong>Please note: Your memory of these faces will be tested 4 times during this experiment.</strong></p>",0,html-button-response,248,738013,0.0-16.1-0.1,3639,List2B,white,woman,,,,,,,,
1870,"<img src=""portrait/WW1.jpg""style=""width:400px;height:400px;""></img>",1,html-button-response,249,740886,0.0-16.1-1.1,3639,List2B,white,woman,,TRUE,1,,,,,
null,CORRECT,,html-keyboard-response,250,742390,0.0-16.1-2.1-0.1,3639,List2B,white,woman,,,,null,,,,
1759,"<img src=""portrait/WM1.jpg""style=""width:400px;height:400px;""></img>",6,html-button-response,251,744151,0.0-16.1-4.1,3639,List2B,white,woman,,TRUE,6,,,,,
null,CORRECT,,html-keyboard-response,252,745654,0.0-16.1-5.1-0.1,3639,List2B,white,woman,,,,null,,,,
6566,"<img src=""portrait/BW1.jpg""style=""width:400px;height:400px;""></img>",0,html-button-response,253,752221,0.0-16.1-7.1,3639,List2B,white,woman,,TRUE,0,,,,,
null,CORRECT,,html-keyboard-response,254,753725,0.0-16.1-8.1-0.1,3639,List2B,white,woman,,,,null,,,,
3322,"<img src=""portrait/BM1.jpg""style=""width:400px;height:400px;""></img>",4,html-button-response,255,757048,0.0-16.1-10.1,3639,List2B,white,woman,,TRUE,4,,,,,
null,CORRECT,,html-keyboard-response,256,758550,0.0-16.1-11.1-0.1,3639,List2B,white,woman,,,,null,,,,
1440,"<img src=""portrait/WM2.jpg""style=""width:400px;height:400px;""></img>",7,html-button-response,257,759992,0.0-16.1-13.1,3639,List2B,white,woman,,TRUE,7,,,,,
null,CORRECT,,html-keyboard-response,258,761495,0.0-16.1-14.1-0.1,3639,List2B,white,woman,,,,null,,,,
7012,"<img src=""portrait/BW2.jpg""style=""width:400px;height:400px;""></img>",2,html-button-response,259,768508,0.0-16.1-16.1,3639,List2B,white,woman,,TRUE,2,,,,,
null,CORRECT,,html-keyboard-response,260,770011,0.0-16.1-17.1-0.1,3639,List2B,white,woman,,,,null,,,,
2909,"<img src=""portrait/BM2.jpg""style=""width:400px;height:400px;""></img>",5,html-button-response,261,772921,0.0-16.1-19.1,3639,List2B,white,woman,,TRUE,5,,,,,
null,CORRECT,,html-keyboard-response,262,774426,0.0-16.1-20.1-0.1,3639,List2B,white,woman,,,,null,,,,
2255,"<img src=""portrait/WW2.jpg""style=""width:400px;height:400px;""></img>",3,html-button-response,263,776683,0.0-16.1-22.1,3639,List2B,white,woman,,TRUE,3,,,,,
null,CORRECT,,html-keyboard-response,264,778187,0.0-16.1-23.1-0.1,3639,List2B,white,woman,,,,null,,,,
1152,<p>You got 8 out of 8 right first time. Press Continue.</p>,0,html-button-response,265,779341,0.0-16.1-25.1,3639,List2B,white,woman,,,,,,,,
null,"<div style=""font-size:60px;"">+</div>",,html-keyboard-response,266,780844,0.0-17.0-0.0,3639,List2B,white,woman,,,,null,,,,
null,"<img src=""stim_listB/kiss1.gif""</stim_listB>",,html-keyboard-response,267,782849,0.0-17.0-1.0,3639,List2B,white,woman,,,,null,,,,
null,is kissing,,html-keyboard-response,268,784851,0.0-17.0-2.0,3639,List2B,white,woman,,,,null,,,,
5561,,,survey-text,269,790413,0.0-17.0-3.0,3639,List2B,white,woman,,,,,"{""Q0"":""luke is kissing ruth""}","<img src=""stim_listB/kiss1.gif""</stim_listB>",is kissing,
null,"<div style=""font-size:60px;"">+</div>",,html-keyboard-response,270,790914,0.0-17.0-0.1,3639,List2B,white,woman,,,,null,,,,
null,"<img src=""stim_listB/fight5.gif""</stim_listB>",,html-keyboard-response,271,792918,0.0-17.0-1.1,3639,List2B,white,woman,,,,null,,,,
null,is fighting,,html-keyboard-response,272,794919,0.0-17.0-2.1,3639,List2B,white,woman,,,,null,,,,
6951,,,survey-text,273,801871,0.0-17.0-3.1,3639,List2B,white,woman,,,,,"{""Q0"":""mike is fighting with dave""}","<img src=""stim_listB/fight5.gif""</stim_listB>",is fighting,
null,"<div style=""font-size:60px;"">+</div>",,html-keyboard-response,274,802374,0.0-17.0-0.2,3639,List2B,white,woman,,,,null,,,,
null,"<img src=""stim_listB/meet1.gif""</stim_listB>",,html-keyboard-response,275,804377,0.0-17.0-1.2,3639,List2B,white,woman,,,,null,,,,
null,is meeting,,html-keyboard-response,276,806378,0.0-17.0-2.2,3639,List2B,white,woman,,,,null,,,,
3269,,,survey-text,277,809648,0.0-17.0-3.2,3639,List2B,white,woman,,,,,"{""Q0"":""jane is meeting dave""}","<img src=""stim_listB/meet1.gif""</stim_listB>",is meeting,
null,"<div style=""font-size:60px;"">+</div>",,html-keyboard-response,278,810150,0.0-17.0-0.3,3639,List2B,white,woman,,,,null,,,,
null,"<img src=""stim_listB/marry5.gif""</stim_listB>",,html-keyboard-response,279,812152,0.0-17.0-1.3,3639,List2B,white,woman,,,,null,,,,
null,is marrying,,html-keyboard-response,280,814153,0.0-17.0-2.3,3639,List2B,white,woman,,,,null,,,,
6112,,,survey-text,281,820266,0.0-17.0-3.3,3639,List2B,white,woman,,,,,"{""Q0"":""dave is marrying fred""}","<img src=""stim_listB/marry5.gif""</stim_listB>",is marrying,
null,"<div style=""font-size:60px;"">+</div>",,html-keyboard-response,282,820767,0.0-17.0-0.4,3639,List2B,white,woman,,,,null,,,,
null,"<img src=""stim_listB/argue1.gif""</stim_listB>",,html-keyboard-response,283,822770,0.0-17.0-1.4,3639,List2B,white,woman,,,,null,,,,
null,is arguing with,,html-keyboard-response,284,824773,0.0-17.0-2.4,3639,List2B,white,woman,,,,null,,,,
4473,,,survey-text,285,829247,0.0-17.0-3.4,3639,List2B,white,woman,,,,,"{""Q0"":""ruth is arguing with dave""}","<img src=""stim_listB/argue1.gif""</stim_listB>",is arguing with,
null,"<div style=""font-size:60px;"">+</div>",,html-keyboard-response,286,829749,0.0-17.0-0.5,3639,List2B,white,woman,,,,null,,,,
null,"<img src=""stim_listB/marry1.gif""</stim_listB>",,html-keyboard-response,287,831751,0.0-17.0-1.5,3639,List2B,white,woman,,,,null,,,,
null,is marrying,,html-keyboard-response,288,833753,0.0-17.0-2.5,3639,List2B,white,woman,,,,null,,,,
3591,,,survey-text,289,837344,0.0-17.0-3.5,3639,List2B,white,woman,,,,,"{""Q0"":""ruth is marrying dave""}","<img src=""stim_listB/marry1.gif""</stim_listB>",is marrying,
null,"<div style=""font-size:60px;"">+</div>",,html-keyboard-response,290,837845,0.0-17.0-0.6,3639,List2B,white,woman,,,,null,,,,
null,"<img src=""stim_listB/dance2.gif""</stim_listB>",,html-keyboard-response,291,839847,0.0-17.0-1.6,3639,List2B,white,woman,,,,null,,,,
null,are dancing with each other,,html-keyboard-response,292,841848,0.0-17.0-2.6,3639,List2B,white,woman,,,,null,,,,
11434,,,survey-text,293,853283,0.0-17.0-3.6,3639,List2B,white,woman,,,,,"{""Q0"":""ruth and dave are marrying each other""}","<img src=""stim_listB/dance2.gif""</stim_listB>",are dancing with each other,
null,"<div style=""font-size:60px;"">+</div>",,html-keyboard-response,294,853786,0.0-17.0-0.7,3639,List2B,white,woman,,,,null,,,,
null,"<img src=""stim_listB/touch3.gif""</stim_listB>",,html-keyboard-response,295,855789,0.0-17.0-1.7,3639,List2B,white,woman,,,,null,,,,
null,is touching,,html-keyboard-response,296,857791,0.0-17.0-2.7,3639,List2B,white,woman,,,,null,,,,
8933,,,survey-text,297,866725,0.0-17.0-3.7,3639,List2B,white,woman,,,,,"{""Q0"":""kate is touching mike""}","<img src=""stim_listB/touch3.gif""</stim_listB>",is touching,
null,"<div style=""font-size:60px;"">+</div>",,html-keyboard-response,298,867227,0.0-17.0-0.8,3639,List2B,white,woman,,,,null,,,,
null,"<img src=""stim_listB/talk5.gif""</stim_listB>",,html-keyboard-response,299,869231,0.0-17.0-1.8,3639,List2B,white,woman,,,,null,,,,
null,is talking to,,html-keyboard-response,300,871233,0.0-17.0-2.8,3639,List2B,white,woman,,,,null,,,,
4923,,,survey-text,301,876157,0.0-17.0-3.8,3639,List2B,white,woman,,,,,"{""Q0"":""mike is talking to luke""}","<img src=""stim_listB/talk5.gif""</stim_listB>",is talking to,
null,"<div style=""font-size:60px;"">+</div>",,html-keyboard-response,302,876659,0.0-17.0-0.9,3639,List2B,white,woman,,,,null,,,,
null,"<img src=""stim_listB/argue8.gif""</stim_listB>",,html-keyboard-response,303,878663,0.0-17.0-1.9,3639,List2B,white,woman,,,,null,,,,
null,are arguing with each other,,html-keyboard-response,304,880665,0.0-17.0-2.9,3639,List2B,white,woman,,,,null,,,,
5952,,,survey-text,305,886618,0.0-17.0-3.9,3639,List2B,white,woman,,,,,"{""Q0"":""kate and ruth are arguing with each other""}","<img src=""stim_listB/argue8.gif""</stim_listB>",are arguing with each other,
null,"<div style=""font-size:60px;"">+</div>",,html-keyboard-response,306,887120,0.0-17.0-0.10,3639,List2B,white,woman,,,,null,,,,
null,"<img src=""stim_listB/hug7.gif""</stim_listB>",,html-keyboard-response,307,889123,0.0-17.0-1.10,3639,List2B,white,woman,,,,null,,,,
null,is hugging,,html-keyboard-response,308,891125,0.0-17.0-2.10,3639,List2B,white,woman,,,,null,,,,
4300,,,survey-text,309,895426,0.0-17.0-3.10,3639,List2B,white,woman,,,,,"{""Q0"":""ruth is hugging beth""}","<img src=""stim_listB/hug7.gif""</stim_listB>",is hugging,
null,"<div style=""font-size:60px;"">+</div>",,html-keyboard-response,310,895928,0.0-17.0-0.11,3639,List2B,white,woman,,,,null,,,,
null,"<img src=""stim_listB/argue3.gif""</stim_listB>",,html-keyboard-response,311,897933,0.0-17.0-1.11,3639,List2B,white,woman,,,,null,,,,
null,is arguing with,,html-keyboard-response,312,899935,0.0-17.0-2.11,3639,List2B,white,woman,,,,null,,,,
4536,,,survey-text,313,904472,0.0-17.0-3.11,3639,List2B,white,woman,,,,,"{""Q0"":""beth is arguing with mike""}","<img src=""stim_listB/argue3.gif""</stim_listB>",is arguing with,
null,"<div style=""font-size:60px;"">+</div>",,html-keyboard-response,314,904973,0.0-17.0-0.12,3639,List2B,white,woman,,,,null,,,,
null,"<img src=""stim_listB/kiss8.gif""</stim_listB>",,html-keyboard-response,315,906976,0.0-17.0-1.12,3639,List2B,white,woman,,,,null,,,,
null,are kissing each other,,html-keyboard-response,316,908978,0.0-17.0-2.12,3639,List2B,white,woman,,,,null,,,,
4638,,,survey-text,317,913617,0.0-17.0-3.12,3639,List2B,white,woman,,,,,"{""Q0"":""kate and jane are kissing each other""}","<img src=""stim_listB/kiss8.gif""</stim_listB>",are kissing each other,
null,"<div style=""font-size:60px;"">+</div>",,html-keyboard-response,318,914120,0.0-17.0-0.13,3639,List2B,white,woman,,,,null,,,,
null,"<img src=""stim_listB/kiss6.gif""</stim_listB>",,html-keyboard-response,319,916123,0.0-17.0-1.13,3639,List2B,white,woman,,,,null,,,,
null,are kissing each other,,html-keyboard-response,320,918124,0.0-17.0-2.13,3639,List2B,white,woman,,,,null,,,,
6152,,,survey-text,321,924277,0.0-17.0-3.13,3639,List2B,white,woman,,,,,"{""Q0"":""dave and mike are kissing each other""}","<img src=""stim_listB/kiss6.gif""</stim_listB>",are kissing each other,
null,"<div style=""font-size:60px;"">+</div>",,html-keyboard-response,322,924779,0.0-17.0-0.14,3639,List2B,white,woman,,,,null,,,,
null,"<img src=""stim_listB/talk6.gif""</stim_listB>",,html-keyboard-response,323,926782,0.0-17.0-1.14,3639,List2B,white,woman,,,,null,,,,
null,are talking to each other,,html-keyboard-response,324,928785,0.0-17.0-2.14,3639,List2B,white,woman,,,,null,,,,
6905,,,survey-text,325,935691,0.0-17.0-3.14,3639,List2B,white,woman,,,,,"{""Q0"":""dave and fred are talking to each other""}","<img src=""stim_listB/talk6.gif""</stim_listB>",are talking to each other,
null,"<div style=""font-size:60px;"">+</div>",,html-keyboard-response,326,936194,0.0-17.0-0.15,3639,List2B,white,woman,,,,null,,,,
null,"<img src=""stim_listB/shout1.gif""</stim_listB>",,html-keyboard-response,327,938197,0.0-17.0-1.15,3639,List2B,white,woman,,,,null,,,,
null,is shouting at,,html-keyboard-response,328,940199,0.0-17.0-2.15,3639,List2B,white,woman,,,,null,,,,
6858,,,survey-text,329,947058,0.0-17.0-3.15,3639,List2B,white,woman,,,,,"{""Q0"":""ruth is shouting at luke""}","<img src=""stim_listB/shout1.gif""</stim_listB>",is shouting at,
null,"<div style=""font-size:60px;"">+</div>",,html-keyboard-response,330,947561,0.0-17.0-0.16,3639,List2B,white,woman,,,,null,,,,
null,"<img src=""stim_listB/hug5.gif""</stim_listB>",,html-keyboard-response,331,949564,0.0-17.0-1.16,3639,List2B,white,woman,,,,null,,,,
null,is hugging,,html-keyboard-response,332,951566,0.0-17.0-2.16,3639,List2B,white,woman,,,,null,,,,
3429,,,survey-text,333,954996,0.0-17.0-3.16,3639,List2B,white,woman,,,,,"{""Q0"":""luke is hugging fred""}","<img src=""stim_listB/hug5.gif""</stim_listB>",is hugging,
null,"<div style=""font-size:60px;"">+</div>",,html-keyboard-response,334,955497,0.0-17.0-0.17,3639,List2B,white,woman,,,,null,,,,
null,"<img src=""stim_listB/fight8.gif""</stim_listB>",,html-keyboard-response,335,957501,0.0-17.0-1.17,3639,List2B,white,woman,,,,null,,,,
null,are fighting each other,,html-keyboard-response,336,959503,0.0-17.0-2.17,3639,List2B,white,woman,,,,null,,,,
5067,,,survey-text,337,964571,0.0-17.0-3.17,3639,List2B,white,woman,,,,,"{""Q0"":""beth and ruth are fighting each other""}","<img src=""stim_listB/fight8.gif""</stim_listB>",are fighting each other,
null,"<div style=""font-size:60px;"">+</div>",,html-keyboard-response,338,965074,0.0-17.0-0.18,3639,List2B,white,woman,,,,null,,,,
null,"<img src=""stim_listB/talk3.gif""</stim_listB>",,html-keyboard-response,339,967076,0.0-17.0-1.18,3639,List2B,white,woman,,,,null,,,,
null,is talking to,,html-keyboard-response,340,969078,0.0-17.0-2.18,3639,List2B,white,woman,,,,null,,,,
3675,,,survey-text,341,972754,0.0-17.0-3.18,3639,List2B,white,woman,,,,,"{""Q0"":""kate is talking to fred""}","<img src=""stim_listB/talk3.gif""</stim_listB>",is talking to,
null,"<div style=""font-size:60px;"">+</div>",,html-keyboard-response,342,973255,0.0-17.0-0.19,3639,List2B,white,woman,,,,null,,,,
null,"<img src=""stim_listB/fight2.gif""</stim_listB>",,html-keyboard-response,343,975258,0.0-17.0-1.19,3639,List2B,white,woman,,,,null,,,,
null,are fighting each other,,html-keyboard-response,344,977259,0.0-17.0-2.19,3639,List2B,white,woman,,,,null,,,,
5332,,,survey-text,345,982593,0.0-17.0-3.19,3639,List2B,white,woman,,,,,"{""Q0"":""luke and ruth are fighting each other""}","<img src=""stim_listB/fight2.gif""</stim_listB>",are fighting each other,
896,"<img src='img/portrait_matrix_list2.JPG' style='width:900px;height:500px;''></img><p>If you have memorised all the portraits and names and are ready to start, press Continue.</p><p><strong>Please note: Your memory of these faces will be tested 4 times during this experiment.</strong></p>",0,html-button-response,346,983490,0.0-18.0-0.0,3639,List2B,white,woman,,,,,,,,
2125,"<img src=""portrait/WW1.jpg""style=""width:400px;height:400px;""></img>",1,html-button-response,347,986618,0.0-18.0-1.0,3639,List2B,white,woman,,TRUE,1,,,,,
null,CORRECT,,html-keyboard-response,348,988120,0.0-18.0-2.0-0.0,3639,List2B,white,woman,,,,null,,,,
3606,"<img src=""portrait/BM1.jpg""style=""width:400px;height:400px;""></img>",4,html-button-response,349,991729,0.0-18.0-4.0,3639,List2B,white,woman,,TRUE,4,,,,,
null,CORRECT,,html-keyboard-response,350,993231,0.0-18.0-5.0-0.0,3639,List2B,white,woman,,,,null,,,,
2383,"<img src=""portrait/BW2.jpg""style=""width:400px;height:400px;""></img>",2,html-button-response,351,995616,0.0-18.0-7.0,3639,List2B,white,woman,,TRUE,2,,,,,
null,CORRECT,,html-keyboard-response,352,997119,0.0-18.0-8.0-0.0,3639,List2B,white,woman,,,,null,,,,
2518,"<img src=""portrait/BM2.jpg""style=""width:400px;height:400px;""></img>",5,html-button-response,353,999639,0.0-18.0-10.0,3639,List2B,white,woman,,TRUE,5,,,,,
null,CORRECT,,html-keyboard-response,354,1001143,0.0-18.0-11.0-0.0,3639,List2B,white,woman,,,,null,,,,
1281,"<img src=""portrait/WM2.jpg""style=""width:400px;height:400px;""></img>",7,html-button-response,355,1002425,0.0-18.0-13.0,3639,List2B,white,woman,,TRUE,7,,,,,
null,CORRECT,,html-keyboard-response,356,1003929,0.0-18.0-14.0-0.0,3639,List2B,white,woman,,,,null,,,,
2236,"<img src=""portrait/BW1.jpg""style=""width:400px;height:400px;""></img>",0,html-button-response,357,1006167,0.0-18.0-16.0,3639,List2B,white,woman,,TRUE,0,,,,,
null,CORRECT,,html-keyboard-response,358,1007671,0.0-18.0-17.0-0.0,3639,List2B,white,woman,,,,null,,,,
2513,"<img src=""portrait/WW2.jpg""style=""width:400px;height:400px;""></img>",3,html-button-response,359,1010184,0.0-18.0-19.0,3639,List2B,white,woman,,TRUE,3,,,,,
null,CORRECT,,html-keyboard-response,360,1011688,0.0-18.0-20.0-0.0,3639,List2B,white,woman,,,,null,,,,
1311,"<img src=""portrait/WM1.jpg""style=""width:400px;height:400px;""></img>",6,html-button-response,361,1013000,0.0-18.0-22.0,3639,List2B,white,woman,,TRUE,6,,,,,
null,CORRECT,,html-keyboard-response,362,1014505,0.0-18.0-23.0-0.0,3639,List2B,white,woman,,,,null,,,,
943,<p>You got 8 out of 8 right first time. Press Continue.</p>,0,html-button-response,363,1015449,0.0-18.0-25.0,3639,List2B,white,woman,,,,,,,,
null,"<div style=""font-size:60px;"">+</div>",,html-keyboard-response,364,1016951,0.0-19.0-0.0,3639,List2B,white,woman,,,,null,,,,
null,"<img src=""stim_listB/touch2.gif""</stim_listB>",,html-keyboard-response,365,1018956,0.0-19.0-1.0,3639,List2B,white,woman,,,,null,,,,
null,are touching each other,,html-keyboard-response,366,1020958,0.0-19.0-2.0,3639,List2B,white,woman,,,,null,,,,
4808,,,survey-text,367,1025767,0.0-19.0-3.0,3639,List2B,white,woman,,,,,"{""Q0"":""ruth and luke are touching each other""}","<img src=""stim_listB/touch2.gif""</stim_listB>",are touching each other,
null,"<div style=""font-size:60px;"">+</div>",,html-keyboard-response,368,1026268,0.0-19.0-0.1,3639,List2B,white,woman,,,,null,,,,
null,"<img src=""stim_listB/touch8.gif""</stim_listB>",,html-keyboard-response,369,1028271,0.0-19.0-1.1,3639,List2B,white,woman,,,,null,,,,
null,are touching each other,,html-keyboard-response,370,1030273,0.0-19.0-2.1,3639,List2B,white,woman,,,,null,,,,
6005,,,survey-text,371,1036279,0.0-19.0-3.1,3639,List2B,white,woman,,,,,"{""Q0"":""ruth and beth are touching each other""}","<img src=""stim_listB/touch8.gif""</stim_listB>",are touching each other,
null,"<div style=""font-size:60px;"">+</div>",,html-keyboard-response,372,1036781,0.0-19.0-0.2,3639,List2B,white,woman,,,,null,,,,
null,"<img src=""stim_listB/dance6.gif""</stim_listB>",,html-keyboard-response,373,1038785,0.0-19.0-1.2,3639,List2B,white,woman,,,,null,,,,
null,are dancing with each other,,html-keyboard-response,374,1040787,0.0-19.0-2.2,3639,List2B,white,woman,,,,null,,,,
7196,,,survey-text,375,1047984,0.0-19.0-3.2,3639,List2B,white,woman,,,,,"{""Q0"":""fred and dave are dancing with each other""}","<img src=""stim_listB/dance6.gif""</stim_listB>",are dancing with each other,
null,"<div style=""font-size:60px;"">+</div>",,html-keyboard-response,376,1048485,0.0-19.0-0.3,3639,List2B,white,woman,,,,null,,,,
null,"<img src=""stim_listB/kiss4.gif""</stim_listB>",,html-keyboard-response,377,1050488,0.0-19.0-1.3,3639,List2B,white,woman,,,,null,,,,
null,are kissing each other,,html-keyboard-response,378,1052490,0.0-19.0-2.3,3639,List2B,white,woman,,,,null,,,,
5416,,,survey-text,379,1057907,0.0-19.0-3.3,3639,List2B,white,woman,,,,,"{""Q0"":""kate and mike are kissing each other""}","<img src=""stim_listB/kiss4.gif""</stim_listB>",are kissing each other,
null,"<div style=""font-size:60px;"">+</div>",,html-keyboard-response,380,1058410,0.0-19.0-0.4,3639,List2B,white,woman,,,,null,,,,
null,"<img src=""stim_listB/dance5.gif""</stim_listB>",,html-keyboard-response,381,1060413,0.0-19.0-1.4,3639,List2B,white,woman,,,,null,,,,
null,is dancing with,,html-keyboard-response,382,1062415,0.0-19.0-2.4,3639,List2B,white,woman,,,,null,,,,
3770,,,survey-text,383,1066186,0.0-19.0-3.4,3639,List2B,white,woman,,,,,"{""Q0"":""mike is dancing with luke""}","<img src=""stim_listB/dance5.gif""</stim_listB>",is dancing with,
null,"<div style=""font-size:60px;"">+</div>",,html-keyboard-response,384,1066688,0.0-19.0-0.5,3639,List2B,white,woman,,,,null,,,,
null,"<img src=""stim_listB/touch7.gif""</stim_listB>",,html-keyboard-response,385,1068691,0.0-19.0-1.5,3639,List2B,white,woman,,,,null,,,,
null,is touching,,html-keyboard-response,386,1070693,0.0-19.0-2.5,3639,List2B,white,woman,,,,null,,,,
6027,,,survey-text,387,1076721,0.0-19.0-3.5,3639,List2B,white,woman,,,,,"{""Q0"":""kate is touching jane""}","<img src=""stim_listB/touch7.gif""</stim_listB>",is touching,
null,"<div style=""font-size:60px;"">+</div>",,html-keyboard-response,388,1077222,0.0-19.0-0.6,3639,List2B,white,woman,,,,null,,,,
null,"<img src=""stim_listB/talk2.gif""</stim_listB>",,html-keyboard-response,389,1079225,0.0-19.0-1.6,3639,List2B,white,woman,,,,null,,,,
null,are talking to each other,,html-keyboard-response,390,1081227,0.0-19.0-2.6,3639,List2B,white,woman,,,,null,,,,
5405,,,survey-text,391,1086633,0.0-19.0-3.6,3639,List2B,white,woman,,,,,"{""Q0"":""ruth and dave are talking to each other""}","<img src=""stim_listB/talk2.gif""</stim_listB>",are talking to each other,
null,"<div style=""font-size:60px;"">+</div>",,html-keyboard-response,392,1087134,0.0-19.0-0.7,3639,List2B,white,woman,,,,null,,,,
null,"<img src=""stim_listB/talk1.gif""</stim_listB>",,html-keyboard-response,393,1089137,0.0-19.0-1.7,3639,List2B,white,woman,,,,null,,,,
null,is talking to,,html-keyboard-response,394,1091141,0.0-19.0-2.7,3639,List2B,white,woman,,,,null,,,,
4410,,,survey-text,395,1095552,0.0-19.0-3.7,3639,List2B,white,woman,,,,,"{""Q0"":""jane is talking to luke""}","<img src=""stim_listB/talk1.gif""</stim_listB>",is talking to,
null,"<div style=""font-size:60px;"">+</div>",,html-keyboard-response,396,1096053,0.0-19.0-0.8,3639,List2B,white,woman,,,,null,,,,
null,"<img src=""stim_listB/shout7.gif""</stim_listB>",,html-keyboard-response,397,1098057,0.0-19.0-1.8,3639,List2B,white,woman,,,,null,,,,
null,is shouting at,,html-keyboard-response,398,1100058,0.0-19.0-2.8,3639,List2B,white,woman,,,,null,,,,
3507,,,survey-text,399,1103566,0.0-19.0-3.8,3639,List2B,white,woman,,,,,"{""Q0"":""beth is shouting at ruth""}","<img src=""stim_listB/shout7.gif""</stim_listB>",is shouting at,
null,"<div style=""font-size:60px;"">+</div>",,html-keyboard-response,400,1104068,0.0-19.0-0.9,3639,List2B,white,woman,,,,null,,,,
null,"<img src=""stim_listB/argue5.gif""</stim_listB>",,html-keyboard-response,401,1106070,0.0-19.0-1.9,3639,List2B,white,woman,,,,null,,,,
null,is arguing with,,html-keyboard-response,402,1108072,0.0-19.0-2.9,3639,List2B,white,woman,,,,null,,,,
3820,,,survey-text,403,1111893,0.0-19.0-3.9,3639,List2B,white,woman,,,,,"{""Q0"":""dave is arguing with fred""}","<img src=""stim_listB/argue5.gif""</stim_listB>",is arguing with,
null,"<div style=""font-size:60px;"">+</div>",,html-keyboard-response,404,1112395,0.0-19.0-0.10,3639,List2B,white,woman,,,,null,,,,
null,"<img src=""stim_listB/touch5.gif""</stim_listB>",,html-keyboard-response,405,1114397,0.0-19.0-1.10,3639,List2B,white,woman,,,,null,,,,
null,is touching,,html-keyboard-response,406,1116399,0.0-19.0-2.10,3639,List2B,white,woman,,,,null,,,,
3858,,,survey-text,407,1120258,0.0-19.0-3.10,3639,List2B,white,woman,,,,,"{""Q0"":""dave is touching mike""}","<img src=""stim_listB/touch5.gif""</stim_listB>",is touching,
null,"<div style=""font-size:60px;"">+</div>",,html-keyboard-response,408,1120760,0.0-19.0-0.11,3639,List2B,white,woman,,,,null,,,,
null,"<img src=""stim_listB/talk8.gif""</stim_listB>",,html-keyboard-response,409,1122763,0.0-19.0-1.11,3639,List2B,white,woman,,,,null,,,,
null,are talking to each other,,html-keyboard-response,410,1124766,0.0-19.0-2.11,3639,List2B,white,woman,,,,null,,,,
7680,,,survey-text,411,1132447,0.0-19.0-3.11,3639,List2B,white,woman,,,,,"{""Q0"":""jane and beth are talking to each other""}","<img src=""stim_listB/talk8.gif""</stim_listB>",are talking to each other,
null,"<div style=""font-size:60px;"">+</div>",,html-keyboard-response,412,1132948,0.0-19.0-0.12,3639,List2B,white,woman,,,,null,,,,
null,"<img src=""stim_listB/marry2.gif""</stim_listB>",,html-keyboard-response,413,1134951,0.0-19.0-1.12,3639,List2B,white,woman,,,,null,,,,
null,are marrying each other,,html-keyboard-response,414,1136954,0.0-19.0-2.12,3639,List2B,white,woman,,,,null,,,,
5970,,,survey-text,415,1142925,0.0-19.0-3.12,3639,List2B,white,woman,,,,,"{""Q0"":""jane and luke are marrying each other""}","<img src=""stim_listB/marry2.gif""</stim_listB>",are marrying each other,
null,"<div style=""font-size:60px;"">+</div>",,html-keyboard-response,416,1143428,0.0-19.0-0.13,3639,List2B,white,woman,,,,null,,,,
null,"<img src=""stim_listB/meet5.gif""</stim_listB>",,html-keyboard-response,417,1145431,0.0-19.0-1.13,3639,List2B,white,woman,,,,null,,,,
null,is meeting,,html-keyboard-response,418,1147432,0.0-19.0-2.13,3639,List2B,white,woman,,,,null,,,,
3568,,,survey-text,419,1151001,0.0-19.0-3.13,3639,List2B,white,woman,,,,,"{""Q0"":""mike is meeting dave""}","<img src=""stim_listB/meet5.gif""</stim_listB>",is meeting,
null,"<div style=""font-size:60px;"">+</div>",,html-keyboard-response,420,1151502,0.0-19.0-0.14,3639,List2B,white,woman,,,,null,,,,
null,"<img src=""stim_listB/dance4.gif""</stim_listB>",,html-keyboard-response,421,1153505,0.0-19.0-1.14,3639,List2B,white,woman,,,,null,,,,
null,are dancing with each other,,html-keyboard-response,422,1155508,0.0-19.0-2.14,3639,List2B,white,woman,,,,null,,,,
6702,,,survey-text,423,1162211,0.0-19.0-3.14,3639,List2B,white,woman,,,,,"{""Q0"":""mike and beth are dancing with each other""}","<img src=""stim_listB/dance4.gif""</stim_listB>",are dancing with each other,
null,"<div style=""font-size:60px;"">+</div>",,html-keyboard-response,424,1162714,0.0-19.0-0.15,3639,List2B,white,woman,,,,null,,,,
null,"<img src=""stim_listB/marry8.gif""</stim_listB>",,html-keyboard-response,425,1164718,0.0-19.0-1.15,3639,List2B,white,woman,,,,null,,,,
null,are marrying each other,,html-keyboard-response,426,1166721,0.0-19.0-2.15,3639,List2B,white,woman,,,,null,,,,
4866,,,survey-text,427,1171588,0.0-19.0-3.15,3639,List2B,white,woman,,,,,"{""Q0"":""ruth and kate are marrying each other""}","<img src=""stim_listB/marry8.gif""</stim_listB>",are marrying each other,
null,"<div style=""font-size:60px;"">+</div>",,html-keyboard-response,428,1172089,0.0-19.0-0.16,3639,List2B,white,woman,,,,null,,,,
null,"<img src=""stim_listB/hug8.gif""</stim_listB>",,html-keyboard-response,429,1174092,0.0-19.0-1.16,3639,List2B,white,woman,,,,null,,,,
null,are hugging each other,,html-keyboard-response,430,1176095,0.0-19.0-2.16,3639,List2B,white,woman,,,,null,,,,
4864,,,survey-text,431,1180960,0.0-19.0-3.16,3639,List2B,white,woman,,,,,"{""Q0"":""kate and jane are hugging each other""}","<img src=""stim_listB/hug8.gif""</stim_listB>",are hugging each other,
null,"<div style=""font-size:60px;"">+</div>",,html-keyboard-response,432,1181474,0.0-19.0-0.17,3639,List2B,white,woman,,,,null,,,,
null,"<img src=""stim_listB/kiss7.gif""</stim_listB>",,html-keyboard-response,433,1183481,0.0-19.0-1.17,3639,List2B,white,woman,,,,null,,,,
null,is kissing,,html-keyboard-response,434,1185483,0.0-19.0-2.17,3639,List2B,white,woman,,,,null,,,,
3330,,,survey-text,435,1188814,0.0-19.0-3.17,3639,List2B,white,woman,,,,,"{""Q0"":""ruth is kissing beth""}","<img src=""stim_listB/kiss7.gif""</stim_listB>",is kissing,
null,"<div style=""font-size:60px;"">+</div>",,html-keyboard-response,436,1189317,0.0-19.0-0.18,3639,List2B,white,woman,,,,null,,,,
null,"<img src=""stim_listB/fight7.gif""</stim_listB>",,html-keyboard-response,437,1191319,0.0-19.0-1.18,3639,List2B,white,woman,,,,null,,,,
null,is fighting,,html-keyboard-response,438,1193321,0.0-19.0-2.18,3639,List2B,white,woman,,,,null,,,,
4125,,,survey-text,439,1197447,0.0-19.0-3.18,3639,List2B,white,woman,,,,,"{""Q0"":""jane is fighting kate""}","<img src=""stim_listB/fight7.gif""</stim_listB>",is fighting,
null,"<div style=""font-size:60px;"">+</div>",,html-keyboard-response,440,1197948,0.0-19.0-0.19,3639,List2B,white,woman,,,,null,,,,
null,"<img src=""stim_listB/argue6.gif""</stim_listB>",,html-keyboard-response,441,1199952,0.0-19.0-1.19,3639,List2B,white,woman,,,,null,,,,
null,are arguing with each other,,html-keyboard-response,442,1201954,0.0-19.0-2.19,3639,List2B,white,woman,,,,null,,,,
7416,,,survey-text,443,1209371,0.0-19.0-3.19,3639,List2B,white,woman,,,,,"{""Q0"":""luke and mike are arguing with each other""}","<img src=""stim_listB/argue6.gif""</stim_listB>",are arguing with each other,
1080,<p>Thank you for completing that task.</p><p>The final part of this session is a short questionnaire.</p><p>Press Continue.</p>,0,html-button-response,444,1210452,0.0-20.0,3639,List2B,white,woman,,,,,,,,
15664,,,survey-text,445,1227120,0.0-21.0,3639,List2B,white,woman,,,,,"{""Q0"":""20"",""Q1"":""English"",""Q2"":""English"",""Q3"":""United Kingdom"",""Q4"":""Caucasian "",""Q5"":""Female""}",,,demographics
42313,,,survey-likert,446,1269437,0.0-22.0,3639,List2B,white,woman,,,,,"{""Q0"":5,""Q1"":4,""Q2"":4,""Q3"":4,""Q4"":3,""Q5"":4,""Q6"":3,""Q7"":1,""Q8"":3,""Q9"":1,""Q10"":3,""Q11"":3,""Q12"":3,""Q13"":4}",,,likert_race
29973,,,survey-likert,447,1299413,0.0-23.0,3639,List2B,white,woman,,,,,"{""Q0"":4,""Q1"":5,""Q2"":5,""Q3"":5,""Q4"":5,""Q5"":4,""Q6"":4,""Q7"":3,""Q8"":5,""Q9"":5,""Q10"":5,""Q11"":5,""Q12"":5,""Q13"":5}",,,likert_gender
3846,,,survey-text,448,1303260,0.0-24.0,3639,List2B,white,woman,,,,,"{""Q0"":""ccc""}",,,worker_id
12914,,,external-html,449,1316374,0.0-25.0,3639,List2B,white,woman,debrief.html,,,,,,,
