rt,stimulus,button_pressed,trial_type,trial_index,time_elapsed,internal_node_id,subject,list,ppt_race,ppt_gender,url,first_guess,correct,key_press,responses,image_type,phrase_type,test_part
4970,Welcome to the experiment. Press Continue to begin.,0,html-button-response,0,4973,0.0-0.0,38013,List1A,white,man,,,,,,,,
25756,,,external-html,1,31896,0.0-1.0,38013,List1A,white,man,consent.html,,,,,,,
5452,"<p>On the next page, you will see portraits of 8 people and their names.</p><p>Your first task is to take a few minutes to memorise the names of these people.</p><p>You will have to recall their names during the rest of the experiment, so it is</p><p>essential that you try to memorise these people and their names as best as you can.</p><br><p><strong>You will then be tested on your memory of these names and portraits.</strong></p><br><p>The experiment will start after you have completed this memory test.</p><br><p>Ready?</p>",0,html-button-response,2,37350,0.0-2.0,38013,List1A,white,man,,,,,,,,
68585,"<img src='img/portrait_matrix_list1.JPG' style='width:900px;height:500px;''></img><p>If you have memorised all the portraits and names and are ready to start, press Continue.</p><p><strong>Please note: Your memory of these faces will be tested 4 times during this experiment.</strong></p>",0,html-button-response,3,106937,0.0-3.0-0.0,38013,List1A,white,man,,,,,,,,
5657,"<img src=""portrait/WW1.jpg""style=""width:400px;height:400px;""></img>",1,html-button-response,4,113596,0.0-3.0-1.0,38013,List1A,white,man,,TRUE,1,,,,,
null,CORRECT,,html-keyboard-response,5,115099,0.0-3.0-2.0-0.0,38013,List1A,white,man,,,,null,,,,
2246,"<img src=""portrait/WM2.jpg""style=""width:400px;height:400px;""></img>",7,html-button-response,6,117347,0.0-3.0-4.0,38013,List1A,white,man,,TRUE,7,,,,,
null,CORRECT,,html-keyboard-response,7,118850,0.0-3.0-5.0-0.0,38013,List1A,white,man,,,,null,,,,
2731,"<img src=""portrait/BW1.jpg""style=""width:400px;height:400px;""></img>",0,html-button-response,8,121583,0.0-3.0-7.0,38013,List1A,white,man,,TRUE,0,,,,,
null,CORRECT,,html-keyboard-response,9,123085,0.0-3.0-8.0-0.0,38013,List1A,white,man,,,,null,,,,
9578,"<img src=""portrait/BM1.jpg""style=""width:400px;height:400px;""></img>",4,html-button-response,10,132666,0.0-3.0-10.0,38013,List1A,white,man,,TRUE,4,,,,,
null,CORRECT,,html-keyboard-response,11,134167,0.0-3.0-11.0-0.0,38013,List1A,white,man,,,,null,,,,
1921,"<img src=""portrait/WW2.jpg""style=""width:400px;height:400px;""></img>",2,html-button-response,12,136091,0.0-3.0-13.0,38013,List1A,white,man,,TRUE,3,,,,,
4627,"<img src=""portrait/WW2.jpg""style=""width:400px;height:400px;""></img>",3,html-button-response,13,141720,0.0-3.0-15.0-0.0,38013,List1A,white,man,,FALSE,3,,,,,
null,CORRECT,,html-keyboard-response,14,143223,0.0-3.0-15.0-1.0-0.0,38013,List1A,white,man,,,,null,,,,
2452,"<img src=""portrait/WM1.jpg""style=""width:400px;height:400px;""></img>",6,html-button-response,15,145677,0.0-3.0-16.0,38013,List1A,white,man,,TRUE,6,,,,,
null,CORRECT,,html-keyboard-response,16,147179,0.0-3.0-17.0-0.0,38013,List1A,white,man,,,,null,,,,
1678,"<img src=""portrait/BW2.jpg""style=""width:400px;height:400px;""></img>",2,html-button-response,17,148858,0.0-3.0-19.0,38013,List1A,white,man,,TRUE,2,,,,,
null,CORRECT,,html-keyboard-response,18,150360,0.0-3.0-20.0-0.0,38013,List1A,white,man,,,,null,,,,
3912,"<img src=""portrait/BM2.jpg""style=""width:400px;height:400px;""></img>",5,html-button-response,19,154274,0.0-3.0-22.0,38013,List1A,white,man,,TRUE,5,,,,,
null,CORRECT,,html-keyboard-response,20,155775,0.0-3.0-23.0-0.0,38013,List1A,white,man,,,,null,,,,
1077,<p>You got 7 out of 8 right first time. Press Continue.</p>,0,html-button-response,21,156854,0.0-3.0-25.0,38013,List1A,white,man,,,,,,,,
1411,"As you did not score 100%, the memory game will repeat. Press Continue.",0,html-button-response,22,159268,0.0-3.0-26.0-0.0,38013,List1A,white,man,,,,,,,,
1679,"<img src='img/portrait_matrix_list1.JPG' style='width:900px;height:500px;''></img><p>If you have memorised all the portraits and names and are ready to start, press Continue.</p><p><strong>Please note: Your memory of these faces will be tested 4 times during this experiment.</strong></p>",0,html-button-response,23,161951,0.0-3.1-0.1,38013,List1A,white,man,,,,,,,,
1645,"<img src=""portrait/WW1.jpg""style=""width:400px;height:400px;""></img>",1,html-button-response,24,164600,0.0-3.1-1.1,38013,List1A,white,man,,TRUE,1,,,,,
null,CORRECT,,html-keyboard-response,25,166102,0.0-3.1-2.1-0.1,38013,List1A,white,man,,,,null,,,,
1651,"<img src=""portrait/WM2.jpg""style=""width:400px;height:400px;""></img>",7,html-button-response,26,167755,0.0-3.1-4.1,38013,List1A,white,man,,TRUE,7,,,,,
null,CORRECT,,html-keyboard-response,27,169257,0.0-3.1-5.1-0.1,38013,List1A,white,man,,,,null,,,,
1411,"<img src=""portrait/BW1.jpg""style=""width:400px;height:400px;""></img>",0,html-button-response,28,170669,0.0-3.1-7.1,38013,List1A,white,man,,TRUE,0,,,,,
null,CORRECT,,html-keyboard-response,29,172172,0.0-3.1-8.1-0.1,38013,List1A,white,man,,,,null,,,,
2192,"<img src=""portrait/BM1.jpg""style=""width:400px;height:400px;""></img>",4,html-button-response,30,174366,0.0-3.1-10.1,38013,List1A,white,man,,TRUE,4,,,,,
null,CORRECT,,html-keyboard-response,31,175870,0.0-3.1-11.1-0.1,38013,List1A,white,man,,,,null,,,,
1906,"<img src=""portrait/WW2.jpg""style=""width:400px;height:400px;""></img>",3,html-button-response,32,177778,0.0-3.1-13.1,38013,List1A,white,man,,TRUE,3,,,,,
null,CORRECT,,html-keyboard-response,33,179280,0.0-3.1-14.1-0.1,38013,List1A,white,man,,,,null,,,,
2156,"<img src=""portrait/WM1.jpg""style=""width:400px;height:400px;""></img>",6,html-button-response,34,181437,0.0-3.1-16.1,38013,List1A,white,man,,TRUE,6,,,,,
null,CORRECT,,html-keyboard-response,35,182939,0.0-3.1-17.1-0.1,38013,List1A,white,man,,,,null,,,,
1398,"<img src=""portrait/BW2.jpg""style=""width:400px;height:400px;""></img>",2,html-button-response,36,184339,0.0-3.1-19.1,38013,List1A,white,man,,TRUE,2,,,,,
null,CORRECT,,html-keyboard-response,37,185841,0.0-3.1-20.1-0.1,38013,List1A,white,man,,,,null,,,,
2896,"<img src=""portrait/BM2.jpg""style=""width:400px;height:400px;""></img>",5,html-button-response,38,188739,0.0-3.1-22.1,38013,List1A,white,man,,TRUE,5,,,,,
null,CORRECT,,html-keyboard-response,39,190241,0.0-3.1-23.1-0.1,38013,List1A,white,man,,,,null,,,,
994,<p>You got 8 out of 8 right first time. Press Continue.</p>,0,html-button-response,40,191237,0.0-3.1-25.1,38013,List1A,white,man,,,,,,,,
19653,"<p>In this experiment, you will view photographs of the people from the memory game interacting.</p><p>By using the <strong>exact</strong> phrase given <i>after</i> the photograph appears and recalling the correct names of the people in the photographs, form a sentence describing the interaction. You do not need to capitalise names.</p><p>Type your answer in the space provided. Please complete every sentence before moving onto the next trial.</p><p>You will only have a few seconds to memorise each given photograph and phrase before you can respond, so try your best to focus.</p><p>An example is given below. Press 'Continue' when you are ready.</p><img src='img/speaking_example_v2.jpg' style='width:800px;height:460px;''></img>",0,html-button-response,41,211893,0.0-4.0,38013,List1A,white,man,,,,,,,,
1603,"<p>Before the experiment starts, you will watch two example trials. Press 'Continue'.</p>",0,html-button-response,42,214498,0.0-5.0,38013,List1A,white,man,,,,,,,,
null,<img src='img/speaking_WW.gif'></img>,,html-keyboard-response,43,217500,0.0-6.0,38013,List1A,white,man,,,,null,,,,
null,<p>is speaking to</p>,,html-keyboard-response,44,219502,0.0-7.0,38013,List1A,white,man,,,,null,,,,
1693,<p><b>Answer:</b> kate is speaking to beth</p>,0,html-button-response,45,221196,0.0-8.0,38013,List1A,white,man,,,,,,,,
null,<img src='img/pointing_BM.gif'></img>,,html-keyboard-response,46,224198,0.0-9.0,38013,List1A,white,man,,,,null,,,,
null,<p>are pointing at each other</p>,,html-keyboard-response,47,226198,0.0-10.0,38013,List1A,white,man,,,,null,,,,
1512,<p><b>Answer:</b> luke and dave are pointing at each other</p>,0,html-button-response,48,227712,0.0-11.0,38013,List1A,white,man,,,,,,,,
2601,"<p>Ready to start the experiment?</p><br><p><strong>Remember to describe the picture using a full sentence,</strong></p><p><strong>that combines the names of the people with the given phrase.</strong></p><p><strong>If you do not do this correctly you will not be paid.</strong></p><p><strong> You do not need to capitalise names or use punctuation.</strong></p><br><p>Press 'Continue' to begin.</p>",0,html-button-response,49,231315,0.0-12.0,38013,List1A,white,man,,,,,,,,
null,"<div style=""font-size:60px;"">+</div>",,html-keyboard-response,50,232816,0.0-13.0-0.0,38013,List1A,white,man,,,,null,,,,
null,"<img src=""stim_listA/marry6.gif""</stim_listA>",,html-keyboard-response,51,234819,0.0-13.0-1.0,38013,List1A,white,man,,,,null,,,,
null,are marrying each other,,html-keyboard-response,52,236820,0.0-13.0-2.0,38013,List1A,white,man,,,,null,,,,
13502,,,survey-text,53,250323,0.0-13.0-3.0,38013,List1A,white,man,,,,,"{""Q0"":""fred and dave are marrying each other""}","<img src=""stim_listA/marry6.gif""</stim_listA>",are marrying each other,
null,"<div style=""font-size:60px;"">+</div>",,html-keyboard-response,54,250826,0.0-13.0-0.1,38013,List1A,white,man,,,,null,,,,
null,"<img src=""stim_listA/fight7.gif""</stim_listA>",,html-keyboard-response,55,252827,0.0-13.0-1.1,38013,List1A,white,man,,,,null,,,,
null,is fighting,,html-keyboard-response,56,254828,0.0-13.0-2.1,38013,List1A,white,man,,,,null,,,,
5918,,,survey-text,57,260748,0.0-13.0-3.1,38013,List1A,white,man,,,,,"{""Q0"":""jane is fighting beth""}","<img src=""stim_listA/fight7.gif""</stim_listA>",is fighting,
null,"<div style=""font-size:60px;"">+</div>",,html-keyboard-response,58,261249,0.0-13.0-0.2,38013,List1A,white,man,,,,null,,,,
null,"<img src=""stim_listA/marry1.gif""</stim_listA>",,html-keyboard-response,59,263255,0.0-13.0-1.2,38013,List1A,white,man,,,,null,,,,
null,is marrying,,html-keyboard-response,60,265256,0.0-13.0-2.2,38013,List1A,white,man,,,,null,,,,
7455,,,survey-text,61,272713,0.0-13.0-3.2,38013,List1A,white,man,,,,,"{""Q0"":""mike is marrying beth""}","<img src=""stim_listA/marry1.gif""</stim_listA>",is marrying,
null,"<div style=""font-size:60px;"">+</div>",,html-keyboard-response,62,273215,0.0-13.0-0.3,38013,List1A,white,man,,,,null,,,,
null,"<img src=""stim_listA/meet3.gif""</stim_listA>",,html-keyboard-response,63,275217,0.0-13.0-1.3,38013,List1A,white,man,,,,null,,,,
null,is meeting,,html-keyboard-response,64,277219,0.0-13.0-2.3,38013,List1A,white,man,,,,null,,,,
5693,,,survey-text,65,282913,0.0-13.0-3.3,38013,List1A,white,man,,,,,"{""Q0"":""dave is meeting jane""}","<img src=""stim_listA/meet3.gif""</stim_listA>",is meeting,
null,"<div style=""font-size:60px;"">+</div>",,html-keyboard-response,66,283414,0.0-13.0-0.4,38013,List1A,white,man,,,,null,,,,
null,"<img src=""stim_listA/kiss8.gif""</stim_listA>",,html-keyboard-response,67,285415,0.0-13.0-1.4,38013,List1A,white,man,,,,null,,,,
null,are kissing each other,,html-keyboard-response,68,287416,0.0-13.0-2.4,38013,List1A,white,man,,,,null,,,,
7713,,,survey-text,69,295131,0.0-13.0-3.4,38013,List1A,white,man,,,,,"{""Q0"":""kate and jane are kissing each other""}","<img src=""stim_listA/kiss8.gif""</stim_listA>",are kissing each other,
null,"<div style=""font-size:60px;"">+</div>",,html-keyboard-response,70,295632,0.0-13.0-0.5,38013,List1A,white,man,,,,null,,,,
null,"<img src=""stim_listA/meet8.gif""</stim_listA>",,html-keyboard-response,71,297633,0.0-13.0-1.5,38013,List1A,white,man,,,,null,,,,
null,are meeting each other,,html-keyboard-response,72,299634,0.0-13.0-2.5,38013,List1A,white,man,,,,null,,,,
7148,,,survey-text,73,306784,0.0-13.0-3.5,38013,List1A,white,man,,,,,"{""Q0"":""beth and ruth are meeting each other""}","<img src=""stim_listA/meet8.gif""</stim_listA>",are meeting each other,
null,"<div style=""font-size:60px;"">+</div>",,html-keyboard-response,74,307286,0.0-13.0-0.6,38013,List1A,white,man,,,,null,,,,
null,"<img src=""stim_listA/shout5.gif""</stim_listA>",,html-keyboard-response,75,309288,0.0-13.0-1.6,38013,List1A,white,man,,,,null,,,,
null,is shouting at,,html-keyboard-response,76,311289,0.0-13.0-2.6,38013,List1A,white,man,,,,null,,,,
7960,,,survey-text,77,319251,0.0-13.0-3.6,38013,List1A,white,man,,,,,"{""Q0"":""fred is shouting at luke""}","<img src=""stim_listA/shout5.gif""</stim_listA>",is shouting at,
null,"<div style=""font-size:60px;"">+</div>",,html-keyboard-response,78,319752,0.0-13.0-0.7,38013,List1A,white,man,,,,null,,,,
null,"<img src=""stim_listA/meet5.gif""</stim_listA>",,html-keyboard-response,79,321754,0.0-13.0-1.7,38013,List1A,white,man,,,,null,,,,
null,is meeting,,html-keyboard-response,80,323755,0.0-13.0-2.7,38013,List1A,white,man,,,,null,,,,
5435,,,survey-text,81,329191,0.0-13.0-3.7,38013,List1A,white,man,,,,,"{""Q0"":""dave is meeting mike""}","<img src=""stim_listA/meet5.gif""</stim_listA>",is meeting,
null,"<div style=""font-size:60px;"">+</div>",,html-keyboard-response,82,329693,0.0-13.0-0.8,38013,List1A,white,man,,,,null,,,,
null,"<img src=""stim_listA/dance5.gif""</stim_listA>",,html-keyboard-response,83,331695,0.0-13.0-1.8,38013,List1A,white,man,,,,null,,,,
null,is dancing with,,html-keyboard-response,84,333696,0.0-13.0-2.8,38013,List1A,white,man,,,,null,,,,
6606,,,survey-text,85,340304,0.0-13.0-3.8,38013,List1A,white,man,,,,,"{""Q0"":""dave is dancing with fred""}","<img src=""stim_listA/dance5.gif""</stim_listA>",is dancing with,
null,"<div style=""font-size:60px;"">+</div>",,html-keyboard-response,86,340805,0.0-13.0-0.9,38013,List1A,white,man,,,,null,,,,
null,"<img src=""stim_listA/fight3.gif""</stim_listA>",,html-keyboard-response,87,342807,0.0-13.0-1.9,38013,List1A,white,man,,,,null,,,,
null,is fighting,,html-keyboard-response,88,344808,0.0-13.0-2.9,38013,List1A,white,man,,,,null,,,,
5987,,,survey-text,89,350796,0.0-13.0-3.9,38013,List1A,white,man,,,,,"{""Q0"":""dave is fighting jane""}","<img src=""stim_listA/fight3.gif""</stim_listA>",is fighting,
null,"<div style=""font-size:60px;"">+</div>",,html-keyboard-response,90,351298,0.0-13.0-0.10,38013,List1A,white,man,,,,null,,,,
null,"<img src=""stim_listA/marry2.gif""</stim_listA>",,html-keyboard-response,91,353300,0.0-13.0-1.10,38013,List1A,white,man,,,,null,,,,
null,are marrying each other,,html-keyboard-response,92,355301,0.0-13.0-2.10,38013,List1A,white,man,,,,null,,,,
8469,,,survey-text,93,363772,0.0-13.0-3.10,38013,List1A,white,man,,,,,"{""Q0"":""fred and kate are marrying each other""}","<img src=""stim_listA/marry2.gif""</stim_listA>",are marrying each other,
null,"<div style=""font-size:60px;"">+</div>",,html-keyboard-response,94,364274,0.0-13.0-0.11,38013,List1A,white,man,,,,null,,,,
null,"<img src=""stim_listA/touch1.gif""</stim_listA>",,html-keyboard-response,95,366276,0.0-13.0-1.11,38013,List1A,white,man,,,,null,,,,
null,is touching,,html-keyboard-response,96,368277,0.0-13.0-2.11,38013,List1A,white,man,,,,null,,,,
5996,,,survey-text,97,374274,0.0-13.0-3.11,38013,List1A,white,man,,,,,"{""Q0"":""kate is touching mike""}","<img src=""stim_listA/touch1.gif""</stim_listA>",is touching,
null,"<div style=""font-size:60px;"">+</div>",,html-keyboard-response,98,374775,0.0-13.0-0.12,38013,List1A,white,man,,,,null,,,,
null,"<img src=""stim_listA/touch3.gif""</stim_listA>",,html-keyboard-response,99,376778,0.0-13.0-1.12,38013,List1A,white,man,,,,null,,,,
null,is touching,,html-keyboard-response,100,378779,0.0-13.0-2.12,38013,List1A,white,man,,,,null,,,,
13691,,,survey-text,101,392473,0.0-13.0-3.12,38013,List1A,white,man,,,,,"{""Q0"":""dave is touching jane""}","<img src=""stim_listA/touch3.gif""</stim_listA>",is touching,
null,"<div style=""font-size:60px;"">+</div>",,html-keyboard-response,102,392975,0.0-13.0-0.13,38013,List1A,white,man,,,,null,,,,
null,"<img src=""stim_listA/talk7.gif""</stim_listA>",,html-keyboard-response,103,394976,0.0-13.0-1.13,38013,List1A,white,man,,,,null,,,,
null,is talking to,,html-keyboard-response,104,396977,0.0-13.0-2.13,38013,List1A,white,man,,,,null,,,,
5778,,,survey-text,105,402756,0.0-13.0-3.13,38013,List1A,white,man,,,,,"{""Q0"":""jane is talking to beth""}","<img src=""stim_listA/talk7.gif""</stim_listA>",is talking to,
null,"<div style=""font-size:60px;"">+</div>",,html-keyboard-response,106,403258,0.0-13.0-0.14,38013,List1A,white,man,,,,null,,,,
null,"<img src=""stim_listA/talk2.gif""</stim_listA>",,html-keyboard-response,107,405260,0.0-13.0-1.14,38013,List1A,white,man,,,,null,,,,
null,are talking to each other,,html-keyboard-response,108,407262,0.0-13.0-2.14,38013,List1A,white,man,,,,null,,,,
9362,,,survey-text,109,416625,0.0-13.0-3.14,38013,List1A,white,man,,,,,"{""Q0"":""mike and beth are talking to each other""}","<img src=""stim_listA/talk2.gif""</stim_listA>",are talking to each other,
null,"<div style=""font-size:60px;"">+</div>",,html-keyboard-response,110,417127,0.0-13.0-0.15,38013,List1A,white,man,,,,null,,,,
null,"<img src=""stim_listA/touch5.gif""</stim_listA>",,html-keyboard-response,111,419129,0.0-13.0-1.15,38013,List1A,white,man,,,,null,,,,
null,is touching,,html-keyboard-response,112,421130,0.0-13.0-2.15,38013,List1A,white,man,,,,null,,,,
5221,,,survey-text,113,426352,0.0-13.0-3.15,38013,List1A,white,man,,,,,"{""Q0"":""dave is touching mike""}","<img src=""stim_listA/touch5.gif""</stim_listA>",is touching,
null,"<div style=""font-size:60px;"">+</div>",,html-keyboard-response,114,426854,0.0-13.0-0.16,38013,List1A,white,man,,,,null,,,,
null,"<img src=""stim_listA/marry7.gif""</stim_listA>",,html-keyboard-response,115,428856,0.0-13.0-1.16,38013,List1A,white,man,,,,null,,,,
null,is marrying,,html-keyboard-response,116,430857,0.0-13.0-2.16,38013,List1A,white,man,,,,null,,,,
9033,,,survey-text,117,439891,0.0-13.0-3.16,38013,List1A,white,man,,,,,"{""Q0"":""kate is marrying ruth""}","<img src=""stim_listA/marry7.gif""</stim_listA>",is marrying,
null,"<div style=""font-size:60px;"">+</div>",,html-keyboard-response,118,440392,0.0-13.0-0.17,38013,List1A,white,man,,,,null,,,,
null,"<img src=""stim_listA/argue4.gif""</stim_listA>",,html-keyboard-response,119,442393,0.0-13.0-1.17,38013,List1A,white,man,,,,null,,,,
null,are arguing with each other,,html-keyboard-response,120,444394,0.0-13.0-2.17,38013,List1A,white,man,,,,null,,,,
7684,,,survey-text,121,452079,0.0-13.0-3.17,38013,List1A,white,man,,,,,"{""Q0"":""jane and luke are arguing with each other""}","<img src=""stim_listA/argue4.gif""</stim_listA>",are arguing with each other,
null,"<div style=""font-size:60px;"">+</div>",,html-keyboard-response,122,452581,0.0-13.0-0.18,38013,List1A,white,man,,,,null,,,,
null,"<img src=""stim_listA/meet1.gif""</stim_listA>",,html-keyboard-response,123,454583,0.0-13.0-1.18,38013,List1A,white,man,,,,null,,,,
null,is meeting,,html-keyboard-response,124,456584,0.0-13.0-2.18,38013,List1A,white,man,,,,null,,,,
4822,,,survey-text,125,461406,0.0-13.0-3.18,38013,List1A,white,man,,,,,"{""Q0"":""mike is meeting kate""}","<img src=""stim_listA/meet1.gif""</stim_listA>",is meeting,
null,"<div style=""font-size:60px;"">+</div>",,html-keyboard-response,126,461907,0.0-13.0-0.19,38013,List1A,white,man,,,,null,,,,
null,"<img src=""stim_listA/argue7.gif""</stim_listA>",,html-keyboard-response,127,463909,0.0-13.0-1.19,38013,List1A,white,man,,,,null,,,,
null,is arguing with,,html-keyboard-response,128,465910,0.0-13.0-2.19,38013,List1A,white,man,,,,null,,,,
6685,,,survey-text,129,472597,0.0-13.0-3.19,38013,List1A,white,man,,,,,"{""Q0"":""kate is arguing with ruth""}","<img src=""stim_listA/argue7.gif""</stim_listA>",is arguing with,
4471,"<img src='img/portrait_matrix_list1.JPG' style='width:900px;height:500px;''></img><p>If you have memorised all the portraits and names and are ready to start, press Continue.</p><p><strong>Please note: Your memory of these faces will be tested 4 times during this experiment.</strong></p>",0,html-button-response,130,477069,0.0-14.0-0.0,38013,List1A,white,man,,,,,,,,
2511,"<img src=""portrait/BW2.jpg""style=""width:400px;height:400px;""></img>",2,html-button-response,131,480581,0.0-14.0-1.0,38013,List1A,white,man,,TRUE,2,,,,,
null,CORRECT,,html-keyboard-response,132,482084,0.0-14.0-2.0-0.0,38013,List1A,white,man,,,,null,,,,
3071,"<img src=""portrait/WW2.jpg""style=""width:400px;height:400px;""></img>",3,html-button-response,133,485156,0.0-14.0-4.0,38013,List1A,white,man,,TRUE,3,,,,,
null,CORRECT,,html-keyboard-response,134,486659,0.0-14.0-5.0-0.0,38013,List1A,white,man,,,,null,,,,
1468,"<img src=""portrait/BM2.jpg""style=""width:400px;height:400px;""></img>",5,html-button-response,135,488128,0.0-14.0-7.0,38013,List1A,white,man,,TRUE,5,,,,,
null,CORRECT,,html-keyboard-response,136,489631,0.0-14.0-8.0-0.0,38013,List1A,white,man,,,,null,,,,
1184,"<img src=""portrait/WM2.jpg""style=""width:400px;height:400px;""></img>",7,html-button-response,137,490817,0.0-14.0-10.0,38013,List1A,white,man,,TRUE,7,,,,,
null,CORRECT,,html-keyboard-response,138,492319,0.0-14.0-11.0-0.0,38013,List1A,white,man,,,,null,,,,
1550,"<img src=""portrait/BM1.jpg""style=""width:400px;height:400px;""></img>",4,html-button-response,139,493872,0.0-14.0-13.0,38013,List1A,white,man,,TRUE,4,,,,,
null,CORRECT,,html-keyboard-response,140,495374,0.0-14.0-14.0-0.0,38013,List1A,white,man,,,,null,,,,
1692,"<img src=""portrait/WM1.jpg""style=""width:400px;height:400px;""></img>",6,html-button-response,141,497069,0.0-14.0-16.0,38013,List1A,white,man,,TRUE,6,,,,,
null,CORRECT,,html-keyboard-response,142,498571,0.0-14.0-17.0-0.0,38013,List1A,white,man,,,,null,,,,
1459,"<img src=""portrait/WW1.jpg""style=""width:400px;height:400px;""></img>",1,html-button-response,143,500033,0.0-14.0-19.0,38013,List1A,white,man,,TRUE,1,,,,,
null,CORRECT,,html-keyboard-response,144,501534,0.0-14.0-20.0-0.0,38013,List1A,white,man,,,,null,,,,
993,"<img src=""portrait/BW1.jpg""style=""width:400px;height:400px;""></img>",0,html-button-response,145,502529,0.0-14.0-22.0,38013,List1A,white,man,,TRUE,0,,,,,
null,CORRECT,,html-keyboard-response,146,504031,0.0-14.0-23.0-0.0,38013,List1A,white,man,,,,null,,,,
803,<p>You got 8 out of 8 right first time. Press Continue.</p>,0,html-button-response,147,504836,0.0-14.0-25.0,38013,List1A,white,man,,,,,,,,
null,"<div style=""font-size:60px;"">+</div>",,html-keyboard-response,148,506339,0.0-15.0-0.0,38013,List1A,white,man,,,,null,,,,
null,"<img src=""stim_listA/talk5.gif""</stim_listA>",,html-keyboard-response,149,508340,0.0-15.0-1.0,38013,List1A,white,man,,,,null,,,,
null,is talking to,,html-keyboard-response,150,510341,0.0-15.0-2.0,38013,List1A,white,man,,,,null,,,,
7258,,,survey-text,151,517601,0.0-15.0-3.0,38013,List1A,white,man,,,,,"{""Q0"":""fred is talking to dave""}","<img src=""stim_listA/talk5.gif""</stim_listA>",is talking to,
null,"<div style=""font-size:60px;"">+</div>",,html-keyboard-response,152,518105,0.0-15.0-0.1,38013,List1A,white,man,,,,null,,,,
null,"<img src=""stim_listA/fight6.gif""</stim_listA>",,html-keyboard-response,153,520107,0.0-15.0-1.1,38013,List1A,white,man,,,,null,,,,
null,are fighting each other,,html-keyboard-response,154,522108,0.0-15.0-2.1,38013,List1A,white,man,,,,null,,,,
7970,,,survey-text,155,530079,0.0-15.0-3.1,38013,List1A,white,man,,,,,"{""Q0"":""fred and luke are fighting each other""}","<img src=""stim_listA/fight6.gif""</stim_listA>",are fighting each other,
null,"<div style=""font-size:60px;"">+</div>",,html-keyboard-response,156,530580,0.0-15.0-0.2,38013,List1A,white,man,,,,null,,,,
null,"<img src=""stim_listA/fight2.gif""</stim_listA>",,html-keyboard-response,157,532581,0.0-15.0-1.2,38013,List1A,white,man,,,,null,,,,
null,are fighting each other,,html-keyboard-response,158,534582,0.0-15.0-2.2,38013,List1A,white,man,,,,null,,,,
7662,,,survey-text,159,542246,0.0-15.0-3.2,38013,List1A,white,man,,,,,"{""Q0"":""fred and beth are fighting each other""}","<img src=""stim_listA/fight2.gif""</stim_listA>",are fighting each other,
null,"<div style=""font-size:60px;"">+</div>",,html-keyboard-response,160,542747,0.0-15.0-0.3,38013,List1A,white,man,,,,null,,,,
null,"<img src=""stim_listA/dance3.gif""</stim_listA>",,html-keyboard-response,161,544750,0.0-15.0-1.3,38013,List1A,white,man,,,,null,,,,
null,is dancing with,,html-keyboard-response,162,546751,0.0-15.0-2.3,38013,List1A,white,man,,,,null,,,,
7185,,,survey-text,163,553937,0.0-15.0-3.3,38013,List1A,white,man,,,,,"{""Q0"":""jane is dancing with luke""}","<img src=""stim_listA/dance3.gif""</stim_listA>",is dancing with,
null,"<div style=""font-size:60px;"">+</div>",,html-keyboard-response,164,554439,0.0-15.0-0.4,38013,List1A,white,man,,,,null,,,,
null,"<img src=""stim_listA/shout4.gif""</stim_listA>",,html-keyboard-response,165,556441,0.0-15.0-1.4,38013,List1A,white,man,,,,null,,,,
null,are shouting at each other,,html-keyboard-response,166,558442,0.0-15.0-2.4,38013,List1A,white,man,,,,null,,,,
7350,,,survey-text,167,565793,0.0-15.0-3.4,38013,List1A,white,man,,,,,"{""Q0"":""dave and jane are shouting at each other""}","<img src=""stim_listA/shout4.gif""</stim_listA>",are shouting at each other,
null,"<div style=""font-size:60px;"">+</div>",,html-keyboard-response,168,566295,0.0-15.0-0.5,38013,List1A,white,man,,,,null,,,,
null,"<img src=""stim_listA/fight1.gif""</stim_listA>",,html-keyboard-response,169,568298,0.0-15.0-1.5,38013,List1A,white,man,,,,null,,,,
null,is fighting,,html-keyboard-response,170,570299,0.0-15.0-2.5,38013,List1A,white,man,,,,null,,,,
5368,,,survey-text,171,575669,0.0-15.0-3.5,38013,List1A,white,man,,,,,"{""Q0"":""kate is fighting mike""}","<img src=""stim_listA/fight1.gif""</stim_listA>",is fighting,
null,"<div style=""font-size:60px;"">+</div>",,html-keyboard-response,172,576171,0.0-15.0-0.6,38013,List1A,white,man,,,,null,,,,
null,"<img src=""stim_listA/shout8.gif""</stim_listA>",,html-keyboard-response,173,578173,0.0-15.0-1.6,38013,List1A,white,man,,,,null,,,,
null,are shouting at each other,,html-keyboard-response,174,580174,0.0-15.0-2.6,38013,List1A,white,man,,,,null,,,,
11178,,,survey-text,175,591354,0.0-15.0-3.6,38013,List1A,white,man,,,,,"{""Q0"":""kate and jane are shouting at each other""}","<img src=""stim_listA/shout8.gif""</stim_listA>",are shouting at each other,
null,"<div style=""font-size:60px;"">+</div>",,html-keyboard-response,176,591855,0.0-15.0-0.7,38013,List1A,white,man,,,,null,,,,
null,"<img src=""stim_listA/marry4.gif""</stim_listA>",,html-keyboard-response,177,593857,0.0-15.0-1.7,38013,List1A,white,man,,,,null,,,,
null,are marrying each other,,html-keyboard-response,178,595859,0.0-15.0-2.7,38013,List1A,white,man,,,,null,,,,
7491,,,survey-text,179,603350,0.0-15.0-3.7,38013,List1A,white,man,,,,,"{""Q0"":""jane and luke are marrying each other""}","<img src=""stim_listA/marry4.gif""</stim_listA>",are marrying each other,
null,"<div style=""font-size:60px;"">+</div>",,html-keyboard-response,180,603852,0.0-15.0-0.8,38013,List1A,white,man,,,,null,,,,
null,"<img src=""stim_listA/fight5.gif""</stim_listA>",,html-keyboard-response,181,605854,0.0-15.0-1.8,38013,List1A,white,man,,,,null,,,,
null,is fighting,,html-keyboard-response,182,607856,0.0-15.0-2.8,38013,List1A,white,man,,,,null,,,,
5794,,,survey-text,183,613652,0.0-15.0-3.8,38013,List1A,white,man,,,,,"{""Q0"":""mike is fighting dave""}","<img src=""stim_listA/fight5.gif""</stim_listA>",is fighting,
null,"<div style=""font-size:60px;"">+</div>",,html-keyboard-response,184,614153,0.0-15.0-0.9,38013,List1A,white,man,,,,null,,,,
null,"<img src=""stim_listA/marry3.gif""</stim_listA>",,html-keyboard-response,185,616155,0.0-15.0-1.9,38013,List1A,white,man,,,,null,,,,
null,is marrying,,html-keyboard-response,186,618156,0.0-15.0-2.9,38013,List1A,white,man,,,,null,,,,
6606,,,survey-text,187,624763,0.0-15.0-3.9,38013,List1A,white,man,,,,,"{""Q0"":""dave is marrying ruth""}","<img src=""stim_listA/marry3.gif""</stim_listA>",is marrying,
null,"<div style=""font-size:60px;"">+</div>",,html-keyboard-response,188,625265,0.0-15.0-0.10,38013,List1A,white,man,,,,null,,,,
null,"<img src=""stim_listA/dance6.gif""</stim_listA>",,html-keyboard-response,189,627267,0.0-15.0-1.10,38013,List1A,white,man,,,,null,,,,
null,are dancing with each other,,html-keyboard-response,190,629268,0.0-15.0-2.10,38013,List1A,white,man,,,,null,,,,
13708,,,survey-text,191,642977,0.0-15.0-3.10,38013,List1A,white,man,,,,,"{""Q0"":""luke and mike are dancing with each other""}","<img src=""stim_listA/dance6.gif""</stim_listA>",are dancing with each other,
null,"<div style=""font-size:60px;"">+</div>",,html-keyboard-response,192,643478,0.0-15.0-0.11,38013,List1A,white,man,,,,null,,,,
null,"<img src=""stim_listA/argue5.gif""</stim_listA>",,html-keyboard-response,193,645480,0.0-15.0-1.11,38013,List1A,white,man,,,,null,,,,
null,is arguing with,,html-keyboard-response,194,647481,0.0-15.0-2.11,38013,List1A,white,man,,,,null,,,,
6885,,,survey-text,195,654367,0.0-15.0-3.11,38013,List1A,white,man,,,,,"{""Q0"":""luke is arguing with mike""}","<img src=""stim_listA/argue5.gif""</stim_listA>",is arguing with,
null,"<div style=""font-size:60px;"">+</div>",,html-keyboard-response,196,654869,0.0-15.0-0.12,38013,List1A,white,man,,,,null,,,,
null,"<img src=""stim_listA/talk1.gif""</stim_listA>",,html-keyboard-response,197,656871,0.0-15.0-1.12,38013,List1A,white,man,,,,null,,,,
null,is talking to,,html-keyboard-response,198,658872,0.0-15.0-2.12,38013,List1A,white,man,,,,null,,,,
8133,,,survey-text,199,667006,0.0-15.0-3.12,38013,List1A,white,man,,,,,"{""Q0"":""fred is talking to kate""}","<img src=""stim_listA/talk1.gif""</stim_listA>",is talking to,
null,"<div style=""font-size:60px;"">+</div>",,html-keyboard-response,200,667508,0.0-15.0-0.13,38013,List1A,white,man,,,,null,,,,
null,"<img src=""stim_listA/hug5.gif""</stim_listA>",,html-keyboard-response,201,669509,0.0-15.0-1.13,38013,List1A,white,man,,,,null,,,,
null,is hugging,,html-keyboard-response,202,671511,0.0-15.0-2.13,38013,List1A,white,man,,,,null,,,,
8445,,,survey-text,203,679957,0.0-15.0-3.13,38013,List1A,white,man,,,,,"{""Q0"":""luke is hugging fred""}","<img src=""stim_listA/hug5.gif""</stim_listA>",is hugging,
null,"<div style=""font-size:60px;"">+</div>",,html-keyboard-response,204,680458,0.0-15.0-0.14,38013,List1A,white,man,,,,null,,,,
null,"<img src=""stim_listA/dance1.gif""</stim_listA>",,html-keyboard-response,205,682459,0.0-15.0-1.14,38013,List1A,white,man,,,,null,,,,
null,is dancing with,,html-keyboard-response,206,684460,0.0-15.0-2.14,38013,List1A,white,man,,,,null,,,,
6139,,,survey-text,207,690601,0.0-15.0-3.14,38013,List1A,white,man,,,,,"{""Q0"":""fred is dancing with kate""}","<img src=""stim_listA/dance1.gif""</stim_listA>",is dancing with,
null,"<div style=""font-size:60px;"">+</div>",,html-keyboard-response,208,691102,0.0-15.0-0.15,38013,List1A,white,man,,,,null,,,,
null,"<img src=""stim_listA/argue8.gif""</stim_listA>",,html-keyboard-response,209,693105,0.0-15.0-1.15,38013,List1A,white,man,,,,null,,,,
null,are arguing with each other,,html-keyboard-response,210,695106,0.0-15.0-2.15,38013,List1A,white,man,,,,null,,,,
10023,,,survey-text,211,705130,0.0-15.0-3.15,38013,List1A,white,man,,,,,"{""Q0"":""jane and beth are arguing with each other""}","<img src=""stim_listA/argue8.gif""</stim_listA>",are arguing with each other,
null,"<div style=""font-size:60px;"">+</div>",,html-keyboard-response,212,705632,0.0-15.0-0.16,38013,List1A,white,man,,,,null,,,,
null,"<img src=""stim_listA/argue1.gif""</stim_listA>",,html-keyboard-response,213,707634,0.0-15.0-1.16,38013,List1A,white,man,,,,null,,,,
null,is arguing with,,html-keyboard-response,214,709639,0.0-15.0-2.16,38013,List1A,white,man,,,,null,,,,
6821,,,survey-text,215,716461,0.0-15.0-3.16,38013,List1A,white,man,,,,,"{""Q0"":""mike is arguing with beth""}","<img src=""stim_listA/argue1.gif""</stim_listA>",is arguing with,
null,"<div style=""font-size:60px;"">+</div>",,html-keyboard-response,216,716963,0.0-15.0-0.17,38013,List1A,white,man,,,,null,,,,
null,"<img src=""stim_listA/hug1.gif""</stim_listA>",,html-keyboard-response,217,718965,0.0-15.0-1.17,38013,List1A,white,man,,,,null,,,,
null,is hugging,,html-keyboard-response,218,720966,0.0-15.0-2.17,38013,List1A,white,man,,,,null,,,,
6920,,,survey-text,219,727886,0.0-15.0-3.17,38013,List1A,white,man,,,,,"{""Q0"":""fred is hugging beth""}","<img src=""stim_listA/hug1.gif""</stim_listA>",is hugging,
null,"<div style=""font-size:60px;"">+</div>",,html-keyboard-response,220,728388,0.0-15.0-0.18,38013,List1A,white,man,,,,null,,,,
null,"<img src=""stim_listA/talk3.gif""</stim_listA>",,html-keyboard-response,221,730391,0.0-15.0-1.18,38013,List1A,white,man,,,,null,,,,
null,is talking to,,html-keyboard-response,222,732393,0.0-15.0-2.18,38013,List1A,white,man,,,,null,,,,
6997,,,survey-text,223,739390,0.0-15.0-3.18,38013,List1A,white,man,,,,,"{""Q0"":""jane is talking to luke""}","<img src=""stim_listA/talk3.gif""</stim_listA>",is talking to,
null,"<div style=""font-size:60px;"">+</div>",,html-keyboard-response,224,739892,0.0-15.0-0.19,38013,List1A,white,man,,,,null,,,,
null,"<img src=""stim_listA/argue6.gif""</stim_listA>",,html-keyboard-response,225,741894,0.0-15.0-1.19,38013,List1A,white,man,,,,null,,,,
null,are arguing with each other,,html-keyboard-response,226,743896,0.0-15.0-2.19,38013,List1A,white,man,,,,null,,,,
8881,,,survey-text,227,752779,0.0-15.0-3.19,38013,List1A,white,man,,,,,"{""Q0"":""fred and dave are arguing with each other""}","<img src=""stim_listA/argue6.gif""</stim_listA>",are arguing with each other,
1987,"<img src='img/portrait_matrix_list1.JPG' style='width:900px;height:500px;''></img><p>If you have memorised all the portraits and names and are ready to start, press Continue.</p><p><strong>Please note: Your memory of these faces will be tested 4 times during this experiment.</strong></p>",0,html-button-response,228,754766,0.0-16.0-0.0,38013,List1A,white,man,,,,,,,,
1909,"<img src=""portrait/BM1.jpg""style=""width:400px;height:400px;""></img>",4,html-button-response,229,757679,0.0-16.0-1.0,38013,List1A,white,man,,TRUE,4,,,,,
null,CORRECT,,html-keyboard-response,230,759181,0.0-16.0-2.0-0.0,38013,List1A,white,man,,,,null,,,,
1665,"<img src=""portrait/WW1.jpg""style=""width:400px;height:400px;""></img>",1,html-button-response,231,760849,0.0-16.0-4.0,38013,List1A,white,man,,TRUE,1,,,,,
null,CORRECT,,html-keyboard-response,232,762352,0.0-16.0-5.0-0.0,38013,List1A,white,man,,,,null,,,,
2100,"<img src=""portrait/WM1.jpg""style=""width:400px;height:400px;""></img>",6,html-button-response,233,764454,0.0-16.0-7.0,38013,List1A,white,man,,TRUE,6,,,,,
null,CORRECT,,html-keyboard-response,234,765956,0.0-16.0-8.0-0.0,38013,List1A,white,man,,,,null,,,,
3020,"<img src=""portrait/BM2.jpg""style=""width:400px;height:400px;""></img>",5,html-button-response,235,768978,0.0-16.0-10.0,38013,List1A,white,man,,TRUE,5,,,,,
null,CORRECT,,html-keyboard-response,236,770481,0.0-16.0-11.0-0.0,38013,List1A,white,man,,,,null,,,,
1189,"<img src=""portrait/WW2.jpg""style=""width:400px;height:400px;""></img>",3,html-button-response,237,771672,0.0-16.0-13.0,38013,List1A,white,man,,TRUE,3,,,,,
null,CORRECT,,html-keyboard-response,238,773174,0.0-16.0-14.0-0.0,38013,List1A,white,man,,,,null,,,,
1313,"<img src=""portrait/BW2.jpg""style=""width:400px;height:400px;""></img>",2,html-button-response,239,774489,0.0-16.0-16.0,38013,List1A,white,man,,TRUE,2,,,,,
null,CORRECT,,html-keyboard-response,240,775992,0.0-16.0-17.0-0.0,38013,List1A,white,man,,,,null,,,,
1897,"<img src=""portrait/BW1.jpg""style=""width:400px;height:400px;""></img>",0,html-button-response,241,777890,0.0-16.0-19.0,38013,List1A,white,man,,TRUE,0,,,,,
null,CORRECT,,html-keyboard-response,242,779392,0.0-16.0-20.0-0.0,38013,List1A,white,man,,,,null,,,,
1181,"<img src=""portrait/WM2.jpg""style=""width:400px;height:400px;""></img>",7,html-button-response,243,780575,0.0-16.0-22.0,38013,List1A,white,man,,TRUE,7,,,,,
null,CORRECT,,html-keyboard-response,244,782076,0.0-16.0-23.0-0.0,38013,List1A,white,man,,,,null,,,,
852,<p>You got 8 out of 8 right first time. Press Continue.</p>,0,html-button-response,245,782930,0.0-16.0-25.0,38013,List1A,white,man,,,,,,,,
null,"<div style=""font-size:60px;"">+</div>",,html-keyboard-response,246,784433,0.0-17.0-0.0,38013,List1A,white,man,,,,null,,,,
null,"<img src=""stim_listA/kiss1.gif""</stim_listA>",,html-keyboard-response,247,786436,0.0-17.0-1.0,38013,List1A,white,man,,,,null,,,,
null,is kissing,,html-keyboard-response,248,788437,0.0-17.0-2.0,38013,List1A,white,man,,,,null,,,,
6565,,,survey-text,249,795004,0.0-17.0-3.0,38013,List1A,white,man,,,,,"{""Q0"":""fred is kissing beth""}","<img src=""stim_listA/kiss1.gif""</stim_listA>",is kissing,
null,"<div style=""font-size:60px;"">+</div>",,html-keyboard-response,250,795506,0.0-17.0-0.1,38013,List1A,white,man,,,,null,,,,
null,"<img src=""stim_listA/fight4.gif""</stim_listA>",,html-keyboard-response,251,797508,0.0-17.0-1.1,38013,List1A,white,man,,,,null,,,,
null,are fighting each other,,html-keyboard-response,252,799511,0.0-17.0-2.1,38013,List1A,white,man,,,,null,,,,
7468,,,survey-text,253,806981,0.0-17.0-3.1,38013,List1A,white,man,,,,,"{""Q0"":""ruth and luke are fighting each other""}","<img src=""stim_listA/fight4.gif""</stim_listA>",are fighting each other,
null,"<div style=""font-size:60px;"">+</div>",,html-keyboard-response,254,807482,0.0-17.0-0.2,38013,List1A,white,man,,,,null,,,,
null,"<img src=""stim_listA/hug2.gif""</stim_listA>",,html-keyboard-response,255,809484,0.0-17.0-1.2,38013,List1A,white,man,,,,null,,,,
null,are hugging each other,,html-keyboard-response,256,811485,0.0-17.0-2.2,38013,List1A,white,man,,,,null,,,,
8747,,,survey-text,257,820234,0.0-17.0-3.2,38013,List1A,white,man,,,,,"{""Q0"":""mike and kate are hugging each other""}","<img src=""stim_listA/hug2.gif""</stim_listA>",are hugging each other,
null,"<div style=""font-size:60px;"">+</div>",,html-keyboard-response,258,820735,0.0-17.0-0.3,38013,List1A,white,man,,,,null,,,,
null,"<img src=""stim_listA/touch6.gif""</stim_listA>",,html-keyboard-response,259,822738,0.0-17.0-1.3,38013,List1A,white,man,,,,null,,,,
null,are touching each other,,html-keyboard-response,260,824739,0.0-17.0-2.3,38013,List1A,white,man,,,,null,,,,
10036,,,survey-text,261,834776,0.0-17.0-3.3,38013,List1A,white,man,,,,,"{""Q0"":""fred and luke are touching each other""}","<img src=""stim_listA/touch6.gif""</stim_listA>",are touching each other,
null,"<div style=""font-size:60px;"">+</div>",,html-keyboard-response,262,835277,0.0-17.0-0.4,38013,List1A,white,man,,,,null,,,,
null,"<img src=""stim_listA/hug7.gif""</stim_listA>",,html-keyboard-response,263,837279,0.0-17.0-1.4,38013,List1A,white,man,,,,null,,,,
null,is hugging,,html-keyboard-response,264,839282,0.0-17.0-2.4,38013,List1A,white,man,,,,null,,,,
9986,,,survey-text,265,849268,0.0-17.0-3.4,38013,List1A,white,man,,,,,"{""Q0"":""ruth is hugging beth""}","<img src=""stim_listA/hug7.gif""</stim_listA>",is hugging,
null,"<div style=""font-size:60px;"">+</div>",,html-keyboard-response,266,849770,0.0-17.0-0.5,38013,List1A,white,man,,,,null,,,,
null,"<img src=""stim_listA/marry8.gif""</stim_listA>",,html-keyboard-response,267,851772,0.0-17.0-1.5,38013,List1A,white,man,,,,null,,,,
null,are marrying each other,,html-keyboard-response,268,853774,0.0-17.0-2.5,38013,List1A,white,man,,,,null,,,,
8154,,,survey-text,269,861929,0.0-17.0-3.5,38013,List1A,white,man,,,,,"{""Q0"":""beth and jane are marrying each other""}","<img src=""stim_listA/marry8.gif""</stim_listA>",are marrying each other,
null,"<div style=""font-size:60px;"">+</div>",,html-keyboard-response,270,862431,0.0-17.0-0.6,38013,List1A,white,man,,,,null,,,,
null,"<img src=""stim_listA/kiss4.gif""</stim_listA>",,html-keyboard-response,271,864433,0.0-17.0-1.6,38013,List1A,white,man,,,,null,,,,
null,are kissing each other,,html-keyboard-response,272,866434,0.0-17.0-2.6,38013,List1A,white,man,,,,null,,,,
11563,,,survey-text,273,877999,0.0-17.0-3.6,38013,List1A,white,man,,,,,"{""Q0"":""dave and jane are kissing each other""}","<img src=""stim_listA/kiss4.gif""</stim_listA>",are kissing each other,
null,"<div style=""font-size:60px;"">+</div>",,html-keyboard-response,274,878501,0.0-17.0-0.7,38013,List1A,white,man,,,,null,,,,
null,"<img src=""stim_listA/shout1.gif""</stim_listA>",,html-keyboard-response,275,880503,0.0-17.0-1.7,38013,List1A,white,man,,,,null,,,,
null,is shouting at,,html-keyboard-response,276,882504,0.0-17.0-2.7,38013,List1A,white,man,,,,null,,,,
5675,,,survey-text,277,888180,0.0-17.0-3.7,38013,List1A,white,man,,,,,"{""Q0"":""fred is shouting at beth""}","<img src=""stim_listA/shout1.gif""</stim_listA>",is shouting at,
null,"<div style=""font-size:60px;"">+</div>",,html-keyboard-response,278,888682,0.0-17.0-0.8,38013,List1A,white,man,,,,null,,,,
null,"<img src=""stim_listA/touch7.gif""</stim_listA>",,html-keyboard-response,279,890685,0.0-17.0-1.8,38013,List1A,white,man,,,,null,,,,
null,is touching,,html-keyboard-response,280,892687,0.0-17.0-2.8,38013,List1A,white,man,,,,null,,,,
7237,,,survey-text,281,899926,0.0-17.0-3.8,38013,List1A,white,man,,,,,"{""Q0"":""jane is touching kate""}","<img src=""stim_listA/touch7.gif""</stim_listA>",is touching,
null,"<div style=""font-size:60px;"">+</div>",,html-keyboard-response,282,900428,0.0-17.0-0.9,38013,List1A,white,man,,,,null,,,,
null,"<img src=""stim_listA/hug3.gif""</stim_listA>",,html-keyboard-response,283,902430,0.0-17.0-1.9,38013,List1A,white,man,,,,null,,,,
null,is hugging,,html-keyboard-response,284,904432,0.0-17.0-2.9,38013,List1A,white,man,,,,null,,,,
6716,,,survey-text,285,911148,0.0-17.0-3.9,38013,List1A,white,man,,,,,"{""Q0"":""luke is hugging ruth""}","<img src=""stim_listA/hug3.gif""</stim_listA>",is hugging,
null,"<div style=""font-size:60px;"">+</div>",,html-keyboard-response,286,911650,0.0-17.0-0.10,38013,List1A,white,man,,,,null,,,,
null,"<img src=""stim_listA/kiss5.gif""</stim_listA>",,html-keyboard-response,287,913652,0.0-17.0-1.10,38013,List1A,white,man,,,,null,,,,
null,is kissing,,html-keyboard-response,288,915654,0.0-17.0-2.10,38013,List1A,white,man,,,,null,,,,
6330,,,survey-text,289,921986,0.0-17.0-3.10,38013,List1A,white,man,,,,,"{""Q0"":""luke is kissing fred""}","<img src=""stim_listA/kiss5.gif""</stim_listA>",is kissing,
null,"<div style=""font-size:60px;"">+</div>",,html-keyboard-response,290,922487,0.0-17.0-0.11,38013,List1A,white,man,,,,null,,,,
null,"<img src=""stim_listA/meet4.gif""</stim_listA>",,html-keyboard-response,291,924490,0.0-17.0-1.11,38013,List1A,white,man,,,,null,,,,
null,are meeting each other,,html-keyboard-response,292,926491,0.0-17.0-2.11,38013,List1A,white,man,,,,null,,,,
7217,,,survey-text,293,933709,0.0-17.0-3.11,38013,List1A,white,man,,,,,"{""Q0"":""ruth and luke are meeting each other""}","<img src=""stim_listA/meet4.gif""</stim_listA>",are meeting each other,
null,"<div style=""font-size:60px;"">+</div>",,html-keyboard-response,294,934211,0.0-17.0-0.12,38013,List1A,white,man,,,,null,,,,
null,"<img src=""stim_listA/hug4.gif""</stim_listA>",,html-keyboard-response,295,936213,0.0-17.0-1.12,38013,List1A,white,man,,,,null,,,,
null,are hugging each other,,html-keyboard-response,296,938214,0.0-17.0-2.12,38013,List1A,white,man,,,,null,,,,
11870,,,survey-text,297,950085,0.0-17.0-3.12,38013,List1A,white,man,,,,,"{""Q0"":""jane and dave are hugging each other""}","<img src=""stim_listA/hug4.gif""</stim_listA>",are hugging each other,
null,"<div style=""font-size:60px;"">+</div>",,html-keyboard-response,298,950587,0.0-17.0-0.13,38013,List1A,white,man,,,,null,,,,
null,"<img src=""stim_listA/kiss2.gif""</stim_listA>",,html-keyboard-response,299,952591,0.0-17.0-1.13,38013,List1A,white,man,,,,null,,,,
null,are kissing each other,,html-keyboard-response,300,954593,0.0-17.0-2.13,38013,List1A,white,man,,,,null,,,,
9481,,,survey-text,301,964075,0.0-17.0-3.13,38013,List1A,white,man,,,,,"{""Q0"":""mike and jane are kissing each other""}","<img src=""stim_listA/kiss2.gif""</stim_listA>",are kissing each other,
null,"<div style=""font-size:60px;"">+</div>",,html-keyboard-response,302,964577,0.0-17.0-0.14,38013,List1A,white,man,,,,null,,,,
null,"<img src=""stim_listA/meet2.gif""</stim_listA>",,html-keyboard-response,303,966579,0.0-17.0-1.14,38013,List1A,white,man,,,,null,,,,
null,are meeting each other,,html-keyboard-response,304,968580,0.0-17.0-2.14,38013,List1A,white,man,,,,null,,,,
7898,,,survey-text,305,976480,0.0-17.0-3.14,38013,List1A,white,man,,,,,"{""Q0"":""fred and beth are meeting each other""}","<img src=""stim_listA/meet2.gif""</stim_listA>",are meeting each other,
null,"<div style=""font-size:60px;"">+</div>",,html-keyboard-response,306,976982,0.0-17.0-0.15,38013,List1A,white,man,,,,null,,,,
null,"<img src=""stim_listA/shout7.gif""</stim_listA>",,html-keyboard-response,307,978984,0.0-17.0-1.15,38013,List1A,white,man,,,,null,,,,
null,is shouting at,,html-keyboard-response,308,980985,0.0-17.0-2.15,38013,List1A,white,man,,,,null,,,,
7456,,,survey-text,309,988442,0.0-17.0-3.15,38013,List1A,white,man,,,,,"{""Q0"":""ruth is shouting at beth""}","<img src=""stim_listA/shout7.gif""</stim_listA>",is shouting at,
null,"<div style=""font-size:60px;"">+</div>",,html-keyboard-response,310,988943,0.0-17.0-0.16,38013,List1A,white,man,,,,null,,,,
null,"<img src=""stim_listA/shout2.gif""</stim_listA>",,html-keyboard-response,311,990945,0.0-17.0-1.16,38013,List1A,white,man,,,,null,,,,
null,are shouting at each other,,html-keyboard-response,312,992946,0.0-17.0-2.16,38013,List1A,white,man,,,,null,,,,
12357,,,survey-text,313,1005305,0.0-17.0-3.16,38013,List1A,white,man,,,,,"{""Q0"":""kate and mike are shouting at each other""}","<img src=""stim_listA/shout2.gif""</stim_listA>",are shouting at each other,
null,"<div style=""font-size:60px;"">+</div>",,html-keyboard-response,314,1005807,0.0-17.0-0.17,38013,List1A,white,man,,,,null,,,,
null,"<img src=""stim_listA/fight8.gif""</stim_listA>",,html-keyboard-response,315,1007808,0.0-17.0-1.17,38013,List1A,white,man,,,,null,,,,
null,are fighting each other,,html-keyboard-response,316,1009809,0.0-17.0-2.17,38013,List1A,white,man,,,,null,,,,
8379,,,survey-text,317,1018190,0.0-17.0-3.17,38013,List1A,white,man,,,,,"{""Q0"":""beth and ruth are fighting each other""}","<img src=""stim_listA/fight8.gif""</stim_listA>",are fighting each other,
null,"<div style=""font-size:60px;"">+</div>",,html-keyboard-response,318,1018692,0.0-17.0-0.18,38013,List1A,white,man,,,,null,,,,
null,"<img src=""stim_listA/dance4.gif""</stim_listA>",,html-keyboard-response,319,1020694,0.0-17.0-1.18,38013,List1A,white,man,,,,null,,,,
null,are dancing with each other,,html-keyboard-response,320,1022695,0.0-17.0-2.18,38013,List1A,white,man,,,,null,,,,
14708,,,survey-text,321,1037405,0.0-17.0-3.18,38013,List1A,white,man,,,,,"{""Q0"":""dave and ruth are dancing with each other ""}","<img src=""stim_listA/dance4.gif""</stim_listA>",are dancing with each other,
null,"<div style=""font-size:60px;"">+</div>",,html-keyboard-response,322,1037907,0.0-17.0-0.19,38013,List1A,white,man,,,,null,,,,
null,"<img src=""stim_listA/hug8.gif""</stim_listA>",,html-keyboard-response,323,1039909,0.0-17.0-1.19,38013,List1A,white,man,,,,null,,,,
null,are hugging each other,,html-keyboard-response,324,1041910,0.0-17.0-2.19,38013,List1A,white,man,,,,null,,,,
9273,,,survey-text,325,1051184,0.0-17.0-3.19,38013,List1A,white,man,,,,,"{""Q0"":""kate and jane are hugging each other""}","<img src=""stim_listA/hug8.gif""</stim_listA>",are hugging each other,
2125,"<img src='img/portrait_matrix_list1.JPG' style='width:900px;height:500px;''></img><p>If you have memorised all the portraits and names and are ready to start, press Continue.</p><p><strong>Please note: Your memory of these faces will be tested 4 times during this experiment.</strong></p>",0,html-button-response,326,1053310,0.0-18.0-0.0,38013,List1A,white,man,,,,,,,,
1909,"<img src=""portrait/BM2.jpg""style=""width:400px;height:400px;""></img>",5,html-button-response,327,1056222,0.0-18.0-1.0,38013,List1A,white,man,,TRUE,5,,,,,
null,CORRECT,,html-keyboard-response,328,1057725,0.0-18.0-2.0-0.0,38013,List1A,white,man,,,,null,,,,
1165,"<img src=""portrait/WM2.jpg""style=""width:400px;height:400px;""></img>",7,html-button-response,329,1058893,0.0-18.0-4.0,38013,List1A,white,man,,TRUE,7,,,,,
null,CORRECT,,html-keyboard-response,330,1060395,0.0-18.0-5.0-0.0,38013,List1A,white,man,,,,null,,,,
1505,"<img src=""portrait/BM1.jpg""style=""width:400px;height:400px;""></img>",4,html-button-response,331,1061902,0.0-18.0-7.0,38013,List1A,white,man,,TRUE,4,,,,,
null,CORRECT,,html-keyboard-response,332,1063404,0.0-18.0-8.0-0.0,38013,List1A,white,man,,,,null,,,,
1313,"<img src=""portrait/BW1.jpg""style=""width:400px;height:400px;""></img>",0,html-button-response,333,1064718,0.0-18.0-10.0,38013,List1A,white,man,,TRUE,0,,,,,
null,CORRECT,,html-keyboard-response,334,1066221,0.0-18.0-11.0-0.0,38013,List1A,white,man,,,,null,,,,
2272,"<img src=""portrait/WM1.jpg""style=""width:400px;height:400px;""></img>",6,html-button-response,335,1068494,0.0-18.0-13.0,38013,List1A,white,man,,TRUE,6,,,,,
null,CORRECT,,html-keyboard-response,336,1069996,0.0-18.0-14.0-0.0,38013,List1A,white,man,,,,null,,,,
3178,"<img src=""portrait/WW1.jpg""style=""width:400px;height:400px;""></img>",1,html-button-response,337,1073176,0.0-18.0-16.0,38013,List1A,white,man,,TRUE,1,,,,,
null,CORRECT,,html-keyboard-response,338,1074678,0.0-18.0-17.0-0.0,38013,List1A,white,man,,,,null,,,,
1257,"<img src=""portrait/BW2.jpg""style=""width:400px;height:400px;""></img>",2,html-button-response,339,1075937,0.0-18.0-19.0,38013,List1A,white,man,,TRUE,2,,,,,
null,CORRECT,,html-keyboard-response,340,1077439,0.0-18.0-20.0-0.0,38013,List1A,white,man,,,,null,,,,
1171,"<img src=""portrait/WW2.jpg""style=""width:400px;height:400px;""></img>",3,html-button-response,341,1078612,0.0-18.0-22.0,38013,List1A,white,man,,TRUE,3,,,,,
null,CORRECT,,html-keyboard-response,342,1080114,0.0-18.0-23.0-0.0,38013,List1A,white,man,,,,null,,,,
1060,<p>You got 8 out of 8 right first time. Press Continue.</p>,0,html-button-response,343,1081176,0.0-18.0-25.0,38013,List1A,white,man,,,,,,,,
null,"<div style=""font-size:60px;"">+</div>",,html-keyboard-response,344,1082679,0.0-19.0-0.0,38013,List1A,white,man,,,,null,,,,
null,"<img src=""stim_listA/touch2.gif""</stim_listA>",,html-keyboard-response,345,1084682,0.0-19.0-1.0,38013,List1A,white,man,,,,null,,,,
null,are touching each other,,html-keyboard-response,346,1086683,0.0-19.0-2.0,38013,List1A,white,man,,,,null,,,,
9813,,,survey-text,347,1096497,0.0-19.0-3.0,38013,List1A,white,man,,,,,"{""Q0"":""fred and beth are touching each other""}","<img src=""stim_listA/touch2.gif""</stim_listA>",are touching each other,
null,"<div style=""font-size:60px;"">+</div>",,html-keyboard-response,348,1097000,0.0-19.0-0.1,38013,List1A,white,man,,,,null,,,,
null,"<img src=""stim_listA/shout3.gif""</stim_listA>",,html-keyboard-response,349,1099003,0.0-19.0-1.1,38013,List1A,white,man,,,,null,,,,
null,is shouting at,,html-keyboard-response,350,1101005,0.0-19.0-2.1,38013,List1A,white,man,,,,null,,,,
7233,,,survey-text,351,1108240,0.0-19.0-3.1,38013,List1A,white,man,,,,,"{""Q0"":""ruth is shouting at luke""}","<img src=""stim_listA/shout3.gif""</stim_listA>",is shouting at,
null,"<div style=""font-size:60px;"">+</div>",,html-keyboard-response,352,1108742,0.0-19.0-0.2,38013,List1A,white,man,,,,null,,,,
null,"<img src=""stim_listA/talk8.gif""</stim_listA>",,html-keyboard-response,353,1110744,0.0-19.0-1.2,38013,List1A,white,man,,,,null,,,,
null,are talking to each other,,html-keyboard-response,354,1112745,0.0-19.0-2.2,38013,List1A,white,man,,,,null,,,,
9895,,,survey-text,355,1122641,0.0-19.0-3.2,38013,List1A,white,man,,,,,"{""Q0"":""kate and ruth are talking to each other""}","<img src=""stim_listA/talk8.gif""</stim_listA>",are talking to each other,
null,"<div style=""font-size:60px;"">+</div>",,html-keyboard-response,356,1123143,0.0-19.0-0.3,38013,List1A,white,man,,,,null,,,,
null,"<img src=""stim_listA/dance8.gif""</stim_listA>",,html-keyboard-response,357,1125146,0.0-19.0-1.3,38013,List1A,white,man,,,,null,,,,
null,are dancing with each other,,html-keyboard-response,358,1127147,0.0-19.0-2.3,38013,List1A,white,man,,,,null,,,,
9612,,,survey-text,359,1136759,0.0-19.0-3.3,38013,List1A,white,man,,,,,"{""Q0"":""kate and ruth are dancing with each other""}","<img src=""stim_listA/dance8.gif""</stim_listA>",are dancing with each other,
null,"<div style=""font-size:60px;"">+</div>",,html-keyboard-response,360,1137261,0.0-19.0-0.4,38013,List1A,white,man,,,,null,,,,
null,"<img src=""stim_listA/dance7.gif""</stim_listA>",,html-keyboard-response,361,1139263,0.0-19.0-1.4,38013,List1A,white,man,,,,null,,,,
null,is dancing with,,html-keyboard-response,362,1141264,0.0-19.0-2.4,38013,List1A,white,man,,,,null,,,,
6378,,,survey-text,363,1147644,0.0-19.0-3.4,38013,List1A,white,man,,,,,"{""Q0"":""beth is dancing with jane""}","<img src=""stim_listA/dance7.gif""</stim_listA>",is dancing with,
null,"<div style=""font-size:60px;"">+</div>",,html-keyboard-response,364,1148145,0.0-19.0-0.5,38013,List1A,white,man,,,,null,,,,
null,"<img src=""stim_listA/talk6.gif""</stim_listA>",,html-keyboard-response,365,1150147,0.0-19.0-1.5,38013,List1A,white,man,,,,null,,,,
null,are talking to each other,,html-keyboard-response,366,1152148,0.0-19.0-2.5,38013,List1A,white,man,,,,null,,,,
7215,,,survey-text,367,1159364,0.0-19.0-3.5,38013,List1A,white,man,,,,,"{""Q0"":""mike and luke are taking to each other""}","<img src=""stim_listA/talk6.gif""</stim_listA>",are talking to each other,
null,"<div style=""font-size:60px;"">+</div>",,html-keyboard-response,368,1159866,0.0-19.0-0.6,38013,List1A,white,man,,,,null,,,,
null,"<img src=""stim_listA/kiss6.gif""</stim_listA>",,html-keyboard-response,369,1161868,0.0-19.0-1.6,38013,List1A,white,man,,,,null,,,,
null,are kissing each other,,html-keyboard-response,370,1163869,0.0-19.0-2.6,38013,List1A,white,man,,,,null,,,,
7811,,,survey-text,371,1171682,0.0-19.0-3.6,38013,List1A,white,man,,,,,"{""Q0"":""dave and mike are kissing each other""}","<img src=""stim_listA/kiss6.gif""</stim_listA>",are kissing each other,
null,"<div style=""font-size:60px;"">+</div>",,html-keyboard-response,372,1172183,0.0-19.0-0.7,38013,List1A,white,man,,,,null,,,,
null,"<img src=""stim_listA/argue2.gif""</stim_listA>",,html-keyboard-response,373,1174185,0.0-19.0-1.7,38013,List1A,white,man,,,,null,,,,
null,are arguing with each other,,html-keyboard-response,374,1176186,0.0-19.0-2.7,38013,List1A,white,man,,,,null,,,,
8140,,,survey-text,375,1184328,0.0-19.0-3.7,38013,List1A,white,man,,,,,"{""Q0"":""fred and kate are arguing with each other""}","<img src=""stim_listA/argue2.gif""</stim_listA>",are arguing with each other,
null,"<div style=""font-size:60px;"">+</div>",,html-keyboard-response,376,1184829,0.0-19.0-0.8,38013,List1A,white,man,,,,null,,,,
null,"<img src=""stim_listA/meet7.gif""</stim_listA>",,html-keyboard-response,377,1186832,0.0-19.0-1.8,38013,List1A,white,man,,,,null,,,,
null,is meeting,,html-keyboard-response,378,1188833,0.0-19.0-2.8,38013,List1A,white,man,,,,null,,,,
5236,,,survey-text,379,1194070,0.0-19.0-3.8,38013,List1A,white,man,,,,,"{""Q0"":""kate is meeting jane""}","<img src=""stim_listA/meet7.gif""</stim_listA>",is meeting,
null,"<div style=""font-size:60px;"">+</div>",,html-keyboard-response,380,1194572,0.0-19.0-0.9,38013,List1A,white,man,,,,null,,,,
null,"<img src=""stim_listA/dance2.gif""</stim_listA>",,html-keyboard-response,381,1196574,0.0-19.0-1.9,38013,List1A,white,man,,,,null,,,,
null,are dancing with each other,,html-keyboard-response,382,1198576,0.0-19.0-2.9,38013,List1A,white,man,,,,null,,,,
7724,,,survey-text,383,1206301,0.0-19.0-3.9,38013,List1A,white,man,,,,,"{""Q0"":""mike and beth are dancing with each other""}","<img src=""stim_listA/dance2.gif""</stim_listA>",are dancing with each other,
null,"<div style=""font-size:60px;"">+</div>",,html-keyboard-response,384,1206802,0.0-19.0-0.10,38013,List1A,white,man,,,,null,,,,
null,"<img src=""stim_listA/meet6.gif""</stim_listA>",,html-keyboard-response,385,1208804,0.0-19.0-1.10,38013,List1A,white,man,,,,null,,,,
null,are meeting each other,,html-keyboard-response,386,1210806,0.0-19.0-2.10,38013,List1A,white,man,,,,null,,,,
7571,,,survey-text,387,1218379,0.0-19.0-3.10,38013,List1A,white,man,,,,,"{""Q0"":""fred and luke are meeting each other""}","<img src=""stim_listA/meet6.gif""</stim_listA>",are meeting each other,
null,"<div style=""font-size:60px;"">+</div>",,html-keyboard-response,388,1218881,0.0-19.0-0.11,38013,List1A,white,man,,,,null,,,,
null,"<img src=""stim_listA/talk4.gif""</stim_listA>",,html-keyboard-response,389,1220883,0.0-19.0-1.11,38013,List1A,white,man,,,,null,,,,
null,are talking to each other,,html-keyboard-response,390,1222885,0.0-19.0-2.11,38013,List1A,white,man,,,,null,,,,
8037,,,survey-text,391,1230924,0.0-19.0-3.11,38013,List1A,white,man,,,,,"{""Q0"":""ruth and dave are talking to each other""}","<img src=""stim_listA/talk4.gif""</stim_listA>",are talking to each other,
null,"<div style=""font-size:60px;"">+</div>",,html-keyboard-response,392,1231425,0.0-19.0-0.12,38013,List1A,white,man,,,,null,,,,
null,"<img src=""stim_listA/kiss7.gif""</stim_listA>",,html-keyboard-response,393,1233428,0.0-19.0-1.12,38013,List1A,white,man,,,,null,,,,
null,is kissing,,html-keyboard-response,394,1235429,0.0-19.0-2.12,38013,List1A,white,man,,,,null,,,,
6016,,,survey-text,395,1241446,0.0-19.0-3.12,38013,List1A,white,man,,,,,"{""Q0"":""beth is kissing ruth""}","<img src=""stim_listA/kiss7.gif""</stim_listA>",is kissing,
null,"<div style=""font-size:60px;"">+</div>",,html-keyboard-response,396,1241947,0.0-19.0-0.13,38013,List1A,white,man,,,,null,,,,
null,"<img src=""stim_listA/shout6.gif""</stim_listA>",,html-keyboard-response,397,1243950,0.0-19.0-1.13,38013,List1A,white,man,,,,null,,,,
null,are shouting at each other,,html-keyboard-response,398,1245952,0.0-19.0-2.13,38013,List1A,white,man,,,,null,,,,
8823,,,survey-text,399,1254775,0.0-19.0-3.13,38013,List1A,white,man,,,,,"{""Q0"":""mike and dave are shouting at each other""}","<img src=""stim_listA/shout6.gif""</stim_listA>",are shouting at each other,
null,"<div style=""font-size:60px;"">+</div>",,html-keyboard-response,400,1255276,0.0-19.0-0.14,38013,List1A,white,man,,,,null,,,,
null,"<img src=""stim_listA/argue3.gif""</stim_listA>",,html-keyboard-response,401,1257278,0.0-19.0-1.14,38013,List1A,white,man,,,,null,,,,
null,is arguing with,,html-keyboard-response,402,1259280,0.0-19.0-2.14,38013,List1A,white,man,,,,null,,,,
6254,,,survey-text,403,1265536,0.0-19.0-3.14,38013,List1A,white,man,,,,,"{""Q0"":""dave is arguing with ruth""}","<img src=""stim_listA/argue3.gif""</stim_listA>",is arguing with,
null,"<div style=""font-size:60px;"">+</div>",,html-keyboard-response,404,1266037,0.0-19.0-0.15,38013,List1A,white,man,,,,null,,,,
null,"<img src=""stim_listA/kiss3.gif""</stim_listA>",,html-keyboard-response,405,1268039,0.0-19.0-1.15,38013,List1A,white,man,,,,null,,,,
null,is kissing,,html-keyboard-response,406,1270040,0.0-19.0-2.15,38013,List1A,white,man,,,,null,,,,
5593,,,survey-text,407,1275635,0.0-19.0-3.15,38013,List1A,white,man,,,,,"{""Q0"":""luke is kissing ruth""}","<img src=""stim_listA/kiss3.gif""</stim_listA>",is kissing,
null,"<div style=""font-size:60px;"">+</div>",,html-keyboard-response,408,1276137,0.0-19.0-0.16,38013,List1A,white,man,,,,null,,,,
null,"<img src=""stim_listA/marry5.gif""</stim_listA>",,html-keyboard-response,409,1278139,0.0-19.0-1.16,38013,List1A,white,man,,,,null,,,,
null,is marrying,,html-keyboard-response,410,1280140,0.0-19.0-2.16,38013,List1A,white,man,,,,null,,,,
6390,,,survey-text,411,1286531,0.0-19.0-3.16,38013,List1A,white,man,,,,,"{""Q0"":""mike is marrying luke""}","<img src=""stim_listA/marry5.gif""</stim_listA>",is marrying,
null,"<div style=""font-size:60px;"">+</div>",,html-keyboard-response,412,1287033,0.0-19.0-0.17,38013,List1A,white,man,,,,null,,,,
null,"<img src=""stim_listA/touch8.gif""</stim_listA>",,html-keyboard-response,413,1289035,0.0-19.0-1.17,38013,List1A,white,man,,,,null,,,,
null,are touching each other,,html-keyboard-response,414,1291036,0.0-19.0-2.17,38013,List1A,white,man,,,,null,,,,
12430,,,survey-text,415,1303468,0.0-19.0-3.17,38013,List1A,white,man,,,,,"{""Q0"":""beth and ruth are marrying each other""}","<img src=""stim_listA/touch8.gif""</stim_listA>",are touching each other,
null,"<div style=""font-size:60px;"">+</div>",,html-keyboard-response,416,1303970,0.0-19.0-0.18,38013,List1A,white,man,,,,null,,,,
null,"<img src=""stim_listA/hug6.gif""</stim_listA>",,html-keyboard-response,417,1305972,0.0-19.0-1.18,38013,List1A,white,man,,,,null,,,,
null,are hugging each other,,html-keyboard-response,418,1307973,0.0-19.0-2.18,38013,List1A,white,man,,,,null,,,,
14503,,,survey-text,419,1322477,0.0-19.0-3.18,38013,List1A,white,man,,,,,"{""Q0"":""mike and dave are hugging each other""}","<img src=""stim_listA/hug6.gif""</stim_listA>",are hugging each other,
null,"<div style=""font-size:60px;"">+</div>",,html-keyboard-response,420,1322978,0.0-19.0-0.19,38013,List1A,white,man,,,,null,,,,
null,"<img src=""stim_listA/touch4.gif""</stim_listA>",,html-keyboard-response,421,1324980,0.0-19.0-1.19,38013,List1A,white,man,,,,null,,,,
null,are touching each other,,html-keyboard-response,422,1326982,0.0-19.0-2.19,38013,List1A,white,man,,,,null,,,,
7093,,,survey-text,423,1334075,0.0-19.0-3.19,38013,List1A,white,man,,,,,"{""Q0"":""luke and ruth are touching each other""}","<img src=""stim_listA/touch4.gif""</stim_listA>",are touching each other,
896,<p>Thank you for completing that task.</p><p>The final part of this session is a short questionnaire.</p><p>Press Continue.</p>,0,html-button-response,424,1334972,0.0-20.0,38013,List1A,white,man,,,,,,,,
20643,,,survey-text,425,1356618,0.0-21.0,38013,List1A,white,man,,,,,"{""Q0"":""23"",""Q1"":""English"",""Q2"":""English"",""Q3"":""United Kingdom"",""Q4"":""White British"",""Q5"":""Male""}",,,demographics
39285,,,survey-likert,426,1395917,0.0-22.0,38013,List1A,white,man,,,,,"{""Q0"":2,""Q1"":2,""Q2"":2,""Q3"":3,""Q4"":1,""Q5"":3,""Q6"":3,""Q7"":0,""Q8"":0,""Q9"":0,""Q10"":3,""Q11"":3,""Q12"":0,""Q13"":0}",,,likert_race
29557,,,survey-likert,427,1425487,0.0-23.0,38013,List1A,white,man,,,,,"{""Q0"":4,""Q1"":4,""Q2"":4,""Q3"":4,""Q4"":1,""Q5"":3,""Q6"":3,""Q7"":3,""Q8"":3,""Q9"":3,""Q10"":3,""Q11"":3,""Q12"":0,""Q13"":0}",,,likert_gender
2986,,,survey-text,428,1428476,0.0-24.0,38013,List1A,white,man,,,,,"{""Q0"":""ccc""}",,,worker_id
20145,,,external-html,429,1448720,0.0-25.0,38013,List1A,white,man,debrief.html,,,,,,,
