rt,stimulus,button_pressed,trial_type,trial_index,time_elapsed,internal_node_id,subject,list,ppt_race,ppt_gender,url,first_guess,correct,key_press,responses,image_type,phrase_type,test_part
3481,Welcome to the experiment. Press Continue to begin.,0,html-button-response,0,3483,0.0-0.0,38387,List1A,black,man,,,,,,,,
12969,,,external-html,1,17723,0.0-1.0,38387,List1A,black,man,consent.html,,,,,,,
13387,"<p>On the next page, you will see portraits of 8 people and their names.</p><p>Your first task is to take a few minutes to memorise the names of these people.</p><p>You will have to recall their names during the rest of the experiment, so it is</p><p>essential that you try to memorise these people and their names as best as you can.</p><br><p><strong>You will then be tested on your memory of these names and portraits.</strong></p><br><p>The experiment will start after you have completed this memory test.</p><br><p>Ready?</p>",0,html-button-response,2,31110,0.0-2.0,38387,List1A,black,man,,,,,,,,
47101,"<img src='img/portrait_matrix_list1.JPG' style='width:900px;height:500px;''></img><p>If you have memorised all the portraits and names and are ready to start, press Continue.</p><p><strong>Please note: Your memory of these faces will be tested 4 times during this experiment.</strong></p>",0,html-button-response,3,79214,0.0-3.0-0.0,38387,List1A,black,man,,,,,,,,
4830,"<img src=""portrait/WW2.jpg""style=""width:400px;height:400px;""></img>",3,html-button-response,4,85046,0.0-3.0-1.0,38387,List1A,black,man,,TRUE,3,,,,,
null,CORRECT,,html-keyboard-response,5,86549,0.0-3.0-2.0-0.0,38387,List1A,black,man,,,,null,,,,
3957,"<img src=""portrait/BW1.jpg""style=""width:400px;height:400px;""></img>",0,html-button-response,6,90508,0.0-3.0-4.0,38387,List1A,black,man,,TRUE,0,,,,,
null,CORRECT,,html-keyboard-response,7,92010,0.0-3.0-5.0-0.0,38387,List1A,black,man,,,,null,,,,
3233,"<img src=""portrait/WM1.jpg""style=""width:400px;height:400px;""></img>",6,html-button-response,8,95244,0.0-3.0-7.0,38387,List1A,black,man,,TRUE,6,,,,,
null,CORRECT,,html-keyboard-response,9,96745,0.0-3.0-8.0-0.0,38387,List1A,black,man,,,,null,,,,
5758,"<img src=""portrait/BW2.jpg""style=""width:400px;height:400px;""></img>",2,html-button-response,10,102504,0.0-3.0-10.0,38387,List1A,black,man,,TRUE,2,,,,,
null,CORRECT,,html-keyboard-response,11,104006,0.0-3.0-11.0-0.0,38387,List1A,black,man,,,,null,,,,
7747,"<img src=""portrait/WM2.jpg""style=""width:400px;height:400px;""></img>",7,html-button-response,12,111754,0.0-3.0-13.0,38387,List1A,black,man,,TRUE,7,,,,,
null,CORRECT,,html-keyboard-response,13,113255,0.0-3.0-14.0-0.0,38387,List1A,black,man,,,,null,,,,
5289,"<img src=""portrait/BM2.jpg""style=""width:400px;height:400px;""></img>",4,html-button-response,14,118544,0.0-3.0-16.0,38387,List1A,black,man,,TRUE,5,,,,,
4484,"<img src=""portrait/BM2.jpg""style=""width:400px;height:400px;""></img>",5,html-button-response,15,124030,0.0-3.0-18.0-0.0,38387,List1A,black,man,,FALSE,5,,,,,
null,CORRECT,,html-keyboard-response,16,125531,0.0-3.0-18.0-1.0-0.0,38387,List1A,black,man,,,,null,,,,
3057,"<img src=""portrait/BM1.jpg""style=""width:400px;height:400px;""></img>",4,html-button-response,17,128590,0.0-3.0-19.0,38387,List1A,black,man,,TRUE,4,,,,,
null,CORRECT,,html-keyboard-response,18,130092,0.0-3.0-20.0-0.0,38387,List1A,black,man,,,,null,,,,
2096,"<img src=""portrait/WW1.jpg""style=""width:400px;height:400px;""></img>",1,html-button-response,19,132188,0.0-3.0-22.0,38387,List1A,black,man,,TRUE,1,,,,,
null,CORRECT,,html-keyboard-response,20,133690,0.0-3.0-23.0-0.0,38387,List1A,black,man,,,,null,,,,
1522,<p>You got 7 out of 8 right first time. Press Continue.</p>,0,html-button-response,21,135213,0.0-3.0-25.0,38387,List1A,black,man,,,,,,,,
2787,"As you did not score 100%, the memory game will repeat. Press Continue.",0,html-button-response,22,139001,0.0-3.0-26.0-0.0,38387,List1A,black,man,,,,,,,,
1346,"<img src='img/portrait_matrix_list1.JPG' style='width:900px;height:500px;''></img><p>If you have memorised all the portraits and names and are ready to start, press Continue.</p><p><strong>Please note: Your memory of these faces will be tested 4 times during this experiment.</strong></p>",0,html-button-response,23,141348,0.0-3.1-0.1,38387,List1A,black,man,,,,,,,,
3786,"<img src=""portrait/WW2.jpg""style=""width:400px;height:400px;""></img>",3,html-button-response,24,146136,0.0-3.1-1.1,38387,List1A,black,man,,TRUE,3,,,,,
null,CORRECT,,html-keyboard-response,25,147638,0.0-3.1-2.1-0.1,38387,List1A,black,man,,,,null,,,,
3156,"<img src=""portrait/BW1.jpg""style=""width:400px;height:400px;""></img>",0,html-button-response,26,150794,0.0-3.1-4.1,38387,List1A,black,man,,TRUE,0,,,,,
null,CORRECT,,html-keyboard-response,27,152296,0.0-3.1-5.1-0.1,38387,List1A,black,man,,,,null,,,,
2566,"<img src=""portrait/WM1.jpg""style=""width:400px;height:400px;""></img>",6,html-button-response,28,154862,0.0-3.1-7.1,38387,List1A,black,man,,TRUE,6,,,,,
null,CORRECT,,html-keyboard-response,29,156364,0.0-3.1-8.1-0.1,38387,List1A,black,man,,,,null,,,,
2423,"<img src=""portrait/BW2.jpg""style=""width:400px;height:400px;""></img>",2,html-button-response,30,158788,0.0-3.1-10.1,38387,List1A,black,man,,TRUE,2,,,,,
null,CORRECT,,html-keyboard-response,31,160289,0.0-3.1-11.1-0.1,38387,List1A,black,man,,,,null,,,,
3190,"<img src=""portrait/WM2.jpg""style=""width:400px;height:400px;""></img>",7,html-button-response,32,163480,0.0-3.1-13.1,38387,List1A,black,man,,TRUE,7,,,,,
null,CORRECT,,html-keyboard-response,33,164982,0.0-3.1-14.1-0.1,38387,List1A,black,man,,,,null,,,,
2179,"<img src=""portrait/BM2.jpg""style=""width:400px;height:400px;""></img>",5,html-button-response,34,167162,0.0-3.1-16.1,38387,List1A,black,man,,TRUE,5,,,,,
null,CORRECT,,html-keyboard-response,35,168663,0.0-3.1-17.1-0.1,38387,List1A,black,man,,,,null,,,,
762,"<img src=""portrait/BM1.jpg""style=""width:400px;height:400px;""></img>",4,html-button-response,36,169426,0.0-3.1-19.1,38387,List1A,black,man,,TRUE,4,,,,,
null,CORRECT,,html-keyboard-response,37,170929,0.0-3.1-20.1-0.1,38387,List1A,black,man,,,,null,,,,
2387,"<img src=""portrait/WW1.jpg""style=""width:400px;height:400px;""></img>",1,html-button-response,38,173317,0.0-3.1-22.1,38387,List1A,black,man,,TRUE,1,,,,,
null,CORRECT,,html-keyboard-response,39,174818,0.0-3.1-23.1-0.1,38387,List1A,black,man,,,,null,,,,
873,<p>You got 8 out of 8 right first time. Press Continue.</p>,0,html-button-response,40,175692,0.0-3.1-25.1,38387,List1A,black,man,,,,,,,,
32833,"<p>In this experiment, you will view photographs of the people from the memory game interacting.</p><p>By using the <strong>exact</strong> phrase given <i>after</i> the photograph appears and recalling the correct names of the people in the photographs, form a sentence describing the interaction. You do not need to capitalise names.</p><p>Type your answer in the space provided. Please complete every sentence before moving onto the next trial.</p><p>You will only have a few seconds to memorise each given photograph and phrase before you can respond, so try your best to focus.</p><p>An example is given below. Press 'Continue' when you are ready.</p><img src='img/speaking_example_v2.jpg' style='width:800px;height:460px;''></img>",0,html-button-response,41,209528,0.0-4.0,38387,List1A,black,man,,,,,,,,
1782,"<p>Before the experiment starts, you will watch two example trials. Press 'Continue'.</p>",0,html-button-response,42,212313,0.0-5.0,38387,List1A,black,man,,,,,,,,
null,<img src='img/speaking_WW.gif'></img>,,html-keyboard-response,43,215314,0.0-6.0,38387,List1A,black,man,,,,null,,,,
null,<p>is speaking to</p>,,html-keyboard-response,44,217315,0.0-7.0,38387,List1A,black,man,,,,null,,,,
4262,<p><b>Answer:</b> kate is speaking to beth</p>,0,html-button-response,45,221578,0.0-8.0,38387,List1A,black,man,,,,,,,,
null,<img src='img/pointing_BM.gif'></img>,,html-keyboard-response,46,224579,0.0-9.0,38387,List1A,black,man,,,,null,,,,
null,<p>are pointing at each other</p>,,html-keyboard-response,47,226581,0.0-10.0,38387,List1A,black,man,,,,null,,,,
2383,<p><b>Answer:</b> luke and dave are pointing at each other</p>,0,html-button-response,48,228964,0.0-11.0,38387,List1A,black,man,,,,,,,,
6279,"<p>Ready to start the experiment?</p><br><p><strong>Remember to describe the picture using a full sentence,</strong></p><p><strong>that combines the names of the people with the given phrase.</strong></p><p><strong>If you do not do this correctly you will not be paid.</strong></p><p><strong> You do not need to capitalise names or use punctuation.</strong></p><br><p>Press 'Continue' to begin.</p>",0,html-button-response,49,236244,0.0-12.0,38387,List1A,black,man,,,,,,,,
null,"<div style=""font-size:60px;"">+</div>",,html-keyboard-response,50,237746,0.0-13.0-0.0,38387,List1A,black,man,,,,null,,,,
null,"<img src=""stim_listA/marry6.gif""</stim_listA>",,html-keyboard-response,51,239748,0.0-13.0-1.0,38387,List1A,black,man,,,,null,,,,
null,are marrying each other,,html-keyboard-response,52,241749,0.0-13.0-2.0,38387,List1A,black,man,,,,null,,,,
18197,,,survey-text,53,259946,0.0-13.0-3.0,38387,List1A,black,man,,,,,"{""Q0"":""fred and dave are marrying each other.""}","<img src=""stim_listA/marry6.gif""</stim_listA>",are marrying each other,
null,"<div style=""font-size:60px;"">+</div>",,html-keyboard-response,54,260447,0.0-13.0-0.1,38387,List1A,black,man,,,,null,,,,
null,"<img src=""stim_listA/talk7.gif""</stim_listA>",,html-keyboard-response,55,262448,0.0-13.0-1.1,38387,List1A,black,man,,,,null,,,,
null,is talking to,,html-keyboard-response,56,264449,0.0-13.0-2.1,38387,List1A,black,man,,,,null,,,,
16246,,,survey-text,57,280695,0.0-13.0-3.1,38387,List1A,black,man,,,,,"{""Q0"":""jane is talking to beth""}","<img src=""stim_listA/talk7.gif""</stim_listA>",is talking to,
null,"<div style=""font-size:60px;"">+</div>",,html-keyboard-response,58,281198,0.0-13.0-0.2,38387,List1A,black,man,,,,null,,,,
null,"<img src=""stim_listA/kiss1.gif""</stim_listA>",,html-keyboard-response,59,283200,0.0-13.0-1.2,38387,List1A,black,man,,,,null,,,,
null,is kissing,,html-keyboard-response,60,285201,0.0-13.0-2.2,38387,List1A,black,man,,,,null,,,,
8754,,,survey-text,61,293956,0.0-13.0-3.2,38387,List1A,black,man,,,,,"{""Q0"":""fred is kissing beth""}","<img src=""stim_listA/kiss1.gif""</stim_listA>",is kissing,
null,"<div style=""font-size:60px;"">+</div>",,html-keyboard-response,62,294458,0.0-13.0-0.3,38387,List1A,black,man,,,,null,,,,
null,"<img src=""stim_listA/hug3.gif""</stim_listA>",,html-keyboard-response,63,296459,0.0-13.0-1.3,38387,List1A,black,man,,,,null,,,,
null,is hugging,,html-keyboard-response,64,298460,0.0-13.0-2.3,38387,List1A,black,man,,,,null,,,,
10786,,,survey-text,65,309246,0.0-13.0-3.3,38387,List1A,black,man,,,,,"{""Q0"":""luke is hugging ruth""}","<img src=""stim_listA/hug3.gif""</stim_listA>",is hugging,
null,"<div style=""font-size:60px;"">+</div>",,html-keyboard-response,66,309747,0.0-13.0-0.4,38387,List1A,black,man,,,,null,,,,
null,"<img src=""stim_listA/dance8.gif""</stim_listA>",,html-keyboard-response,67,311748,0.0-13.0-1.4,38387,List1A,black,man,,,,null,,,,
null,are dancing with each other,,html-keyboard-response,68,313749,0.0-13.0-2.4,38387,List1A,black,man,,,,null,,,,
17961,,,survey-text,69,331710,0.0-13.0-3.4,38387,List1A,black,man,,,,,"{""Q0"":""ruth and kate are dancing with each other.""}","<img src=""stim_listA/dance8.gif""</stim_listA>",are dancing with each other,
null,"<div style=""font-size:60px;"">+</div>",,html-keyboard-response,70,332211,0.0-13.0-0.5,38387,List1A,black,man,,,,null,,,,
null,"<img src=""stim_listA/kiss2.gif""</stim_listA>",,html-keyboard-response,71,334213,0.0-13.0-1.5,38387,List1A,black,man,,,,null,,,,
null,are kissing each other,,html-keyboard-response,72,336214,0.0-13.0-2.5,38387,List1A,black,man,,,,null,,,,
18595,,,survey-text,73,354811,0.0-13.0-3.5,38387,List1A,black,man,,,,,"{""Q0"":""kate and mike are kissing each other.""}","<img src=""stim_listA/kiss2.gif""</stim_listA>",are kissing each other,
null,"<div style=""font-size:60px;"">+</div>",,html-keyboard-response,74,355311,0.0-13.0-0.6,38387,List1A,black,man,,,,null,,,,
null,"<img src=""stim_listA/dance6.gif""</stim_listA>",,html-keyboard-response,75,357313,0.0-13.0-1.6,38387,List1A,black,man,,,,null,,,,
null,are dancing with each other,,html-keyboard-response,76,359314,0.0-13.0-2.6,38387,List1A,black,man,,,,null,,,,
21414,,,survey-text,77,380729,0.0-13.0-3.6,38387,List1A,black,man,,,,,"{""Q0"":""luke and mike are dancing with each other.""}","<img src=""stim_listA/dance6.gif""</stim_listA>",are dancing with each other,
null,"<div style=""font-size:60px;"">+</div>",,html-keyboard-response,78,381231,0.0-13.0-0.7,38387,List1A,black,man,,,,null,,,,
null,"<img src=""stim_listA/talk3.gif""</stim_listA>",,html-keyboard-response,79,383231,0.0-13.0-1.7,38387,List1A,black,man,,,,null,,,,
null,is talking to,,html-keyboard-response,80,385232,0.0-13.0-2.7,38387,List1A,black,man,,,,null,,,,
11671,,,survey-text,81,396904,0.0-13.0-3.7,38387,List1A,black,man,,,,,"{""Q0"":""luke is talking to jane.""}","<img src=""stim_listA/talk3.gif""</stim_listA>",is talking to,
null,"<div style=""font-size:60px;"">+</div>",,html-keyboard-response,82,397405,0.0-13.0-0.8,38387,List1A,black,man,,,,null,,,,
null,"<img src=""stim_listA/dance2.gif""</stim_listA>",,html-keyboard-response,83,399406,0.0-13.0-1.8,38387,List1A,black,man,,,,null,,,,
null,are dancing with each other,,html-keyboard-response,84,401408,0.0-13.0-2.8,38387,List1A,black,man,,,,null,,,,
14182,,,survey-text,85,415590,0.0-13.0-3.8,38387,List1A,black,man,,,,,"{""Q0"":""mike and beth are dancing with each other.""}","<img src=""stim_listA/dance2.gif""</stim_listA>",are dancing with each other,
null,"<div style=""font-size:60px;"">+</div>",,html-keyboard-response,86,416093,0.0-13.0-0.9,38387,List1A,black,man,,,,null,,,,
null,"<img src=""stim_listA/marry5.gif""</stim_listA>",,html-keyboard-response,87,418094,0.0-13.0-1.9,38387,List1A,black,man,,,,null,,,,
null,is marrying,,html-keyboard-response,88,420094,0.0-13.0-2.9,38387,List1A,black,man,,,,null,,,,
9931,,,survey-text,89,430026,0.0-13.0-3.9,38387,List1A,black,man,,,,,"{""Q0"":""mike is marrying luke.""}","<img src=""stim_listA/marry5.gif""</stim_listA>",is marrying,
null,"<div style=""font-size:60px;"">+</div>",,html-keyboard-response,90,430527,0.0-13.0-0.10,38387,List1A,black,man,,,,null,,,,
null,"<img src=""stim_listA/touch3.gif""</stim_listA>",,html-keyboard-response,91,432528,0.0-13.0-1.10,38387,List1A,black,man,,,,null,,,,
null,is touching,,html-keyboard-response,92,434529,0.0-13.0-2.10,38387,List1A,black,man,,,,null,,,,
8873,,,survey-text,93,443402,0.0-13.0-3.10,38387,List1A,black,man,,,,,"{""Q0"":""dave is touching jane.""}","<img src=""stim_listA/touch3.gif""</stim_listA>",is touching,
null,"<div style=""font-size:60px;"">+</div>",,html-keyboard-response,94,443903,0.0-13.0-0.11,38387,List1A,black,man,,,,null,,,,
null,"<img src=""stim_listA/talk2.gif""</stim_listA>",,html-keyboard-response,95,445904,0.0-13.0-1.11,38387,List1A,black,man,,,,null,,,,
null,are talking to each other,,html-keyboard-response,96,447905,0.0-13.0-2.11,38387,List1A,black,man,,,,null,,,,
32466,,,survey-text,97,480372,0.0-13.0-3.11,38387,List1A,black,man,,,,,"{""Q0"":""beth and mike are talking to each other.""}","<img src=""stim_listA/talk2.gif""</stim_listA>",are talking to each other,
null,"<div style=""font-size:60px;"">+</div>",,html-keyboard-response,98,480873,0.0-13.0-0.12,38387,List1A,black,man,,,,null,,,,
null,"<img src=""stim_listA/shout6.gif""</stim_listA>",,html-keyboard-response,99,482874,0.0-13.0-1.12,38387,List1A,black,man,,,,null,,,,
null,are shouting at each other,,html-keyboard-response,100,484875,0.0-13.0-2.12,38387,List1A,black,man,,,,null,,,,
54358,,,survey-text,101,539233,0.0-13.0-3.12,38387,List1A,black,man,,,,,"{""Q0"":""dave and mike are shouting at each other.""}","<img src=""stim_listA/shout6.gif""</stim_listA>",are shouting at each other,
null,"<div style=""font-size:60px;"">+</div>",,html-keyboard-response,102,539734,0.0-13.0-0.13,38387,List1A,black,man,,,,null,,,,
null,"<img src=""stim_listA/touch5.gif""</stim_listA>",,html-keyboard-response,103,541735,0.0-13.0-1.13,38387,List1A,black,man,,,,null,,,,
null,is touching,,html-keyboard-response,104,543736,0.0-13.0-2.13,38387,List1A,black,man,,,,null,,,,
8713,,,survey-text,105,552449,0.0-13.0-3.13,38387,List1A,black,man,,,,,"{""Q0"":""dave is touching mike.""}","<img src=""stim_listA/touch5.gif""</stim_listA>",is touching,
null,"<div style=""font-size:60px;"">+</div>",,html-keyboard-response,106,552950,0.0-13.0-0.14,38387,List1A,black,man,,,,null,,,,
null,"<img src=""stim_listA/fight1.gif""</stim_listA>",,html-keyboard-response,107,554952,0.0-13.0-1.14,38387,List1A,black,man,,,,null,,,,
null,is fighting,,html-keyboard-response,108,556953,0.0-13.0-2.14,38387,List1A,black,man,,,,null,,,,
10898,,,survey-text,109,567851,0.0-13.0-3.14,38387,List1A,black,man,,,,,"{""Q0"":""kate is fighting mike.""}","<img src=""stim_listA/fight1.gif""</stim_listA>",is fighting,
null,"<div style=""font-size:60px;"">+</div>",,html-keyboard-response,110,568352,0.0-13.0-0.15,38387,List1A,black,man,,,,null,,,,
null,"<img src=""stim_listA/argue1.gif""</stim_listA>",,html-keyboard-response,111,570354,0.0-13.0-1.15,38387,List1A,black,man,,,,null,,,,
null,is arguing with,,html-keyboard-response,112,572355,0.0-13.0-2.15,38387,List1A,black,man,,,,null,,,,
9309,,,survey-text,113,581665,0.0-13.0-3.15,38387,List1A,black,man,,,,,"{""Q0"":""beth is arguing with mike.""}","<img src=""stim_listA/argue1.gif""</stim_listA>",is arguing with,
null,"<div style=""font-size:60px;"">+</div>",,html-keyboard-response,114,582166,0.0-13.0-0.16,38387,List1A,black,man,,,,null,,,,
null,"<img src=""stim_listA/argue6.gif""</stim_listA>",,html-keyboard-response,115,584168,0.0-13.0-1.16,38387,List1A,black,man,,,,null,,,,
null,are arguing with each other,,html-keyboard-response,116,586169,0.0-13.0-2.16,38387,List1A,black,man,,,,null,,,,
14943,,,survey-text,117,601112,0.0-13.0-3.16,38387,List1A,black,man,,,,,"{""Q0"":""fred and dave are arguing with each other.""}","<img src=""stim_listA/argue6.gif""</stim_listA>",are arguing with each other,
null,"<div style=""font-size:60px;"">+</div>",,html-keyboard-response,118,601613,0.0-13.0-0.17,38387,List1A,black,man,,,,null,,,,
null,"<img src=""stim_listA/touch2.gif""</stim_listA>",,html-keyboard-response,119,603615,0.0-13.0-1.17,38387,List1A,black,man,,,,null,,,,
null,are touching each other,,html-keyboard-response,120,605616,0.0-13.0-2.17,38387,List1A,black,man,,,,null,,,,
13506,,,survey-text,121,619122,0.0-13.0-3.17,38387,List1A,black,man,,,,,"{""Q0"":""beth and fred are touching each other.""}","<img src=""stim_listA/touch2.gif""</stim_listA>",are touching each other,
null,"<div style=""font-size:60px;"">+</div>",,html-keyboard-response,122,619623,0.0-13.0-0.18,38387,List1A,black,man,,,,null,,,,
null,"<img src=""stim_listA/dance7.gif""</stim_listA>",,html-keyboard-response,123,621624,0.0-13.0-1.18,38387,List1A,black,man,,,,null,,,,
null,is dancing with,,html-keyboard-response,124,623626,0.0-13.0-2.18,38387,List1A,black,man,,,,null,,,,
10371,,,survey-text,125,633997,0.0-13.0-3.18,38387,List1A,black,man,,,,,"{""Q0"":""beth is dancing with jane.""}","<img src=""stim_listA/dance7.gif""</stim_listA>",is dancing with,
null,"<div style=""font-size:60px;"">+</div>",,html-keyboard-response,126,634499,0.0-13.0-0.19,38387,List1A,black,man,,,,null,,,,
null,"<img src=""stim_listA/argue7.gif""</stim_listA>",,html-keyboard-response,127,636500,0.0-13.0-1.19,38387,List1A,black,man,,,,null,,,,
null,is arguing with,,html-keyboard-response,128,638501,0.0-13.0-2.19,38387,List1A,black,man,,,,null,,,,
10733,,,survey-text,129,649234,0.0-13.0-3.19,38387,List1A,black,man,,,,,"{""Q0"":""ruth is arguing with kate.""}","<img src=""stim_listA/argue7.gif""</stim_listA>",is arguing with,
16075,"<img src='img/portrait_matrix_list1.JPG' style='width:900px;height:500px;''></img><p>If you have memorised all the portraits and names and are ready to start, press Continue.</p><p><strong>Please note: Your memory of these faces will be tested 4 times during this experiment.</strong></p>",0,html-button-response,130,665311,0.0-14.0-0.0,38387,List1A,black,man,,,,,,,,
3341,"<img src=""portrait/WW1.jpg""style=""width:400px;height:400px;""></img>",1,html-button-response,131,669654,0.0-14.0-1.0,38387,List1A,black,man,,TRUE,1,,,,,
null,CORRECT,,html-keyboard-response,132,671157,0.0-14.0-2.0-0.0,38387,List1A,black,man,,,,null,,,,
2817,"<img src=""portrait/BW2.jpg""style=""width:400px;height:400px;""></img>",2,html-button-response,133,673975,0.0-14.0-4.0,38387,List1A,black,man,,TRUE,2,,,,,
null,CORRECT,,html-keyboard-response,134,675477,0.0-14.0-5.0-0.0,38387,List1A,black,man,,,,null,,,,
2698,"<img src=""portrait/WM2.jpg""style=""width:400px;height:400px;""></img>",7,html-button-response,135,678176,0.0-14.0-7.0,38387,List1A,black,man,,TRUE,7,,,,,
null,CORRECT,,html-keyboard-response,136,679677,0.0-14.0-8.0-0.0,38387,List1A,black,man,,,,null,,,,
2625,"<img src=""portrait/WM1.jpg""style=""width:400px;height:400px;""></img>",6,html-button-response,137,682302,0.0-14.0-10.0,38387,List1A,black,man,,TRUE,6,,,,,
null,CORRECT,,html-keyboard-response,138,683804,0.0-14.0-11.0-0.0,38387,List1A,black,man,,,,null,,,,
2902,"<img src=""portrait/BW1.jpg""style=""width:400px;height:400px;""></img>",0,html-button-response,139,686706,0.0-14.0-13.0,38387,List1A,black,man,,TRUE,0,,,,,
null,CORRECT,,html-keyboard-response,140,688208,0.0-14.0-14.0-0.0,38387,List1A,black,man,,,,null,,,,
2189,"<img src=""portrait/BM1.jpg""style=""width:400px;height:400px;""></img>",4,html-button-response,141,690397,0.0-14.0-16.0,38387,List1A,black,man,,TRUE,4,,,,,
null,CORRECT,,html-keyboard-response,142,691899,0.0-14.0-17.0-0.0,38387,List1A,black,man,,,,null,,,,
2505,"<img src=""portrait/BM2.jpg""style=""width:400px;height:400px;""></img>",5,html-button-response,143,694404,0.0-14.0-19.0,38387,List1A,black,man,,TRUE,5,,,,,
null,CORRECT,,html-keyboard-response,144,695907,0.0-14.0-20.0-0.0,38387,List1A,black,man,,,,null,,,,
2694,"<img src=""portrait/WW2.jpg""style=""width:400px;height:400px;""></img>",3,html-button-response,145,698601,0.0-14.0-22.0,38387,List1A,black,man,,TRUE,3,,,,,
null,CORRECT,,html-keyboard-response,146,700104,0.0-14.0-23.0-0.0,38387,List1A,black,man,,,,null,,,,
1770,<p>You got 8 out of 8 right first time. Press Continue.</p>,0,html-button-response,147,701874,0.0-14.0-25.0,38387,List1A,black,man,,,,,,,,
null,"<div style=""font-size:60px;"">+</div>",,html-keyboard-response,148,703375,0.0-15.0-0.0,38387,List1A,black,man,,,,null,,,,
null,"<img src=""stim_listA/fight5.gif""</stim_listA>",,html-keyboard-response,149,705376,0.0-15.0-1.0,38387,List1A,black,man,,,,null,,,,
null,is fighting,,html-keyboard-response,150,707378,0.0-15.0-2.0,38387,List1A,black,man,,,,null,,,,
9459,,,survey-text,151,716838,0.0-15.0-3.0,38387,List1A,black,man,,,,,"{""Q0"":""dave is fighting mike.""}","<img src=""stim_listA/fight5.gif""</stim_listA>",is fighting,
null,"<div style=""font-size:60px;"">+</div>",,html-keyboard-response,152,717338,0.0-15.0-0.1,38387,List1A,black,man,,,,null,,,,
null,"<img src=""stim_listA/kiss6.gif""</stim_listA>",,html-keyboard-response,153,719339,0.0-15.0-1.1,38387,List1A,black,man,,,,null,,,,
null,are kissing each other,,html-keyboard-response,154,721341,0.0-15.0-2.1,38387,List1A,black,man,,,,null,,,,
13998,,,survey-text,155,735339,0.0-15.0-3.1,38387,List1A,black,man,,,,,"{""Q0"":""mike and dave are kissing each other.""}","<img src=""stim_listA/kiss6.gif""</stim_listA>",are kissing each other,
null,"<div style=""font-size:60px;"">+</div>",,html-keyboard-response,156,735840,0.0-15.0-0.2,38387,List1A,black,man,,,,null,,,,
null,"<img src=""stim_listA/talk1.gif""</stim_listA>",,html-keyboard-response,157,737841,0.0-15.0-1.2,38387,List1A,black,man,,,,null,,,,
null,is talking to,,html-keyboard-response,158,739842,0.0-15.0-2.2,38387,List1A,black,man,,,,null,,,,
7093,,,survey-text,159,746936,0.0-15.0-3.2,38387,List1A,black,man,,,,,"{""Q0"":""fred is talking to kate.""}","<img src=""stim_listA/talk1.gif""</stim_listA>",is talking to,
null,"<div style=""font-size:60px;"">+</div>",,html-keyboard-response,160,747436,0.0-15.0-0.3,38387,List1A,black,man,,,,null,,,,
null,"<img src=""stim_listA/kiss7.gif""</stim_listA>",,html-keyboard-response,161,749437,0.0-15.0-1.3,38387,List1A,black,man,,,,null,,,,
null,is kissing,,html-keyboard-response,162,751438,0.0-15.0-2.3,38387,List1A,black,man,,,,null,,,,
6931,,,survey-text,163,758370,0.0-15.0-3.3,38387,List1A,black,man,,,,,"{""Q0"":""ruth is kissing beth.""}","<img src=""stim_listA/kiss7.gif""</stim_listA>",is kissing,
null,"<div style=""font-size:60px;"">+</div>",,html-keyboard-response,164,758872,0.0-15.0-0.4,38387,List1A,black,man,,,,null,,,,
null,"<img src=""stim_listA/fight2.gif""</stim_listA>",,html-keyboard-response,165,760873,0.0-15.0-1.4,38387,List1A,black,man,,,,null,,,,
null,are fighting each other,,html-keyboard-response,166,762874,0.0-15.0-2.4,38387,List1A,black,man,,,,null,,,,
13942,,,survey-text,167,776816,0.0-15.0-3.4,38387,List1A,black,man,,,,,"{""Q0"":""beth and fred are fighting each other.""}","<img src=""stim_listA/fight2.gif""</stim_listA>",are fighting each other,
null,"<div style=""font-size:60px;"">+</div>",,html-keyboard-response,168,777318,0.0-15.0-0.5,38387,List1A,black,man,,,,null,,,,
null,"<img src=""stim_listA/hug8.gif""</stim_listA>",,html-keyboard-response,169,779319,0.0-15.0-1.5,38387,List1A,black,man,,,,null,,,,
null,are hugging each other,,html-keyboard-response,170,781320,0.0-15.0-2.5,38387,List1A,black,man,,,,null,,,,
15046,,,survey-text,171,796367,0.0-15.0-3.5,38387,List1A,black,man,,,,,"{""Q0"":""jane and kate are hugging each other.""}","<img src=""stim_listA/hug8.gif""</stim_listA>",are hugging each other,
null,"<div style=""font-size:60px;"">+</div>",,html-keyboard-response,172,796869,0.0-15.0-0.6,38387,List1A,black,man,,,,null,,,,
null,"<img src=""stim_listA/touch1.gif""</stim_listA>",,html-keyboard-response,173,798870,0.0-15.0-1.6,38387,List1A,black,man,,,,null,,,,
null,is touching,,html-keyboard-response,174,800871,0.0-15.0-2.6,38387,List1A,black,man,,,,null,,,,
8931,,,survey-text,175,809802,0.0-15.0-3.6,38387,List1A,black,man,,,,,"{""Q0"":""kate is touching mike.""}","<img src=""stim_listA/touch1.gif""</stim_listA>",is touching,
null,"<div style=""font-size:60px;"">+</div>",,html-keyboard-response,176,810303,0.0-15.0-0.7,38387,List1A,black,man,,,,null,,,,
null,"<img src=""stim_listA/argue4.gif""</stim_listA>",,html-keyboard-response,177,812304,0.0-15.0-1.7,38387,List1A,black,man,,,,null,,,,
null,are arguing with each other,,html-keyboard-response,178,814305,0.0-15.0-2.7,38387,List1A,black,man,,,,null,,,,
12876,,,survey-text,179,827182,0.0-15.0-3.7,38387,List1A,black,man,,,,,"{""Q0"":""jane and luke are arguing with each other.""}","<img src=""stim_listA/argue4.gif""</stim_listA>",are arguing with each other,
null,"<div style=""font-size:60px;"">+</div>",,html-keyboard-response,180,827684,0.0-15.0-0.8,38387,List1A,black,man,,,,null,,,,
null,"<img src=""stim_listA/marry2.gif""</stim_listA>",,html-keyboard-response,181,829685,0.0-15.0-1.8,38387,List1A,black,man,,,,null,,,,
null,are marrying each other,,html-keyboard-response,182,831687,0.0-15.0-2.8,38387,List1A,black,man,,,,null,,,,
16982,,,survey-text,183,848669,0.0-15.0-3.8,38387,List1A,black,man,,,,,"{""Q0"":""fred and kate are marrying each other.""}","<img src=""stim_listA/marry2.gif""</stim_listA>",are marrying each other,
null,"<div style=""font-size:60px;"">+</div>",,html-keyboard-response,184,849170,0.0-15.0-0.9,38387,List1A,black,man,,,,null,,,,
null,"<img src=""stim_listA/dance5.gif""</stim_listA>",,html-keyboard-response,185,851172,0.0-15.0-1.9,38387,List1A,black,man,,,,null,,,,
null,is dancing with,,html-keyboard-response,186,853174,0.0-15.0-2.9,38387,List1A,black,man,,,,null,,,,
7954,,,survey-text,187,861130,0.0-15.0-3.9,38387,List1A,black,man,,,,,"{""Q0"":""fred is dancing with dave.""}","<img src=""stim_listA/dance5.gif""</stim_listA>",is dancing with,
null,"<div style=""font-size:60px;"">+</div>",,html-keyboard-response,188,861630,0.0-15.0-0.10,38387,List1A,black,man,,,,null,,,,
null,"<img src=""stim_listA/hug7.gif""</stim_listA>",,html-keyboard-response,189,863631,0.0-15.0-1.10,38387,List1A,black,man,,,,null,,,,
null,is hugging,,html-keyboard-response,190,865632,0.0-15.0-2.10,38387,List1A,black,man,,,,null,,,,
9322,,,survey-text,191,874955,0.0-15.0-3.10,38387,List1A,black,man,,,,,"{""Q0"":""ruth is hugging beth.""}","<img src=""stim_listA/hug7.gif""</stim_listA>",is hugging,
null,"<div style=""font-size:60px;"">+</div>",,html-keyboard-response,192,875456,0.0-15.0-0.11,38387,List1A,black,man,,,,null,,,,
null,"<img src=""stim_listA/shout5.gif""</stim_listA>",,html-keyboard-response,193,877458,0.0-15.0-1.11,38387,List1A,black,man,,,,null,,,,
null,is shouting at,,html-keyboard-response,194,879459,0.0-15.0-2.11,38387,List1A,black,man,,,,null,,,,
28138,,,survey-text,195,907598,0.0-15.0-3.11,38387,List1A,black,man,,,,,"{""Q0"":""fred is shouting at luke.""}","<img src=""stim_listA/shout5.gif""</stim_listA>",is shouting at,
null,"<div style=""font-size:60px;"">+</div>",,html-keyboard-response,196,908099,0.0-15.0-0.12,38387,List1A,black,man,,,,null,,,,
null,"<img src=""stim_listA/dance3.gif""</stim_listA>",,html-keyboard-response,197,910101,0.0-15.0-1.12,38387,List1A,black,man,,,,null,,,,
null,is dancing with,,html-keyboard-response,198,912102,0.0-15.0-2.12,38387,List1A,black,man,,,,null,,,,
9201,,,survey-text,199,921304,0.0-15.0-3.12,38387,List1A,black,man,,,,,"{""Q0"":""luke is dancing with jane.""}","<img src=""stim_listA/dance3.gif""</stim_listA>",is dancing with,
null,"<div style=""font-size:60px;"">+</div>",,html-keyboard-response,200,921804,0.0-15.0-0.13,38387,List1A,black,man,,,,null,,,,
null,"<img src=""stim_listA/hug4.gif""</stim_listA>",,html-keyboard-response,201,923806,0.0-15.0-1.13,38387,List1A,black,man,,,,null,,,,
null,are hugging each other,,html-keyboard-response,202,925807,0.0-15.0-2.13,38387,List1A,black,man,,,,null,,,,
17741,,,survey-text,203,943548,0.0-15.0-3.13,38387,List1A,black,man,,,,,"{""Q0"":""jane and dave are hugging each other.""}","<img src=""stim_listA/hug4.gif""</stim_listA>",are hugging each other,
null,"<div style=""font-size:60px;"">+</div>",,html-keyboard-response,204,944049,0.0-15.0-0.14,38387,List1A,black,man,,,,null,,,,
null,"<img src=""stim_listA/meet4.gif""</stim_listA>",,html-keyboard-response,205,946051,0.0-15.0-1.14,38387,List1A,black,man,,,,null,,,,
null,are meeting each other,,html-keyboard-response,206,948052,0.0-15.0-2.14,38387,List1A,black,man,,,,null,,,,
12519,,,survey-text,207,960572,0.0-15.0-3.14,38387,List1A,black,man,,,,,"{""Q0"":""luke and ruth are meeting each other.""}","<img src=""stim_listA/meet4.gif""</stim_listA>",are meeting each other,
null,"<div style=""font-size:60px;"">+</div>",,html-keyboard-response,208,961074,0.0-15.0-0.15,38387,List1A,black,man,,,,null,,,,
null,"<img src=""stim_listA/meet3.gif""</stim_listA>",,html-keyboard-response,209,963076,0.0-15.0-1.15,38387,List1A,black,man,,,,null,,,,
null,is meeting,,html-keyboard-response,210,965077,0.0-15.0-2.15,38387,List1A,black,man,,,,null,,,,
8846,,,survey-text,211,973924,0.0-15.0-3.15,38387,List1A,black,man,,,,,"{""Q0"":""dave is meeting jane.""}","<img src=""stim_listA/meet3.gif""</stim_listA>",is meeting,
null,"<div style=""font-size:60px;"">+</div>",,html-keyboard-response,212,974425,0.0-15.0-0.16,38387,List1A,black,man,,,,null,,,,
null,"<img src=""stim_listA/marry3.gif""</stim_listA>",,html-keyboard-response,213,976426,0.0-15.0-1.16,38387,List1A,black,man,,,,null,,,,
null,is marrying,,html-keyboard-response,214,978427,0.0-15.0-2.16,38387,List1A,black,man,,,,null,,,,
7814,,,survey-text,215,986242,0.0-15.0-3.16,38387,List1A,black,man,,,,,"{""Q0"":""dave is marrying ruth.""}","<img src=""stim_listA/marry3.gif""</stim_listA>",is marrying,
null,"<div style=""font-size:60px;"">+</div>",,html-keyboard-response,216,986743,0.0-15.0-0.17,38387,List1A,black,man,,,,null,,,,
null,"<img src=""stim_listA/kiss8.gif""</stim_listA>",,html-keyboard-response,217,988745,0.0-15.0-1.17,38387,List1A,black,man,,,,null,,,,
null,are kissing each other,,html-keyboard-response,218,990746,0.0-15.0-2.17,38387,List1A,black,man,,,,null,,,,
12856,,,survey-text,219,1003602,0.0-15.0-3.17,38387,List1A,black,man,,,,,"{""Q0"":""kate and jane are kissing each other.""}","<img src=""stim_listA/kiss8.gif""</stim_listA>",are kissing each other,
null,"<div style=""font-size:60px;"">+</div>",,html-keyboard-response,220,1004104,0.0-15.0-0.18,38387,List1A,black,man,,,,null,,,,
null,"<img src=""stim_listA/marry1.gif""</stim_listA>",,html-keyboard-response,221,1006105,0.0-15.0-1.18,38387,List1A,black,man,,,,null,,,,
null,is marrying,,html-keyboard-response,222,1008105,0.0-15.0-2.18,38387,List1A,black,man,,,,null,,,,
19398,,,survey-text,223,1027504,0.0-15.0-3.18,38387,List1A,black,man,,,,,"{""Q0"":""mike is marrying beth.""}","<img src=""stim_listA/marry1.gif""</stim_listA>",is marrying,
null,"<div style=""font-size:60px;"">+</div>",,html-keyboard-response,224,1028006,0.0-15.0-0.19,38387,List1A,black,man,,,,null,,,,
null,"<img src=""stim_listA/talk6.gif""</stim_listA>",,html-keyboard-response,225,1030007,0.0-15.0-1.19,38387,List1A,black,man,,,,null,,,,
null,are talking to each other,,html-keyboard-response,226,1032009,0.0-15.0-2.19,38387,List1A,black,man,,,,null,,,,
61626,,,survey-text,227,1093635,0.0-15.0-3.19,38387,List1A,black,man,,,,,"{""Q0"":""luke and mike are talking with each other.""}","<img src=""stim_listA/talk6.gif""</stim_listA>",are talking to each other,
11384,"<img src='img/portrait_matrix_list1.JPG' style='width:900px;height:500px;''></img><p>If you have memorised all the portraits and names and are ready to start, press Continue.</p><p><strong>Please note: Your memory of these faces will be tested 4 times during this experiment.</strong></p>",0,html-button-response,228,1105020,0.0-16.0-0.0,38387,List1A,black,man,,,,,,,,
3004,"<img src=""portrait/BW2.jpg""style=""width:400px;height:400px;""></img>",2,html-button-response,229,1109026,0.0-16.0-1.0,38387,List1A,black,man,,TRUE,2,,,,,
null,CORRECT,,html-keyboard-response,230,1110527,0.0-16.0-2.0-0.0,38387,List1A,black,man,,,,null,,,,
2724,"<img src=""portrait/WM1.jpg""style=""width:400px;height:400px;""></img>",6,html-button-response,231,1113252,0.0-16.0-4.0,38387,List1A,black,man,,TRUE,6,,,,,
null,CORRECT,,html-keyboard-response,232,1114754,0.0-16.0-5.0-0.0,38387,List1A,black,man,,,,null,,,,
2692,"<img src=""portrait/WW1.jpg""style=""width:400px;height:400px;""></img>",1,html-button-response,233,1117447,0.0-16.0-7.0,38387,List1A,black,man,,TRUE,1,,,,,
null,CORRECT,,html-keyboard-response,234,1119314,0.0-16.0-8.0-0.0,38387,List1A,black,man,,,,null,,,,
11460,"<img src=""portrait/WM2.jpg""style=""width:400px;height:400px;""></img>",7,html-button-response,235,1130775,0.0-16.0-10.0,38387,List1A,black,man,,TRUE,7,,,,,
null,CORRECT,,html-keyboard-response,236,1132277,0.0-16.0-11.0-0.0,38387,List1A,black,man,,,,null,,,,
1871,"<img src=""portrait/WW2.jpg""style=""width:400px;height:400px;""></img>",3,html-button-response,237,1134149,0.0-16.0-13.0,38387,List1A,black,man,,TRUE,3,,,,,
null,CORRECT,,html-keyboard-response,238,1135651,0.0-16.0-14.0-0.0,38387,List1A,black,man,,,,null,,,,
3326,"<img src=""portrait/BM2.jpg""style=""width:400px;height:400px;""></img>",5,html-button-response,239,1138977,0.0-16.0-16.0,38387,List1A,black,man,,TRUE,5,,,,,
null,CORRECT,,html-keyboard-response,240,1140478,0.0-16.0-17.0-0.0,38387,List1A,black,man,,,,null,,,,
2803,"<img src=""portrait/BW1.jpg""style=""width:400px;height:400px;""></img>",0,html-button-response,241,1143282,0.0-16.0-19.0,38387,List1A,black,man,,TRUE,0,,,,,
null,CORRECT,,html-keyboard-response,242,1144784,0.0-16.0-20.0-0.0,38387,List1A,black,man,,,,null,,,,
2607,"<img src=""portrait/BM1.jpg""style=""width:400px;height:400px;""></img>",4,html-button-response,243,1147392,0.0-16.0-22.0,38387,List1A,black,man,,TRUE,4,,,,,
null,CORRECT,,html-keyboard-response,244,1148896,0.0-16.0-23.0-0.0,38387,List1A,black,man,,,,null,,,,
1783,<p>You got 8 out of 8 right first time. Press Continue.</p>,0,html-button-response,245,1150680,0.0-16.0-25.0,38387,List1A,black,man,,,,,,,,
null,"<div style=""font-size:60px;"">+</div>",,html-keyboard-response,246,1152182,0.0-17.0-0.0,38387,List1A,black,man,,,,null,,,,
null,"<img src=""stim_listA/touch6.gif""</stim_listA>",,html-keyboard-response,247,1154183,0.0-17.0-1.0,38387,List1A,black,man,,,,null,,,,
null,are touching each other,,html-keyboard-response,248,1156184,0.0-17.0-2.0,38387,List1A,black,man,,,,null,,,,
12713,,,survey-text,249,1168897,0.0-17.0-3.0,38387,List1A,black,man,,,,,"{""Q0"":""fred and luke are touching each other.""}","<img src=""stim_listA/touch6.gif""</stim_listA>",are touching each other,
null,"<div style=""font-size:60px;"">+</div>",,html-keyboard-response,250,1169399,0.0-17.0-0.1,38387,List1A,black,man,,,,null,,,,
null,"<img src=""stim_listA/hug6.gif""</stim_listA>",,html-keyboard-response,251,1171401,0.0-17.0-1.1,38387,List1A,black,man,,,,null,,,,
null,are hugging each other,,html-keyboard-response,252,1173402,0.0-17.0-2.1,38387,List1A,black,man,,,,null,,,,
20195,,,survey-text,253,1193598,0.0-17.0-3.1,38387,List1A,black,man,,,,,"{""Q0"":""mike and dave are hugging each other.""}","<img src=""stim_listA/hug6.gif""</stim_listA>",are hugging each other,
null,"<div style=""font-size:60px;"">+</div>",,html-keyboard-response,254,1194099,0.0-17.0-0.2,38387,List1A,black,man,,,,null,,,,
null,"<img src=""stim_listA/fight8.gif""</stim_listA>",,html-keyboard-response,255,1196101,0.0-17.0-1.2,38387,List1A,black,man,,,,null,,,,
null,are fighting each other,,html-keyboard-response,256,1198102,0.0-17.0-2.2,38387,List1A,black,man,,,,null,,,,
15683,,,survey-text,257,1213787,0.0-17.0-3.2,38387,List1A,black,man,,,,,"{""Q0"":""beth and ruth are fighting each other.""}","<img src=""stim_listA/fight8.gif""</stim_listA>",are fighting each other,
null,"<div style=""font-size:60px;"">+</div>",,html-keyboard-response,258,1214288,0.0-17.0-0.3,38387,List1A,black,man,,,,null,,,,
null,"<img src=""stim_listA/hug1.gif""</stim_listA>",,html-keyboard-response,259,1216289,0.0-17.0-1.3,38387,List1A,black,man,,,,null,,,,
null,is hugging,,html-keyboard-response,260,1218291,0.0-17.0-2.3,38387,List1A,black,man,,,,null,,,,
6894,,,survey-text,261,1225186,0.0-17.0-3.3,38387,List1A,black,man,,,,,"{""Q0"":""fred is hugging beth.""}","<img src=""stim_listA/hug1.gif""</stim_listA>",is hugging,
null,"<div style=""font-size:60px;"">+</div>",,html-keyboard-response,262,1225688,0.0-17.0-0.4,38387,List1A,black,man,,,,null,,,,
null,"<img src=""stim_listA/marry7.gif""</stim_listA>",,html-keyboard-response,263,1227689,0.0-17.0-1.4,38387,List1A,black,man,,,,null,,,,
null,is marrying,,html-keyboard-response,264,1229690,0.0-17.0-2.4,38387,List1A,black,man,,,,null,,,,
19471,,,survey-text,265,1249161,0.0-17.0-3.4,38387,List1A,black,man,,,,,"{""Q0"":""ruth is marrying kate.""}","<img src=""stim_listA/marry7.gif""</stim_listA>",is marrying,
null,"<div style=""font-size:60px;"">+</div>",,html-keyboard-response,266,1249663,0.0-17.0-0.5,38387,List1A,black,man,,,,null,,,,
null,"<img src=""stim_listA/argue2.gif""</stim_listA>",,html-keyboard-response,267,1251664,0.0-17.0-1.5,38387,List1A,black,man,,,,null,,,,
null,are arguing with each other,,html-keyboard-response,268,1253665,0.0-17.0-2.5,38387,List1A,black,man,,,,null,,,,
16154,,,survey-text,269,1269820,0.0-17.0-3.5,38387,List1A,black,man,,,,,"{""Q0"":""kate and fred are arguing with each other.""}","<img src=""stim_listA/argue2.gif""</stim_listA>",are arguing with each other,
null,"<div style=""font-size:60px;"">+</div>",,html-keyboard-response,270,1270322,0.0-17.0-0.6,38387,List1A,black,man,,,,null,,,,
null,"<img src=""stim_listA/hug5.gif""</stim_listA>",,html-keyboard-response,271,1272323,0.0-17.0-1.6,38387,List1A,black,man,,,,null,,,,
null,is hugging,,html-keyboard-response,272,1274323,0.0-17.0-2.6,38387,List1A,black,man,,,,null,,,,
21400,,,survey-text,273,1295724,0.0-17.0-3.6,38387,List1A,black,man,,,,,"{""Q0"":""fred is hugging luke.""}","<img src=""stim_listA/hug5.gif""</stim_listA>",is hugging,
null,"<div style=""font-size:60px;"">+</div>",,html-keyboard-response,274,1296225,0.0-17.0-0.7,38387,List1A,black,man,,,,null,,,,
null,"<img src=""stim_listA/talk4.gif""</stim_listA>",,html-keyboard-response,275,1298226,0.0-17.0-1.7,38387,List1A,black,man,,,,null,,,,
null,are talking to each other,,html-keyboard-response,276,1300227,0.0-17.0-2.7,38387,List1A,black,man,,,,null,,,,
17089,,,survey-text,277,1317317,0.0-17.0-3.7,38387,List1A,black,man,,,,,"{""Q0"":""dave and ruth are talking to each other.""}","<img src=""stim_listA/talk4.gif""</stim_listA>",are talking to each other,
null,"<div style=""font-size:60px;"">+</div>",,html-keyboard-response,278,1317819,0.0-17.0-0.8,38387,List1A,black,man,,,,null,,,,
null,"<img src=""stim_listA/dance1.gif""</stim_listA>",,html-keyboard-response,279,1319821,0.0-17.0-1.8,38387,List1A,black,man,,,,null,,,,
null,is dancing with,,html-keyboard-response,280,1321822,0.0-17.0-2.8,38387,List1A,black,man,,,,null,,,,
10965,,,survey-text,281,1332787,0.0-17.0-3.8,38387,List1A,black,man,,,,,"{""Q0"":""fred is dancing with kate.""}","<img src=""stim_listA/dance1.gif""</stim_listA>",is dancing with,
null,"<div style=""font-size:60px;"">+</div>",,html-keyboard-response,282,1333288,0.0-17.0-0.9,38387,List1A,black,man,,,,null,,,,
null,"<img src=""stim_listA/touch7.gif""</stim_listA>",,html-keyboard-response,283,1335290,0.0-17.0-1.9,38387,List1A,black,man,,,,null,,,,
null,is touching,,html-keyboard-response,284,1337291,0.0-17.0-2.9,38387,List1A,black,man,,,,null,,,,
8434,,,survey-text,285,1345726,0.0-17.0-3.9,38387,List1A,black,man,,,,,"{""Q0"":""jane is touching kate.""}","<img src=""stim_listA/touch7.gif""</stim_listA>",is touching,
null,"<div style=""font-size:60px;"">+</div>",,html-keyboard-response,286,1346227,0.0-17.0-0.10,38387,List1A,black,man,,,,null,,,,
null,"<img src=""stim_listA/kiss3.gif""</stim_listA>",,html-keyboard-response,287,1348228,0.0-17.0-1.10,38387,List1A,black,man,,,,null,,,,
null,is kissing,,html-keyboard-response,288,1350229,0.0-17.0-2.10,38387,List1A,black,man,,,,null,,,,
11360,,,survey-text,289,1361590,0.0-17.0-3.10,38387,List1A,black,man,,,,,"{""Q0"":""luke is kissing ruth.""}","<img src=""stim_listA/kiss3.gif""</stim_listA>",is kissing,
null,"<div style=""font-size:60px;"">+</div>",,html-keyboard-response,290,1362091,0.0-17.0-0.11,38387,List1A,black,man,,,,null,,,,
null,"<img src=""stim_listA/marry8.gif""</stim_listA>",,html-keyboard-response,291,1364092,0.0-17.0-1.11,38387,List1A,black,man,,,,null,,,,
null,are marrying each other,,html-keyboard-response,292,1366092,0.0-17.0-2.11,38387,List1A,black,man,,,,null,,,,
11661,,,survey-text,293,1377754,0.0-17.0-3.11,38387,List1A,black,man,,,,,"{""Q0"":""beth and jane are marrying each other.""}","<img src=""stim_listA/marry8.gif""</stim_listA>",are marrying each other,
null,"<div style=""font-size:60px;"">+</div>",,html-keyboard-response,294,1378255,0.0-17.0-0.12,38387,List1A,black,man,,,,null,,,,
null,"<img src=""stim_listA/shout1.gif""</stim_listA>",,html-keyboard-response,295,1380256,0.0-17.0-1.12,38387,List1A,black,man,,,,null,,,,
null,is shouting at,,html-keyboard-response,296,1382258,0.0-17.0-2.12,38387,List1A,black,man,,,,null,,,,
9865,,,survey-text,297,1392124,0.0-17.0-3.12,38387,List1A,black,man,,,,,"{""Q0"":""fred is shouting at beth.""}","<img src=""stim_listA/shout1.gif""</stim_listA>",is shouting at,
null,"<div style=""font-size:60px;"">+</div>",,html-keyboard-response,298,1392626,0.0-17.0-0.13,38387,List1A,black,man,,,,null,,,,
null,"<img src=""stim_listA/fight3.gif""</stim_listA>",,html-keyboard-response,299,1394627,0.0-17.0-1.13,38387,List1A,black,man,,,,null,,,,
null,is fighting,,html-keyboard-response,300,1396628,0.0-17.0-2.13,38387,List1A,black,man,,,,null,,,,
6906,,,survey-text,301,1403534,0.0-17.0-3.13,38387,List1A,black,man,,,,,"{""Q0"":""dave is fighting jane.""}","<img src=""stim_listA/fight3.gif""</stim_listA>",is fighting,
null,"<div style=""font-size:60px;"">+</div>",,html-keyboard-response,302,1404035,0.0-17.0-0.14,38387,List1A,black,man,,,,null,,,,
null,"<img src=""stim_listA/meet2.gif""</stim_listA>",,html-keyboard-response,303,1406036,0.0-17.0-1.14,38387,List1A,black,man,,,,null,,,,
null,are meeting each other,,html-keyboard-response,304,1408037,0.0-17.0-2.14,38387,List1A,black,man,,,,null,,,,
19680,,,survey-text,305,1427718,0.0-17.0-3.14,38387,List1A,black,man,,,,,"{""Q0"":""beth and fred are meeting each other.""}","<img src=""stim_listA/meet2.gif""</stim_listA>",are meeting each other,
null,"<div style=""font-size:60px;"">+</div>",,html-keyboard-response,306,1428219,0.0-17.0-0.15,38387,List1A,black,man,,,,null,,,,
null,"<img src=""stim_listA/talk8.gif""</stim_listA>",,html-keyboard-response,307,1430220,0.0-17.0-1.15,38387,List1A,black,man,,,,null,,,,
null,are talking to each other,,html-keyboard-response,308,1432222,0.0-17.0-2.15,38387,List1A,black,man,,,,null,,,,
16130,,,survey-text,309,1448352,0.0-17.0-3.15,38387,List1A,black,man,,,,,"{""Q0"":""ruth and kate are talking to each other.""}","<img src=""stim_listA/talk8.gif""</stim_listA>",are talking to each other,
null,"<div style=""font-size:60px;"">+</div>",,html-keyboard-response,310,1448854,0.0-17.0-0.16,38387,List1A,black,man,,,,null,,,,
null,"<img src=""stim_listA/fight7.gif""</stim_listA>",,html-keyboard-response,311,1450855,0.0-17.0-1.16,38387,List1A,black,man,,,,null,,,,
null,is fighting,,html-keyboard-response,312,1452856,0.0-17.0-2.16,38387,List1A,black,man,,,,null,,,,
11016,,,survey-text,313,1463872,0.0-17.0-3.16,38387,List1A,black,man,,,,,"{""Q0"":""kate is fighting jane.""}","<img src=""stim_listA/fight7.gif""</stim_listA>",is fighting,
null,"<div style=""font-size:60px;"">+</div>",,html-keyboard-response,314,1464374,0.0-17.0-0.17,38387,List1A,black,man,,,,null,,,,
null,"<img src=""stim_listA/meet5.gif""</stim_listA>",,html-keyboard-response,315,1466375,0.0-17.0-1.17,38387,List1A,black,man,,,,null,,,,
null,is meeting,,html-keyboard-response,316,1468376,0.0-17.0-2.17,38387,List1A,black,man,,,,null,,,,
9020,,,survey-text,317,1477398,0.0-17.0-3.17,38387,List1A,black,man,,,,,"{""Q0"":""mike is meeting dave.""}","<img src=""stim_listA/meet5.gif""</stim_listA>",is meeting,
null,"<div style=""font-size:60px;"">+</div>",,html-keyboard-response,318,1477898,0.0-17.0-0.18,38387,List1A,black,man,,,,null,,,,
null,"<img src=""stim_listA/argue8.gif""</stim_listA>",,html-keyboard-response,319,1479899,0.0-17.0-1.18,38387,List1A,black,man,,,,null,,,,
null,are arguing with each other,,html-keyboard-response,320,1481900,0.0-17.0-2.18,38387,List1A,black,man,,,,null,,,,
13099,,,survey-text,321,1495000,0.0-17.0-3.18,38387,List1A,black,man,,,,,"{""Q0"":""beth and jane are arguing with each other.""}","<img src=""stim_listA/argue8.gif""</stim_listA>",are arguing with each other,
null,"<div style=""font-size:60px;"">+</div>",,html-keyboard-response,322,1495503,0.0-17.0-0.19,38387,List1A,black,man,,,,null,,,,
null,"<img src=""stim_listA/shout4.gif""</stim_listA>",,html-keyboard-response,323,1497505,0.0-17.0-1.19,38387,List1A,black,man,,,,null,,,,
null,are shouting at each other,,html-keyboard-response,324,1499506,0.0-17.0-2.19,38387,List1A,black,man,,,,null,,,,
22741,,,survey-text,325,1522248,0.0-17.0-3.19,38387,List1A,black,man,,,,,"{""Q0"":""dave and jane are shouting at each other.""}","<img src=""stim_listA/shout4.gif""</stim_listA>",are shouting at each other,
2421,"<img src='img/portrait_matrix_list1.JPG' style='width:900px;height:500px;''></img><p>If you have memorised all the portraits and names and are ready to start, press Continue.</p><p><strong>Please note: Your memory of these faces will be tested 4 times during this experiment.</strong></p>",0,html-button-response,326,1524670,0.0-18.0-0.0,38387,List1A,black,man,,,,,,,,
2099,"<img src=""portrait/WW1.jpg""style=""width:400px;height:400px;""></img>",1,html-button-response,327,1527770,0.0-18.0-1.0,38387,List1A,black,man,,TRUE,1,,,,,
null,CORRECT,,html-keyboard-response,328,1529271,0.0-18.0-2.0-0.0,38387,List1A,black,man,,,,null,,,,
1238,"<img src=""portrait/WW2.jpg""style=""width:400px;height:400px;""></img>",3,html-button-response,329,1530510,0.0-18.0-4.0,38387,List1A,black,man,,TRUE,3,,,,,
null,CORRECT,,html-keyboard-response,330,1532013,0.0-18.0-5.0-0.0,38387,List1A,black,man,,,,null,,,,
1507,"<img src=""portrait/BW2.jpg""style=""width:400px;height:400px;""></img>",2,html-button-response,331,1533520,0.0-18.0-7.0,38387,List1A,black,man,,TRUE,2,,,,,
null,CORRECT,,html-keyboard-response,332,1535022,0.0-18.0-8.0-0.0,38387,List1A,black,man,,,,null,,,,
1807,"<img src=""portrait/WM1.jpg""style=""width:400px;height:400px;""></img>",6,html-button-response,333,1536830,0.0-18.0-10.0,38387,List1A,black,man,,TRUE,6,,,,,
null,CORRECT,,html-keyboard-response,334,1538332,0.0-18.0-11.0-0.0,38387,List1A,black,man,,,,null,,,,
856,"<img src=""portrait/WM2.jpg""style=""width:400px;height:400px;""></img>",7,html-button-response,335,1539189,0.0-18.0-13.0,38387,List1A,black,man,,TRUE,7,,,,,
null,CORRECT,,html-keyboard-response,336,1540691,0.0-18.0-14.0-0.0,38387,List1A,black,man,,,,null,,,,
1795,"<img src=""portrait/BM2.jpg""style=""width:400px;height:400px;""></img>",5,html-button-response,337,1542486,0.0-18.0-16.0,38387,List1A,black,man,,TRUE,5,,,,,
null,CORRECT,,html-keyboard-response,338,1543990,0.0-18.0-17.0-0.0,38387,List1A,black,man,,,,null,,,,
1071,"<img src=""portrait/BM1.jpg""style=""width:400px;height:400px;""></img>",4,html-button-response,339,1545061,0.0-18.0-19.0,38387,List1A,black,man,,TRUE,4,,,,,
null,CORRECT,,html-keyboard-response,340,1546562,0.0-18.0-20.0-0.0,38387,List1A,black,man,,,,null,,,,
1478,"<img src=""portrait/BW1.jpg""style=""width:400px;height:400px;""></img>",0,html-button-response,341,1548042,0.0-18.0-22.0,38387,List1A,black,man,,TRUE,0,,,,,
null,CORRECT,,html-keyboard-response,342,1549544,0.0-18.0-23.0-0.0,38387,List1A,black,man,,,,null,,,,
7576,<p>You got 8 out of 8 right first time. Press Continue.</p>,0,html-button-response,343,1557121,0.0-18.0-25.0,38387,List1A,black,man,,,,,,,,
null,"<div style=""font-size:60px;"">+</div>",,html-keyboard-response,344,1558624,0.0-19.0-0.0,38387,List1A,black,man,,,,null,,,,
null,"<img src=""stim_listA/meet6.gif""</stim_listA>",,html-keyboard-response,345,1560625,0.0-19.0-1.0,38387,List1A,black,man,,,,null,,,,
null,are meeting each other,,html-keyboard-response,346,1562626,0.0-19.0-2.0,38387,List1A,black,man,,,,null,,,,
9427,,,survey-text,347,1572053,0.0-19.0-3.0,38387,List1A,black,man,,,,,"{""Q0"":""fred and luke are meeting each other.""}","<img src=""stim_listA/meet6.gif""</stim_listA>",are meeting each other,
null,"<div style=""font-size:60px;"">+</div>",,html-keyboard-response,348,1572555,0.0-19.0-0.1,38387,List1A,black,man,,,,null,,,,
null,"<img src=""stim_listA/meet8.gif""</stim_listA>",,html-keyboard-response,349,1574556,0.0-19.0-1.1,38387,List1A,black,man,,,,null,,,,
null,are meeting each other,,html-keyboard-response,350,1576557,0.0-19.0-2.1,38387,List1A,black,man,,,,null,,,,
11542,,,survey-text,351,1588100,0.0-19.0-3.1,38387,List1A,black,man,,,,,"{""Q0"":""beth and ruth are meeting each other.""}","<img src=""stim_listA/meet8.gif""</stim_listA>",are meeting each other,
null,"<div style=""font-size:60px;"">+</div>",,html-keyboard-response,352,1588601,0.0-19.0-0.2,38387,List1A,black,man,,,,null,,,,
null,"<img src=""stim_listA/meet1.gif""</stim_listA>",,html-keyboard-response,353,1590603,0.0-19.0-1.2,38387,List1A,black,man,,,,null,,,,
null,is meeting,,html-keyboard-response,354,1592605,0.0-19.0-2.2,38387,List1A,black,man,,,,null,,,,
8682,,,survey-text,355,1601287,0.0-19.0-3.2,38387,List1A,black,man,,,,,"{""Q0"":""mike is meeting kate.""}","<img src=""stim_listA/meet1.gif""</stim_listA>",is meeting,
null,"<div style=""font-size:60px;"">+</div>",,html-keyboard-response,356,1601788,0.0-19.0-0.3,38387,List1A,black,man,,,,null,,,,
null,"<img src=""stim_listA/meet7.gif""</stim_listA>",,html-keyboard-response,357,1603790,0.0-19.0-1.3,38387,List1A,black,man,,,,null,,,,
null,is meeting,,html-keyboard-response,358,1605791,0.0-19.0-2.3,38387,List1A,black,man,,,,null,,,,
7908,,,survey-text,359,1613700,0.0-19.0-3.3,38387,List1A,black,man,,,,,"{""Q0"":""kate is meeting jane.""}","<img src=""stim_listA/meet7.gif""</stim_listA>",is meeting,
null,"<div style=""font-size:60px;"">+</div>",,html-keyboard-response,360,1614201,0.0-19.0-0.4,38387,List1A,black,man,,,,null,,,,
null,"<img src=""stim_listA/fight4.gif""</stim_listA>",,html-keyboard-response,361,1616202,0.0-19.0-1.4,38387,List1A,black,man,,,,null,,,,
null,are fighting each other,,html-keyboard-response,362,1618204,0.0-19.0-2.4,38387,List1A,black,man,,,,null,,,,
21606,,,survey-text,363,1639811,0.0-19.0-3.4,38387,List1A,black,man,,,,,"{""Q0"":""ruth and luke are fighting each other.""}","<img src=""stim_listA/fight4.gif""</stim_listA>",are fighting each other,
null,"<div style=""font-size:60px;"">+</div>",,html-keyboard-response,364,1640312,0.0-19.0-0.5,38387,List1A,black,man,,,,null,,,,
null,"<img src=""stim_listA/shout3.gif""</stim_listA>",,html-keyboard-response,365,1642314,0.0-19.0-1.5,38387,List1A,black,man,,,,null,,,,
null,is shouting at,,html-keyboard-response,366,1644316,0.0-19.0-2.5,38387,List1A,black,man,,,,null,,,,
13254,,,survey-text,367,1657570,0.0-19.0-3.5,38387,List1A,black,man,,,,,"{""Q0"":""luke is shouting at ruth.""}","<img src=""stim_listA/shout3.gif""</stim_listA>",is shouting at,
null,"<div style=""font-size:60px;"">+</div>",,html-keyboard-response,368,1658072,0.0-19.0-0.6,38387,List1A,black,man,,,,null,,,,
null,"<img src=""stim_listA/kiss4.gif""</stim_listA>",,html-keyboard-response,369,1660072,0.0-19.0-1.6,38387,List1A,black,man,,,,null,,,,
null,are kissing each other,,html-keyboard-response,370,1662074,0.0-19.0-2.6,38387,List1A,black,man,,,,null,,,,
14385,,,survey-text,371,1676459,0.0-19.0-3.6,38387,List1A,black,man,,,,,"{""Q0"":""dave and jane are kissing each other.""}","<img src=""stim_listA/kiss4.gif""</stim_listA>",are kissing each other,
null,"<div style=""font-size:60px;"">+</div>",,html-keyboard-response,372,1676960,0.0-19.0-0.7,38387,List1A,black,man,,,,null,,,,
null,"<img src=""stim_listA/argue5.gif""</stim_listA>",,html-keyboard-response,373,1678962,0.0-19.0-1.7,38387,List1A,black,man,,,,null,,,,
null,is arguing with,,html-keyboard-response,374,1680963,0.0-19.0-2.7,38387,List1A,black,man,,,,null,,,,
15263,,,survey-text,375,1696227,0.0-19.0-3.7,38387,List1A,black,man,,,,,"{""Q0"":""mike is arguing with luke.""}","<img src=""stim_listA/argue5.gif""</stim_listA>",is arguing with,
null,"<div style=""font-size:60px;"">+</div>",,html-keyboard-response,376,1696727,0.0-19.0-0.8,38387,List1A,black,man,,,,null,,,,
null,"<img src=""stim_listA/argue3.gif""</stim_listA>",,html-keyboard-response,377,1698729,0.0-19.0-1.8,38387,List1A,black,man,,,,null,,,,
null,is arguing with,,html-keyboard-response,378,1700730,0.0-19.0-2.8,38387,List1A,black,man,,,,null,,,,
8994,,,survey-text,379,1709725,0.0-19.0-3.8,38387,List1A,black,man,,,,,"{""Q0"":""ruth is arguing with dave.""}","<img src=""stim_listA/argue3.gif""</stim_listA>",is arguing with,
null,"<div style=""font-size:60px;"">+</div>",,html-keyboard-response,380,1710226,0.0-19.0-0.9,38387,List1A,black,man,,,,null,,,,
null,"<img src=""stim_listA/kiss5.gif""</stim_listA>",,html-keyboard-response,381,1712227,0.0-19.0-1.9,38387,List1A,black,man,,,,null,,,,
null,is kissing,,html-keyboard-response,382,1714228,0.0-19.0-2.9,38387,List1A,black,man,,,,null,,,,
11323,,,survey-text,383,1725552,0.0-19.0-3.9,38387,List1A,black,man,,,,,"{""Q0"":""fred is kissing luke.""}","<img src=""stim_listA/kiss5.gif""</stim_listA>",is kissing,
null,"<div style=""font-size:60px;"">+</div>",,html-keyboard-response,384,1726053,0.0-19.0-0.10,38387,List1A,black,man,,,,null,,,,
null,"<img src=""stim_listA/shout8.gif""</stim_listA>",,html-keyboard-response,385,1728056,0.0-19.0-1.10,38387,List1A,black,man,,,,null,,,,
null,are shouting at each other,,html-keyboard-response,386,1730057,0.0-19.0-2.10,38387,List1A,black,man,,,,null,,,,
21027,,,survey-text,387,1751085,0.0-19.0-3.10,38387,List1A,black,man,,,,,"{""Q0"":""jane and kate are shouting at each other.""}","<img src=""stim_listA/shout8.gif""</stim_listA>",are shouting at each other,
null,"<div style=""font-size:60px;"">+</div>",,html-keyboard-response,388,1751587,0.0-19.0-0.11,38387,List1A,black,man,,,,null,,,,
null,"<img src=""stim_listA/talk5.gif""</stim_listA>",,html-keyboard-response,389,1753587,0.0-19.0-1.11,38387,List1A,black,man,,,,null,,,,
null,is talking to,,html-keyboard-response,390,1755588,0.0-19.0-2.11,38387,List1A,black,man,,,,null,,,,
13467,,,survey-text,391,1769056,0.0-19.0-3.11,38387,List1A,black,man,,,,,"{""Q0"":""fred is talking to dave.""}","<img src=""stim_listA/talk5.gif""</stim_listA>",is talking to,
null,"<div style=""font-size:60px;"">+</div>",,html-keyboard-response,392,1769558,0.0-19.0-0.12,38387,List1A,black,man,,,,null,,,,
null,"<img src=""stim_listA/hug2.gif""</stim_listA>",,html-keyboard-response,393,1771559,0.0-19.0-1.12,38387,List1A,black,man,,,,null,,,,
null,are hugging each other,,html-keyboard-response,394,1773560,0.0-19.0-2.12,38387,List1A,black,man,,,,null,,,,
12974,,,survey-text,395,1786534,0.0-19.0-3.12,38387,List1A,black,man,,,,,"{""Q0"":""mike and kate are hugging each other.""}","<img src=""stim_listA/hug2.gif""</stim_listA>",are hugging each other,
null,"<div style=""font-size:60px;"">+</div>",,html-keyboard-response,396,1787036,0.0-19.0-0.13,38387,List1A,black,man,,,,null,,,,
null,"<img src=""stim_listA/touch8.gif""</stim_listA>",,html-keyboard-response,397,1789037,0.0-19.0-1.13,38387,List1A,black,man,,,,null,,,,
null,are touching each other,,html-keyboard-response,398,1791038,0.0-19.0-2.13,38387,List1A,black,man,,,,null,,,,
13513,,,survey-text,399,1804553,0.0-19.0-3.13,38387,List1A,black,man,,,,,"{""Q0"":""ruth and beth are touching each other.""}","<img src=""stim_listA/touch8.gif""</stim_listA>",are touching each other,
null,"<div style=""font-size:60px;"">+</div>",,html-keyboard-response,400,1805054,0.0-19.0-0.14,38387,List1A,black,man,,,,null,,,,
null,"<img src=""stim_listA/shout2.gif""</stim_listA>",,html-keyboard-response,401,1807055,0.0-19.0-1.14,38387,List1A,black,man,,,,null,,,,
null,are shouting at each other,,html-keyboard-response,402,1809056,0.0-19.0-2.14,38387,List1A,black,man,,,,null,,,,
37806,,,survey-text,403,1846862,0.0-19.0-3.14,38387,List1A,black,man,,,,,"{""Q0"":""fred and ruth are hugging each other.""}","<img src=""stim_listA/shout2.gif""</stim_listA>",are shouting at each other,
null,"<div style=""font-size:60px;"">+</div>",,html-keyboard-response,404,1847363,0.0-19.0-0.15,38387,List1A,black,man,,,,null,,,,
null,"<img src=""stim_listA/marry4.gif""</stim_listA>",,html-keyboard-response,405,1849364,0.0-19.0-1.15,38387,List1A,black,man,,,,null,,,,
null,are marrying each other,,html-keyboard-response,406,1851365,0.0-19.0-2.15,38387,List1A,black,man,,,,null,,,,
20614,,,survey-text,407,1871980,0.0-19.0-3.15,38387,List1A,black,man,,,,,"{""Q0"":""jane and luke are marrying each other.""}","<img src=""stim_listA/marry4.gif""</stim_listA>",are marrying each other,
null,"<div style=""font-size:60px;"">+</div>",,html-keyboard-response,408,1872481,0.0-19.0-0.16,38387,List1A,black,man,,,,null,,,,
null,"<img src=""stim_listA/dance4.gif""</stim_listA>",,html-keyboard-response,409,1874483,0.0-19.0-1.16,38387,List1A,black,man,,,,null,,,,
null,are dancing with each other,,html-keyboard-response,410,1876484,0.0-19.0-2.16,38387,List1A,black,man,,,,null,,,,
9255,,,survey-text,411,1885740,0.0-19.0-3.16,38387,List1A,black,man,,,,,"{""Q0"":""dave and ruth are dancing with each other.""}","<img src=""stim_listA/dance4.gif""</stim_listA>",are dancing with each other,
null,"<div style=""font-size:60px;"">+</div>",,html-keyboard-response,412,1886242,0.0-19.0-0.17,38387,List1A,black,man,,,,null,,,,
null,"<img src=""stim_listA/touch4.gif""</stim_listA>",,html-keyboard-response,413,1888243,0.0-19.0-1.17,38387,List1A,black,man,,,,null,,,,
null,are touching each other,,html-keyboard-response,414,1890244,0.0-19.0-2.17,38387,List1A,black,man,,,,null,,,,
9601,,,survey-text,415,1899846,0.0-19.0-3.17,38387,List1A,black,man,,,,,"{""Q0"":""ruth and luke are touching each other.""}","<img src=""stim_listA/touch4.gif""</stim_listA>",are touching each other,
null,"<div style=""font-size:60px;"">+</div>",,html-keyboard-response,416,1900347,0.0-19.0-0.18,38387,List1A,black,man,,,,null,,,,
null,"<img src=""stim_listA/shout7.gif""</stim_listA>",,html-keyboard-response,417,1902349,0.0-19.0-1.18,38387,List1A,black,man,,,,null,,,,
null,is shouting at,,html-keyboard-response,418,1904350,0.0-19.0-2.18,38387,List1A,black,man,,,,null,,,,
15523,,,survey-text,419,1919874,0.0-19.0-3.18,38387,List1A,black,man,,,,,"{""Q0"":""beth is shouting at ruth.""}","<img src=""stim_listA/shout7.gif""</stim_listA>",is shouting at,
null,"<div style=""font-size:60px;"">+</div>",,html-keyboard-response,420,1920375,0.0-19.0-0.19,38387,List1A,black,man,,,,null,,,,
null,"<img src=""stim_listA/fight6.gif""</stim_listA>",,html-keyboard-response,421,1922376,0.0-19.0-1.19,38387,List1A,black,man,,,,null,,,,
null,are fighting each other,,html-keyboard-response,422,1924377,0.0-19.0-2.19,38387,List1A,black,man,,,,null,,,,
9389,,,survey-text,423,1933766,0.0-19.0-3.19,38387,List1A,black,man,,,,,"{""Q0"":""fred and luke are fighting each other.""}","<img src=""stim_listA/fight6.gif""</stim_listA>",are fighting each other,
2417,<p>Thank you for completing that task.</p><p>The final part of this session is a short questionnaire.</p><p>Press Continue.</p>,0,html-button-response,424,1936184,0.0-20.0,38387,List1A,black,man,,,,,,,,
31093,,,survey-text,425,1968280,0.0-21.0,38387,List1A,black,man,,,,,"{""Q0"":""23"",""Q1"":""english"",""Q2"":""english"",""Q3"":""united states"",""Q4"":""Black"",""Q5"":""Male""}",,,demographics
49239,,,survey-likert,426,2017521,0.0-22.0,38387,List1A,black,man,,,,,"{""Q0"":5,""Q1"":4,""Q2"":4,""Q3"":5,""Q4"":6,""Q5"":5,""Q6"":5,""Q7"":1,""Q8"":5,""Q9"":5,""Q10"":3,""Q11"":2,""Q12"":3,""Q13"":3}",,,likert_race
39930,,,survey-likert,427,2057454,0.0-23.0,38387,List1A,black,man,,,,,"{""Q0"":5,""Q1"":5,""Q2"":5,""Q3"":6,""Q4"":5,""Q5"":5,""Q6"":5,""Q7"":3,""Q8"":5,""Q9"":5,""Q10"":3,""Q11"":4,""Q12"":4,""Q13"":3}",,,likert_gender
8015,,,survey-text,428,2065470,0.0-24.0,38387,List1A,black,man,,,,,"{""Q0"":""ccc""}",,,worker_id
30924,,,external-html,429,2096660,0.0-25.0,38387,List1A,black,man,debrief.html,,,,,,,
