rt,stimulus,button_pressed,trial_type,trial_index,time_elapsed,internal_node_id,subject,list,ppt_race,ppt_gender,url,first_guess,correct,key_press,responses,image_type,phrase_type,test_part
4685,Welcome to the experiment. Press Continue to begin.,0,html-button-response,0,4694,0.0-0.0,38917,List1A,white,man,,,,,,,,
62082,,,external-html,1,67853,0.0-1.0,38917,List1A,white,man,consent.html,,,,,,,
18995,"<p>On the next page, you will see portraits of 8 people and their names.</p><p>Your first task is to take a few minutes to memorise the names of these people.</p><p>You will have to recall their names during the rest of the experiment, so it is</p><p>essential that you try to memorise these people and their names as best as you can.</p><br><p><strong>You will then be tested on your memory of these names and portraits.</strong></p><br><p>The experiment will start after you have completed this memory test.</p><br><p>Ready?</p>",0,html-button-response,2,86851,0.0-2.0,38917,List1A,white,man,,,,,,,,
157273,"<img src='img/portrait_matrix_list1.JPG' style='width:900px;height:500px;''></img><p>If you have memorised all the portraits and names and are ready to start, press Continue.</p><p><strong>Please note: Your memory of these faces will be tested 4 times during this experiment.</strong></p>",0,html-button-response,3,245128,0.0-3.0-0.0,38917,List1A,white,man,,,,,,,,
8074,"<img src=""portrait/WW1.jpg""style=""width:400px;height:400px;""></img>",1,html-button-response,4,254209,0.0-3.0-1.0,38917,List1A,white,man,,TRUE,1,,,,,
null,CORRECT,,html-keyboard-response,5,255738,0.0-3.0-2.0-0.0,38917,List1A,white,man,,,,null,,,,
13424,"<img src=""portrait/BW1.jpg""style=""width:400px;height:400px;""></img>",0,html-button-response,6,269165,0.0-3.0-4.0,38917,List1A,white,man,,TRUE,0,,,,,
null,CORRECT,,html-keyboard-response,7,270697,0.0-3.0-5.0-0.0,38917,List1A,white,man,,,,null,,,,
4594,"<img src=""portrait/WM2.jpg""style=""width:400px;height:400px;""></img>",7,html-button-response,8,275293,0.0-3.0-7.0,38917,List1A,white,man,,TRUE,7,,,,,
null,CORRECT,,html-keyboard-response,9,276816,0.0-3.0-8.0-0.0,38917,List1A,white,man,,,,null,,,,
14012,"<img src=""portrait/BW2.jpg""style=""width:400px;height:400px;""></img>",3,html-button-response,10,290831,0.0-3.0-10.0,38917,List1A,white,man,,TRUE,2,,,,,
4898,"<img src=""portrait/BW2.jpg""style=""width:400px;height:400px;""></img>",2,html-button-response,11,296737,0.0-3.0-12.0-0.0,38917,List1A,white,man,,FALSE,2,,,,,
null,CORRECT,,html-keyboard-response,12,298267,0.0-3.0-12.0-1.0-0.0,38917,List1A,white,man,,,,null,,,,
6486,"<img src=""portrait/WM1.jpg""style=""width:400px;height:400px;""></img>",6,html-button-response,13,304754,0.0-3.0-13.0,38917,List1A,white,man,,TRUE,6,,,,,
null,CORRECT,,html-keyboard-response,14,306277,0.0-3.0-14.0-0.0,38917,List1A,white,man,,,,null,,,,
3376,"<img src=""portrait/BM2.jpg""style=""width:400px;height:400px;""></img>",7,html-button-response,15,309655,0.0-3.0-16.0,38917,List1A,white,man,,TRUE,5,,,,,
2503,"<img src=""portrait/BM2.jpg""style=""width:400px;height:400px;""></img>",5,html-button-response,16,313174,0.0-3.0-18.0-0.0,38917,List1A,white,man,,FALSE,5,,,,,
null,CORRECT,,html-keyboard-response,17,314698,0.0-3.0-18.0-1.0-0.0,38917,List1A,white,man,,,,null,,,,
6963,"<img src=""portrait/BM1.jpg""style=""width:400px;height:400px;""></img>",4,html-button-response,18,321663,0.0-3.0-19.0,38917,List1A,white,man,,TRUE,4,,,,,
null,CORRECT,,html-keyboard-response,19,323196,0.0-3.0-20.0-0.0,38917,List1A,white,man,,,,null,,,,
6904,"<img src=""portrait/WW2.jpg""style=""width:400px;height:400px;""></img>",3,html-button-response,20,330102,0.0-3.0-22.0,38917,List1A,white,man,,TRUE,3,,,,,
null,CORRECT,,html-keyboard-response,21,331618,0.0-3.0-23.0-0.0,38917,List1A,white,man,,,,null,,,,
2894,<p>You got 6 out of 8 right first time. Press Continue.</p>,0,html-button-response,22,334512,0.0-3.0-25.0,38917,List1A,white,man,,,,,,,,
3937,"As you did not score 100%, the memory game will repeat. Press Continue.",0,html-button-response,23,339466,0.0-3.0-26.0-0.0,38917,List1A,white,man,,,,,,,,
7461,"<img src='img/portrait_matrix_list1.JPG' style='width:900px;height:500px;''></img><p>If you have memorised all the portraits and names and are ready to start, press Continue.</p><p><strong>Please note: Your memory of these faces will be tested 4 times during this experiment.</strong></p>",0,html-button-response,24,347940,0.0-3.1-0.1,38917,List1A,white,man,,,,,,,,
5955,"<img src=""portrait/WW1.jpg""style=""width:400px;height:400px;""></img>",1,html-button-response,25,354898,0.0-3.1-1.1,38917,List1A,white,man,,TRUE,1,,,,,
null,CORRECT,,html-keyboard-response,26,356425,0.0-3.1-2.1-0.1,38917,List1A,white,man,,,,null,,,,
4568,"<img src=""portrait/BW1.jpg""style=""width:400px;height:400px;""></img>",0,html-button-response,27,360994,0.0-3.1-4.1,38917,List1A,white,man,,TRUE,0,,,,,
null,CORRECT,,html-keyboard-response,28,362517,0.0-3.1-5.1-0.1,38917,List1A,white,man,,,,null,,,,
4861,"<img src=""portrait/WM2.jpg""style=""width:400px;height:400px;""></img>",7,html-button-response,29,367380,0.0-3.1-7.1,38917,List1A,white,man,,TRUE,7,,,,,
null,CORRECT,,html-keyboard-response,30,368917,0.0-3.1-8.1-0.1,38917,List1A,white,man,,,,null,,,,
9955,"<img src=""portrait/BW2.jpg""style=""width:400px;height:400px;""></img>",2,html-button-response,31,378875,0.0-3.1-10.1,38917,List1A,white,man,,TRUE,2,,,,,
null,CORRECT,,html-keyboard-response,32,380387,0.0-3.1-11.1-0.1,38917,List1A,white,man,,,,null,,,,
4805,"<img src=""portrait/WM1.jpg""style=""width:400px;height:400px;""></img>",6,html-button-response,33,385194,0.0-3.1-13.1,38917,List1A,white,man,,TRUE,6,,,,,
null,CORRECT,,html-keyboard-response,34,386718,0.0-3.1-14.1-0.1,38917,List1A,white,man,,,,null,,,,
5077,"<img src=""portrait/BM2.jpg""style=""width:400px;height:400px;""></img>",5,html-button-response,35,391797,0.0-3.1-16.1,38917,List1A,white,man,,TRUE,5,,,,,
null,CORRECT,,html-keyboard-response,36,393328,0.0-3.1-17.1-0.1,38917,List1A,white,man,,,,null,,,,
4990,"<img src=""portrait/BM1.jpg""style=""width:400px;height:400px;""></img>",4,html-button-response,37,398318,0.0-3.1-19.1,38917,List1A,white,man,,TRUE,4,,,,,
null,CORRECT,,html-keyboard-response,38,399847,0.0-3.1-20.1-0.1,38917,List1A,white,man,,,,null,,,,
4915,"<img src=""portrait/WW2.jpg""style=""width:400px;height:400px;""></img>",3,html-button-response,39,404764,0.0-3.1-22.1,38917,List1A,white,man,,TRUE,3,,,,,
null,CORRECT,,html-keyboard-response,40,406297,0.0-3.1-23.1-0.1,38917,List1A,white,man,,,,null,,,,
2417,<p>You got 8 out of 8 right first time. Press Continue.</p>,0,html-button-response,41,408714,0.0-3.1-25.1,38917,List1A,white,man,,,,,,,,
53375,"<p>In this experiment, you will view photographs of the people from the memory game interacting.</p><p>By using the <strong>exact</strong> phrase given <i>after</i> the photograph appears and recalling the correct names of the people in the photographs, form a sentence describing the interaction. You do not need to capitalise names.</p><p>Type your answer in the space provided. Please complete every sentence before moving onto the next trial.</p><p>You will only have a few seconds to memorise each given photograph and phrase before you can respond, so try your best to focus.</p><p>An example is given below. Press 'Continue' when you are ready.</p><img src='img/speaking_example_v2.jpg' style='width:800px;height:460px;''></img>",0,html-button-response,42,463105,0.0-4.0,38917,List1A,white,man,,,,,,,,
4849,"<p>Before the experiment starts, you will watch two example trials. Press 'Continue'.</p>",0,html-button-response,43,468968,0.0-5.0,38917,List1A,white,man,,,,,,,,
null,<img src='img/speaking_WW.gif'></img>,,html-keyboard-response,44,471998,0.0-6.0,38917,List1A,white,man,,,,null,,,,
null,<p>is speaking to</p>,,html-keyboard-response,45,474017,0.0-7.0,38917,List1A,white,man,,,,null,,,,
5435,<p><b>Answer:</b> kate is speaking to beth</p>,0,html-button-response,46,479452,0.0-8.0,38917,List1A,white,man,,,,,,,,
null,<img src='img/pointing_BM.gif'></img>,,html-keyboard-response,47,482468,0.0-9.0,38917,List1A,white,man,,,,null,,,,
null,<p>are pointing at each other</p>,,html-keyboard-response,48,484478,0.0-10.0,38917,List1A,white,man,,,,null,,,,
2022,<p><b>Answer:</b> luke and dave are pointing at each other</p>,0,html-button-response,49,486500,0.0-11.0,38917,List1A,white,man,,,,,,,,
21937,"<p>Ready to start the experiment?</p><br><p><strong>Remember to describe the picture using a full sentence,</strong></p><p><strong>that combines the names of the people with the given phrase.</strong></p><p><strong>If you do not do this correctly you will not be paid.</strong></p><p><strong> You do not need to capitalise names or use punctuation.</strong></p><br><p>Press 'Continue' to begin.</p>",0,html-button-response,50,509455,0.0-12.0,38917,List1A,white,man,,,,,,,,
null,"<div style=""font-size:60px;"">+</div>",,html-keyboard-response,51,510977,0.0-13.0-0.0,38917,List1A,white,man,,,,null,,,,
null,"<img src=""stim_listA/kiss1.gif""</stim_listA>",,html-keyboard-response,52,512997,0.0-13.0-1.0,38917,List1A,white,man,,,,null,,,,
null,is kissing,,html-keyboard-response,53,514997,0.0-13.0-2.0,38917,List1A,white,man,,,,null,,,,
28232,,,survey-text,54,543230,0.0-13.0-3.0,38917,List1A,white,man,,,,,"{""Q0"":""Fred is kissing kate""}","<img src=""stim_listA/kiss1.gif""</stim_listA>",is kissing,
null,"<div style=""font-size:60px;"">+</div>",,html-keyboard-response,55,543738,0.0-13.0-0.1,38917,List1A,white,man,,,,null,,,,
null,"<img src=""stim_listA/fight6.gif""</stim_listA>",,html-keyboard-response,56,545757,0.0-13.0-1.1,38917,List1A,white,man,,,,null,,,,
null,are fighting each other,,html-keyboard-response,57,547761,0.0-13.0-2.1,38917,List1A,white,man,,,,null,,,,
36572,,,survey-text,58,584335,0.0-13.0-3.1,38917,List1A,white,man,,,,,"{""Q0"":""fred and luke are fighting each other""}","<img src=""stim_listA/fight6.gif""</stim_listA>",are fighting each other,
null,"<div style=""font-size:60px;"">+</div>",,html-keyboard-response,59,584848,0.0-13.0-0.2,38917,List1A,white,man,,,,null,,,,
null,"<img src=""stim_listA/shout6.gif""</stim_listA>",,html-keyboard-response,60,586866,0.0-13.0-1.2,38917,List1A,white,man,,,,null,,,,
null,are shouting at each other,,html-keyboard-response,61,588867,0.0-13.0-2.2,38917,List1A,white,man,,,,null,,,,
27586,,,survey-text,62,616454,0.0-13.0-3.2,38917,List1A,white,man,,,,,"{""Q0"":""fred and dave are shouting at each other""}","<img src=""stim_listA/shout6.gif""</stim_listA>",are shouting at each other,
null,"<div style=""font-size:60px;"">+</div>",,html-keyboard-response,63,616962,0.0-13.0-0.3,38917,List1A,white,man,,,,null,,,,
null,"<img src=""stim_listA/hug5.gif""</stim_listA>",,html-keyboard-response,64,618977,0.0-13.0-1.3,38917,List1A,white,man,,,,null,,,,
null,is hugging,,html-keyboard-response,65,620997,0.0-13.0-2.3,38917,List1A,white,man,,,,null,,,,
18795,,,survey-text,66,639792,0.0-13.0-3.3,38917,List1A,white,man,,,,,"{""Q0"":""fred is hugging luke""}","<img src=""stim_listA/hug5.gif""</stim_listA>",is hugging,
null,"<div style=""font-size:60px;"">+</div>",,html-keyboard-response,67,640307,0.0-13.0-0.4,38917,List1A,white,man,,,,null,,,,
null,"<img src=""stim_listA/fight2.gif""</stim_listA>",,html-keyboard-response,68,642317,0.0-13.0-1.4,38917,List1A,white,man,,,,null,,,,
null,are fighting each other,,html-keyboard-response,69,644338,0.0-13.0-2.4,38917,List1A,white,man,,,,null,,,,
29958,,,survey-text,70,674296,0.0-13.0-3.4,38917,List1A,white,man,,,,,"{""Q0"":""fred and beth are fighting each other""}","<img src=""stim_listA/fight2.gif""</stim_listA>",are fighting each other,
null,"<div style=""font-size:60px;"">+</div>",,html-keyboard-response,71,674817,0.0-13.0-0.5,38917,List1A,white,man,,,,null,,,,
null,"<img src=""stim_listA/kiss2.gif""</stim_listA>",,html-keyboard-response,72,676837,0.0-13.0-1.5,38917,List1A,white,man,,,,null,,,,
null,are kissing each other,,html-keyboard-response,73,678847,0.0-13.0-2.5,38917,List1A,white,man,,,,null,,,,
27549,,,survey-text,74,706396,0.0-13.0-3.5,38917,List1A,white,man,,,,,"{""Q0"":""Mike and beth are kissing each other""}","<img src=""stim_listA/kiss2.gif""</stim_listA>",are kissing each other,
null,"<div style=""font-size:60px;"">+</div>",,html-keyboard-response,75,706907,0.0-13.0-0.6,38917,List1A,white,man,,,,null,,,,
null,"<img src=""stim_listA/argue6.gif""</stim_listA>",,html-keyboard-response,76,708917,0.0-13.0-1.6,38917,List1A,white,man,,,,null,,,,
null,are arguing with each other,,html-keyboard-response,77,710937,0.0-13.0-2.6,38917,List1A,white,man,,,,null,,,,
46346,,,survey-text,78,757284,0.0-13.0-3.6,38917,List1A,white,man,,,,,"{""Q0"":""dave and fred are talking to each other""}","<img src=""stim_listA/argue6.gif""</stim_listA>",are arguing with each other,
null,"<div style=""font-size:60px;"">+</div>",,html-keyboard-response,79,757797,0.0-13.0-0.7,38917,List1A,white,man,,,,null,,,,
null,"<img src=""stim_listA/shout4.gif""</stim_listA>",,html-keyboard-response,80,759807,0.0-13.0-1.7,38917,List1A,white,man,,,,null,,,,
null,are shouting at each other,,html-keyboard-response,81,761827,0.0-13.0-2.7,38917,List1A,white,man,,,,null,,,,
22182,,,survey-text,82,784010,0.0-13.0-3.7,38917,List1A,white,man,,,,,"{""Q0"":""jane and dave are arguing with each other""}","<img src=""stim_listA/shout4.gif""</stim_listA>",are shouting at each other,
null,"<div style=""font-size:60px;"">+</div>",,html-keyboard-response,83,784517,0.0-13.0-0.8,38917,List1A,white,man,,,,null,,,,
null,"<img src=""stim_listA/shout1.gif""</stim_listA>",,html-keyboard-response,84,786537,0.0-13.0-1.8,38917,List1A,white,man,,,,null,,,,
null,is shouting at,,html-keyboard-response,85,788557,0.0-13.0-2.8,38917,List1A,white,man,,,,null,,,,
15265,,,survey-text,86,803824,0.0-13.0-3.8,38917,List1A,white,man,,,,,"{""Q0"":""fred is shouting at beth""}","<img src=""stim_listA/shout1.gif""</stim_listA>",is shouting at,
null,"<div style=""font-size:60px;"">+</div>",,html-keyboard-response,87,804327,0.0-13.0-0.9,38917,List1A,white,man,,,,null,,,,
null,"<img src=""stim_listA/marry6.gif""</stim_listA>",,html-keyboard-response,88,806348,0.0-13.0-1.9,38917,List1A,white,man,,,,null,,,,
null,are marrying each other,,html-keyboard-response,89,808362,0.0-13.0-2.9,38917,List1A,white,man,,,,null,,,,
38889,,,survey-text,90,847252,0.0-13.0-3.9,38917,List1A,white,man,,,,,"{""Q0"":""fred and dave are marrying each other""}","<img src=""stim_listA/marry6.gif""</stim_listA>",are marrying each other,
null,"<div style=""font-size:60px;"">+</div>",,html-keyboard-response,91,847758,0.0-13.0-0.10,38917,List1A,white,man,,,,null,,,,
null,"<img src=""stim_listA/marry5.gif""</stim_listA>",,html-keyboard-response,92,849765,0.0-13.0-1.10,38917,List1A,white,man,,,,null,,,,
null,is marrying,,html-keyboard-response,93,851772,0.0-13.0-2.10,38917,List1A,white,man,,,,null,,,,
16291,,,survey-text,94,868065,0.0-13.0-3.10,38917,List1A,white,man,,,,,"{""Q0"":""mike is marrying luke""}","<img src=""stim_listA/marry5.gif""</stim_listA>",is marrying,
null,"<div style=""font-size:60px;"">+</div>",,html-keyboard-response,95,868566,0.0-13.0-0.11,38917,List1A,white,man,,,,null,,,,
null,"<img src=""stim_listA/dance7.gif""</stim_listA>",,html-keyboard-response,96,870577,0.0-13.0-1.11,38917,List1A,white,man,,,,null,,,,
null,is dancing with,,html-keyboard-response,97,872587,0.0-13.0-2.11,38917,List1A,white,man,,,,null,,,,
18476,,,survey-text,98,891065,0.0-13.0-3.11,38917,List1A,white,man,,,,,"{""Q0"":""beth is dancing with jane""}","<img src=""stim_listA/dance7.gif""</stim_listA>",is dancing with,
null,"<div style=""font-size:60px;"">+</div>",,html-keyboard-response,99,891568,0.0-13.0-0.12,38917,List1A,white,man,,,,null,,,,
null,"<img src=""stim_listA/hug2.gif""</stim_listA>",,html-keyboard-response,100,893588,0.0-13.0-1.12,38917,List1A,white,man,,,,null,,,,
null,are hugging each other,,html-keyboard-response,101,895607,0.0-13.0-2.12,38917,List1A,white,man,,,,null,,,,
26388,,,survey-text,102,921996,0.0-13.0-3.12,38917,List1A,white,man,,,,,"{""Q0"":""kate and mike are hugging each other""}","<img src=""stim_listA/hug2.gif""</stim_listA>",are hugging each other,
null,"<div style=""font-size:60px;"">+</div>",,html-keyboard-response,103,922517,0.0-13.0-0.13,38917,List1A,white,man,,,,null,,,,
null,"<img src=""stim_listA/dance2.gif""</stim_listA>",,html-keyboard-response,104,924528,0.0-13.0-1.13,38917,List1A,white,man,,,,null,,,,
null,are dancing with each other,,html-keyboard-response,105,926547,0.0-13.0-2.13,38917,List1A,white,man,,,,null,,,,
18998,,,survey-text,106,945546,0.0-13.0-3.13,38917,List1A,white,man,,,,,"{""Q0"":""mike and beth are dancing with each other""}","<img src=""stim_listA/dance2.gif""</stim_listA>",are dancing with each other,
null,"<div style=""font-size:60px;"">+</div>",,html-keyboard-response,107,946057,0.0-13.0-0.14,38917,List1A,white,man,,,,null,,,,
null,"<img src=""stim_listA/talk8.gif""</stim_listA>",,html-keyboard-response,108,948077,0.0-13.0-1.14,38917,List1A,white,man,,,,null,,,,
null,are talking to each other,,html-keyboard-response,109,950087,0.0-13.0-2.14,38917,List1A,white,man,,,,null,,,,
37814,,,survey-text,110,987903,0.0-13.0-3.14,38917,List1A,white,man,,,,,"{""Q0"":""kate and ruth are talking to each other""}","<img src=""stim_listA/talk8.gif""</stim_listA>",are talking to each other,
null,"<div style=""font-size:60px;"">+</div>",,html-keyboard-response,111,988418,0.0-13.0-0.15,38917,List1A,white,man,,,,null,,,,
null,"<img src=""stim_listA/hug6.gif""</stim_listA>",,html-keyboard-response,112,990437,0.0-13.0-1.15,38917,List1A,white,man,,,,null,,,,
null,are hugging each other,,html-keyboard-response,113,992447,0.0-13.0-2.15,38917,List1A,white,man,,,,null,,,,
19169,,,survey-text,114,1011617,0.0-13.0-3.15,38917,List1A,white,man,,,,,"{""Q0"":""mike and dave are hugging each other""}","<img src=""stim_listA/hug6.gif""</stim_listA>",are hugging each other,
null,"<div style=""font-size:60px;"">+</div>",,html-keyboard-response,115,1012137,0.0-13.0-0.16,38917,List1A,white,man,,,,null,,,,
null,"<img src=""stim_listA/touch1.gif""</stim_listA>",,html-keyboard-response,116,1014157,0.0-13.0-1.16,38917,List1A,white,man,,,,null,,,,
null,is touching,,html-keyboard-response,117,1016177,0.0-13.0-2.16,38917,List1A,white,man,,,,null,,,,
13289,,,survey-text,118,1029466,0.0-13.0-3.16,38917,List1A,white,man,,,,,"{""Q0"":""mike is touching beth""}","<img src=""stim_listA/touch1.gif""</stim_listA>",is touching,
null,"<div style=""font-size:60px;"">+</div>",,html-keyboard-response,119,1029987,0.0-13.0-0.17,38917,List1A,white,man,,,,null,,,,
null,"<img src=""stim_listA/fight1.gif""</stim_listA>",,html-keyboard-response,120,1031997,0.0-13.0-1.17,38917,List1A,white,man,,,,null,,,,
null,is fighting,,html-keyboard-response,121,1034007,0.0-13.0-2.17,38917,List1A,white,man,,,,null,,,,
14646,,,survey-text,122,1048654,0.0-13.0-3.17,38917,List1A,white,man,,,,,"{""Q0"":""mike is fighting kate""}","<img src=""stim_listA/fight1.gif""</stim_listA>",is fighting,
null,"<div style=""font-size:60px;"">+</div>",,html-keyboard-response,123,1049157,0.0-13.0-0.18,38917,List1A,white,man,,,,null,,,,
null,"<img src=""stim_listA/kiss3.gif""</stim_listA>",,html-keyboard-response,124,1051177,0.0-13.0-1.18,38917,List1A,white,man,,,,null,,,,
null,is kissing,,html-keyboard-response,125,1053187,0.0-13.0-2.18,38917,List1A,white,man,,,,null,,,,
16580,,,survey-text,126,1069768,0.0-13.0-3.18,38917,List1A,white,man,,,,,"{""Q0"":""ruth is kissing luke""}","<img src=""stim_listA/kiss3.gif""</stim_listA>",is kissing,
null,"<div style=""font-size:60px;"">+</div>",,html-keyboard-response,127,1070287,0.0-13.0-0.19,38917,List1A,white,man,,,,null,,,,
null,"<img src=""stim_listA/talk3.gif""</stim_listA>",,html-keyboard-response,128,1072307,0.0-13.0-1.19,38917,List1A,white,man,,,,null,,,,
null,is talking to,,html-keyboard-response,129,1074327,0.0-13.0-2.19,38917,List1A,white,man,,,,null,,,,
18789,,,survey-text,130,1093116,0.0-13.0-3.19,38917,List1A,white,man,,,,,"{""Q0"":""jane is talking to luke""}","<img src=""stim_listA/talk3.gif""</stim_listA>",is talking to,
7279,"<img src='img/portrait_matrix_list1.JPG' style='width:900px;height:500px;''></img><p>If you have memorised all the portraits and names and are ready to start, press Continue.</p><p><strong>Please note: Your memory of these faces will be tested 4 times during this experiment.</strong></p>",0,html-button-response,131,1100399,0.0-14.0-0.0,38917,List1A,white,man,,,,,,,,
8577,"<img src=""portrait/BM2.jpg""style=""width:400px;height:400px;""></img>",5,html-button-response,132,1109997,0.0-14.0-1.0,38917,List1A,white,man,,TRUE,5,,,,,
null,CORRECT,,html-keyboard-response,133,1111523,0.0-14.0-2.0-0.0,38917,List1A,white,man,,,,null,,,,
5578,"<img src=""portrait/BW1.jpg""style=""width:400px;height:400px;""></img>",0,html-button-response,134,1117103,0.0-14.0-4.0,38917,List1A,white,man,,TRUE,0,,,,,
null,CORRECT,,html-keyboard-response,135,1118627,0.0-14.0-5.0-0.0,38917,List1A,white,man,,,,null,,,,
3418,"<img src=""portrait/WW1.jpg""style=""width:400px;height:400px;""></img>",1,html-button-response,136,1122046,0.0-14.0-7.0,38917,List1A,white,man,,TRUE,1,,,,,
null,CORRECT,,html-keyboard-response,137,1123577,0.0-14.0-8.0-0.0,38917,List1A,white,man,,,,null,,,,
3058,"<img src=""portrait/WM1.jpg""style=""width:400px;height:400px;""></img>",6,html-button-response,138,1126636,0.0-14.0-10.0,38917,List1A,white,man,,TRUE,6,,,,,
null,CORRECT,,html-keyboard-response,139,1128158,0.0-14.0-11.0-0.0,38917,List1A,white,man,,,,null,,,,
2629,"<img src=""portrait/WW2.jpg""style=""width:400px;height:400px;""></img>",3,html-button-response,140,1130788,0.0-14.0-13.0,38917,List1A,white,man,,TRUE,3,,,,,
null,CORRECT,,html-keyboard-response,141,1132317,0.0-14.0-14.0-0.0,38917,List1A,white,man,,,,null,,,,
3179,"<img src=""portrait/BM1.jpg""style=""width:400px;height:400px;""></img>",4,html-button-response,142,1135496,0.0-14.0-16.0,38917,List1A,white,man,,TRUE,4,,,,,
null,CORRECT,,html-keyboard-response,143,1137017,0.0-14.0-17.0-0.0,38917,List1A,white,man,,,,null,,,,
13832,"<img src=""portrait/BW2.jpg""style=""width:400px;height:400px;""></img>",2,html-button-response,144,1150851,0.0-14.0-19.0,38917,List1A,white,man,,TRUE,2,,,,,
null,CORRECT,,html-keyboard-response,145,1152378,0.0-14.0-20.0-0.0,38917,List1A,white,man,,,,null,,,,
2320,"<img src=""portrait/WM2.jpg""style=""width:400px;height:400px;""></img>",7,html-button-response,146,1154698,0.0-14.0-22.0,38917,List1A,white,man,,TRUE,7,,,,,
null,CORRECT,,html-keyboard-response,147,1156217,0.0-14.0-23.0-0.0,38917,List1A,white,man,,,,null,,,,
1995,<p>You got 8 out of 8 right first time. Press Continue.</p>,0,html-button-response,148,1158212,0.0-14.0-25.0,38917,List1A,white,man,,,,,,,,
null,"<div style=""font-size:60px;"">+</div>",,html-keyboard-response,149,1159747,0.0-15.0-0.0,38917,List1A,white,man,,,,null,,,,
null,"<img src=""stim_listA/argue3.gif""</stim_listA>",,html-keyboard-response,150,1161767,0.0-15.0-1.0,38917,List1A,white,man,,,,null,,,,
null,is arguing with,,html-keyboard-response,151,1163774,0.0-15.0-2.0,38917,List1A,white,man,,,,null,,,,
33134,,,survey-text,152,1196911,0.0-15.0-3.0,38917,List1A,white,man,,,,,"{""Q0"":""dave is arguing with jane""}","<img src=""stim_listA/argue3.gif""</stim_listA>",is arguing with,
null,"<div style=""font-size:60px;"">+</div>",,html-keyboard-response,153,1197428,0.0-15.0-0.1,38917,List1A,white,man,,,,null,,,,
null,"<img src=""stim_listA/shout7.gif""</stim_listA>",,html-keyboard-response,154,1199447,0.0-15.0-1.1,38917,List1A,white,man,,,,null,,,,
null,is shouting at,,html-keyboard-response,155,1201457,0.0-15.0-2.1,38917,List1A,white,man,,,,null,,,,
19405,,,survey-text,156,1220862,0.0-15.0-3.1,38917,List1A,white,man,,,,,"{""Q0"":""ruth is arguing with beth""}","<img src=""stim_listA/shout7.gif""</stim_listA>",is shouting at,
null,"<div style=""font-size:60px;"">+</div>",,html-keyboard-response,157,1221377,0.0-15.0-0.2,38917,List1A,white,man,,,,null,,,,
null,"<img src=""stim_listA/dance8.gif""</stim_listA>",,html-keyboard-response,158,1223387,0.0-15.0-1.2,38917,List1A,white,man,,,,null,,,,
null,are dancing with each other,,html-keyboard-response,159,1225407,0.0-15.0-2.2,38917,List1A,white,man,,,,null,,,,
30118,,,survey-text,160,1255526,0.0-15.0-3.2,38917,List1A,white,man,,,,,"{""Q0"":""beth and ruth are dancing together""}","<img src=""stim_listA/dance8.gif""</stim_listA>",are dancing with each other,
null,"<div style=""font-size:60px;"">+</div>",,html-keyboard-response,161,1256046,0.0-15.0-0.3,38917,List1A,white,man,,,,null,,,,
null,"<img src=""stim_listA/shout8.gif""</stim_listA>",,html-keyboard-response,162,1258047,0.0-15.0-1.3,38917,List1A,white,man,,,,null,,,,
null,are shouting at each other,,html-keyboard-response,163,1260068,0.0-15.0-2.3,38917,List1A,white,man,,,,null,,,,
22311,,,survey-text,164,1282380,0.0-15.0-3.3,38917,List1A,white,man,,,,,"{""Q0"":""kate and ruth are shouting at each other""}","<img src=""stim_listA/shout8.gif""</stim_listA>",are shouting at each other,
null,"<div style=""font-size:60px;"">+</div>",,html-keyboard-response,165,1282896,0.0-15.0-0.4,38917,List1A,white,man,,,,null,,,,
null,"<img src=""stim_listA/touch5.gif""</stim_listA>",,html-keyboard-response,166,1284907,0.0-15.0-1.4,38917,List1A,white,man,,,,null,,,,
null,is touching,,html-keyboard-response,167,1286917,0.0-15.0-2.4,38917,List1A,white,man,,,,null,,,,
17452,,,survey-text,168,1304369,0.0-15.0-3.4,38917,List1A,white,man,,,,,"{""Q0"":""mike is touching dave""}","<img src=""stim_listA/touch5.gif""</stim_listA>",is touching,
null,"<div style=""font-size:60px;"">+</div>",,html-keyboard-response,169,1304877,0.0-15.0-0.5,38917,List1A,white,man,,,,null,,,,
null,"<img src=""stim_listA/argue5.gif""</stim_listA>",,html-keyboard-response,170,1306897,0.0-15.0-1.5,38917,List1A,white,man,,,,null,,,,
null,is arguing with,,html-keyboard-response,171,1308917,0.0-15.0-2.5,38917,List1A,white,man,,,,null,,,,
15384,,,survey-text,172,1324302,0.0-15.0-3.5,38917,List1A,white,man,,,,,"{""Q0"":""mike is arguing with luke""}","<img src=""stim_listA/argue5.gif""</stim_listA>",is arguing with,
null,"<div style=""font-size:60px;"">+</div>",,html-keyboard-response,173,1324807,0.0-15.0-0.6,38917,List1A,white,man,,,,null,,,,
null,"<img src=""stim_listA/meet2.gif""</stim_listA>",,html-keyboard-response,174,1326827,0.0-15.0-1.6,38917,List1A,white,man,,,,null,,,,
null,are meeting each other,,html-keyboard-response,175,1328829,0.0-15.0-2.6,38917,List1A,white,man,,,,null,,,,
20405,,,survey-text,176,1349234,0.0-15.0-3.6,38917,List1A,white,man,,,,,"{""Q0"":""fred and beth are meeting each other""}","<img src=""stim_listA/meet2.gif""</stim_listA>",are meeting each other,
null,"<div style=""font-size:60px;"">+</div>",,html-keyboard-response,177,1349747,0.0-15.0-0.7,38917,List1A,white,man,,,,null,,,,
null,"<img src=""stim_listA/dance1.gif""</stim_listA>",,html-keyboard-response,178,1351767,0.0-15.0-1.7,38917,List1A,white,man,,,,null,,,,
null,is dancing with,,html-keyboard-response,179,1353774,0.0-15.0-2.7,38917,List1A,white,man,,,,null,,,,
14105,,,survey-text,180,1367880,0.0-15.0-3.7,38917,List1A,white,man,,,,,"{""Q0"":""fred is dancing with kate""}","<img src=""stim_listA/dance1.gif""</stim_listA>",is dancing with,
null,"<div style=""font-size:60px;"">+</div>",,html-keyboard-response,181,1368397,0.0-15.0-0.8,38917,List1A,white,man,,,,null,,,,
null,"<img src=""stim_listA/talk7.gif""</stim_listA>",,html-keyboard-response,182,1370407,0.0-15.0-1.8,38917,List1A,white,man,,,,null,,,,
null,is talking to,,html-keyboard-response,183,1372427,0.0-15.0-2.8,38917,List1A,white,man,,,,null,,,,
20276,,,survey-text,184,1392704,0.0-15.0-3.8,38917,List1A,white,man,,,,,"{""Q0"":""jane is talking to ruth""}","<img src=""stim_listA/talk7.gif""</stim_listA>",is talking to,
null,"<div style=""font-size:60px;"">+</div>",,html-keyboard-response,185,1393206,0.0-15.0-0.9,38917,List1A,white,man,,,,null,,,,
null,"<img src=""stim_listA/meet8.gif""</stim_listA>",,html-keyboard-response,186,1395216,0.0-15.0-1.9,38917,List1A,white,man,,,,null,,,,
null,are meeting each other,,html-keyboard-response,187,1397217,0.0-15.0-2.9,38917,List1A,white,man,,,,null,,,,
26767,,,survey-text,188,1423984,0.0-15.0-3.9,38917,List1A,white,man,,,,,"{""Q0"":""ruth and beth are meeting each other""}","<img src=""stim_listA/meet8.gif""</stim_listA>",are meeting each other,
null,"<div style=""font-size:60px;"">+</div>",,html-keyboard-response,189,1424497,0.0-15.0-0.10,38917,List1A,white,man,,,,null,,,,
null,"<img src=""stim_listA/kiss8.gif""</stim_listA>",,html-keyboard-response,190,1426518,0.0-15.0-1.10,38917,List1A,white,man,,,,null,,,,
null,are kissing each other,,html-keyboard-response,191,1428527,0.0-15.0-2.10,38917,List1A,white,man,,,,null,,,,
25535,,,survey-text,192,1454064,0.0-15.0-3.10,38917,List1A,white,man,,,,,"{""Q0"":""jane and kate are kissing each other""}","<img src=""stim_listA/kiss8.gif""</stim_listA>",are kissing each other,
null,"<div style=""font-size:60px;"">+</div>",,html-keyboard-response,193,1454576,0.0-15.0-0.11,38917,List1A,white,man,,,,null,,,,
null,"<img src=""stim_listA/shout3.gif""</stim_listA>",,html-keyboard-response,194,1456587,0.0-15.0-1.11,38917,List1A,white,man,,,,null,,,,
null,is shouting at,,html-keyboard-response,195,1458597,0.0-15.0-2.11,38917,List1A,white,man,,,,null,,,,
18145,,,survey-text,196,1476742,0.0-15.0-3.11,38917,List1A,white,man,,,,,"{""Q0"":""ruth is shouting at luke""}","<img src=""stim_listA/shout3.gif""</stim_listA>",is shouting at,
null,"<div style=""font-size:60px;"">+</div>",,html-keyboard-response,197,1477257,0.0-15.0-0.12,38917,List1A,white,man,,,,null,,,,
null,"<img src=""stim_listA/meet6.gif""</stim_listA>",,html-keyboard-response,198,1479266,0.0-15.0-1.12,38917,List1A,white,man,,,,null,,,,
null,are meeting each other,,html-keyboard-response,199,1481267,0.0-15.0-2.12,38917,List1A,white,man,,,,null,,,,
14845,,,survey-text,200,1496115,0.0-15.0-3.12,38917,List1A,white,man,,,,,"{""Q0"":""fred and luke are meeting each other""}","<img src=""stim_listA/meet6.gif""</stim_listA>",are meeting each other,
null,"<div style=""font-size:60px;"">+</div>",,html-keyboard-response,201,1496627,0.0-15.0-0.13,38917,List1A,white,man,,,,null,,,,
null,"<img src=""stim_listA/talk1.gif""</stim_listA>",,html-keyboard-response,202,1498638,0.0-15.0-1.13,38917,List1A,white,man,,,,null,,,,
null,is talking to,,html-keyboard-response,203,1500639,0.0-15.0-2.13,38917,List1A,white,man,,,,null,,,,
12143,,,survey-text,204,1512782,0.0-15.0-3.13,38917,List1A,white,man,,,,,"{""Q0"":""fred is talking to kate""}","<img src=""stim_listA/talk1.gif""</stim_listA>",is talking to,
null,"<div style=""font-size:60px;"">+</div>",,html-keyboard-response,205,1513297,0.0-15.0-0.14,38917,List1A,white,man,,,,null,,,,
null,"<img src=""stim_listA/marry3.gif""</stim_listA>",,html-keyboard-response,206,1515307,0.0-15.0-1.14,38917,List1A,white,man,,,,null,,,,
null,is marrying,,html-keyboard-response,207,1517317,0.0-15.0-2.14,38917,List1A,white,man,,,,null,,,,
13692,,,survey-text,208,1531010,0.0-15.0-3.14,38917,List1A,white,man,,,,,"{""Q0"":""ruth is marrying dave""}","<img src=""stim_listA/marry3.gif""</stim_listA>",is marrying,
null,"<div style=""font-size:60px;"">+</div>",,html-keyboard-response,209,1531517,0.0-15.0-0.15,38917,List1A,white,man,,,,null,,,,
null,"<img src=""stim_listA/touch7.gif""</stim_listA>",,html-keyboard-response,210,1533528,0.0-15.0-1.15,38917,List1A,white,man,,,,null,,,,
null,is touching,,html-keyboard-response,211,1535537,0.0-15.0-2.15,38917,List1A,white,man,,,,null,,,,
13927,,,survey-text,212,1549464,0.0-15.0-3.15,38917,List1A,white,man,,,,,"{""Q0"":""jane is touching kate""}","<img src=""stim_listA/touch7.gif""</stim_listA>",is touching,
null,"<div style=""font-size:60px;"">+</div>",,html-keyboard-response,213,1549967,0.0-15.0-0.16,38917,List1A,white,man,,,,null,,,,
null,"<img src=""stim_listA/fight8.gif""</stim_listA>",,html-keyboard-response,214,1551977,0.0-15.0-1.16,38917,List1A,white,man,,,,null,,,,
null,are fighting each other,,html-keyboard-response,215,1553997,0.0-15.0-2.16,38917,List1A,white,man,,,,null,,,,
20705,,,survey-text,216,1574702,0.0-15.0-3.16,38917,List1A,white,man,,,,,"{""Q0"":""ruth and beth are fighting each other""}","<img src=""stim_listA/fight8.gif""</stim_listA>",are fighting each other,
null,"<div style=""font-size:60px;"">+</div>",,html-keyboard-response,217,1575217,0.0-15.0-0.17,38917,List1A,white,man,,,,null,,,,
null,"<img src=""stim_listA/marry7.gif""</stim_listA>",,html-keyboard-response,218,1577227,0.0-15.0-1.17,38917,List1A,white,man,,,,null,,,,
null,is marrying,,html-keyboard-response,219,1579237,0.0-15.0-2.17,38917,List1A,white,man,,,,null,,,,
12340,,,survey-text,220,1591578,0.0-15.0-3.17,38917,List1A,white,man,,,,,"{""Q0"":""ruth is marrying kate""}","<img src=""stim_listA/marry7.gif""</stim_listA>",is marrying,
null,"<div style=""font-size:60px;"">+</div>",,html-keyboard-response,221,1592085,0.0-15.0-0.18,38917,List1A,white,man,,,,null,,,,
null,"<img src=""stim_listA/meet5.gif""</stim_listA>",,html-keyboard-response,222,1594087,0.0-15.0-1.18,38917,List1A,white,man,,,,null,,,,
null,is meeting,,html-keyboard-response,223,1596107,0.0-15.0-2.18,38917,List1A,white,man,,,,null,,,,
12740,,,survey-text,224,1608848,0.0-15.0-3.18,38917,List1A,white,man,,,,,"{""Q0"":""mike is meeting dave""}","<img src=""stim_listA/meet5.gif""</stim_listA>",is meeting,
null,"<div style=""font-size:60px;"">+</div>",,html-keyboard-response,225,1609357,0.0-15.0-0.19,38917,List1A,white,man,,,,null,,,,
null,"<img src=""stim_listA/hug7.gif""</stim_listA>",,html-keyboard-response,226,1611377,0.0-15.0-1.19,38917,List1A,white,man,,,,null,,,,
null,is hugging,,html-keyboard-response,227,1613398,0.0-15.0-2.19,38917,List1A,white,man,,,,null,,,,
13636,,,survey-text,228,1627034,0.0-15.0-3.19,38917,List1A,white,man,,,,,"{""Q0"":""ruth is hugging beth""}","<img src=""stim_listA/hug7.gif""</stim_listA>",is hugging,
3868,"<img src='img/portrait_matrix_list1.JPG' style='width:900px;height:500px;''></img><p>If you have memorised all the portraits and names and are ready to start, press Continue.</p><p><strong>Please note: Your memory of these faces will be tested 4 times during this experiment.</strong></p>",0,html-button-response,229,1630905,0.0-16.0-0.0,38917,List1A,white,man,,,,,,,,
5021,"<img src=""portrait/BW1.jpg""style=""width:400px;height:400px;""></img>",0,html-button-response,230,1636930,0.0-16.0-1.0,38917,List1A,white,man,,TRUE,0,,,,,
null,CORRECT,,html-keyboard-response,231,1638447,0.0-16.0-2.0-0.0,38917,List1A,white,man,,,,null,,,,
2866,"<img src=""portrait/WM1.jpg""style=""width:400px;height:400px;""></img>",6,html-button-response,232,1641314,0.0-16.0-4.0,38917,List1A,white,man,,TRUE,6,,,,,
null,CORRECT,,html-keyboard-response,233,1642838,0.0-16.0-5.0-0.0,38917,List1A,white,man,,,,null,,,,
4814,"<img src=""portrait/BM2.jpg""style=""width:400px;height:400px;""></img>",5,html-button-response,234,1647652,0.0-16.0-7.0,38917,List1A,white,man,,TRUE,5,,,,,
null,CORRECT,,html-keyboard-response,235,1649177,0.0-16.0-8.0-0.0,38917,List1A,white,man,,,,null,,,,
3154,"<img src=""portrait/WM2.jpg""style=""width:400px;height:400px;""></img>",7,html-button-response,236,1652332,0.0-16.0-10.0,38917,List1A,white,man,,TRUE,7,,,,,
null,CORRECT,,html-keyboard-response,237,1653857,0.0-16.0-11.0-0.0,38917,List1A,white,man,,,,null,,,,
4072,"<img src=""portrait/BM1.jpg""style=""width:400px;height:400px;""></img>",4,html-button-response,238,1657930,0.0-16.0-13.0,38917,List1A,white,man,,TRUE,4,,,,,
null,CORRECT,,html-keyboard-response,239,1659457,0.0-16.0-14.0-0.0,38917,List1A,white,man,,,,null,,,,
5290,"<img src=""portrait/WW1.jpg""style=""width:400px;height:400px;""></img>",1,html-button-response,240,1664748,0.0-16.0-16.0,38917,List1A,white,man,,TRUE,1,,,,,
null,CORRECT,,html-keyboard-response,241,1666287,0.0-16.0-17.0-0.0,38917,List1A,white,man,,,,null,,,,
5616,"<img src=""portrait/WW2.jpg""style=""width:400px;height:400px;""></img>",3,html-button-response,242,1671905,0.0-16.0-19.0,38917,List1A,white,man,,TRUE,3,,,,,
null,CORRECT,,html-keyboard-response,243,1673428,0.0-16.0-20.0-0.0,38917,List1A,white,man,,,,null,,,,
9259,"<img src=""portrait/BW2.jpg""style=""width:400px;height:400px;""></img>",2,html-button-response,244,1682688,0.0-16.0-22.0,38917,List1A,white,man,,TRUE,2,,,,,
null,CORRECT,,html-keyboard-response,245,1684228,0.0-16.0-23.0-0.0,38917,List1A,white,man,,,,null,,,,
1632,<p>You got 8 out of 8 right first time. Press Continue.</p>,0,html-button-response,246,1685860,0.0-16.0-25.0,38917,List1A,white,man,,,,,,,,
null,"<div style=""font-size:60px;"">+</div>",,html-keyboard-response,247,1687387,0.0-17.0-0.0,38917,List1A,white,man,,,,null,,,,
null,"<img src=""stim_listA/argue7.gif""</stim_listA>",,html-keyboard-response,248,1689407,0.0-17.0-1.0,38917,List1A,white,man,,,,null,,,,
null,is arguing with,,html-keyboard-response,249,1691418,0.0-17.0-2.0,38917,List1A,white,man,,,,null,,,,
17440,,,survey-text,250,1708859,0.0-17.0-3.0,38917,List1A,white,man,,,,,"{""Q0"":""ruth is arguing with kate""}","<img src=""stim_listA/argue7.gif""</stim_listA>",is arguing with,
null,"<div style=""font-size:60px;"">+</div>",,html-keyboard-response,251,1709367,0.0-17.0-0.1,38917,List1A,white,man,,,,null,,,,
null,"<img src=""stim_listA/meet4.gif""</stim_listA>",,html-keyboard-response,252,1711387,0.0-17.0-1.1,38917,List1A,white,man,,,,null,,,,
null,are meeting each other,,html-keyboard-response,253,1713397,0.0-17.0-2.1,38917,List1A,white,man,,,,null,,,,
19214,,,survey-text,254,1732612,0.0-17.0-3.1,38917,List1A,white,man,,,,,"{""Q0"":""ruth and luke are meeting each other""}","<img src=""stim_listA/meet4.gif""</stim_listA>",are meeting each other,
null,"<div style=""font-size:60px;"">+</div>",,html-keyboard-response,255,1733127,0.0-17.0-0.2,38917,List1A,white,man,,,,null,,,,
null,"<img src=""stim_listA/meet3.gif""</stim_listA>",,html-keyboard-response,256,1735147,0.0-17.0-1.2,38917,List1A,white,man,,,,null,,,,
null,is meeting,,html-keyboard-response,257,1737151,0.0-17.0-2.2,38917,List1A,white,man,,,,null,,,,
13544,,,survey-text,258,1750696,0.0-17.0-3.2,38917,List1A,white,man,,,,,"{""Q0"":""jane is meeting dave""}","<img src=""stim_listA/meet3.gif""</stim_listA>",is meeting,
null,"<div style=""font-size:60px;"">+</div>",,html-keyboard-response,259,1751207,0.0-17.0-0.3,38917,List1A,white,man,,,,null,,,,
null,"<img src=""stim_listA/talk4.gif""</stim_listA>",,html-keyboard-response,260,1753217,0.0-17.0-1.3,38917,List1A,white,man,,,,null,,,,
null,are talking to each other,,html-keyboard-response,261,1755228,0.0-17.0-2.3,38917,List1A,white,man,,,,null,,,,
16776,,,survey-text,262,1772004,0.0-17.0-3.3,38917,List1A,white,man,,,,,"{""Q0"":""dave and ruth are talking to each other""}","<img src=""stim_listA/talk4.gif""</stim_listA>",are talking to each other,
null,"<div style=""font-size:60px;"">+</div>",,html-keyboard-response,263,1772506,0.0-17.0-0.4,38917,List1A,white,man,,,,null,,,,
null,"<img src=""stim_listA/argue1.gif""</stim_listA>",,html-keyboard-response,264,1774527,0.0-17.0-1.4,38917,List1A,white,man,,,,null,,,,
null,is arguing with,,html-keyboard-response,265,1776548,0.0-17.0-2.4,38917,List1A,white,man,,,,null,,,,
12302,,,survey-text,266,1788851,0.0-17.0-3.4,38917,List1A,white,man,,,,,"{""Q0"":""mike is arguing with beth""}","<img src=""stim_listA/argue1.gif""</stim_listA>",is arguing with,
null,"<div style=""font-size:60px;"">+</div>",,html-keyboard-response,267,1789356,0.0-17.0-0.5,38917,List1A,white,man,,,,null,,,,
null,"<img src=""stim_listA/kiss6.gif""</stim_listA>",,html-keyboard-response,268,1791357,0.0-17.0-1.5,38917,List1A,white,man,,,,null,,,,
null,are kissing each other,,html-keyboard-response,269,1793377,0.0-17.0-2.5,38917,List1A,white,man,,,,null,,,,
21277,,,survey-text,270,1814657,0.0-17.0-3.5,38917,List1A,white,man,,,,,"{""Q0"":""mike and dave are kissing each other""}","<img src=""stim_listA/kiss6.gif""</stim_listA>",are kissing each other,
null,"<div style=""font-size:60px;"">+</div>",,html-keyboard-response,271,1815167,0.0-17.0-0.6,38917,List1A,white,man,,,,null,,,,
null,"<img src=""stim_listA/touch4.gif""</stim_listA>",,html-keyboard-response,272,1817177,0.0-17.0-1.6,38917,List1A,white,man,,,,null,,,,
null,are touching each other,,html-keyboard-response,273,1819197,0.0-17.0-2.6,38917,List1A,white,man,,,,null,,,,
26608,,,survey-text,274,1845806,0.0-17.0-3.6,38917,List1A,white,man,,,,,"{""Q0"":""ruth and luke are touching each other""}","<img src=""stim_listA/touch4.gif""</stim_listA>",are touching each other,
null,"<div style=""font-size:60px;"">+</div>",,html-keyboard-response,275,1846309,0.0-17.0-0.7,38917,List1A,white,man,,,,null,,,,
null,"<img src=""stim_listA/meet7.gif""</stim_listA>",,html-keyboard-response,276,1848317,0.0-17.0-1.7,38917,List1A,white,man,,,,null,,,,
null,is meeting,,html-keyboard-response,277,1850317,0.0-17.0-2.7,38917,List1A,white,man,,,,null,,,,
11582,,,survey-text,278,1861900,0.0-17.0-3.7,38917,List1A,white,man,,,,,"{""Q0"":""jane is meeting kate""}","<img src=""stim_listA/meet7.gif""</stim_listA>",is meeting,
null,"<div style=""font-size:60px;"">+</div>",,html-keyboard-response,279,1862407,0.0-17.0-0.8,38917,List1A,white,man,,,,null,,,,
null,"<img src=""stim_listA/kiss5.gif""</stim_listA>",,html-keyboard-response,280,1864428,0.0-17.0-1.8,38917,List1A,white,man,,,,null,,,,
null,is kissing,,html-keyboard-response,281,1866436,0.0-17.0-2.8,38917,List1A,white,man,,,,null,,,,
10343,,,survey-text,282,1876780,0.0-17.0-3.8,38917,List1A,white,man,,,,,"{""Q0"":""fred is kissing luke""}","<img src=""stim_listA/kiss5.gif""</stim_listA>",is kissing,
null,"<div style=""font-size:60px;"">+</div>",,html-keyboard-response,283,1877287,0.0-17.0-0.9,38917,List1A,white,man,,,,null,,,,
null,"<img src=""stim_listA/marry2.gif""</stim_listA>",,html-keyboard-response,284,1879307,0.0-17.0-1.9,38917,List1A,white,man,,,,null,,,,
null,are marrying each other,,html-keyboard-response,285,1881317,0.0-17.0-2.9,38917,List1A,white,man,,,,null,,,,
16482,,,survey-text,286,1897801,0.0-17.0-3.9,38917,List1A,white,man,,,,,"{""Q0"":""fred and kate are marrying each other""}","<img src=""stim_listA/marry2.gif""</stim_listA>",are marrying each other,
null,"<div style=""font-size:60px;"">+</div>",,html-keyboard-response,287,1898308,0.0-17.0-0.10,38917,List1A,white,man,,,,null,,,,
null,"<img src=""stim_listA/fight3.gif""</stim_listA>",,html-keyboard-response,288,1900327,0.0-17.0-1.10,38917,List1A,white,man,,,,null,,,,
null,is fighting,,html-keyboard-response,289,1902327,0.0-17.0-2.10,38917,List1A,white,man,,,,null,,,,
14778,,,survey-text,290,1917106,0.0-17.0-3.10,38917,List1A,white,man,,,,,"{""Q0"":""dave is fighting jane""}","<img src=""stim_listA/fight3.gif""</stim_listA>",is fighting,
null,"<div style=""font-size:60px;"">+</div>",,html-keyboard-response,291,1917617,0.0-17.0-0.11,38917,List1A,white,man,,,,null,,,,
null,"<img src=""stim_listA/dance6.gif""</stim_listA>",,html-keyboard-response,292,1919638,0.0-17.0-1.11,38917,List1A,white,man,,,,null,,,,
null,are dancing with each other,,html-keyboard-response,293,1921657,0.0-17.0-2.11,38917,List1A,white,man,,,,null,,,,
24944,,,survey-text,294,1946602,0.0-17.0-3.11,38917,List1A,white,man,,,,,"{""Q0"":""mike and luke are dancing with each other""}","<img src=""stim_listA/dance6.gif""</stim_listA>",are dancing with each other,
null,"<div style=""font-size:60px;"">+</div>",,html-keyboard-response,295,1947107,0.0-17.0-0.12,38917,List1A,white,man,,,,null,,,,
null,"<img src=""stim_listA/touch8.gif""</stim_listA>",,html-keyboard-response,296,1949117,0.0-17.0-1.12,38917,List1A,white,man,,,,null,,,,
null,are touching each other,,html-keyboard-response,297,1951137,0.0-17.0-2.12,38917,List1A,white,man,,,,null,,,,
21894,,,survey-text,298,1973032,0.0-17.0-3.12,38917,List1A,white,man,,,,,"{""Q0"":""ruth and beth are touching each other""}","<img src=""stim_listA/touch8.gif""</stim_listA>",are touching each other,
null,"<div style=""font-size:60px;"">+</div>",,html-keyboard-response,299,1973547,0.0-17.0-0.13,38917,List1A,white,man,,,,null,,,,
null,"<img src=""stim_listA/touch3.gif""</stim_listA>",,html-keyboard-response,300,1975567,0.0-17.0-1.13,38917,List1A,white,man,,,,null,,,,
null,is touching,,html-keyboard-response,301,1977577,0.0-17.0-2.13,38917,List1A,white,man,,,,null,,,,
16593,,,survey-text,302,1994170,0.0-17.0-3.13,38917,List1A,white,man,,,,,"{""Q0"":""jane is touching dave""}","<img src=""stim_listA/touch3.gif""</stim_listA>",is touching,
null,"<div style=""font-size:60px;"">+</div>",,html-keyboard-response,303,1994677,0.0-17.0-0.14,38917,List1A,white,man,,,,null,,,,
null,"<img src=""stim_listA/argue8.gif""</stim_listA>",,html-keyboard-response,304,1996687,0.0-17.0-1.14,38917,List1A,white,man,,,,null,,,,
null,are arguing with each other,,html-keyboard-response,305,1998707,0.0-17.0-2.14,38917,List1A,white,man,,,,null,,,,
20626,,,survey-text,306,2019334,0.0-17.0-3.14,38917,List1A,white,man,,,,,"{""Q0"":""jane and beth are arguing with each other""}","<img src=""stim_listA/argue8.gif""</stim_listA>",are arguing with each other,
null,"<div style=""font-size:60px;"">+</div>",,html-keyboard-response,307,2019836,0.0-17.0-0.15,38917,List1A,white,man,,,,null,,,,
null,"<img src=""stim_listA/dance3.gif""</stim_listA>",,html-keyboard-response,308,2021847,0.0-17.0-1.15,38917,List1A,white,man,,,,null,,,,
null,is dancing with,,html-keyboard-response,309,2023854,0.0-17.0-2.15,38917,List1A,white,man,,,,null,,,,
14281,,,survey-text,310,2038136,0.0-17.0-3.15,38917,List1A,white,man,,,,,"{""Q0"":""jane is dancing with luke""}","<img src=""stim_listA/dance3.gif""</stim_listA>",is dancing with,
null,"<div style=""font-size:60px;"">+</div>",,html-keyboard-response,311,2038655,0.0-17.0-0.16,38917,List1A,white,man,,,,null,,,,
null,"<img src=""stim_listA/touch2.gif""</stim_listA>",,html-keyboard-response,312,2040657,0.0-17.0-1.16,38917,List1A,white,man,,,,null,,,,
null,are touching each other,,html-keyboard-response,313,2042668,0.0-17.0-2.16,38917,List1A,white,man,,,,null,,,,
16924,,,survey-text,314,2059593,0.0-17.0-3.16,38917,List1A,white,man,,,,,"{""Q0"":""fred and beth are touching each other""}","<img src=""stim_listA/touch2.gif""</stim_listA>",are touching each other,
null,"<div style=""font-size:60px;"">+</div>",,html-keyboard-response,315,2060097,0.0-17.0-0.17,38917,List1A,white,man,,,,null,,,,
null,"<img src=""stim_listA/kiss7.gif""</stim_listA>",,html-keyboard-response,316,2062117,0.0-17.0-1.17,38917,List1A,white,man,,,,null,,,,
null,is kissing,,html-keyboard-response,317,2064137,0.0-17.0-2.17,38917,List1A,white,man,,,,null,,,,
15137,,,survey-text,318,2079274,0.0-17.0-3.17,38917,List1A,white,man,,,,,"{""Q0"":""beth is kissing ruth""}","<img src=""stim_listA/kiss7.gif""</stim_listA>",is kissing,
null,"<div style=""font-size:60px;"">+</div>",,html-keyboard-response,319,2079777,0.0-17.0-0.18,38917,List1A,white,man,,,,null,,,,
null,"<img src=""stim_listA/dance4.gif""</stim_listA>",,html-keyboard-response,320,2081787,0.0-17.0-1.18,38917,List1A,white,man,,,,null,,,,
null,are dancing with each other,,html-keyboard-response,321,2083802,0.0-17.0-2.18,38917,List1A,white,man,,,,null,,,,
15115,,,survey-text,322,2098918,0.0-17.0-3.18,38917,List1A,white,man,,,,,"{""Q0"":""ruth and dave are dancing with each other""}","<img src=""stim_listA/dance4.gif""</stim_listA>",are dancing with each other,
null,"<div style=""font-size:60px;"">+</div>",,html-keyboard-response,323,2099427,0.0-17.0-0.19,38917,List1A,white,man,,,,null,,,,
null,"<img src=""stim_listA/hug4.gif""</stim_listA>",,html-keyboard-response,324,2101447,0.0-17.0-1.19,38917,List1A,white,man,,,,null,,,,
null,are hugging each other,,html-keyboard-response,325,2103466,0.0-17.0-2.19,38917,List1A,white,man,,,,null,,,,
16188,,,survey-text,326,2119656,0.0-17.0-3.19,38917,List1A,white,man,,,,,"{""Q0"":""jane and dave are hugging each other""}","<img src=""stim_listA/hug4.gif""</stim_listA>",are hugging each other,
3856,"<img src='img/portrait_matrix_list1.JPG' style='width:900px;height:500px;''></img><p>If you have memorised all the portraits and names and are ready to start, press Continue.</p><p><strong>Please note: Your memory of these faces will be tested 4 times during this experiment.</strong></p>",0,html-button-response,327,2123514,0.0-18.0-0.0,38917,List1A,white,man,,,,,,,,
2988,"<img src=""portrait/BW1.jpg""style=""width:400px;height:400px;""></img>",0,html-button-response,328,2127507,0.0-18.0-1.0,38917,List1A,white,man,,TRUE,0,,,,,
null,CORRECT,,html-keyboard-response,329,2129037,0.0-18.0-2.0-0.0,38917,List1A,white,man,,,,null,,,,
2240,"<img src=""portrait/BW2.jpg""style=""width:400px;height:400px;""></img>",2,html-button-response,330,2131278,0.0-18.0-4.0,38917,List1A,white,man,,TRUE,2,,,,,
null,CORRECT,,html-keyboard-response,331,2132807,0.0-18.0-5.0-0.0,38917,List1A,white,man,,,,null,,,,
1828,"<img src=""portrait/WM1.jpg""style=""width:400px;height:400px;""></img>",6,html-button-response,332,2134637,0.0-18.0-7.0,38917,List1A,white,man,,TRUE,6,,,,,
null,CORRECT,,html-keyboard-response,333,2136167,0.0-18.0-8.0-0.0,38917,List1A,white,man,,,,null,,,,
3406,"<img src=""portrait/WW1.jpg""style=""width:400px;height:400px;""></img>",1,html-button-response,334,2139574,0.0-18.0-10.0,38917,List1A,white,man,,TRUE,1,,,,,
null,CORRECT,,html-keyboard-response,335,2141097,0.0-18.0-11.0-0.0,38917,List1A,white,man,,,,null,,,,
2854,"<img src=""portrait/BM1.jpg""style=""width:400px;height:400px;""></img>",4,html-button-response,336,2143953,0.0-18.0-13.0,38917,List1A,white,man,,TRUE,4,,,,,
null,CORRECT,,html-keyboard-response,337,2145487,0.0-18.0-14.0-0.0,38917,List1A,white,man,,,,null,,,,
1540,"<img src=""portrait/WW2.jpg""style=""width:400px;height:400px;""></img>",3,html-button-response,338,2147029,0.0-18.0-16.0,38917,List1A,white,man,,TRUE,3,,,,,
null,CORRECT,,html-keyboard-response,339,2148567,0.0-18.0-17.0-0.0,38917,List1A,white,man,,,,null,,,,
2215,"<img src=""portrait/BM2.jpg""style=""width:400px;height:400px;""></img>",5,html-button-response,340,2150785,0.0-18.0-19.0,38917,List1A,white,man,,TRUE,5,,,,,
null,CORRECT,,html-keyboard-response,341,2152307,0.0-18.0-20.0-0.0,38917,List1A,white,man,,,,null,,,,
1700,"<img src=""portrait/WM2.jpg""style=""width:400px;height:400px;""></img>",7,html-button-response,342,2154009,0.0-18.0-22.0,38917,List1A,white,man,,TRUE,7,,,,,
null,CORRECT,,html-keyboard-response,343,2155547,0.0-18.0-23.0-0.0,38917,List1A,white,man,,,,null,,,,
1684,<p>You got 8 out of 8 right first time. Press Continue.</p>,0,html-button-response,344,2157232,0.0-18.0-25.0,38917,List1A,white,man,,,,,,,,
null,"<div style=""font-size:60px;"">+</div>",,html-keyboard-response,345,2158767,0.0-19.0-0.0,38917,List1A,white,man,,,,null,,,,
null,"<img src=""stim_listA/hug8.gif""</stim_listA>",,html-keyboard-response,346,2160787,0.0-19.0-1.0,38917,List1A,white,man,,,,null,,,,
null,are hugging each other,,html-keyboard-response,347,2162807,0.0-19.0-2.0,38917,List1A,white,man,,,,null,,,,
17157,,,survey-text,348,2179966,0.0-19.0-3.0,38917,List1A,white,man,,,,,"{""Q0"":""kate and jane are hugging each other""}","<img src=""stim_listA/hug8.gif""</stim_listA>",are hugging each other,
null,"<div style=""font-size:60px;"">+</div>",,html-keyboard-response,349,2180478,0.0-19.0-0.1,38917,List1A,white,man,,,,null,,,,
null,"<img src=""stim_listA/argue4.gif""</stim_listA>",,html-keyboard-response,350,2182495,0.0-19.0-1.1,38917,List1A,white,man,,,,null,,,,
null,are arguing with each other,,html-keyboard-response,351,2184497,0.0-19.0-2.1,38917,List1A,white,man,,,,null,,,,
17943,,,survey-text,352,2202440,0.0-19.0-3.1,38917,List1A,white,man,,,,,"{""Q0"":""jane and luke are arguing with each other""}","<img src=""stim_listA/argue4.gif""</stim_listA>",are arguing with each other,
null,"<div style=""font-size:60px;"">+</div>",,html-keyboard-response,353,2202957,0.0-19.0-0.2,38917,List1A,white,man,,,,null,,,,
null,"<img src=""stim_listA/talk6.gif""</stim_listA>",,html-keyboard-response,354,2204977,0.0-19.0-1.2,38917,List1A,white,man,,,,null,,,,
null,are talking to each other,,html-keyboard-response,355,2206997,0.0-19.0-2.2,38917,List1A,white,man,,,,null,,,,
18600,,,survey-text,356,2225599,0.0-19.0-3.2,38917,List1A,white,man,,,,,"{""Q0"":""mike and like are talking to each other""}","<img src=""stim_listA/talk6.gif""</stim_listA>",are talking to each other,
null,"<div style=""font-size:60px;"">+</div>",,html-keyboard-response,357,2226104,0.0-19.0-0.3,38917,List1A,white,man,,,,null,,,,
null,"<img src=""stim_listA/kiss4.gif""</stim_listA>",,html-keyboard-response,358,2228107,0.0-19.0-1.3,38917,List1A,white,man,,,,null,,,,
null,are kissing each other,,html-keyboard-response,359,2230116,0.0-19.0-2.3,38917,List1A,white,man,,,,null,,,,
18720,,,survey-text,360,2248839,0.0-19.0-3.3,38917,List1A,white,man,,,,,"{""Q0"":""jane and dave are kissing each other""}","<img src=""stim_listA/kiss4.gif""</stim_listA>",are kissing each other,
null,"<div style=""font-size:60px;"">+</div>",,html-keyboard-response,361,2249357,0.0-19.0-0.4,38917,List1A,white,man,,,,null,,,,
null,"<img src=""stim_listA/shout2.gif""</stim_listA>",,html-keyboard-response,362,2251377,0.0-19.0-1.4,38917,List1A,white,man,,,,null,,,,
null,are shouting at each other,,html-keyboard-response,363,2253392,0.0-19.0-2.4,38917,List1A,white,man,,,,null,,,,
19158,,,survey-text,364,2272550,0.0-19.0-3.4,38917,List1A,white,man,,,,,"{""Q0"":""mike and kate are shouting at each other""}","<img src=""stim_listA/shout2.gif""</stim_listA>",are shouting at each other,
null,"<div style=""font-size:60px;"">+</div>",,html-keyboard-response,365,2273058,0.0-19.0-0.5,38917,List1A,white,man,,,,null,,,,
null,"<img src=""stim_listA/dance5.gif""</stim_listA>",,html-keyboard-response,366,2275068,0.0-19.0-1.5,38917,List1A,white,man,,,,null,,,,
null,is dancing with,,html-keyboard-response,367,2277078,0.0-19.0-2.5,38917,List1A,white,man,,,,null,,,,
11877,,,survey-text,368,2288959,0.0-19.0-3.5,38917,List1A,white,man,,,,,"{""Q0"":""fred is dancing with dave""}","<img src=""stim_listA/dance5.gif""</stim_listA>",is dancing with,
null,"<div style=""font-size:60px;"">+</div>",,html-keyboard-response,369,2289472,0.0-19.0-0.6,38917,List1A,white,man,,,,null,,,,
null,"<img src=""stim_listA/marry1.gif""</stim_listA>",,html-keyboard-response,370,2291487,0.0-19.0-1.6,38917,List1A,white,man,,,,null,,,,
null,is marrying,,html-keyboard-response,371,2293497,0.0-19.0-2.6,38917,List1A,white,man,,,,null,,,,
10391,,,survey-text,372,2303890,0.0-19.0-3.6,38917,List1A,white,man,,,,,"{""Q0"":""mike is marrying beth""}","<img src=""stim_listA/marry1.gif""</stim_listA>",is marrying,
null,"<div style=""font-size:60px;"">+</div>",,html-keyboard-response,373,2304407,0.0-19.0-0.7,38917,List1A,white,man,,,,null,,,,
null,"<img src=""stim_listA/argue2.gif""</stim_listA>",,html-keyboard-response,374,2306427,0.0-19.0-1.7,38917,List1A,white,man,,,,null,,,,
null,are arguing with each other,,html-keyboard-response,375,2308447,0.0-19.0-2.7,38917,List1A,white,man,,,,null,,,,
18581,,,survey-text,376,2327030,0.0-19.0-3.7,38917,List1A,white,man,,,,,"{""Q0"":""fred and kate are arguing with each other""}","<img src=""stim_listA/argue2.gif""</stim_listA>",are arguing with each other,
null,"<div style=""font-size:60px;"">+</div>",,html-keyboard-response,377,2327537,0.0-19.0-0.8,38917,List1A,white,man,,,,null,,,,
null,"<img src=""stim_listA/touch6.gif""</stim_listA>",,html-keyboard-response,378,2329558,0.0-19.0-1.8,38917,List1A,white,man,,,,null,,,,
null,are touching each other,,html-keyboard-response,379,2331578,0.0-19.0-2.8,38917,List1A,white,man,,,,null,,,,
16609,,,survey-text,380,2348188,0.0-19.0-3.8,38917,List1A,white,man,,,,,"{""Q0"":""fred and luke are touching each other""}","<img src=""stim_listA/touch6.gif""</stim_listA>",are touching each other,
null,"<div style=""font-size:60px;"">+</div>",,html-keyboard-response,381,2348699,0.0-19.0-0.9,38917,List1A,white,man,,,,null,,,,
null,"<img src=""stim_listA/fight5.gif""</stim_listA>",,html-keyboard-response,382,2350717,0.0-19.0-1.9,38917,List1A,white,man,,,,null,,,,
null,is fighting,,html-keyboard-response,383,2352739,0.0-19.0-2.9,38917,List1A,white,man,,,,null,,,,
13519,,,survey-text,384,2366262,0.0-19.0-3.9,38917,List1A,white,man,,,,,"{""Q0"":""mike is fighting dave""}","<img src=""stim_listA/fight5.gif""</stim_listA>",is fighting,
null,"<div style=""font-size:60px;"">+</div>",,html-keyboard-response,385,2366767,0.0-19.0-0.10,38917,List1A,white,man,,,,null,,,,
null,"<img src=""stim_listA/shout5.gif""</stim_listA>",,html-keyboard-response,386,2368788,0.0-19.0-1.10,38917,List1A,white,man,,,,null,,,,
null,is shouting at,,html-keyboard-response,387,2370804,0.0-19.0-2.10,38917,List1A,white,man,,,,null,,,,
14006,,,survey-text,388,2384812,0.0-19.0-3.10,38917,List1A,white,man,,,,,"{""Q0"":""fred is shouting at luke""}","<img src=""stim_listA/shout5.gif""</stim_listA>",is shouting at,
null,"<div style=""font-size:60px;"">+</div>",,html-keyboard-response,389,2385327,0.0-19.0-0.11,38917,List1A,white,man,,,,null,,,,
null,"<img src=""stim_listA/marry4.gif""</stim_listA>",,html-keyboard-response,390,2387337,0.0-19.0-1.11,38917,List1A,white,man,,,,null,,,,
null,are marrying each other,,html-keyboard-response,391,2389350,0.0-19.0-2.11,38917,List1A,white,man,,,,null,,,,
20202,,,survey-text,392,2409552,0.0-19.0-3.11,38917,List1A,white,man,,,,,"{""Q0"":""luke and jane is marrying each other""}","<img src=""stim_listA/marry4.gif""</stim_listA>",are marrying each other,
null,"<div style=""font-size:60px;"">+</div>",,html-keyboard-response,393,2410057,0.0-19.0-0.12,38917,List1A,white,man,,,,null,,,,
null,"<img src=""stim_listA/talk5.gif""</stim_listA>",,html-keyboard-response,394,2412077,0.0-19.0-1.12,38917,List1A,white,man,,,,null,,,,
null,is talking to,,html-keyboard-response,395,2414088,0.0-19.0-2.12,38917,List1A,white,man,,,,null,,,,
9404,,,survey-text,396,2423496,0.0-19.0-3.12,38917,List1A,white,man,,,,,"{""Q0"":""fred is talking to dave""}","<img src=""stim_listA/talk5.gif""</stim_listA>",is talking to,
null,"<div style=""font-size:60px;"">+</div>",,html-keyboard-response,397,2424017,0.0-19.0-0.13,38917,List1A,white,man,,,,null,,,,
null,"<img src=""stim_listA/hug1.gif""</stim_listA>",,html-keyboard-response,398,2426025,0.0-19.0-1.13,38917,List1A,white,man,,,,null,,,,
null,is hugging,,html-keyboard-response,399,2428037,0.0-19.0-2.13,38917,List1A,white,man,,,,null,,,,
13251,,,survey-text,400,2441290,0.0-19.0-3.13,38917,List1A,white,man,,,,,"{""Q0"":""fred is hugging beth""}","<img src=""stim_listA/hug1.gif""</stim_listA>",is hugging,
null,"<div style=""font-size:60px;"">+</div>",,html-keyboard-response,401,2441807,0.0-19.0-0.14,38917,List1A,white,man,,,,null,,,,
null,"<img src=""stim_listA/fight4.gif""</stim_listA>",,html-keyboard-response,402,2443817,0.0-19.0-1.14,38917,List1A,white,man,,,,null,,,,
null,are fighting each other,,html-keyboard-response,403,2445828,0.0-19.0-2.14,38917,List1A,white,man,,,,null,,,,
17967,,,survey-text,404,2463797,0.0-19.0-3.14,38917,List1A,white,man,,,,,"{""Q0"":""ruth and luke are fighting each other""}","<img src=""stim_listA/fight4.gif""</stim_listA>",are fighting each other,
null,"<div style=""font-size:60px;"">+</div>",,html-keyboard-response,405,2464317,0.0-19.0-0.15,38917,List1A,white,man,,,,null,,,,
null,"<img src=""stim_listA/fight7.gif""</stim_listA>",,html-keyboard-response,406,2466323,0.0-19.0-1.15,38917,List1A,white,man,,,,null,,,,
null,is fighting,,html-keyboard-response,407,2468327,0.0-19.0-2.15,38917,List1A,white,man,,,,null,,,,
13422,,,survey-text,408,2481750,0.0-19.0-3.15,38917,List1A,white,man,,,,,"{""Q0"":""kate is fighting jane""}","<img src=""stim_listA/fight7.gif""</stim_listA>",is fighting,
null,"<div style=""font-size:60px;"">+</div>",,html-keyboard-response,409,2482257,0.0-19.0-0.16,38917,List1A,white,man,,,,null,,,,
null,"<img src=""stim_listA/hug3.gif""</stim_listA>",,html-keyboard-response,410,2484267,0.0-19.0-1.16,38917,List1A,white,man,,,,null,,,,
null,is hugging,,html-keyboard-response,411,2486278,0.0-19.0-2.16,38917,List1A,white,man,,,,null,,,,
15006,,,survey-text,412,2501285,0.0-19.0-3.16,38917,List1A,white,man,,,,,"{""Q0"":""ruth is hugging luke""}","<img src=""stim_listA/hug3.gif""</stim_listA>",is hugging,
null,"<div style=""font-size:60px;"">+</div>",,html-keyboard-response,413,2501797,0.0-19.0-0.17,38917,List1A,white,man,,,,null,,,,
null,"<img src=""stim_listA/meet1.gif""</stim_listA>",,html-keyboard-response,414,2503808,0.0-19.0-1.17,38917,List1A,white,man,,,,null,,,,
null,is meeting,,html-keyboard-response,415,2505822,0.0-19.0-2.17,38917,List1A,white,man,,,,null,,,,
10585,,,survey-text,416,2516409,0.0-19.0-3.17,38917,List1A,white,man,,,,,"{""Q0"":""mike is meeting kate""}","<img src=""stim_listA/meet1.gif""</stim_listA>",is meeting,
null,"<div style=""font-size:60px;"">+</div>",,html-keyboard-response,417,2516917,0.0-19.0-0.18,38917,List1A,white,man,,,,null,,,,
null,"<img src=""stim_listA/marry8.gif""</stim_listA>",,html-keyboard-response,418,2518927,0.0-19.0-1.18,38917,List1A,white,man,,,,null,,,,
null,are marrying each other,,html-keyboard-response,419,2520949,0.0-19.0-2.18,38917,List1A,white,man,,,,null,,,,
29817,,,survey-text,420,2550768,0.0-19.0-3.18,38917,List1A,white,man,,,,,"{""Q0"":""jane and beth are marrying each other""}","<img src=""stim_listA/marry8.gif""</stim_listA>",are marrying each other,
null,"<div style=""font-size:60px;"">+</div>",,html-keyboard-response,421,2551277,0.0-19.0-0.19,38917,List1A,white,man,,,,null,,,,
null,"<img src=""stim_listA/talk2.gif""</stim_listA>",,html-keyboard-response,422,2553287,0.0-19.0-1.19,38917,List1A,white,man,,,,null,,,,
null,are talking to each other,,html-keyboard-response,423,2555295,0.0-19.0-2.19,38917,List1A,white,man,,,,null,,,,
13786,,,survey-text,424,2569083,0.0-19.0-3.19,38917,List1A,white,man,,,,,"{""Q0"":""mike and beth are talking to each other""}","<img src=""stim_listA/talk2.gif""</stim_listA>",are talking to each other,
3794,<p>Thank you for completing that task.</p><p>The final part of this session is a short questionnaire.</p><p>Press Continue.</p>,0,html-button-response,425,2572880,0.0-20.0,38917,List1A,white,man,,,,,,,,
74652,,,survey-text,426,2648543,0.0-21.0,38917,List1A,white,man,,,,,"{""Q0"":""42"",""Q1"":""English"",""Q2"":""English"",""Q3"":""United Kingdom"",""Q4"":""white british"",""Q5"":""Male""}",,,demographics
80329,,,survey-likert,427,2728881,0.0-22.0,38917,List1A,white,man,,,,,"{""Q0"":4,""Q1"":4,""Q2"":3,""Q3"":4,""Q4"":5,""Q5"":5,""Q6"":3,""Q7"":4,""Q8"":1,""Q9"":1,""Q10"":4,""Q11"":3,""Q12"":5,""Q13"":4}",,,likert_race
66643,,,survey-likert,428,2795536,0.0-23.0,38917,List1A,white,man,,,,,"{""Q0"":5,""Q1"":5,""Q2"":5,""Q3"":6,""Q4"":6,""Q5"":6,""Q6"":5,""Q7"":4,""Q8"":2,""Q9"":4,""Q10"":5,""Q11"":4,""Q12"":6,""Q13"":4}",,,likert_gender
14946,,,survey-text,429,2810489,0.0-24.0,38917,List1A,white,man,,,,,"{""Q0"":""ccc""}",,,worker_id
74690,,,external-html,430,2885319,0.0-25.0,38917,List1A,white,man,debrief.html,,,,,,,
