rt,stimulus,button_pressed,trial_type,trial_index,time_elapsed,internal_node_id,subject,list,ppt_race,ppt_gender,url,first_guess,correct,key_press,responses,image_type,phrase_type,test_part
8058,Welcome to the experiment. Press Continue to begin.,0,html-button-response,0,8067,0.0-0.0,40730,List2B,white,woman,,,,,,,,
69493,,,external-html,1,78672,0.0-1.0,40730,List2B,white,woman,consent.html,,,,,,,
17020,"<p>On the next page, you will see portraits of 8 people and their names.</p><p>Your first task is to take a few minutes to memorise the names of these people.</p><p>You will have to recall their names during the rest of the experiment, so it is</p><p>essential that you try to memorise these people and their names as best as you can.</p><br><p><strong>You will then be tested on your memory of these names and portraits.</strong></p><br><p>The experiment will start after you have completed this memory test.</p><br><p>Ready?</p>",0,html-button-response,2,95695,0.0-2.0,40730,List2B,white,woman,,,,,,,,
108404,"<img src='img/portrait_matrix_list2.JPG' style='width:900px;height:500px;''></img><p>If you have memorised all the portraits and names and are ready to start, press Continue.</p><p><strong>Please note: Your memory of these faces will be tested 4 times during this experiment.</strong></p>",0,html-button-response,3,205103,0.0-3.0-0.0,40730,List2B,white,woman,,,,,,,,
5582,"<img src=""portrait/BM1.jpg""style=""width:400px;height:400px;""></img>",4,html-button-response,4,211695,0.0-3.0-1.0,40730,List2B,white,woman,,TRUE,4,,,,,
null,CORRECT,,html-keyboard-response,5,213207,0.0-3.0-2.0-0.0,40730,List2B,white,woman,,,,null,,,,
5070,"<img src=""portrait/WM2.jpg""style=""width:400px;height:400px;""></img>",7,html-button-response,6,218280,0.0-3.0-4.0,40730,List2B,white,woman,,TRUE,7,,,,,
null,CORRECT,,html-keyboard-response,7,219785,0.0-3.0-5.0-0.0,40730,List2B,white,woman,,,,null,,,,
8909,"<img src=""portrait/BW2.jpg""style=""width:400px;height:400px;""></img>",2,html-button-response,8,228703,0.0-3.0-7.0,40730,List2B,white,woman,,TRUE,2,,,,,
null,CORRECT,,html-keyboard-response,9,230220,0.0-3.0-8.0-0.0,40730,List2B,white,woman,,,,null,,,,
4167,"<img src=""portrait/WW2.jpg""style=""width:400px;height:400px;""></img>",3,html-button-response,10,234399,0.0-3.0-10.0,40730,List2B,white,woman,,TRUE,3,,,,,
null,CORRECT,,html-keyboard-response,11,235901,0.0-3.0-11.0-0.0,40730,List2B,white,woman,,,,null,,,,
10225,"<img src=""portrait/BW1.jpg""style=""width:400px;height:400px;""></img>",0,html-button-response,12,246128,0.0-3.0-13.0,40730,List2B,white,woman,,TRUE,0,,,,,
null,CORRECT,,html-keyboard-response,13,247631,0.0-3.0-14.0-0.0,40730,List2B,white,woman,,,,null,,,,
4216,"<img src=""portrait/WM1.jpg""style=""width:400px;height:400px;""></img>",6,html-button-response,14,251849,0.0-3.0-16.0,40730,List2B,white,woman,,TRUE,6,,,,,
null,CORRECT,,html-keyboard-response,15,253363,0.0-3.0-17.0-0.0,40730,List2B,white,woman,,,,null,,,,
4300,"<img src=""portrait/BM2.jpg""style=""width:400px;height:400px;""></img>",5,html-button-response,16,257672,0.0-3.0-19.0,40730,List2B,white,woman,,TRUE,5,,,,,
null,CORRECT,,html-keyboard-response,17,259175,0.0-3.0-20.0-0.0,40730,List2B,white,woman,,,,null,,,,
3397,"<img src=""portrait/WW1.jpg""style=""width:400px;height:400px;""></img>",1,html-button-response,18,262584,0.0-3.0-22.0,40730,List2B,white,woman,,TRUE,1,,,,,
null,CORRECT,,html-keyboard-response,19,264086,0.0-3.0-23.0-0.0,40730,List2B,white,woman,,,,null,,,,
5464,<p>You got 8 out of 8 right first time. Press Continue.</p>,0,html-button-response,20,269552,0.0-3.0-25.0,40730,List2B,white,woman,,,,,,,,
52065,"<p>In this experiment, you will view photographs of the people from the memory game interacting.</p><p>By using the <strong>exact</strong> phrase given <i>after</i> the photograph appears and recalling the correct names of the people in the photographs, form a sentence describing the interaction. You do not need to capitalise names.</p><p>Type your answer in the space provided. Please complete every sentence before moving onto the next trial.</p><p>You will only have a few seconds to memorise each given photograph and phrase before you can respond, so try your best to focus.</p><p>An example is given below. Press 'Continue' when you are ready.</p><img src='img/speaking_example_v2.jpg' style='width:800px;height:460px;''></img>",0,html-button-response,21,322647,0.0-4.0,40730,List2B,white,woman,,,,,,,,
2894,"<p>Before the experiment starts, you will watch two example trials. Press 'Continue'.</p>",0,html-button-response,22,326543,0.0-5.0,40730,List2B,white,woman,,,,,,,,
null,<img src='img/speaking_WW.gif'></img>,,html-keyboard-response,23,329559,0.0-6.0,40730,List2B,white,woman,,,,null,,,,
null,<p>is speaking to</p>,,html-keyboard-response,24,331560,0.0-7.0,40730,List2B,white,woman,,,,null,,,,
13622,<p><b>Answer:</b> jane is speaking to ruth</p>,0,html-button-response,25,345183,0.0-8.0,40730,List2B,white,woman,,,,,,,,
null,<img src='img/pointing_BM.gif'></img>,,html-keyboard-response,26,348186,0.0-9.0,40730,List2B,white,woman,,,,null,,,,
null,<p>are pointing at each other</p>,,html-keyboard-response,27,350201,0.0-10.0,40730,List2B,white,woman,,,,null,,,,
11836,<p><b>Answer:</b> fred and mike are pointing at each other</p>,0,html-button-response,28,362047,0.0-11.0,40730,List2B,white,woman,,,,,,,,
20821,"<p>Ready to start the experiment?</p><br><p><strong>Remember to describe the picture using a full sentence,</strong></p><p><strong>that combines the names of the people with the given phrase.</strong></p><p><strong>If you do not do this correctly you will not be paid.</strong></p><p><strong> You do not need to capitalise names or use punctuation.</strong></p><br><p>Press 'Continue' to begin.</p>",0,html-button-response,29,383870,0.0-12.0,40730,List2B,white,woman,,,,,,,,
null,"<div style=""font-size:60px;"">+</div>",,html-keyboard-response,30,385385,0.0-13.0-0.0,40730,List2B,white,woman,,,,null,,,,
null,"<img src=""stim_listB/talk2.gif""</stim_listB>",,html-keyboard-response,31,387387,0.0-13.0-1.0,40730,List2B,white,woman,,,,null,,,,
null,are talking to each other,,html-keyboard-response,32,389388,0.0-13.0-2.0,40730,List2B,white,woman,,,,null,,,,
21689,,,survey-text,33,411079,0.0-13.0-3.0,40730,List2B,white,woman,,,,,"{""Q0"":""jane is talking to ruth""}","<img src=""stim_listB/talk2.gif""</stim_listB>",are talking to each other,
null,"<div style=""font-size:60px;"">+</div>",,html-keyboard-response,34,411582,0.0-13.0-0.1,40730,List2B,white,woman,,,,null,,,,
null,"<img src=""stim_listB/touch3.gif""</stim_listB>",,html-keyboard-response,35,413586,0.0-13.0-1.1,40730,List2B,white,woman,,,,null,,,,
null,is touching,,html-keyboard-response,36,415587,0.0-13.0-2.1,40730,List2B,white,woman,,,,null,,,,
27128,,,survey-text,37,442727,0.0-13.0-3.1,40730,List2B,white,woman,,,,,"{""Q0"":""kate is touching mike""}","<img src=""stim_listB/touch3.gif""</stim_listB>",is touching,
null,"<div style=""font-size:60px;"">+</div>",,html-keyboard-response,38,443229,0.0-13.0-0.2,40730,List2B,white,woman,,,,null,,,,
null,"<img src=""stim_listB/fight4.gif""</stim_listB>",,html-keyboard-response,39,445230,0.0-13.0-1.2,40730,List2B,white,woman,,,,null,,,,
null,are fighting each other,,html-keyboard-response,40,447232,0.0-13.0-2.2,40730,List2B,white,woman,,,,null,,,,
24173,,,survey-text,41,471407,0.0-13.0-3.2,40730,List2B,white,woman,,,,,"{""Q0"":""beth is fighting fred""}","<img src=""stim_listB/fight4.gif""</stim_listB>",are fighting each other,
null,"<div style=""font-size:60px;"">+</div>",,html-keyboard-response,42,471909,0.0-13.0-0.3,40730,List2B,white,woman,,,,null,,,,
null,"<img src=""stim_listB/fight5.gif""</stim_listB>",,html-keyboard-response,43,473913,0.0-13.0-1.3,40730,List2B,white,woman,,,,null,,,,
null,is fighting,,html-keyboard-response,44,475913,0.0-13.0-2.3,40730,List2B,white,woman,,,,null,,,,
14764,,,survey-text,45,490679,0.0-13.0-3.3,40730,List2B,white,woman,,,,,"{""Q0"":""dave is fighting mike""}","<img src=""stim_listB/fight5.gif""</stim_listB>",is fighting,
null,"<div style=""font-size:60px;"">+</div>",,html-keyboard-response,46,491181,0.0-13.0-0.4,40730,List2B,white,woman,,,,null,,,,
null,"<img src=""stim_listB/hug4.gif""</stim_listB>",,html-keyboard-response,47,493183,0.0-13.0-1.4,40730,List2B,white,woman,,,,null,,,,
null,are hugging each other,,html-keyboard-response,48,495185,0.0-13.0-2.4,40730,List2B,white,woman,,,,null,,,,
19028,,,survey-text,49,514223,0.0-13.0-3.4,40730,List2B,white,woman,,,,,"{""Q0"":""kate is hugging mike""}","<img src=""stim_listB/hug4.gif""</stim_listB>",are hugging each other,
null,"<div style=""font-size:60px;"">+</div>",,html-keyboard-response,50,514728,0.0-13.0-0.5,40730,List2B,white,woman,,,,null,,,,
null,"<img src=""stim_listB/hug5.gif""</stim_listB>",,html-keyboard-response,51,516736,0.0-13.0-1.5,40730,List2B,white,woman,,,,null,,,,
null,is hugging,,html-keyboard-response,52,518744,0.0-13.0-2.5,40730,List2B,white,woman,,,,null,,,,
15087,,,survey-text,53,533847,0.0-13.0-3.5,40730,List2B,white,woman,,,,,"{""Q0"":""luke is hugging fred""}","<img src=""stim_listB/hug5.gif""</stim_listB>",is hugging,
null,"<div style=""font-size:60px;"">+</div>",,html-keyboard-response,54,534348,0.0-13.0-0.6,40730,List2B,white,woman,,,,null,,,,
null,"<img src=""stim_listB/dance3.gif""</stim_listB>",,html-keyboard-response,55,536362,0.0-13.0-1.6,40730,List2B,white,woman,,,,null,,,,
null,is dancing with,,html-keyboard-response,56,538363,0.0-13.0-2.6,40730,List2B,white,woman,,,,null,,,,
16240,,,survey-text,57,554615,0.0-13.0-3.6,40730,List2B,white,woman,,,,,"{""Q0"":""fred is dancing with kate""}","<img src=""stim_listB/dance3.gif""</stim_listB>",is dancing with,
null,"<div style=""font-size:60px;"">+</div>",,html-keyboard-response,58,555117,0.0-13.0-0.7,40730,List2B,white,woman,,,,null,,,,
null,"<img src=""stim_listB/touch5.gif""</stim_listB>",,html-keyboard-response,59,557126,0.0-13.0-1.7,40730,List2B,white,woman,,,,null,,,,
null,is touching,,html-keyboard-response,60,559127,0.0-13.0-2.7,40730,List2B,white,woman,,,,null,,,,
10385,,,survey-text,61,569513,0.0-13.0-3.7,40730,List2B,white,woman,,,,,"{""Q0"":""dave is touching mike""}","<img src=""stim_listB/touch5.gif""</stim_listB>",is touching,
null,"<div style=""font-size:60px;"">+</div>",,html-keyboard-response,62,570021,0.0-13.0-0.8,40730,List2B,white,woman,,,,null,,,,
null,"<img src=""stim_listB/shout1.gif""</stim_listB>",,html-keyboard-response,63,572023,0.0-13.0-1.8,40730,List2B,white,woman,,,,null,,,,
null,is shouting at,,html-keyboard-response,64,574024,0.0-13.0-2.8,40730,List2B,white,woman,,,,null,,,,
12971,,,survey-text,65,587007,0.0-13.0-3.8,40730,List2B,white,woman,,,,,"{""Q0"":""luke is shouting at ruth""}","<img src=""stim_listB/shout1.gif""</stim_listB>",is shouting at,
null,"<div style=""font-size:60px;"">+</div>",,html-keyboard-response,66,587511,0.0-13.0-0.9,40730,List2B,white,woman,,,,null,,,,
null,"<img src=""stim_listB/kiss4.gif""</stim_listB>",,html-keyboard-response,67,589514,0.0-13.0-1.9,40730,List2B,white,woman,,,,null,,,,
null,are kissing each other,,html-keyboard-response,68,591515,0.0-13.0-2.9,40730,List2B,white,woman,,,,null,,,,
15283,,,survey-text,69,606807,0.0-13.0-3.9,40730,List2B,white,woman,,,,,"{""Q0"":""kate is kissing mike""}","<img src=""stim_listB/kiss4.gif""</stim_listB>",are kissing each other,
null,"<div style=""font-size:60px;"">+</div>",,html-keyboard-response,70,607308,0.0-13.0-0.10,40730,List2B,white,woman,,,,null,,,,
null,"<img src=""stim_listB/kiss5.gif""</stim_listB>",,html-keyboard-response,71,609310,0.0-13.0-1.10,40730,List2B,white,woman,,,,null,,,,
null,is kissing,,html-keyboard-response,72,611311,0.0-13.0-2.10,40730,List2B,white,woman,,,,null,,,,
10010,,,survey-text,73,621327,0.0-13.0-3.10,40730,List2B,white,woman,,,,,"{""Q0"":""luke is kissing fred""}","<img src=""stim_listB/kiss5.gif""</stim_listB>",is kissing,
null,"<div style=""font-size:60px;"">+</div>",,html-keyboard-response,74,621829,0.0-13.0-0.11,40730,List2B,white,woman,,,,null,,,,
null,"<img src=""stim_listB/argue7.gif""</stim_listB>",,html-keyboard-response,75,623831,0.0-13.0-1.11,40730,List2B,white,woman,,,,null,,,,
null,is arguing with,,html-keyboard-response,76,625832,0.0-13.0-2.11,40730,List2B,white,woman,,,,null,,,,
21349,,,survey-text,77,647183,0.0-13.0-3.11,40730,List2B,white,woman,,,,,"{""Q0"":""jane is arguing with beth""}","<img src=""stim_listB/argue7.gif""</stim_listB>",is arguing with,
null,"<div style=""font-size:60px;"">+</div>",,html-keyboard-response,78,647685,0.0-13.0-0.12,40730,List2B,white,woman,,,,null,,,,
null,"<img src=""stim_listB/touch7.gif""</stim_listB>",,html-keyboard-response,79,649687,0.0-13.0-1.12,40730,List2B,white,woman,,,,null,,,,
null,is touching,,html-keyboard-response,80,651688,0.0-13.0-2.12,40730,List2B,white,woman,,,,null,,,,
13699,,,survey-text,81,665388,0.0-13.0-3.12,40730,List2B,white,woman,,,,,"{""Q0"":""jane is touching kate""}","<img src=""stim_listB/touch7.gif""</stim_listB>",is touching,
null,"<div style=""font-size:60px;"">+</div>",,html-keyboard-response,82,665909,0.0-13.0-0.13,40730,List2B,white,woman,,,,null,,,,
null,"<img src=""stim_listB/dance4.gif""</stim_listB>",,html-keyboard-response,83,667911,0.0-13.0-1.13,40730,List2B,white,woman,,,,null,,,,
null,are dancing with each other,,html-keyboard-response,84,669920,0.0-13.0-2.13,40730,List2B,white,woman,,,,null,,,,
13662,,,survey-text,85,683583,0.0-13.0-3.13,40730,List2B,white,woman,,,,,"{""Q0"":""mike is dancing with beth""}","<img src=""stim_listB/dance4.gif""</stim_listB>",are dancing with each other,
null,"<div style=""font-size:60px;"">+</div>",,html-keyboard-response,86,684084,0.0-13.0-0.14,40730,List2B,white,woman,,,,null,,,,
null,"<img src=""stim_listB/talk3.gif""</stim_listB>",,html-keyboard-response,87,686095,0.0-13.0-1.14,40730,List2B,white,woman,,,,null,,,,
null,is talking to,,html-keyboard-response,88,688095,0.0-13.0-2.14,40730,List2B,white,woman,,,,null,,,,
13524,,,survey-text,89,701620,0.0-13.0-3.14,40730,List2B,white,woman,,,,,"{""Q0"":""fred is talking to kate""}","<img src=""stim_listB/talk3.gif""</stim_listB>",is talking to,
null,"<div style=""font-size:60px;"">+</div>",,html-keyboard-response,90,702132,0.0-13.0-0.15,40730,List2B,white,woman,,,,null,,,,
null,"<img src=""stim_listB/fight2.gif""</stim_listB>",,html-keyboard-response,91,704142,0.0-13.0-1.15,40730,List2B,white,woman,,,,null,,,,
null,are fighting each other,,html-keyboard-response,92,706142,0.0-13.0-2.15,40730,List2B,white,woman,,,,null,,,,
17047,,,survey-text,93,723191,0.0-13.0-3.15,40730,List2B,white,woman,,,,,"{""Q0"":""luke is fighting ruth""}","<img src=""stim_listB/fight2.gif""</stim_listB>",are fighting each other,
null,"<div style=""font-size:60px;"">+</div>",,html-keyboard-response,94,723693,0.0-13.0-0.16,40730,List2B,white,woman,,,,null,,,,
null,"<img src=""stim_listB/hug1.gif""</stim_listB>",,html-keyboard-response,95,725697,0.0-13.0-1.16,40730,List2B,white,woman,,,,null,,,,
null,is hugging,,html-keyboard-response,96,727697,0.0-13.0-2.16,40730,List2B,white,woman,,,,null,,,,
13652,,,survey-text,97,741350,0.0-13.0-3.16,40730,List2B,white,woman,,,,,"{""Q0"":""luke is hugging ruth""}","<img src=""stim_listB/hug1.gif""</stim_listB>",is hugging,
null,"<div style=""font-size:60px;"">+</div>",,html-keyboard-response,98,741852,0.0-13.0-0.17,40730,List2B,white,woman,,,,null,,,,
null,"<img src=""stim_listB/touch2.gif""</stim_listB>",,html-keyboard-response,99,743854,0.0-13.0-1.17,40730,List2B,white,woman,,,,null,,,,
null,are touching each other,,html-keyboard-response,100,745855,0.0-13.0-2.17,40730,List2B,white,woman,,,,null,,,,
12710,,,survey-text,101,758566,0.0-13.0-3.17,40730,List2B,white,woman,,,,,"{""Q0"":""lue is touching ruth""}","<img src=""stim_listB/touch2.gif""</stim_listB>",are touching each other,
null,"<div style=""font-size:60px;"">+</div>",,html-keyboard-response,102,759068,0.0-13.0-0.18,40730,List2B,white,woman,,,,null,,,,
null,"<img src=""stim_listB/argue1.gif""</stim_listB>",,html-keyboard-response,103,761079,0.0-13.0-1.18,40730,List2B,white,woman,,,,null,,,,
null,is arguing with,,html-keyboard-response,104,763079,0.0-13.0-2.18,40730,List2B,white,woman,,,,null,,,,
12142,,,survey-text,105,775222,0.0-13.0-3.18,40730,List2B,white,woman,,,,,"{""Q0"":""ruth is arguing with dave""}","<img src=""stim_listB/argue1.gif""</stim_listB>",is arguing with,
null,"<div style=""font-size:60px;"">+</div>",,html-keyboard-response,106,775724,0.0-13.0-0.19,40730,List2B,white,woman,,,,null,,,,
null,"<img src=""stim_listB/shout5.gif""</stim_listB>",,html-keyboard-response,107,777735,0.0-13.0-1.19,40730,List2B,white,woman,,,,null,,,,
null,is shouting at,,html-keyboard-response,108,779736,0.0-13.0-2.19,40730,List2B,white,woman,,,,null,,,,
10509,,,survey-text,109,790246,0.0-13.0-3.19,40730,List2B,white,woman,,,,,"{""Q0"":""luke is shouting at fred""}","<img src=""stim_listB/shout5.gif""</stim_listB>",is shouting at,
43614,"<img src='img/portrait_matrix_list2.JPG' style='width:900px;height:500px;''></img><p>If you have memorised all the portraits and names and are ready to start, press Continue.</p><p><strong>Please note: Your memory of these faces will be tested 4 times during this experiment.</strong></p>",0,html-button-response,110,833871,0.0-14.0-0.0,40730,List2B,white,woman,,,,,,,,
2873,"<img src=""portrait/BM2.jpg""style=""width:400px;height:400px;""></img>",5,html-button-response,111,837759,0.0-14.0-1.0,40730,List2B,white,woman,,TRUE,5,,,,,
null,CORRECT,,html-keyboard-response,112,839262,0.0-14.0-2.0-0.0,40730,List2B,white,woman,,,,null,,,,
2061,"<img src=""portrait/WM1.jpg""style=""width:400px;height:400px;""></img>",6,html-button-response,113,841335,0.0-14.0-4.0,40730,List2B,white,woman,,TRUE,6,,,,,
null,CORRECT,,html-keyboard-response,114,842847,0.0-14.0-5.0-0.0,40730,List2B,white,woman,,,,null,,,,
2449,"<img src=""portrait/BW1.jpg""style=""width:400px;height:400px;""></img>",0,html-button-response,115,845303,0.0-14.0-7.0,40730,List2B,white,woman,,TRUE,0,,,,,
null,CORRECT,,html-keyboard-response,116,846821,0.0-14.0-8.0-0.0,40730,List2B,white,woman,,,,null,,,,
2867,"<img src=""portrait/WM2.jpg""style=""width:400px;height:400px;""></img>",7,html-button-response,117,849704,0.0-14.0-10.0,40730,List2B,white,woman,,TRUE,7,,,,,
null,CORRECT,,html-keyboard-response,118,851207,0.0-14.0-11.0-0.0,40730,List2B,white,woman,,,,null,,,,
3022,"<img src=""portrait/BW2.jpg""style=""width:400px;height:400px;""></img>",2,html-button-response,119,854239,0.0-14.0-13.0,40730,List2B,white,woman,,TRUE,2,,,,,
null,CORRECT,,html-keyboard-response,120,855741,0.0-14.0-14.0-0.0,40730,List2B,white,woman,,,,null,,,,
3695,"<img src=""portrait/WW1.jpg""style=""width:400px;height:400px;""></img>",1,html-button-response,121,859438,0.0-14.0-16.0,40730,List2B,white,woman,,TRUE,1,,,,,
null,CORRECT,,html-keyboard-response,122,860947,0.0-14.0-17.0-0.0,40730,List2B,white,woman,,,,null,,,,
1266,"<img src=""portrait/WW2.jpg""style=""width:400px;height:400px;""></img>",3,html-button-response,123,862215,0.0-14.0-19.0,40730,List2B,white,woman,,TRUE,3,,,,,
null,CORRECT,,html-keyboard-response,124,863717,0.0-14.0-20.0-0.0,40730,List2B,white,woman,,,,null,,,,
1983,"<img src=""portrait/BM1.jpg""style=""width:400px;height:400px;""></img>",4,html-button-response,125,865711,0.0-14.0-22.0,40730,List2B,white,woman,,TRUE,4,,,,,
null,CORRECT,,html-keyboard-response,126,867220,0.0-14.0-23.0-0.0,40730,List2B,white,woman,,,,null,,,,
4081,<p>You got 8 out of 8 right first time. Press Continue.</p>,0,html-button-response,127,871302,0.0-14.0-25.0,40730,List2B,white,woman,,,,,,,,
null,"<div style=""font-size:60px;"">+</div>",,html-keyboard-response,128,872818,0.0-15.0-0.0,40730,List2B,white,woman,,,,null,,,,
null,"<img src=""stim_listB/kiss8.gif""</stim_listB>",,html-keyboard-response,129,874820,0.0-15.0-1.0,40730,List2B,white,woman,,,,null,,,,
null,are kissing each other,,html-keyboard-response,130,876822,0.0-15.0-2.0,40730,List2B,white,woman,,,,null,,,,
10344,,,survey-text,131,887167,0.0-15.0-3.0,40730,List2B,white,woman,,,,,"{""Q0"":""jane is kisssing kate""}","<img src=""stim_listB/kiss8.gif""</stim_listB>",are kissing each other,
null,"<div style=""font-size:60px;"">+</div>",,html-keyboard-response,132,887669,0.0-15.0-0.1,40730,List2B,white,woman,,,,null,,,,
null,"<img src=""stim_listB/dance1.gif""</stim_listB>",,html-keyboard-response,133,889677,0.0-15.0-1.1,40730,List2B,white,woman,,,,null,,,,
null,is dancing with,,html-keyboard-response,134,891677,0.0-15.0-2.1,40730,List2B,white,woman,,,,null,,,,
17886,,,survey-text,135,909567,0.0-15.0-3.1,40730,List2B,white,woman,,,,,"{""Q0"":""jane is dancing with luke""}","<img src=""stim_listB/dance1.gif""</stim_listB>",is dancing with,
null,"<div style=""font-size:60px;"">+</div>",,html-keyboard-response,136,910068,0.0-15.0-0.2,40730,List2B,white,woman,,,,null,,,,
null,"<img src=""stim_listB/marry1.gif""</stim_listB>",,html-keyboard-response,137,912070,0.0-15.0-1.2,40730,List2B,white,woman,,,,null,,,,
null,is marrying,,html-keyboard-response,138,914079,0.0-15.0-2.2,40730,List2B,white,woman,,,,null,,,,
8866,,,survey-text,139,922951,0.0-15.0-3.2,40730,List2B,white,woman,,,,,"{""Q0"":""ruth is marrying dave""}","<img src=""stim_listB/marry1.gif""</stim_listB>",is marrying,
null,"<div style=""font-size:60px;"">+</div>",,html-keyboard-response,140,923452,0.0-15.0-0.3,40730,List2B,white,woman,,,,null,,,,
null,"<img src=""stim_listB/kiss2.gif""</stim_listB>",,html-keyboard-response,141,925454,0.0-15.0-1.3,40730,List2B,white,woman,,,,null,,,,
null,are kissing each other,,html-keyboard-response,142,927454,0.0-15.0-2.3,40730,List2B,white,woman,,,,null,,,,
11499,,,survey-text,143,938967,0.0-15.0-3.3,40730,List2B,white,woman,,,,,"{""Q0"":""dave and jane are kissing each other""}","<img src=""stim_listB/kiss2.gif""</stim_listB>",are kissing each other,
null,"<div style=""font-size:60px;"">+</div>",,html-keyboard-response,144,939469,0.0-15.0-0.4,40730,List2B,white,woman,,,,null,,,,
null,"<img src=""stim_listB/argue5.gif""</stim_listB>",,html-keyboard-response,145,941483,0.0-15.0-1.4,40730,List2B,white,woman,,,,null,,,,
null,is arguing with,,html-keyboard-response,146,943483,0.0-15.0-2.4,40730,List2B,white,woman,,,,null,,,,
12379,,,survey-text,147,955863,0.0-15.0-3.4,40730,List2B,white,woman,,,,,"{""Q0"":""fred is arguing with dave""}","<img src=""stim_listB/argue5.gif""</stim_listB>",is arguing with,
null,"<div style=""font-size:60px;"">+</div>",,html-keyboard-response,148,956376,0.0-15.0-0.5,40730,List2B,white,woman,,,,null,,,,
null,"<img src=""stim_listB/argue3.gif""</stim_listB>",,html-keyboard-response,149,958378,0.0-15.0-1.5,40730,List2B,white,woman,,,,null,,,,
null,is arguing with,,html-keyboard-response,150,960379,0.0-15.0-2.5,40730,List2B,white,woman,,,,null,,,,
11433,,,survey-text,151,971814,0.0-15.0-3.5,40730,List2B,white,woman,,,,,"{""Q0"":""mike is arguing with beth""}","<img src=""stim_listB/argue3.gif""</stim_listB>",is arguing with,
null,"<div style=""font-size:60px;"">+</div>",,html-keyboard-response,152,972316,0.0-15.0-0.6,40730,List2B,white,woman,,,,null,,,,
null,"<img src=""stim_listB/talk8.gif""</stim_listB>",,html-keyboard-response,153,974318,0.0-15.0-1.6,40730,List2B,white,woman,,,,null,,,,
null,are talking to each other,,html-keyboard-response,154,976319,0.0-15.0-2.6,40730,List2B,white,woman,,,,null,,,,
9752,,,survey-text,155,986087,0.0-15.0-3.6,40730,List2B,white,woman,,,,,"{""Q0"":""jane is talking to beth""}","<img src=""stim_listB/talk8.gif""</stim_listB>",are talking to each other,
null,"<div style=""font-size:60px;"">+</div>",,html-keyboard-response,156,986595,0.0-15.0-0.7,40730,List2B,white,woman,,,,null,,,,
null,"<img src=""stim_listB/talk4.gif""</stim_listB>",,html-keyboard-response,157,988597,0.0-15.0-1.7,40730,List2B,white,woman,,,,null,,,,
null,are talking to each other,,html-keyboard-response,158,990598,0.0-15.0-2.7,40730,List2B,white,woman,,,,null,,,,
10450,,,survey-text,159,1001048,0.0-15.0-3.7,40730,List2B,white,woman,,,,,"{""Q0"":""mike is talking to beth""}","<img src=""stim_listB/talk4.gif""</stim_listB>",are talking to each other,
null,"<div style=""font-size:60px;"">+</div>",,html-keyboard-response,160,1001567,0.0-15.0-0.8,40730,List2B,white,woman,,,,null,,,,
null,"<img src=""stim_listB/meet5.gif""</stim_listB>",,html-keyboard-response,161,1003569,0.0-15.0-1.8,40730,List2B,white,woman,,,,null,,,,
null,is meeting,,html-keyboard-response,162,1005570,0.0-15.0-2.8,40730,List2B,white,woman,,,,null,,,,
8066,,,survey-text,163,1013637,0.0-15.0-3.8,40730,List2B,white,woman,,,,,"{""Q0"":""mike is meeting dave""}","<img src=""stim_listB/meet5.gif""</stim_listB>",is meeting,
null,"<div style=""font-size:60px;"">+</div>",,html-keyboard-response,164,1014149,0.0-15.0-0.9,40730,List2B,white,woman,,,,null,,,,
null,"<img src=""stim_listB/meet6.gif""</stim_listB>",,html-keyboard-response,165,1016158,0.0-15.0-1.9,40730,List2B,white,woman,,,,null,,,,
null,are meeting each other,,html-keyboard-response,166,1018158,0.0-15.0-2.9,40730,List2B,white,woman,,,,null,,,,
12375,,,survey-text,167,1030535,0.0-15.0-3.9,40730,List2B,white,woman,,,,,"{""Q0"":""luke and fred are meeting each other""}","<img src=""stim_listB/meet6.gif""</stim_listB>",are meeting each other,
null,"<div style=""font-size:60px;"">+</div>",,html-keyboard-response,168,1031036,0.0-15.0-0.10,40730,List2B,white,woman,,,,null,,,,
null,"<img src=""stim_listB/argue8.gif""</stim_listB>",,html-keyboard-response,169,1033038,0.0-15.0-1.10,40730,List2B,white,woman,,,,null,,,,
null,are arguing with each other,,html-keyboard-response,170,1035039,0.0-15.0-2.10,40730,List2B,white,woman,,,,null,,,,
18382,,,survey-text,171,1053423,0.0-15.0-3.10,40730,List2B,white,woman,,,,,"{""Q0"":""ruth and kate are meeting each other""}","<img src=""stim_listB/argue8.gif""</stim_listB>",are arguing with each other,
null,"<div style=""font-size:60px;"">+</div>",,html-keyboard-response,172,1053931,0.0-15.0-0.11,40730,List2B,white,woman,,,,null,,,,
null,"<img src=""stim_listB/shout6.gif""</stim_listB>",,html-keyboard-response,173,1055933,0.0-15.0-1.11,40730,List2B,white,woman,,,,null,,,,
null,are shouting at each other,,html-keyboard-response,174,1057933,0.0-15.0-2.11,40730,List2B,white,woman,,,,null,,,,
17368,,,survey-text,175,1075302,0.0-15.0-3.11,40730,List2B,white,woman,,,,,"{""Q0"":""dave and mike are shouting at each other""}","<img src=""stim_listB/shout6.gif""</stim_listB>",are shouting at each other,
null,"<div style=""font-size:60px;"">+</div>",,html-keyboard-response,176,1075804,0.0-15.0-0.12,40730,List2B,white,woman,,,,null,,,,
null,"<img src=""stim_listB/fight7.gif""</stim_listB>",,html-keyboard-response,177,1077809,0.0-15.0-1.12,40730,List2B,white,woman,,,,null,,,,
null,is fighting,,html-keyboard-response,178,1079809,0.0-15.0-2.12,40730,List2B,white,woman,,,,null,,,,
24372,,,survey-text,179,1104183,0.0-15.0-3.12,40730,List2B,white,woman,,,,,"{""Q0"":""kate is fighting with jane""}","<img src=""stim_listB/fight7.gif""</stim_listB>",is fighting,
null,"<div style=""font-size:60px;"">+</div>",,html-keyboard-response,180,1104684,0.0-15.0-0.13,40730,List2B,white,woman,,,,null,,,,
null,"<img src=""stim_listB/marry2.gif""</stim_listB>",,html-keyboard-response,181,1106697,0.0-15.0-1.13,40730,List2B,white,woman,,,,null,,,,
null,are marrying each other,,html-keyboard-response,182,1108697,0.0-15.0-2.13,40730,List2B,white,woman,,,,null,,,,
12337,,,survey-text,183,1121039,0.0-15.0-3.13,40730,List2B,white,woman,,,,,"{""Q0"":""luke and jane are marrying each other""}","<img src=""stim_listB/marry2.gif""</stim_listB>",are marrying each other,
null,"<div style=""font-size:60px;"">+</div>",,html-keyboard-response,184,1121552,0.0-15.0-0.14,40730,List2B,white,woman,,,,null,,,,
null,"<img src=""stim_listB/fight3.gif""</stim_listB>",,html-keyboard-response,185,1123554,0.0-15.0-1.14,40730,List2B,white,woman,,,,null,,,,
null,is fighting,,html-keyboard-response,186,1125564,0.0-15.0-2.14,40730,List2B,white,woman,,,,null,,,,
9947,,,survey-text,187,1135512,0.0-15.0-3.14,40730,List2B,white,woman,,,,,"{""Q0"":""kate is fighting mike""}","<img src=""stim_listB/fight3.gif""</stim_listB>",is fighting,
null,"<div style=""font-size:60px;"">+</div>",,html-keyboard-response,188,1136014,0.0-15.0-0.15,40730,List2B,white,woman,,,,null,,,,
null,"<img src=""stim_listB/touch8.gif""</stim_listB>",,html-keyboard-response,189,1138016,0.0-15.0-1.15,40730,List2B,white,woman,,,,null,,,,
null,are touching each other,,html-keyboard-response,190,1140017,0.0-15.0-2.15,40730,List2B,white,woman,,,,null,,,,
12621,,,survey-text,191,1152638,0.0-15.0-3.15,40730,List2B,white,woman,,,,,"{""Q0"":""ruth and beth are touching each other""}","<img src=""stim_listB/touch8.gif""</stim_listB>",are touching each other,
null,"<div style=""font-size:60px;"">+</div>",,html-keyboard-response,192,1153140,0.0-15.0-0.16,40730,List2B,white,woman,,,,null,,,,
null,"<img src=""stim_listB/marry5.gif""</stim_listB>",,html-keyboard-response,193,1155142,0.0-15.0-1.16,40730,List2B,white,woman,,,,null,,,,
null,is marrying,,html-keyboard-response,194,1157143,0.0-15.0-2.16,40730,List2B,white,woman,,,,null,,,,
9755,,,survey-text,195,1166911,0.0-15.0-3.16,40730,List2B,white,woman,,,,,"{""Q0"":""fred is marrying dave""}","<img src=""stim_listB/marry5.gif""</stim_listB>",is marrying,
null,"<div style=""font-size:60px;"">+</div>",,html-keyboard-response,196,1167413,0.0-15.0-0.17,40730,List2B,white,woman,,,,null,,,,
null,"<img src=""stim_listB/kiss6.gif""</stim_listB>",,html-keyboard-response,197,1169429,0.0-15.0-1.17,40730,List2B,white,woman,,,,null,,,,
null,are kissing each other,,html-keyboard-response,198,1171430,0.0-15.0-2.17,40730,List2B,white,woman,,,,null,,,,
14632,,,survey-text,199,1186062,0.0-15.0-3.17,40730,List2B,white,woman,,,,,"{""Q0"":""dave and mike are kissing each other""}","<img src=""stim_listB/kiss6.gif""</stim_listB>",are kissing each other,
null,"<div style=""font-size:60px;"">+</div>",,html-keyboard-response,200,1186564,0.0-15.0-0.18,40730,List2B,white,woman,,,,null,,,,
null,"<img src=""stim_listB/talk1.gif""</stim_listB>",,html-keyboard-response,201,1188566,0.0-15.0-1.18,40730,List2B,white,woman,,,,null,,,,
null,is talking to,,html-keyboard-response,202,1190570,0.0-15.0-2.18,40730,List2B,white,woman,,,,null,,,,
10909,,,survey-text,203,1201479,0.0-15.0-3.18,40730,List2B,white,woman,,,,,"{""Q0"":""jane is talking to luke""}","<img src=""stim_listB/talk1.gif""</stim_listB>",is talking to,
null,"<div style=""font-size:60px;"">+</div>",,html-keyboard-response,204,1202000,0.0-15.0-0.19,40730,List2B,white,woman,,,,null,,,,
null,"<img src=""stim_listB/argue2.gif""</stim_listB>",,html-keyboard-response,205,1204014,0.0-15.0-1.19,40730,List2B,white,woman,,,,null,,,,
null,are arguing with each other,,html-keyboard-response,206,1206016,0.0-15.0-2.19,40730,List2B,white,woman,,,,null,,,,
16299,,,survey-text,207,1222327,0.0-15.0-3.19,40730,List2B,white,woman,,,,,"{""Q0"":""luke and jane are arguing with each other""}","<img src=""stim_listB/argue2.gif""</stim_listB>",are arguing with each other,
11209,"<img src='img/portrait_matrix_list2.JPG' style='width:900px;height:500px;''></img><p>If you have memorised all the portraits and names and are ready to start, press Continue.</p><p><strong>Please note: Your memory of these faces will be tested 4 times during this experiment.</strong></p>",0,html-button-response,208,1233537,0.0-16.0-0.0,40730,List2B,white,woman,,,,,,,,
5675,"<img src=""portrait/BW2.jpg""style=""width:400px;height:400px;""></img>",2,html-button-response,209,1240223,0.0-16.0-1.0,40730,List2B,white,woman,,TRUE,2,,,,,
null,CORRECT,,html-keyboard-response,210,1241728,0.0-16.0-2.0-0.0,40730,List2B,white,woman,,,,null,,,,
1861,"<img src=""portrait/BW1.jpg""style=""width:400px;height:400px;""></img>",0,html-button-response,211,1243591,0.0-16.0-4.0,40730,List2B,white,woman,,TRUE,0,,,,,
null,CORRECT,,html-keyboard-response,212,1245095,0.0-16.0-5.0-0.0,40730,List2B,white,woman,,,,null,,,,
1764,"<img src=""portrait/BM2.jpg""style=""width:400px;height:400px;""></img>",5,html-button-response,213,1246871,0.0-16.0-7.0,40730,List2B,white,woman,,TRUE,5,,,,,
null,CORRECT,,html-keyboard-response,214,1248374,0.0-16.0-8.0-0.0,40730,List2B,white,woman,,,,null,,,,
1373,"<img src=""portrait/BM1.jpg""style=""width:400px;height:400px;""></img>",4,html-button-response,215,1249751,0.0-16.0-10.0,40730,List2B,white,woman,,TRUE,4,,,,,
null,CORRECT,,html-keyboard-response,216,1251260,0.0-16.0-11.0-0.0,40730,List2B,white,woman,,,,null,,,,
1705,"<img src=""portrait/WM1.jpg""style=""width:400px;height:400px;""></img>",6,html-button-response,217,1252966,0.0-16.0-13.0,40730,List2B,white,woman,,TRUE,6,,,,,
null,CORRECT,,html-keyboard-response,218,1254471,0.0-16.0-14.0-0.0,40730,List2B,white,woman,,,,null,,,,
1165,"<img src=""portrait/WM2.jpg""style=""width:400px;height:400px;""></img>",7,html-button-response,219,1255638,0.0-16.0-16.0,40730,List2B,white,woman,,TRUE,7,,,,,
null,CORRECT,,html-keyboard-response,220,1257143,0.0-16.0-17.0-0.0,40730,List2B,white,woman,,,,null,,,,
2726,"<img src=""portrait/WW1.jpg""style=""width:400px;height:400px;""></img>",1,html-button-response,221,1259870,0.0-16.0-19.0,40730,List2B,white,woman,,TRUE,1,,,,,
null,CORRECT,,html-keyboard-response,222,1261377,0.0-16.0-20.0-0.0,40730,List2B,white,woman,,,,null,,,,
1513,"<img src=""portrait/WW2.jpg""style=""width:400px;height:400px;""></img>",3,html-button-response,223,1262903,0.0-16.0-22.0,40730,List2B,white,woman,,TRUE,3,,,,,
null,CORRECT,,html-keyboard-response,224,1264406,0.0-16.0-23.0-0.0,40730,List2B,white,woman,,,,null,,,,
2822,<p>You got 8 out of 8 right first time. Press Continue.</p>,0,html-button-response,225,1267239,0.0-16.0-25.0,40730,List2B,white,woman,,,,,,,,
null,"<div style=""font-size:60px;"">+</div>",,html-keyboard-response,226,1268744,0.0-17.0-0.0,40730,List2B,white,woman,,,,null,,,,
null,"<img src=""stim_listB/shout4.gif""</stim_listB>",,html-keyboard-response,227,1270746,0.0-17.0-1.0,40730,List2B,white,woman,,,,null,,,,
null,are shouting at each other,,html-keyboard-response,228,1272762,0.0-17.0-2.0,40730,List2B,white,woman,,,,null,,,,
15548,,,survey-text,229,1288311,0.0-17.0-3.0,40730,List2B,white,woman,,,,,"{""Q0"":""mike and kate are shouting at each other""}","<img src=""stim_listB/shout4.gif""</stim_listB>",are shouting at each other,
null,"<div style=""font-size:60px;"">+</div>",,html-keyboard-response,230,1288813,0.0-17.0-0.1,40730,List2B,white,woman,,,,null,,,,
null,"<img src=""stim_listB/meet2.gif""</stim_listB>",,html-keyboard-response,231,1290826,0.0-17.0-1.1,40730,List2B,white,woman,,,,null,,,,
null,are meeting each other,,html-keyboard-response,232,1292831,0.0-17.0-2.1,40730,List2B,white,woman,,,,null,,,,
13636,,,survey-text,233,1306478,0.0-17.0-3.1,40730,List2B,white,woman,,,,,"{""Q0"":""luke and ruth are meeting each other""}","<img src=""stim_listB/meet2.gif""</stim_listB>",are meeting each other,
null,"<div style=""font-size:60px;"">+</div>",,html-keyboard-response,234,1306989,0.0-17.0-0.2,40730,List2B,white,woman,,,,null,,,,
null,"<img src=""stim_listB/argue6.gif""</stim_listB>",,html-keyboard-response,235,1308991,0.0-17.0-1.2,40730,List2B,white,woman,,,,null,,,,
null,are arguing with each other,,html-keyboard-response,236,1310994,0.0-17.0-2.2,40730,List2B,white,woman,,,,null,,,,
16092,,,survey-text,237,1327087,0.0-17.0-3.2,40730,List2B,white,woman,,,,,"{""Q0"":""luke and mike are arguing with each other""}","<img src=""stim_listB/argue6.gif""</stim_listB>",are arguing with each other,
null,"<div style=""font-size:60px;"">+</div>",,html-keyboard-response,238,1327588,0.0-17.0-0.3,40730,List2B,white,woman,,,,null,,,,
null,"<img src=""stim_listB/dance6.gif""</stim_listB>",,html-keyboard-response,239,1329592,0.0-17.0-1.3,40730,List2B,white,woman,,,,null,,,,
null,are dancing with each other,,html-keyboard-response,240,1331592,0.0-17.0-2.3,40730,List2B,white,woman,,,,null,,,,
13469,,,survey-text,241,1345062,0.0-17.0-3.3,40730,List2B,white,woman,,,,,"{""Q0"":""dave and fred are dancing with each other""}","<img src=""stim_listB/dance6.gif""</stim_listB>",are dancing with each other,
null,"<div style=""font-size:60px;"">+</div>",,html-keyboard-response,242,1345564,0.0-17.0-0.4,40730,List2B,white,woman,,,,null,,,,
null,"<img src=""stim_listB/touch4.gif""</stim_listB>",,html-keyboard-response,243,1347566,0.0-17.0-1.4,40730,List2B,white,woman,,,,null,,,,
null,are touching each other,,html-keyboard-response,244,1349567,0.0-17.0-2.4,40730,List2B,white,woman,,,,null,,,,
12368,,,survey-text,245,1361943,0.0-17.0-3.4,40730,List2B,white,woman,,,,,"{""Q0"":""fred and beth are touching each other""}","<img src=""stim_listB/touch4.gif""</stim_listB>",are touching each other,
null,"<div style=""font-size:60px;"">+</div>",,html-keyboard-response,246,1362444,0.0-17.0-0.5,40730,List2B,white,woman,,,,null,,,,
null,"<img src=""stim_listB/talk5.gif""</stim_listB>",,html-keyboard-response,247,1364446,0.0-17.0-1.5,40730,List2B,white,woman,,,,null,,,,
null,is talking to,,html-keyboard-response,248,1366447,0.0-17.0-2.5,40730,List2B,white,woman,,,,null,,,,
8495,,,survey-text,249,1374951,0.0-17.0-3.5,40730,List2B,white,woman,,,,,"{""Q0"":""mike is talking to luke""}","<img src=""stim_listB/talk5.gif""</stim_listB>",is talking to,
null,"<div style=""font-size:60px;"">+</div>",,html-keyboard-response,250,1375452,0.0-17.0-0.6,40730,List2B,white,woman,,,,null,,,,
null,"<img src=""stim_listB/hug6.gif""</stim_listB>",,html-keyboard-response,251,1377454,0.0-17.0-1.6,40730,List2B,white,woman,,,,null,,,,
null,are hugging each other,,html-keyboard-response,252,1379455,0.0-17.0-2.6,40730,List2B,white,woman,,,,null,,,,
12254,,,survey-text,253,1391711,0.0-17.0-3.6,40730,List2B,white,woman,,,,,"{""Q0"":""dave and mike are hugging each other""}","<img src=""stim_listB/hug6.gif""</stim_listB>",are hugging each other,
null,"<div style=""font-size:60px;"">+</div>",,html-keyboard-response,254,1392212,0.0-17.0-0.7,40730,List2B,white,woman,,,,null,,,,
null,"<img src=""stim_listB/meet3.gif""</stim_listB>",,html-keyboard-response,255,1394220,0.0-17.0-1.7,40730,List2B,white,woman,,,,null,,,,
null,is meeting,,html-keyboard-response,256,1396221,0.0-17.0-2.7,40730,List2B,white,woman,,,,null,,,,
10563,,,survey-text,257,1406784,0.0-17.0-3.7,40730,List2B,white,woman,,,,,"{""Q0"":""kate is meeting mike""}","<img src=""stim_listB/meet3.gif""</stim_listB>",is meeting,
null,"<div style=""font-size:60px;"">+</div>",,html-keyboard-response,258,1407292,0.0-17.0-0.8,40730,List2B,white,woman,,,,null,,,,
null,"<img src=""stim_listB/shout2.gif""</stim_listB>",,html-keyboard-response,259,1409294,0.0-17.0-1.8,40730,List2B,white,woman,,,,null,,,,
null,are shouting at each other,,html-keyboard-response,260,1411294,0.0-17.0-2.8,40730,List2B,white,woman,,,,null,,,,
14624,,,survey-text,261,1425918,0.0-17.0-3.8,40730,List2B,white,woman,,,,,"{""Q0"":""dave and jane are shouting at each other""}","<img src=""stim_listB/shout2.gif""</stim_listB>",are shouting at each other,
null,"<div style=""font-size:60px;"">+</div>",,html-keyboard-response,262,1426420,0.0-17.0-0.9,40730,List2B,white,woman,,,,null,,,,
null,"<img src=""stim_listB/argue4.gif""</stim_listB>",,html-keyboard-response,263,1428422,0.0-17.0-1.9,40730,List2B,white,woman,,,,null,,,,
null,are arguing with each other,,html-keyboard-response,264,1430423,0.0-17.0-2.9,40730,List2B,white,woman,,,,null,,,,
13759,,,survey-text,265,1444182,0.0-17.0-3.9,40730,List2B,white,woman,,,,,"{""Q0"":""fred and kate are arguing ""}","<img src=""stim_listB/argue4.gif""</stim_listB>",are arguing with each other,
null,"<div style=""font-size:60px;"">+</div>",,html-keyboard-response,266,1444684,0.0-17.0-0.10,40730,List2B,white,woman,,,,null,,,,
null,"<img src=""stim_listB/dance7.gif""</stim_listB>",,html-keyboard-response,267,1446688,0.0-17.0-1.10,40730,List2B,white,woman,,,,null,,,,
null,is dancing with,,html-keyboard-response,268,1448689,0.0-17.0-2.10,40730,List2B,white,woman,,,,null,,,,
8371,,,survey-text,269,1457063,0.0-17.0-3.10,40730,List2B,white,woman,,,,,"{""Q0"":""kate is dancing with ruth""}","<img src=""stim_listB/dance7.gif""</stim_listB>",is dancing with,
null,"<div style=""font-size:60px;"">+</div>",,html-keyboard-response,270,1457579,0.0-17.0-0.11,40730,List2B,white,woman,,,,null,,,,
null,"<img src=""stim_listB/meet4.gif""</stim_listB>",,html-keyboard-response,271,1459581,0.0-17.0-1.11,40730,List2B,white,woman,,,,null,,,,
null,are meeting each other,,html-keyboard-response,272,1461582,0.0-17.0-2.11,40730,List2B,white,woman,,,,null,,,,
10808,,,survey-text,273,1472391,0.0-17.0-3.11,40730,List2B,white,woman,,,,,"{""Q0"":""fred and beth are meeting each other""}","<img src=""stim_listB/meet4.gif""</stim_listB>",are meeting each other,
null,"<div style=""font-size:60px;"">+</div>",,html-keyboard-response,274,1472900,0.0-17.0-0.12,40730,List2B,white,woman,,,,null,,,,
null,"<img src=""stim_listB/talk6.gif""</stim_listB>",,html-keyboard-response,275,1474902,0.0-17.0-1.12,40730,List2B,white,woman,,,,null,,,,
null,are talking to each other,,html-keyboard-response,276,1476904,0.0-17.0-2.12,40730,List2B,white,woman,,,,null,,,,
14502,,,survey-text,277,1491406,0.0-17.0-3.12,40730,List2B,white,woman,,,,,"{""Q0"":""dave and fred are talking to each other""}","<img src=""stim_listB/talk6.gif""</stim_listB>",are talking to each other,
null,"<div style=""font-size:60px;"">+</div>",,html-keyboard-response,278,1491908,0.0-17.0-0.13,40730,List2B,white,woman,,,,null,,,,
null,"<img src=""stim_listB/hug7.gif""</stim_listB>",,html-keyboard-response,279,1493911,0.0-17.0-1.13,40730,List2B,white,woman,,,,null,,,,
null,is hugging,,html-keyboard-response,280,1495912,0.0-17.0-2.13,40730,List2B,white,woman,,,,null,,,,
11829,,,survey-text,281,1507743,0.0-17.0-3.13,40730,List2B,white,woman,,,,,"{""Q0"":""beth is hugging ruth""}","<img src=""stim_listB/hug7.gif""</stim_listB>",is hugging,
null,"<div style=""font-size:60px;"">+</div>",,html-keyboard-response,282,1508251,0.0-17.0-0.14,40730,List2B,white,woman,,,,null,,,,
null,"<img src=""stim_listB/dance2.gif""</stim_listB>",,html-keyboard-response,283,1510253,0.0-17.0-1.14,40730,List2B,white,woman,,,,null,,,,
null,are dancing with each other,,html-keyboard-response,284,1512254,0.0-17.0-2.14,40730,List2B,white,woman,,,,null,,,,
11929,,,survey-text,285,1524184,0.0-17.0-3.14,40730,List2B,white,woman,,,,,"{""Q0"":""dave and ruth are dancing with each other""}","<img src=""stim_listB/dance2.gif""</stim_listB>",are dancing with each other,
null,"<div style=""font-size:60px;"">+</div>",,html-keyboard-response,286,1524702,0.0-17.0-0.15,40730,List2B,white,woman,,,,null,,,,
null,"<img src=""stim_listB/marry3.gif""</stim_listB>",,html-keyboard-response,287,1526712,0.0-17.0-1.15,40730,List2B,white,woman,,,,null,,,,
null,is marrying,,html-keyboard-response,288,1528712,0.0-17.0-2.15,40730,List2B,white,woman,,,,null,,,,
7597,,,survey-text,289,1536310,0.0-17.0-3.15,40730,List2B,white,woman,,,,,"{""Q0"":""beth is marrying mike""}","<img src=""stim_listB/marry3.gif""</stim_listB>",is marrying,
null,"<div style=""font-size:60px;"">+</div>",,html-keyboard-response,290,1536812,0.0-17.0-0.16,40730,List2B,white,woman,,,,null,,,,
null,"<img src=""stim_listB/meet7.gif""</stim_listB>",,html-keyboard-response,291,1538820,0.0-17.0-1.16,40730,List2B,white,woman,,,,null,,,,
null,is meeting,,html-keyboard-response,292,1540820,0.0-17.0-2.16,40730,List2B,white,woman,,,,null,,,,
7016,,,survey-text,293,1547838,0.0-17.0-3.16,40730,List2B,white,woman,,,,,"{""Q0"":""kate is meeting jane""}","<img src=""stim_listB/meet7.gif""</stim_listB>",is meeting,
null,"<div style=""font-size:60px;"">+</div>",,html-keyboard-response,294,1548340,0.0-17.0-0.17,40730,List2B,white,woman,,,,null,,,,
null,"<img src=""stim_listB/talk7.gif""</stim_listB>",,html-keyboard-response,295,1550344,0.0-17.0-1.17,40730,List2B,white,woman,,,,null,,,,
null,is talking to,,html-keyboard-response,296,1552345,0.0-17.0-2.17,40730,List2B,white,woman,,,,null,,,,
20661,,,survey-text,297,1573008,0.0-17.0-3.17,40730,List2B,white,woman,,,,,"{""Q0"":""ruth is talking to kate""}","<img src=""stim_listB/talk7.gif""</stim_listB>",is talking to,
null,"<div style=""font-size:60px;"">+</div>",,html-keyboard-response,298,1573510,0.0-17.0-0.18,40730,List2B,white,woman,,,,null,,,,
null,"<img src=""stim_listB/shout3.gif""</stim_listB>",,html-keyboard-response,299,1575512,0.0-17.0-1.18,40730,List2B,white,woman,,,,null,,,,
null,is shouting at,,html-keyboard-response,300,1577513,0.0-17.0-2.18,40730,List2B,white,woman,,,,null,,,,
11455,,,survey-text,301,1588983,0.0-17.0-3.18,40730,List2B,white,woman,,,,,"{""Q0"":""fred is shouting at beth""}","<img src=""stim_listB/shout3.gif""</stim_listB>",is shouting at,
null,"<div style=""font-size:60px;"">+</div>",,html-keyboard-response,302,1589489,0.0-17.0-0.19,40730,List2B,white,woman,,,,null,,,,
null,"<img src=""stim_listB/kiss3.gif""</stim_listB>",,html-keyboard-response,303,1591491,0.0-17.0-1.19,40730,List2B,white,woman,,,,null,,,,
null,is kissing,,html-keyboard-response,304,1593492,0.0-17.0-2.19,40730,List2B,white,woman,,,,null,,,,
9722,,,survey-text,305,1603215,0.0-17.0-3.19,40730,List2B,white,woman,,,,,"{""Q0"":""fred is kissing beth""}","<img src=""stim_listB/kiss3.gif""</stim_listB>",is kissing,
8891,"<img src='img/portrait_matrix_list2.JPG' style='width:900px;height:500px;''></img><p>If you have memorised all the portraits and names and are ready to start, press Continue.</p><p><strong>Please note: Your memory of these faces will be tested 4 times during this experiment.</strong></p>",0,html-button-response,306,1612112,0.0-18.0-0.0,40730,List2B,white,woman,,,,,,,,
2000,"<img src=""portrait/WW2.jpg""style=""width:400px;height:400px;""></img>",3,html-button-response,307,1615128,0.0-18.0-1.0,40730,List2B,white,woman,,TRUE,3,,,,,
null,CORRECT,,html-keyboard-response,308,1616653,0.0-18.0-2.0-0.0,40730,List2B,white,woman,,,,null,,,,
2182,"<img src=""portrait/BW2.jpg""style=""width:400px;height:400px;""></img>",2,html-button-response,309,1618848,0.0-18.0-4.0,40730,List2B,white,woman,,TRUE,2,,,,,
null,CORRECT,,html-keyboard-response,310,1620351,0.0-18.0-5.0-0.0,40730,List2B,white,woman,,,,null,,,,
1522,"<img src=""portrait/BM1.jpg""style=""width:400px;height:400px;""></img>",4,html-button-response,311,1621880,0.0-18.0-7.0,40730,List2B,white,woman,,TRUE,4,,,,,
null,CORRECT,,html-keyboard-response,312,1623392,0.0-18.0-8.0-0.0,40730,List2B,white,woman,,,,null,,,,
1656,"<img src=""portrait/WM1.jpg""style=""width:400px;height:400px;""></img>",6,html-button-response,313,1625056,0.0-18.0-10.0,40730,List2B,white,woman,,TRUE,6,,,,,
null,CORRECT,,html-keyboard-response,314,1626564,0.0-18.0-11.0-0.0,40730,List2B,white,woman,,,,null,,,,
1370,"<img src=""portrait/WM2.jpg""style=""width:400px;height:400px;""></img>",7,html-button-response,315,1627936,0.0-18.0-13.0,40730,List2B,white,woman,,TRUE,7,,,,,
null,CORRECT,,html-keyboard-response,316,1629441,0.0-18.0-14.0-0.0,40730,List2B,white,woman,,,,null,,,,
1333,"<img src=""portrait/BM2.jpg""style=""width:400px;height:400px;""></img>",5,html-button-response,317,1630783,0.0-18.0-16.0,40730,List2B,white,woman,,TRUE,5,,,,,
null,CORRECT,,html-keyboard-response,318,1632285,0.0-18.0-17.0-0.0,40730,List2B,white,woman,,,,null,,,,
1977,"<img src=""portrait/BW1.jpg""style=""width:400px;height:400px;""></img>",0,html-button-response,319,1634279,0.0-18.0-19.0,40730,List2B,white,woman,,TRUE,0,,,,,
null,CORRECT,,html-keyboard-response,320,1635781,0.0-18.0-20.0-0.0,40730,List2B,white,woman,,,,null,,,,
1608,"<img src=""portrait/WW1.jpg""style=""width:400px;height:400px;""></img>",1,html-button-response,321,1637391,0.0-18.0-22.0,40730,List2B,white,woman,,TRUE,1,,,,,
null,CORRECT,,html-keyboard-response,322,1638892,0.0-18.0-23.0-0.0,40730,List2B,white,woman,,,,null,,,,
2735,<p>You got 8 out of 8 right first time. Press Continue.</p>,0,html-button-response,323,1641639,0.0-18.0-25.0,40730,List2B,white,woman,,,,,,,,
null,"<div style=""font-size:60px;"">+</div>",,html-keyboard-response,324,1643142,0.0-19.0-0.0,40730,List2B,white,woman,,,,null,,,,
null,"<img src=""stim_listB/hug2.gif""</stim_listB>",,html-keyboard-response,325,1645145,0.0-19.0-1.0,40730,List2B,white,woman,,,,null,,,,
null,are hugging each other,,html-keyboard-response,326,1647147,0.0-19.0-2.0,40730,List2B,white,woman,,,,null,,,,
10694,,,survey-text,327,1657855,0.0-19.0-3.0,40730,List2B,white,woman,,,,,"{""Q0"":""dave and jane are hugging each other""}","<img src=""stim_listB/hug2.gif""</stim_listB>",are hugging each other,
null,"<div style=""font-size:60px;"">+</div>",,html-keyboard-response,328,1658360,0.0-19.0-0.1,40730,List2B,white,woman,,,,null,,,,
null,"<img src=""stim_listB/hug8.gif""</stim_listB>",,html-keyboard-response,329,1660362,0.0-19.0-1.1,40730,List2B,white,woman,,,,null,,,,
null,are hugging each other,,html-keyboard-response,330,1662363,0.0-19.0-2.1,40730,List2B,white,woman,,,,null,,,,
10417,,,survey-text,331,1672782,0.0-19.0-3.1,40730,List2B,white,woman,,,,,"{""Q0"":""jane and kate are hugging each other""}","<img src=""stim_listB/hug8.gif""</stim_listB>",are hugging each other,
null,"<div style=""font-size:60px;"">+</div>",,html-keyboard-response,332,1673295,0.0-19.0-0.2,40730,List2B,white,woman,,,,null,,,,
null,"<img src=""stim_listB/dance8.gif""</stim_listB>",,html-keyboard-response,333,1675297,0.0-19.0-1.2,40730,List2B,white,woman,,,,null,,,,
null,are dancing with each other,,html-keyboard-response,334,1677298,0.0-19.0-2.2,40730,List2B,white,woman,,,,null,,,,
11063,,,survey-text,335,1688367,0.0-19.0-3.2,40730,List2B,white,woman,,,,,"{""Q0"":""jane and beth are dancing with each other""}","<img src=""stim_listB/dance8.gif""</stim_listB>",are dancing with each other,
null,"<div style=""font-size:60px;"">+</div>",,html-keyboard-response,336,1688867,0.0-19.0-0.3,40730,List2B,white,woman,,,,null,,,,
null,"<img src=""stim_listB/touch1.gif""</stim_listB>",,html-keyboard-response,337,1690869,0.0-19.0-1.3,40730,List2B,white,woman,,,,null,,,,
null,is touching,,html-keyboard-response,338,1692876,0.0-19.0-2.3,40730,List2B,white,woman,,,,null,,,,
11497,,,survey-text,339,1704374,0.0-19.0-3.3,40730,List2B,white,woman,,,,,"{""Q0"":""jane and dave are touching each other""}","<img src=""stim_listB/touch1.gif""</stim_listB>",is touching,
null,"<div style=""font-size:60px;"">+</div>",,html-keyboard-response,340,1704880,0.0-19.0-0.4,40730,List2B,white,woman,,,,null,,,,
null,"<img src=""stim_listB/hug3.gif""</stim_listB>",,html-keyboard-response,341,1706895,0.0-19.0-1.4,40730,List2B,white,woman,,,,null,,,,
null,is hugging,,html-keyboard-response,342,1708896,0.0-19.0-2.4,40730,List2B,white,woman,,,,null,,,,
10350,,,survey-text,343,1719246,0.0-19.0-3.4,40730,List2B,white,woman,,,,,"{""Q0"":""fred is hugging beth""}","<img src=""stim_listB/hug3.gif""</stim_listB>",is hugging,
null,"<div style=""font-size:60px;"">+</div>",,html-keyboard-response,344,1719748,0.0-19.0-0.5,40730,List2B,white,woman,,,,null,,,,
null,"<img src=""stim_listB/fight8.gif""</stim_listB>",,html-keyboard-response,345,1721756,0.0-19.0-1.5,40730,List2B,white,woman,,,,null,,,,
null,are fighting each other,,html-keyboard-response,346,1723756,0.0-19.0-2.5,40730,List2B,white,woman,,,,null,,,,
13072,,,survey-text,347,1736830,0.0-19.0-3.5,40730,List2B,white,woman,,,,,"{""Q0"":""ruth and beth are fighting each other""}","<img src=""stim_listB/fight8.gif""</stim_listB>",are fighting each other,
null,"<div style=""font-size:60px;"">+</div>",,html-keyboard-response,348,1737331,0.0-19.0-0.6,40730,List2B,white,woman,,,,null,,,,
null,"<img src=""stim_listB/meet1.gif""</stim_listB>",,html-keyboard-response,349,1739333,0.0-19.0-1.6,40730,List2B,white,woman,,,,null,,,,
null,is meeting,,html-keyboard-response,350,1741334,0.0-19.0-2.6,40730,List2B,white,woman,,,,null,,,,
6971,,,survey-text,351,1748311,0.0-19.0-3.6,40730,List2B,white,woman,,,,,"{""Q0"":""jane is meeting dave""}","<img src=""stim_listB/meet1.gif""</stim_listB>",is meeting,
null,"<div style=""font-size:60px;"">+</div>",,html-keyboard-response,352,1748821,0.0-19.0-0.7,40730,List2B,white,woman,,,,null,,,,
null,"<img src=""stim_listB/kiss7.gif""</stim_listB>",,html-keyboard-response,353,1750823,0.0-19.0-1.7,40730,List2B,white,woman,,,,null,,,,
null,is kissing,,html-keyboard-response,354,1752838,0.0-19.0-2.7,40730,List2B,white,woman,,,,null,,,,
7592,,,survey-text,355,1760430,0.0-19.0-3.7,40730,List2B,white,woman,,,,,"{""Q0"":""beth is kissing ruth""}","<img src=""stim_listB/kiss7.gif""</stim_listB>",is kissing,
null,"<div style=""font-size:60px;"">+</div>",,html-keyboard-response,356,1760932,0.0-19.0-0.8,40730,List2B,white,woman,,,,null,,,,
null,"<img src=""stim_listB/marry7.gif""</stim_listB>",,html-keyboard-response,357,1762934,0.0-19.0-1.8,40730,List2B,white,woman,,,,null,,,,
null,is marrying,,html-keyboard-response,358,1764936,0.0-19.0-2.8,40730,List2B,white,woman,,,,null,,,,
7780,,,survey-text,359,1772719,0.0-19.0-3.8,40730,List2B,white,woman,,,,,"{""Q0"":""beth is marrying jane""}","<img src=""stim_listB/marry7.gif""</stim_listB>",is marrying,
null,"<div style=""font-size:60px;"">+</div>",,html-keyboard-response,360,1773220,0.0-19.0-0.9,40730,List2B,white,woman,,,,null,,,,
null,"<img src=""stim_listB/meet8.gif""</stim_listB>",,html-keyboard-response,361,1775222,0.0-19.0-1.9,40730,List2B,white,woman,,,,null,,,,
null,are meeting each other,,html-keyboard-response,362,1777223,0.0-19.0-2.9,40730,List2B,white,woman,,,,null,,,,
11182,,,survey-text,363,1788406,0.0-19.0-3.9,40730,List2B,white,woman,,,,,"{""Q0"":""ruth and beth are meeting each other""}","<img src=""stim_listB/meet8.gif""</stim_listB>",are meeting each other,
null,"<div style=""font-size:60px;"">+</div>",,html-keyboard-response,364,1788908,0.0-19.0-0.10,40730,List2B,white,woman,,,,null,,,,
null,"<img src=""stim_listB/kiss1.gif""</stim_listB>",,html-keyboard-response,365,1790910,0.0-19.0-1.10,40730,List2B,white,woman,,,,null,,,,
null,is kissing,,html-keyboard-response,366,1792917,0.0-19.0-2.10,40730,List2B,white,woman,,,,null,,,,
7720,,,survey-text,367,1800638,0.0-19.0-3.10,40730,List2B,white,woman,,,,,"{""Q0"":""ruth is kissing luke""}","<img src=""stim_listB/kiss1.gif""</stim_listB>",is kissing,
null,"<div style=""font-size:60px;"">+</div>",,html-keyboard-response,368,1801140,0.0-19.0-0.11,40730,List2B,white,woman,,,,null,,,,
null,"<img src=""stim_listB/marry6.gif""</stim_listB>",,html-keyboard-response,369,1803142,0.0-19.0-1.11,40730,List2B,white,woman,,,,null,,,,
null,are marrying each other,,html-keyboard-response,370,1805143,0.0-19.0-2.11,40730,List2B,white,woman,,,,null,,,,
11838,,,survey-text,371,1816982,0.0-19.0-3.11,40730,List2B,white,woman,,,,,"{""Q0"":""mike and luke are marrying each other""}","<img src=""stim_listB/marry6.gif""</stim_listB>",are marrying each other,
null,"<div style=""font-size:60px;"">+</div>",,html-keyboard-response,372,1817486,0.0-19.0-0.12,40730,List2B,white,woman,,,,null,,,,
null,"<img src=""stim_listB/fight1.gif""</stim_listB>",,html-keyboard-response,373,1819488,0.0-19.0-1.12,40730,List2B,white,woman,,,,null,,,,
null,is fighting,,html-keyboard-response,374,1821489,0.0-19.0-2.12,40730,List2B,white,woman,,,,null,,,,
7812,,,survey-text,375,1829302,0.0-19.0-3.12,40730,List2B,white,woman,,,,,"{""Q0"":""jane is fighting dave""}","<img src=""stim_listB/fight1.gif""</stim_listB>",is fighting,
null,"<div style=""font-size:60px;"">+</div>",,html-keyboard-response,376,1829823,0.0-19.0-0.13,40730,List2B,white,woman,,,,null,,,,
null,"<img src=""stim_listB/touch6.gif""</stim_listB>",,html-keyboard-response,377,1831825,0.0-19.0-1.13,40730,List2B,white,woman,,,,null,,,,
null,are touching each other,,html-keyboard-response,378,1833827,0.0-19.0-2.13,40730,List2B,white,woman,,,,null,,,,
11421,,,survey-text,379,1845255,0.0-19.0-3.13,40730,List2B,white,woman,,,,,"{""Q0"":""luke and fred are touching each other""}","<img src=""stim_listB/touch6.gif""</stim_listB>",are touching each other,
null,"<div style=""font-size:60px;"">+</div>",,html-keyboard-response,380,1845768,0.0-19.0-0.14,40730,List2B,white,woman,,,,null,,,,
null,"<img src=""stim_listB/marry8.gif""</stim_listB>",,html-keyboard-response,381,1847770,0.0-19.0-1.14,40730,List2B,white,woman,,,,null,,,,
null,are marrying each other,,html-keyboard-response,382,1849771,0.0-19.0-2.14,40730,List2B,white,woman,,,,null,,,,
11721,,,survey-text,383,1861494,0.0-19.0-3.14,40730,List2B,white,woman,,,,,"{""Q0"":""ruth and kate are marrying each other""}","<img src=""stim_listB/marry8.gif""</stim_listB>",are marrying each other,
null,"<div style=""font-size:60px;"">+</div>",,html-keyboard-response,384,1862003,0.0-19.0-0.15,40730,List2B,white,woman,,,,null,,,,
null,"<img src=""stim_listB/shout7.gif""</stim_listB>",,html-keyboard-response,385,1864005,0.0-19.0-1.15,40730,List2B,white,woman,,,,null,,,,
null,is shouting at,,html-keyboard-response,386,1866006,0.0-19.0-2.15,40730,List2B,white,woman,,,,null,,,,
9472,,,survey-text,387,1875478,0.0-19.0-3.15,40730,List2B,white,woman,,,,,"{""Q0"":""beth is shouting at ruth""}","<img src=""stim_listB/shout7.gif""</stim_listB>",is shouting at,
null,"<div style=""font-size:60px;"">+</div>",,html-keyboard-response,388,1875980,0.0-19.0-0.16,40730,List2B,white,woman,,,,null,,,,
null,"<img src=""stim_listB/dance5.gif""</stim_listB>",,html-keyboard-response,389,1877993,0.0-19.0-1.16,40730,List2B,white,woman,,,,null,,,,
null,is dancing with,,html-keyboard-response,390,1879994,0.0-19.0-2.16,40730,List2B,white,woman,,,,null,,,,
9667,,,survey-text,391,1889671,0.0-19.0-3.16,40730,List2B,white,woman,,,,,"{""Q0"":""mike is dancing with luke""}","<img src=""stim_listB/dance5.gif""</stim_listB>",is dancing with,
null,"<div style=""font-size:60px;"">+</div>",,html-keyboard-response,392,1890172,0.0-19.0-0.17,40730,List2B,white,woman,,,,null,,,,
null,"<img src=""stim_listB/shout8.gif""</stim_listB>",,html-keyboard-response,393,1892173,0.0-19.0-1.17,40730,List2B,white,woman,,,,null,,,,
null,are shouting at each other,,html-keyboard-response,394,1894174,0.0-19.0-2.17,40730,List2B,white,woman,,,,null,,,,
11311,,,survey-text,395,1905486,0.0-19.0-3.17,40730,List2B,white,woman,,,,,"{""Q0"":""jane is shouting at kate""}","<img src=""stim_listB/shout8.gif""</stim_listB>",are shouting at each other,
null,"<div style=""font-size:60px;"">+</div>",,html-keyboard-response,396,1905994,0.0-19.0-0.18,40730,List2B,white,woman,,,,null,,,,
null,"<img src=""stim_listB/marry4.gif""</stim_listB>",,html-keyboard-response,397,1907996,0.0-19.0-1.18,40730,List2B,white,woman,,,,null,,,,
null,are marrying each other,,html-keyboard-response,398,1909998,0.0-19.0-2.18,40730,List2B,white,woman,,,,null,,,,
10468,,,survey-text,399,1920470,0.0-19.0-3.18,40730,List2B,white,woman,,,,,"{""Q0"":""fred and kate are marrying each other""}","<img src=""stim_listB/marry4.gif""</stim_listB>",are marrying each other,
null,"<div style=""font-size:60px;"">+</div>",,html-keyboard-response,400,1920972,0.0-19.0-0.19,40730,List2B,white,woman,,,,null,,,,
null,"<img src=""stim_listB/fight6.gif""</stim_listB>",,html-keyboard-response,401,1922979,0.0-19.0-1.19,40730,List2B,white,woman,,,,null,,,,
null,are fighting each other,,html-keyboard-response,402,1924979,0.0-19.0-2.19,40730,List2B,white,woman,,,,null,,,,
10916,,,survey-text,403,1935895,0.0-19.0-3.19,40730,List2B,white,woman,,,,,"{""Q0"":""luke and fred are fighting each other""}","<img src=""stim_listB/fight6.gif""</stim_listB>",are fighting each other,
26298,<p>Thank you for completing that task.</p><p>The final part of this session is a short questionnaire.</p><p>Press Continue.</p>,0,html-button-response,404,1962200,0.0-20.0,40730,List2B,white,woman,,,,,,,,
36316,,,survey-text,405,1999518,0.0-21.0,40730,List2B,white,woman,,,,,"{""Q0"":""42"",""Q1"":""English"",""Q2"":""English"",""Q3"":""Ireland"",""Q4"":""White"",""Q5"":""Female""}",,,demographics
94340,,,survey-likert,406,2093869,0.0-22.0,40730,List2B,white,woman,,,,,"{""Q0"":2,""Q1"":3,""Q2"":1,""Q3"":4,""Q4"":3,""Q5"":3,""Q6"":1,""Q7"":2,""Q8"":1,""Q9"":1,""Q10"":3,""Q11"":2,""Q12"":3,""Q13"":1}",,,likert_race
57190,,,survey-likert,407,2151068,0.0-23.0,40730,List2B,white,woman,,,,,"{""Q0"":2,""Q1"":4,""Q2"":2,""Q3"":4,""Q4"":3,""Q5"":4,""Q6"":3,""Q7"":2,""Q8"":4,""Q9"":4,""Q10"":3,""Q11"":2,""Q12"":2,""Q13"":1}",,,likert_gender
6040,,,survey-text,408,2157110,0.0-24.0,40730,List2B,white,woman,,,,,"{""Q0"":""ccc""}",,,worker_id
27822,,,external-html,409,2185063,0.0-25.0,40730,List2B,white,woman,debrief.html,,,,,,,
