rt,stimulus,button_pressed,trial_type,trial_index,time_elapsed,internal_node_id,subject,list,ppt_race,ppt_gender,url,first_guess,correct,key_press,responses,image_type,phrase_type,test_part
2287,Welcome to the experiment. Press Continue to begin.,0,html-button-response,0,2291,0.0-0.0,40841,List1B,white,woman,,,,,,,,
13527,,,external-html,1,16897,0.0-1.0,40841,List1B,white,woman,consent.html,,,,,,,
14501,"<p>On the next page, you will see portraits of 8 people and their names.</p><p>Your first task is to take a few minutes to memorise the names of these people.</p><p>You will have to recall their names during the rest of the experiment, so it is</p><p>essential that you try to memorise these people and their names as best as you can.</p><br><p><strong>You will then be tested on your memory of these names and portraits.</strong></p><br><p>The experiment will start after you have completed this memory test.</p><br><p>Ready?</p>",0,html-button-response,2,31402,0.0-2.0,40841,List1B,white,woman,,,,,,,,
27613,"<img src='img/portrait_matrix_list1.JPG' style='width:900px;height:500px;''></img><p>If you have memorised all the portraits and names and are ready to start, press Continue.</p><p><strong>Please note: Your memory of these faces will be tested 4 times during this experiment.</strong></p>",0,html-button-response,3,60021,0.0-3.0-0.0,40841,List1B,white,woman,,,,,,,,
3127,"<img src=""portrait/WM2.jpg""style=""width:400px;height:400px;""></img>",7,html-button-response,4,64157,0.0-3.0-1.0,40841,List1B,white,woman,,TRUE,7,,,,,
null,CORRECT,,html-keyboard-response,5,65667,0.0-3.0-2.0-0.0,40841,List1B,white,woman,,,,null,,,,
2417,"<img src=""portrait/WW2.jpg""style=""width:400px;height:400px;""></img>",3,html-button-response,6,68092,0.0-3.0-4.0,40841,List1B,white,woman,,TRUE,3,,,,,
null,CORRECT,,html-keyboard-response,7,69597,0.0-3.0-5.0-0.0,40841,List1B,white,woman,,,,null,,,,
2653,"<img src=""portrait/BM2.jpg""style=""width:400px;height:400px;""></img>",4,html-button-response,8,72256,0.0-3.0-7.0,40841,List1B,white,woman,,TRUE,5,,,,,
4829,"<img src=""portrait/BM2.jpg""style=""width:400px;height:400px;""></img>",5,html-button-response,9,78093,0.0-3.0-9.0-0.0,40841,List1B,white,woman,,FALSE,5,,,,,
null,CORRECT,,html-keyboard-response,10,79599,0.0-3.0-9.0-1.0-0.0,40841,List1B,white,woman,,,,null,,,,
3954,"<img src=""portrait/WM1.jpg""style=""width:400px;height:400px;""></img>",5,html-button-response,11,83560,0.0-3.0-10.0,40841,List1B,white,woman,,TRUE,6,,,,,
3093,"<img src=""portrait/WM1.jpg""style=""width:400px;height:400px;""></img>",6,html-button-response,12,87661,0.0-3.0-12.0-0.0,40841,List1B,white,woman,,FALSE,6,,,,,
null,CORRECT,,html-keyboard-response,13,89167,0.0-3.0-12.0-1.0-0.0,40841,List1B,white,woman,,,,null,,,,
3853,"<img src=""portrait/BW1.jpg""style=""width:400px;height:400px;""></img>",2,html-button-response,14,93028,0.0-3.0-13.0,40841,List1B,white,woman,,TRUE,0,,,,,
3977,"<img src=""portrait/BW1.jpg""style=""width:400px;height:400px;""></img>",0,html-button-response,15,98012,0.0-3.0-15.0-0.0,40841,List1B,white,woman,,FALSE,0,,,,,
null,CORRECT,,html-keyboard-response,16,99517,0.0-3.0-15.0-1.0-0.0,40841,List1B,white,woman,,,,null,,,,
2539,"<img src=""portrait/BW2.jpg""style=""width:400px;height:400px;""></img>",1,html-button-response,17,102062,0.0-3.0-16.0,40841,List1B,white,woman,,TRUE,2,,,,,
2108,"<img src=""portrait/BW2.jpg""style=""width:400px;height:400px;""></img>",2,html-button-response,18,105179,0.0-3.0-18.0-0.0,40841,List1B,white,woman,,FALSE,2,,,,,
null,CORRECT,,html-keyboard-response,19,106684,0.0-3.0-18.0-1.0-0.0,40841,List1B,white,woman,,,,null,,,,
6272,"<img src=""portrait/BM1.jpg""style=""width:400px;height:400px;""></img>",4,html-button-response,20,112962,0.0-3.0-19.0,40841,List1B,white,woman,,TRUE,4,,,,,
null,CORRECT,,html-keyboard-response,21,114468,0.0-3.0-20.0-0.0,40841,List1B,white,woman,,,,null,,,,
3439,"<img src=""portrait/WW1.jpg""style=""width:400px;height:400px;""></img>",1,html-button-response,22,117914,0.0-3.0-22.0,40841,List1B,white,woman,,TRUE,1,,,,,
null,CORRECT,,html-keyboard-response,23,119419,0.0-3.0-23.0-0.0,40841,List1B,white,woman,,,,null,,,,
2420,<p>You got 4 out of 8 right first time. Press Continue.</p>,0,html-button-response,24,121843,0.0-3.0-25.0,40841,List1B,white,woman,,,,,,,,
3514,"As you did not score 100%, the memory game will repeat. Press Continue.",0,html-button-response,25,126364,0.0-3.0-26.0-0.0,40841,List1B,white,woman,,,,,,,,
4360,"<img src='img/portrait_matrix_list1.JPG' style='width:900px;height:500px;''></img><p>If you have memorised all the portraits and names and are ready to start, press Continue.</p><p><strong>Please note: Your memory of these faces will be tested 4 times during this experiment.</strong></p>",0,html-button-response,26,131733,0.0-3.1-0.1,40841,List1B,white,woman,,,,,,,,
2142,"<img src=""portrait/WM2.jpg""style=""width:400px;height:400px;""></img>",7,html-button-response,27,134881,0.0-3.1-1.1,40841,List1B,white,woman,,TRUE,7,,,,,
null,CORRECT,,html-keyboard-response,28,136385,0.0-3.1-2.1-0.1,40841,List1B,white,woman,,,,null,,,,
2692,"<img src=""portrait/WW2.jpg""style=""width:400px;height:400px;""></img>",3,html-button-response,29,139083,0.0-3.1-4.1,40841,List1B,white,woman,,TRUE,3,,,,,
null,CORRECT,,html-keyboard-response,30,140588,0.0-3.1-5.1-0.1,40841,List1B,white,woman,,,,null,,,,
4906,"<img src=""portrait/BM2.jpg""style=""width:400px;height:400px;""></img>",5,html-button-response,31,145500,0.0-3.1-7.1,40841,List1B,white,woman,,TRUE,5,,,,,
null,CORRECT,,html-keyboard-response,32,147006,0.0-3.1-8.1-0.1,40841,List1B,white,woman,,,,null,,,,
3503,"<img src=""portrait/WM1.jpg""style=""width:400px;height:400px;""></img>",6,html-button-response,33,150516,0.0-3.1-10.1,40841,List1B,white,woman,,TRUE,6,,,,,
null,CORRECT,,html-keyboard-response,34,152022,0.0-3.1-11.1-0.1,40841,List1B,white,woman,,,,null,,,,
2589,"<img src=""portrait/BW1.jpg""style=""width:400px;height:400px;""></img>",0,html-button-response,35,154618,0.0-3.1-13.1,40841,List1B,white,woman,,TRUE,0,,,,,
null,CORRECT,,html-keyboard-response,36,156122,0.0-3.1-14.1-0.1,40841,List1B,white,woman,,,,null,,,,
3989,"<img src=""portrait/BW2.jpg""style=""width:400px;height:400px;""></img>",2,html-button-response,37,160118,0.0-3.1-16.1,40841,List1B,white,woman,,TRUE,2,,,,,
null,CORRECT,,html-keyboard-response,38,161623,0.0-3.1-17.1-0.1,40841,List1B,white,woman,,,,null,,,,
4823,"<img src=""portrait/BM1.jpg""style=""width:400px;height:400px;""></img>",5,html-button-response,39,166452,0.0-3.1-19.1,40841,List1B,white,woman,,TRUE,4,,,,,
2394,"<img src=""portrait/BM1.jpg""style=""width:400px;height:400px;""></img>",4,html-button-response,40,169852,0.0-3.1-21.1-0.1,40841,List1B,white,woman,,FALSE,4,,,,,
null,CORRECT,,html-keyboard-response,41,171358,0.0-3.1-21.1-1.1-0.1,40841,List1B,white,woman,,,,null,,,,
3838,"<img src=""portrait/WW1.jpg""style=""width:400px;height:400px;""></img>",1,html-button-response,42,175203,0.0-3.1-22.1,40841,List1B,white,woman,,TRUE,1,,,,,
null,CORRECT,,html-keyboard-response,43,176708,0.0-3.1-23.1-0.1,40841,List1B,white,woman,,,,null,,,,
1807,<p>You got 7 out of 8 right first time. Press Continue.</p>,0,html-button-response,44,178520,0.0-3.1-25.1,40841,List1B,white,woman,,,,,,,,
1613,"As you did not score 100%, the memory game will repeat. Press Continue.",0,html-button-response,45,181137,0.0-3.1-26.1-0.1,40841,List1B,white,woman,,,,,,,,
1694,"<img src='img/portrait_matrix_list1.JPG' style='width:900px;height:500px;''></img><p>If you have memorised all the portraits and names and are ready to start, press Continue.</p><p><strong>Please note: Your memory of these faces will be tested 4 times during this experiment.</strong></p>",0,html-button-response,46,183838,0.0-3.2-0.2,40841,List1B,white,woman,,,,,,,,
2327,"<img src=""portrait/WM2.jpg""style=""width:400px;height:400px;""></img>",7,html-button-response,47,187170,0.0-3.2-1.2,40841,List1B,white,woman,,TRUE,7,,,,,
null,CORRECT,,html-keyboard-response,48,188674,0.0-3.2-2.2-0.2,40841,List1B,white,woman,,,,null,,,,
1557,"<img src=""portrait/WW2.jpg""style=""width:400px;height:400px;""></img>",3,html-button-response,49,190238,0.0-3.2-4.2,40841,List1B,white,woman,,TRUE,3,,,,,
null,CORRECT,,html-keyboard-response,50,191742,0.0-3.2-5.2-0.2,40841,List1B,white,woman,,,,null,,,,
10311,"<img src=""portrait/BM2.jpg""style=""width:400px;height:400px;""></img>",5,html-button-response,51,202056,0.0-3.2-7.2,40841,List1B,white,woman,,TRUE,5,,,,,
null,CORRECT,,html-keyboard-response,52,203560,0.0-3.2-8.2-0.2,40841,List1B,white,woman,,,,null,,,,
2092,"<img src=""portrait/WM1.jpg""style=""width:400px;height:400px;""></img>",6,html-button-response,53,205658,0.0-3.2-10.2,40841,List1B,white,woman,,TRUE,6,,,,,
null,CORRECT,,html-keyboard-response,54,207163,0.0-3.2-11.2-0.2,40841,List1B,white,woman,,,,null,,,,
2886,"<img src=""portrait/BW1.jpg""style=""width:400px;height:400px;""></img>",0,html-button-response,55,210055,0.0-3.2-13.2,40841,List1B,white,woman,,TRUE,0,,,,,
null,CORRECT,,html-keyboard-response,56,211559,0.0-3.2-14.2-0.2,40841,List1B,white,woman,,,,null,,,,
1361,"<img src=""portrait/BW2.jpg""style=""width:400px;height:400px;""></img>",2,html-button-response,57,212927,0.0-3.2-16.2,40841,List1B,white,woman,,TRUE,2,,,,,
null,CORRECT,,html-keyboard-response,58,214431,0.0-3.2-17.2-0.2,40841,List1B,white,woman,,,,null,,,,
2404,"<img src=""portrait/BM1.jpg""style=""width:400px;height:400px;""></img>",4,html-button-response,59,216841,0.0-3.2-19.2,40841,List1B,white,woman,,TRUE,4,,,,,
null,CORRECT,,html-keyboard-response,60,218345,0.0-3.2-20.2-0.2,40841,List1B,white,woman,,,,null,,,,
2737,"<img src=""portrait/WW1.jpg""style=""width:400px;height:400px;""></img>",1,html-button-response,61,221087,0.0-3.2-22.2,40841,List1B,white,woman,,TRUE,1,,,,,
null,CORRECT,,html-keyboard-response,62,222590,0.0-3.2-23.2-0.2,40841,List1B,white,woman,,,,null,,,,
1499,<p>You got 8 out of 8 right first time. Press Continue.</p>,0,html-button-response,63,224091,0.0-3.2-25.2,40841,List1B,white,woman,,,,,,,,
28885,"<p>In this experiment, you will view photographs of the people from the memory game interacting.</p><p>By using the <strong>exact</strong> phrase given <i>after</i> the photograph appears and recalling the correct names of the people in the photographs, form a sentence describing the interaction. You do not need to capitalise names.</p><p>Type your answer in the space provided. Please complete every sentence before moving onto the next trial.</p><p>You will only have a few seconds to memorise each given photograph and phrase before you can respond, so try your best to focus.</p><p>An example is given below. Press 'Continue' when you are ready.</p><img src='img/speaking_example_v2.jpg' style='width:800px;height:460px;''></img>",0,html-button-response,64,253983,0.0-4.0,40841,List1B,white,woman,,,,,,,,
1961,"<p>Before the experiment starts, you will watch two example trials. Press 'Continue'.</p>",0,html-button-response,65,256947,0.0-5.0,40841,List1B,white,woman,,,,,,,,
null,<img src='img/speaking_WW.gif'></img>,,html-keyboard-response,66,259952,0.0-6.0,40841,List1B,white,woman,,,,null,,,,
null,<p>is speaking to</p>,,html-keyboard-response,67,261955,0.0-7.0,40841,List1B,white,woman,,,,null,,,,
2121,<p><b>Answer:</b> kate is speaking to beth</p>,0,html-button-response,68,264079,0.0-8.0,40841,List1B,white,woman,,,,,,,,
null,<img src='img/pointing_BM.gif'></img>,,html-keyboard-response,69,267084,0.0-9.0,40841,List1B,white,woman,,,,null,,,,
null,<p>are pointing at each other</p>,,html-keyboard-response,70,269088,0.0-10.0,40841,List1B,white,woman,,,,null,,,,
2003,<p><b>Answer:</b> luke and dave are pointing at each other</p>,0,html-button-response,71,271094,0.0-11.0,40841,List1B,white,woman,,,,,,,,
6544,"<p>Ready to start the experiment?</p><br><p><strong>Remember to describe the picture using a full sentence,</strong></p><p><strong>that combines the names of the people with the given phrase.</strong></p><p><strong>If you do not do this correctly you will not be paid.</strong></p><p><strong> You do not need to capitalise names or use punctuation.</strong></p><br><p>Press 'Continue' to begin.</p>",0,html-button-response,72,278639,0.0-12.0,40841,List1B,white,woman,,,,,,,,
null,"<div style=""font-size:60px;"">+</div>",,html-keyboard-response,73,280142,0.0-13.0-0.0,40841,List1B,white,woman,,,,null,,,,
null,"<img src=""stim_listB/fight5.gif""</stim_listB>",,html-keyboard-response,74,282145,0.0-13.0-1.0,40841,List1B,white,woman,,,,null,,,,
null,is fighting,,html-keyboard-response,75,284150,0.0-13.0-2.0,40841,List1B,white,woman,,,,null,,,,
7962,,,survey-text,76,292118,0.0-13.0-3.0,40841,List1B,white,woman,,,,,"{""Q0"":""Mike is fighting fred""}","<img src=""stim_listB/fight5.gif""</stim_listB>",is fighting,
null,"<div style=""font-size:60px;"">+</div>",,html-keyboard-response,77,292622,0.0-13.0-0.1,40841,List1B,white,woman,,,,null,,,,
null,"<img src=""stim_listB/argue3.gif""</stim_listB>",,html-keyboard-response,78,294626,0.0-13.0-1.1,40841,List1B,white,woman,,,,null,,,,
null,is arguing with,,html-keyboard-response,79,296631,0.0-13.0-2.1,40841,List1B,white,woman,,,,null,,,,
10865,,,survey-text,80,307500,0.0-13.0-3.1,40841,List1B,white,woman,,,,,"{""Q0"":""Ruth is arguing with dave""}","<img src=""stim_listB/argue3.gif""</stim_listB>",is arguing with,
null,"<div style=""font-size:60px;"">+</div>",,html-keyboard-response,81,308004,0.0-13.0-0.2,40841,List1B,white,woman,,,,null,,,,
null,"<img src=""stim_listB/hug5.gif""</stim_listB>",,html-keyboard-response,82,310009,0.0-13.0-1.2,40841,List1B,white,woman,,,,null,,,,
null,is hugging,,html-keyboard-response,83,312013,0.0-13.0-2.2,40841,List1B,white,woman,,,,null,,,,
6285,,,survey-text,84,318302,0.0-13.0-3.2,40841,List1B,white,woman,,,,,"{""Q0"":""Luke is hugging fred""}","<img src=""stim_listB/hug5.gif""</stim_listB>",is hugging,
null,"<div style=""font-size:60px;"">+</div>",,html-keyboard-response,85,318805,0.0-13.0-0.3,40841,List1B,white,woman,,,,null,,,,
null,"<img src=""stim_listB/marry1.gif""</stim_listB>",,html-keyboard-response,86,320809,0.0-13.0-1.3,40841,List1B,white,woman,,,,null,,,,
null,is marrying,,html-keyboard-response,87,322813,0.0-13.0-2.3,40841,List1B,white,woman,,,,null,,,,
8003,,,survey-text,88,330820,0.0-13.0-3.3,40841,List1B,white,woman,,,,,"{""Q0"":""Beth is marrying mike ""}","<img src=""stim_listB/marry1.gif""</stim_listB>",is marrying,
null,"<div style=""font-size:60px;"">+</div>",,html-keyboard-response,89,331323,0.0-13.0-0.4,40841,List1B,white,woman,,,,null,,,,
null,"<img src=""stim_listB/marry6.gif""</stim_listB>",,html-keyboard-response,90,333327,0.0-13.0-1.4,40841,List1B,white,woman,,,,null,,,,
null,are marrying each other,,html-keyboard-response,91,335330,0.0-13.0-2.4,40841,List1B,white,woman,,,,null,,,,
14051,,,survey-text,92,349385,0.0-13.0-3.4,40841,List1B,white,woman,,,,,"{""Q0"":""Mike is marrying Luke ""}","<img src=""stim_listB/marry6.gif""</stim_listB>",are marrying each other,
null,"<div style=""font-size:60px;"">+</div>",,html-keyboard-response,93,349889,0.0-13.0-0.5,40841,List1B,white,woman,,,,null,,,,
null,"<img src=""stim_listB/shout2.gif""</stim_listB>",,html-keyboard-response,94,351894,0.0-13.0-1.5,40841,List1B,white,woman,,,,null,,,,
null,are shouting at each other,,html-keyboard-response,95,353896,0.0-13.0-2.5,40841,List1B,white,woman,,,,null,,,,
13778,,,survey-text,96,367677,0.0-13.0-3.5,40841,List1B,white,woman,,,,,"{""Q0"":""Mike and kate are shouting at each ithed""}","<img src=""stim_listB/shout2.gif""</stim_listB>",are shouting at each other,
null,"<div style=""font-size:60px;"">+</div>",,html-keyboard-response,97,368181,0.0-13.0-0.6,40841,List1B,white,woman,,,,null,,,,
null,"<img src=""stim_listB/kiss5.gif""</stim_listB>",,html-keyboard-response,98,370185,0.0-13.0-1.6,40841,List1B,white,woman,,,,null,,,,
null,is kissing,,html-keyboard-response,99,372189,0.0-13.0-2.6,40841,List1B,white,woman,,,,null,,,,
7583,,,survey-text,100,379777,0.0-13.0-3.6,40841,List1B,white,woman,,,,,"{""Q0"":""Luke is kissing fred""}","<img src=""stim_listB/kiss5.gif""</stim_listB>",is kissing,
null,"<div style=""font-size:60px;"">+</div>",,html-keyboard-response,101,380280,0.0-13.0-0.7,40841,List1B,white,woman,,,,null,,,,
null,"<img src=""stim_listB/touch3.gif""</stim_listB>",,html-keyboard-response,102,382285,0.0-13.0-1.7,40841,List1B,white,woman,,,,null,,,,
null,is touching,,html-keyboard-response,103,384288,0.0-13.0-2.7,40841,List1B,white,woman,,,,null,,,,
10453,,,survey-text,104,394744,0.0-13.0-3.7,40841,List1B,white,woman,,,,,"{""Q0"":""Ruth is touching luke ""}","<img src=""stim_listB/touch3.gif""</stim_listB>",is touching,
null,"<div style=""font-size:60px;"">+</div>",,html-keyboard-response,105,395247,0.0-13.0-0.8,40841,List1B,white,woman,,,,null,,,,
null,"<img src=""stim_listB/shout4.gif""</stim_listB>",,html-keyboard-response,106,397250,0.0-13.0-1.8,40841,List1B,white,woman,,,,null,,,,
null,are shouting at each other,,html-keyboard-response,107,399254,0.0-13.0-2.8,40841,List1B,white,woman,,,,null,,,,
10420,,,survey-text,108,409678,0.0-13.0-3.8,40841,List1B,white,woman,,,,,"{""Q0"":""Ruth and Luke are shouting at each other ""}","<img src=""stim_listB/shout4.gif""</stim_listB>",are shouting at each other,
null,"<div style=""font-size:60px;"">+</div>",,html-keyboard-response,109,410182,0.0-13.0-0.9,40841,List1B,white,woman,,,,null,,,,
null,"<img src=""stim_listB/fight8.gif""</stim_listB>",,html-keyboard-response,110,412185,0.0-13.0-1.9,40841,List1B,white,woman,,,,null,,,,
null,are fighting each other,,html-keyboard-response,111,414188,0.0-13.0-2.9,40841,List1B,white,woman,,,,null,,,,
11226,,,survey-text,112,425417,0.0-13.0-3.9,40841,List1B,white,woman,,,,,"{""Q0"":""Beth and Ruth are fighting each other ""}","<img src=""stim_listB/fight8.gif""</stim_listB>",are fighting each other,
null,"<div style=""font-size:60px;"">+</div>",,html-keyboard-response,113,425923,0.0-13.0-0.10,40841,List1B,white,woman,,,,null,,,,
null,"<img src=""stim_listB/meet5.gif""</stim_listB>",,html-keyboard-response,114,427926,0.0-13.0-1.10,40841,List1B,white,woman,,,,null,,,,
null,is meeting,,html-keyboard-response,115,429930,0.0-13.0-2.10,40841,List1B,white,woman,,,,null,,,,
9323,,,survey-text,116,439255,0.0-13.0-3.10,40841,List1B,white,woman,,,,,"{""Q0"":""Mike is meeting luke ""}","<img src=""stim_listB/meet5.gif""</stim_listB>",is meeting,
null,"<div style=""font-size:60px;"">+</div>",,html-keyboard-response,117,439758,0.0-13.0-0.11,40841,List1B,white,woman,,,,null,,,,
null,"<img src=""stim_listB/fight2.gif""</stim_listB>",,html-keyboard-response,118,441762,0.0-13.0-1.11,40841,List1B,white,woman,,,,null,,,,
null,are fighting each other,,html-keyboard-response,119,443768,0.0-13.0-2.11,40841,List1B,white,woman,,,,null,,,,
11050,,,survey-text,120,454822,0.0-13.0-3.11,40841,List1B,white,woman,,,,,"{""Q0"":""Fred and Beth are fighting each other ""}","<img src=""stim_listB/fight2.gif""</stim_listB>",are fighting each other,
null,"<div style=""font-size:60px;"">+</div>",,html-keyboard-response,121,455325,0.0-13.0-0.12,40841,List1B,white,woman,,,,null,,,,
null,"<img src=""stim_listB/talk3.gif""</stim_listB>",,html-keyboard-response,122,457329,0.0-13.0-1.12,40841,List1B,white,woman,,,,null,,,,
null,is talking to,,html-keyboard-response,123,459332,0.0-13.0-2.12,40841,List1B,white,woman,,,,null,,,,
7001,,,survey-text,124,466336,0.0-13.0-3.12,40841,List1B,white,woman,,,,,"{""Q0"":""Ruth is talking to dave ""}","<img src=""stim_listB/talk3.gif""</stim_listB>",is talking to,
null,"<div style=""font-size:60px;"">+</div>",,html-keyboard-response,125,466839,0.0-13.0-0.13,40841,List1B,white,woman,,,,null,,,,
null,"<img src=""stim_listB/argue2.gif""</stim_listB>",,html-keyboard-response,126,468845,0.0-13.0-1.13,40841,List1B,white,woman,,,,null,,,,
null,are arguing with each other,,html-keyboard-response,127,470849,0.0-13.0-2.13,40841,List1B,white,woman,,,,null,,,,
8671,,,survey-text,128,479524,0.0-13.0-3.13,40841,List1B,white,woman,,,,,"{""Q0"":""Fred is gargling with Kate ""}","<img src=""stim_listB/argue2.gif""</stim_listB>",are arguing with each other,
null,"<div style=""font-size:60px;"">+</div>",,html-keyboard-response,129,480027,0.0-13.0-0.14,40841,List1B,white,woman,,,,null,,,,
null,"<img src=""stim_listB/argue5.gif""</stim_listB>",,html-keyboard-response,130,482032,0.0-13.0-1.14,40841,List1B,white,woman,,,,null,,,,
null,is arguing with,,html-keyboard-response,131,484036,0.0-13.0-2.14,40841,List1B,white,woman,,,,null,,,,
9703,,,survey-text,132,493743,0.0-13.0-3.14,40841,List1B,white,woman,,,,,"{""Q0"":""Mike is arguing with Luke ""}","<img src=""stim_listB/argue5.gif""</stim_listB>",is arguing with,
null,"<div style=""font-size:60px;"">+</div>",,html-keyboard-response,133,494247,0.0-13.0-0.15,40841,List1B,white,woman,,,,null,,,,
null,"<img src=""stim_listB/dance5.gif""</stim_listB>",,html-keyboard-response,134,496250,0.0-13.0-1.15,40841,List1B,white,woman,,,,null,,,,
null,is dancing with,,html-keyboard-response,135,498254,0.0-13.0-2.15,40841,List1B,white,woman,,,,null,,,,
7666,,,survey-text,136,505924,0.0-13.0-3.15,40841,List1B,white,woman,,,,,"{""Q0"":""Fred is dancing with Luke ""}","<img src=""stim_listB/dance5.gif""</stim_listB>",is dancing with,
null,"<div style=""font-size:60px;"">+</div>",,html-keyboard-response,137,506426,0.0-13.0-0.16,40841,List1B,white,woman,,,,null,,,,
null,"<img src=""stim_listB/marry3.gif""</stim_listB>",,html-keyboard-response,138,508430,0.0-13.0-1.16,40841,List1B,white,woman,,,,null,,,,
null,is marrying,,html-keyboard-response,139,510434,0.0-13.0-2.16,40841,List1B,white,woman,,,,null,,,,
8992,,,survey-text,140,519430,0.0-13.0-3.16,40841,List1B,white,woman,,,,,"{""Q0"":""Luke is marrying Ruth ""}","<img src=""stim_listB/marry3.gif""</stim_listB>",is marrying,
null,"<div style=""font-size:60px;"">+</div>",,html-keyboard-response,141,519934,0.0-13.0-0.17,40841,List1B,white,woman,,,,null,,,,
null,"<img src=""stim_listB/hug1.gif""</stim_listB>",,html-keyboard-response,142,521937,0.0-13.0-1.17,40841,List1B,white,woman,,,,null,,,,
null,is hugging,,html-keyboard-response,143,523941,0.0-13.0-2.17,40841,List1B,white,woman,,,,null,,,,
7283,,,survey-text,144,531228,0.0-13.0-3.17,40841,List1B,white,woman,,,,,"{""Q0"":""Beth is hugging Fred ""}","<img src=""stim_listB/hug1.gif""</stim_listB>",is hugging,
null,"<div style=""font-size:60px;"">+</div>",,html-keyboard-response,145,531732,0.0-13.0-0.18,40841,List1B,white,woman,,,,null,,,,
null,"<img src=""stim_listB/touch7.gif""</stim_listB>",,html-keyboard-response,146,533736,0.0-13.0-1.18,40841,List1B,white,woman,,,,null,,,,
null,is touching,,html-keyboard-response,147,535740,0.0-13.0-2.18,40841,List1B,white,woman,,,,null,,,,
7338,,,survey-text,148,543082,0.0-13.0-3.18,40841,List1B,white,woman,,,,,"{""Q0"":""Ruth is touching kate ""}","<img src=""stim_listB/touch7.gif""</stim_listB>",is touching,
null,"<div style=""font-size:60px;"">+</div>",,html-keyboard-response,149,543585,0.0-13.0-0.19,40841,List1B,white,woman,,,,null,,,,
null,"<img src=""stim_listB/marry5.gif""</stim_listB>",,html-keyboard-response,150,545589,0.0-13.0-1.19,40841,List1B,white,woman,,,,null,,,,
null,is marrying,,html-keyboard-response,151,547593,0.0-13.0-2.19,40841,List1B,white,woman,,,,null,,,,
8218,,,survey-text,152,555813,0.0-13.0-3.19,40841,List1B,white,woman,,,,,"{""Q0"":""Mike is marrying Luke ""}","<img src=""stim_listB/marry5.gif""</stim_listB>",is marrying,
10429,"<img src='img/portrait_matrix_list1.JPG' style='width:900px;height:500px;''></img><p>If you have memorised all the portraits and names and are ready to start, press Continue.</p><p><strong>Please note: Your memory of these faces will be tested 4 times during this experiment.</strong></p>",0,html-button-response,153,566245,0.0-14.0-0.0,40841,List1B,white,woman,,,,,,,,
1777,"<img src=""portrait/WM2.jpg""style=""width:400px;height:400px;""></img>",7,html-button-response,154,569029,0.0-14.0-1.0,40841,List1B,white,woman,,TRUE,7,,,,,
null,CORRECT,,html-keyboard-response,155,570533,0.0-14.0-2.0-0.0,40841,List1B,white,woman,,,,null,,,,
3021,"<img src=""portrait/WW2.jpg""style=""width:400px;height:400px;""></img>",3,html-button-response,156,573558,0.0-14.0-4.0,40841,List1B,white,woman,,TRUE,3,,,,,
null,CORRECT,,html-keyboard-response,157,575061,0.0-14.0-5.0-0.0,40841,List1B,white,woman,,,,null,,,,
2531,"<img src=""portrait/BW1.jpg""style=""width:400px;height:400px;""></img>",0,html-button-response,158,577599,0.0-14.0-7.0,40841,List1B,white,woman,,TRUE,0,,,,,
null,CORRECT,,html-keyboard-response,159,579103,0.0-14.0-8.0-0.0,40841,List1B,white,woman,,,,null,,,,
1603,"<img src=""portrait/BW2.jpg""style=""width:400px;height:400px;""></img>",2,html-button-response,160,580713,0.0-14.0-10.0,40841,List1B,white,woman,,TRUE,2,,,,,
null,CORRECT,,html-keyboard-response,161,582217,0.0-14.0-11.0-0.0,40841,List1B,white,woman,,,,null,,,,
2724,"<img src=""portrait/WW1.jpg""style=""width:400px;height:400px;""></img>",1,html-button-response,162,584948,0.0-14.0-13.0,40841,List1B,white,woman,,TRUE,1,,,,,
null,CORRECT,,html-keyboard-response,163,586453,0.0-14.0-14.0-0.0,40841,List1B,white,woman,,,,null,,,,
1722,"<img src=""portrait/BM1.jpg""style=""width:400px;height:400px;""></img>",5,html-button-response,164,588180,0.0-14.0-16.0,40841,List1B,white,woman,,TRUE,4,,,,,
2644,"<img src=""portrait/BM1.jpg""style=""width:400px;height:400px;""></img>",4,html-button-response,165,591830,0.0-14.0-18.0-0.0,40841,List1B,white,woman,,FALSE,4,,,,,
null,CORRECT,,html-keyboard-response,166,593335,0.0-14.0-18.0-1.0-0.0,40841,List1B,white,woman,,,,null,,,,
2543,"<img src=""portrait/BM2.jpg""style=""width:400px;height:400px;""></img>",5,html-button-response,167,595885,0.0-14.0-19.0,40841,List1B,white,woman,,TRUE,5,,,,,
null,CORRECT,,html-keyboard-response,168,597389,0.0-14.0-20.0-0.0,40841,List1B,white,woman,,,,null,,,,
2169,"<img src=""portrait/WM1.jpg""style=""width:400px;height:400px;""></img>",6,html-button-response,169,599565,0.0-14.0-22.0,40841,List1B,white,woman,,TRUE,6,,,,,
null,CORRECT,,html-keyboard-response,170,601070,0.0-14.0-23.0-0.0,40841,List1B,white,woman,,,,null,,,,
1342,<p>You got 7 out of 8 right first time. Press Continue.</p>,0,html-button-response,171,602416,0.0-14.0-25.0,40841,List1B,white,woman,,,,,,,,
2262,"As you did not score 100%, the memory game will repeat. Press Continue.",0,html-button-response,172,605684,0.0-14.0-26.0-0.0,40841,List1B,white,woman,,,,,,,,
1274,"<img src='img/portrait_matrix_list1.JPG' style='width:900px;height:500px;''></img><p>If you have memorised all the portraits and names and are ready to start, press Continue.</p><p><strong>Please note: Your memory of these faces will be tested 4 times during this experiment.</strong></p>",0,html-button-response,173,607965,0.0-14.1-0.1,40841,List1B,white,woman,,,,,,,,
1966,"<img src=""portrait/WM2.jpg""style=""width:400px;height:400px;""></img>",7,html-button-response,174,610937,0.0-14.1-1.1,40841,List1B,white,woman,,TRUE,7,,,,,
null,CORRECT,,html-keyboard-response,175,612441,0.0-14.1-2.1-0.1,40841,List1B,white,woman,,,,null,,,,
1256,"<img src=""portrait/WW2.jpg""style=""width:400px;height:400px;""></img>",3,html-button-response,176,613701,0.0-14.1-4.1,40841,List1B,white,woman,,TRUE,3,,,,,
null,CORRECT,,html-keyboard-response,177,615206,0.0-14.1-5.1-0.1,40841,List1B,white,woman,,,,null,,,,
2454,"<img src=""portrait/BW1.jpg""style=""width:400px;height:400px;""></img>",0,html-button-response,178,617666,0.0-14.1-7.1,40841,List1B,white,woman,,TRUE,0,,,,,
null,CORRECT,,html-keyboard-response,179,619171,0.0-14.1-8.1-0.1,40841,List1B,white,woman,,,,null,,,,
1608,"<img src=""portrait/BW2.jpg""style=""width:400px;height:400px;""></img>",2,html-button-response,180,620784,0.0-14.1-10.1,40841,List1B,white,woman,,TRUE,2,,,,,
null,CORRECT,,html-keyboard-response,181,622289,0.0-14.1-11.1-0.1,40841,List1B,white,woman,,,,null,,,,
3874,"<img src=""portrait/WW1.jpg""style=""width:400px;height:400px;""></img>",1,html-button-response,182,626169,0.0-14.1-13.1,40841,List1B,white,woman,,TRUE,1,,,,,
null,CORRECT,,html-keyboard-response,183,627673,0.0-14.1-14.1-0.1,40841,List1B,white,woman,,,,null,,,,
2940,"<img src=""portrait/BM1.jpg""style=""width:400px;height:400px;""></img>",4,html-button-response,184,630619,0.0-14.1-16.1,40841,List1B,white,woman,,TRUE,4,,,,,
null,CORRECT,,html-keyboard-response,185,632123,0.0-14.1-17.1-0.1,40841,List1B,white,woman,,,,null,,,,
1307,"<img src=""portrait/BM2.jpg""style=""width:400px;height:400px;""></img>",5,html-button-response,186,633435,0.0-14.1-19.1,40841,List1B,white,woman,,TRUE,5,,,,,
null,CORRECT,,html-keyboard-response,187,634939,0.0-14.1-20.1-0.1,40841,List1B,white,woman,,,,null,,,,
1848,"<img src=""portrait/WM1.jpg""style=""width:400px;height:400px;""></img>",6,html-button-response,188,636792,0.0-14.1-22.1,40841,List1B,white,woman,,TRUE,6,,,,,
null,CORRECT,,html-keyboard-response,189,638296,0.0-14.1-23.1-0.1,40841,List1B,white,woman,,,,null,,,,
1384,<p>You got 8 out of 8 right first time. Press Continue.</p>,0,html-button-response,190,639684,0.0-14.1-25.1,40841,List1B,white,woman,,,,,,,,
null,"<div style=""font-size:60px;"">+</div>",,html-keyboard-response,191,641191,0.0-15.0-0.0,40841,List1B,white,woman,,,,null,,,,
null,"<img src=""stim_listB/kiss1.gif""</stim_listB>",,html-keyboard-response,192,643196,0.0-15.0-1.0,40841,List1B,white,woman,,,,null,,,,
null,is kissing,,html-keyboard-response,193,645200,0.0-15.0-2.0,40841,List1B,white,woman,,,,null,,,,
7339,,,survey-text,194,652544,0.0-15.0-3.0,40841,List1B,white,woman,,,,,"{""Q0"":""Beth is kissing fred""}","<img src=""stim_listB/kiss1.gif""</stim_listB>",is kissing,
null,"<div style=""font-size:60px;"">+</div>",,html-keyboard-response,195,653048,0.0-15.0-0.1,40841,List1B,white,woman,,,,null,,,,
null,"<img src=""stim_listB/shout1.gif""</stim_listB>",,html-keyboard-response,196,655051,0.0-15.0-1.1,40841,List1B,white,woman,,,,null,,,,
null,is shouting at,,html-keyboard-response,197,657054,0.0-15.0-2.1,40841,List1B,white,woman,,,,null,,,,
7537,,,survey-text,198,664595,0.0-15.0-3.1,40841,List1B,white,woman,,,,,"{""Q0"":""Beth is shouting at Fred ""}","<img src=""stim_listB/shout1.gif""</stim_listB>",is shouting at,
null,"<div style=""font-size:60px;"">+</div>",,html-keyboard-response,199,665101,0.0-15.0-0.2,40841,List1B,white,woman,,,,null,,,,
null,"<img src=""stim_listB/argue8.gif""</stim_listB>",,html-keyboard-response,200,667103,0.0-15.0-1.2,40841,List1B,white,woman,,,,null,,,,
null,are arguing with each other,,html-keyboard-response,201,669106,0.0-15.0-2.2,40841,List1B,white,woman,,,,null,,,,
10623,,,survey-text,202,679732,0.0-15.0-3.2,40841,List1B,white,woman,,,,,"{""Q0"":""Beth and Jane are arguing with each other ""}","<img src=""stim_listB/argue8.gif""</stim_listB>",are arguing with each other,
null,"<div style=""font-size:60px;"">+</div>",,html-keyboard-response,203,680235,0.0-15.0-0.3,40841,List1B,white,woman,,,,null,,,,
null,"<img src=""stim_listB/talk8.gif""</stim_listB>",,html-keyboard-response,204,682239,0.0-15.0-1.3,40841,List1B,white,woman,,,,null,,,,
null,are talking to each other,,html-keyboard-response,205,684242,0.0-15.0-2.3,40841,List1B,white,woman,,,,null,,,,
15454,,,survey-text,206,699699,0.0-15.0-3.3,40841,List1B,white,woman,,,,,"{""Q0"":""Kate and Beth are talking ""}","<img src=""stim_listB/talk8.gif""</stim_listB>",are talking to each other,
null,"<div style=""font-size:60px;"">+</div>",,html-keyboard-response,207,700202,0.0-15.0-0.4,40841,List1B,white,woman,,,,null,,,,
null,"<img src=""stim_listB/talk4.gif""</stim_listB>",,html-keyboard-response,208,702206,0.0-15.0-1.4,40841,List1B,white,woman,,,,null,,,,
null,are talking to each other,,html-keyboard-response,209,704209,0.0-15.0-2.4,40841,List1B,white,woman,,,,null,,,,
13354,,,survey-text,210,717567,0.0-15.0-3.4,40841,List1B,white,woman,,,,,"{""Q0"":""Beth and dave are talking to each other ""}","<img src=""stim_listB/talk4.gif""</stim_listB>",are talking to each other,
null,"<div style=""font-size:60px;"">+</div>",,html-keyboard-response,211,718070,0.0-15.0-0.5,40841,List1B,white,woman,,,,null,,,,
null,"<img src=""stim_listB/talk2.gif""</stim_listB>",,html-keyboard-response,212,720075,0.0-15.0-1.5,40841,List1B,white,woman,,,,null,,,,
null,are talking to each other,,html-keyboard-response,213,722079,0.0-15.0-2.5,40841,List1B,white,woman,,,,null,,,,
11779,,,survey-text,214,733862,0.0-15.0-3.5,40841,List1B,white,woman,,,,,"{""Q0"":""Mike and Beth are talking to each other ""}","<img src=""stim_listB/talk2.gif""</stim_listB>",are talking to each other,
null,"<div style=""font-size:60px;"">+</div>",,html-keyboard-response,215,734364,0.0-15.0-0.6,40841,List1B,white,woman,,,,null,,,,
null,"<img src=""stim_listB/marry7.gif""</stim_listB>",,html-keyboard-response,216,736370,0.0-15.0-1.6,40841,List1B,white,woman,,,,null,,,,
null,is marrying,,html-keyboard-response,217,738374,0.0-15.0-2.6,40841,List1B,white,woman,,,,null,,,,
12854,,,survey-text,218,751234,0.0-15.0-3.6,40841,List1B,white,woman,,,,,"{""Q0"":""Kate and Beth are talking to each other ""}","<img src=""stim_listB/marry7.gif""</stim_listB>",is marrying,
null,"<div style=""font-size:60px;"">+</div>",,html-keyboard-response,219,751737,0.0-15.0-0.7,40841,List1B,white,woman,,,,null,,,,
null,"<img src=""stim_listB/fight4.gif""</stim_listB>",,html-keyboard-response,220,753741,0.0-15.0-1.7,40841,List1B,white,woman,,,,null,,,,
null,are fighting each other,,html-keyboard-response,221,755745,0.0-15.0-2.7,40841,List1B,white,woman,,,,null,,,,
11805,,,survey-text,222,767554,0.0-15.0-3.7,40841,List1B,white,woman,,,,,"{""Q0"":""Ruth and like are fighting each other ""}","<img src=""stim_listB/fight4.gif""</stim_listB>",are fighting each other,
null,"<div style=""font-size:60px;"">+</div>",,html-keyboard-response,223,768058,0.0-15.0-0.8,40841,List1B,white,woman,,,,null,,,,
null,"<img src=""stim_listB/touch1.gif""</stim_listB>",,html-keyboard-response,224,770062,0.0-15.0-1.8,40841,List1B,white,woman,,,,null,,,,
null,is touching,,html-keyboard-response,225,772066,0.0-15.0-2.8,40841,List1B,white,woman,,,,null,,,,
6352,,,survey-text,226,778423,0.0-15.0-3.8,40841,List1B,white,woman,,,,,"{""Q0"":""Late is touching mike ""}","<img src=""stim_listB/touch1.gif""</stim_listB>",is touching,
null,"<div style=""font-size:60px;"">+</div>",,html-keyboard-response,227,778927,0.0-15.0-0.9,40841,List1B,white,woman,,,,null,,,,
null,"<img src=""stim_listB/marry4.gif""</stim_listB>",,html-keyboard-response,228,780929,0.0-15.0-1.9,40841,List1B,white,woman,,,,null,,,,
null,are marrying each other,,html-keyboard-response,229,782933,0.0-15.0-2.9,40841,List1B,white,woman,,,,null,,,,
11870,,,survey-text,230,794807,0.0-15.0-3.9,40841,List1B,white,woman,,,,,"{""Q0"":""Dave and Jane are marrying each other ""}","<img src=""stim_listB/marry4.gif""</stim_listB>",are marrying each other,
null,"<div style=""font-size:60px;"">+</div>",,html-keyboard-response,231,795310,0.0-15.0-0.10,40841,List1B,white,woman,,,,null,,,,
null,"<img src=""stim_listB/meet2.gif""</stim_listB>",,html-keyboard-response,232,797314,0.0-15.0-1.10,40841,List1B,white,woman,,,,null,,,,
null,are meeting each other,,html-keyboard-response,233,799318,0.0-15.0-2.10,40841,List1B,white,woman,,,,null,,,,
11689,,,survey-text,234,811011,0.0-15.0-3.10,40841,List1B,white,woman,,,,,"{""Q0"":""Fred and Beth are meeting each other ""}","<img src=""stim_listB/meet2.gif""</stim_listB>",are meeting each other,
null,"<div style=""font-size:60px;"">+</div>",,html-keyboard-response,235,811517,0.0-15.0-0.11,40841,List1B,white,woman,,,,null,,,,
null,"<img src=""stim_listB/touch6.gif""</stim_listB>",,html-keyboard-response,236,813521,0.0-15.0-1.11,40841,List1B,white,woman,,,,null,,,,
null,are touching each other,,html-keyboard-response,237,815524,0.0-15.0-2.11,40841,List1B,white,woman,,,,null,,,,
11768,,,survey-text,238,827296,0.0-15.0-3.11,40841,List1B,white,woman,,,,,"{""Q0"":""Luke and Fred are touching each other ""}","<img src=""stim_listB/touch6.gif""</stim_listB>",are touching each other,
null,"<div style=""font-size:60px;"">+</div>",,html-keyboard-response,239,827799,0.0-15.0-0.12,40841,List1B,white,woman,,,,null,,,,
null,"<img src=""stim_listB/shout5.gif""</stim_listB>",,html-keyboard-response,240,829802,0.0-15.0-1.12,40841,List1B,white,woman,,,,null,,,,
null,is shouting at,,html-keyboard-response,241,831806,0.0-15.0-2.12,40841,List1B,white,woman,,,,null,,,,
7704,,,survey-text,242,839513,0.0-15.0-3.12,40841,List1B,white,woman,,,,,"{""Q0"":""Fred is shouting at Luke ""}","<img src=""stim_listB/shout5.gif""</stim_listB>",is shouting at,
null,"<div style=""font-size:60px;"">+</div>",,html-keyboard-response,243,840016,0.0-15.0-0.13,40841,List1B,white,woman,,,,null,,,,
null,"<img src=""stim_listB/hug8.gif""</stim_listB>",,html-keyboard-response,244,842020,0.0-15.0-1.13,40841,List1B,white,woman,,,,null,,,,
null,are hugging each other,,html-keyboard-response,245,844024,0.0-15.0-2.13,40841,List1B,white,woman,,,,null,,,,
11171,,,survey-text,246,855199,0.0-15.0-3.13,40841,List1B,white,woman,,,,,"{""Q0"":""Kate is hugging Jane ""}","<img src=""stim_listB/hug8.gif""</stim_listB>",are hugging each other,
null,"<div style=""font-size:60px;"">+</div>",,html-keyboard-response,247,855702,0.0-15.0-0.14,40841,List1B,white,woman,,,,null,,,,
null,"<img src=""stim_listB/touch4.gif""</stim_listB>",,html-keyboard-response,248,857706,0.0-15.0-1.14,40841,List1B,white,woman,,,,null,,,,
null,are touching each other,,html-keyboard-response,249,859710,0.0-15.0-2.14,40841,List1B,white,woman,,,,null,,,,
10273,,,survey-text,250,869985,0.0-15.0-3.14,40841,List1B,white,woman,,,,,"{""Q0"":""Luke and Beth are touching each other ""}","<img src=""stim_listB/touch4.gif""</stim_listB>",are touching each other,
null,"<div style=""font-size:60px;"">+</div>",,html-keyboard-response,251,870488,0.0-15.0-0.15,40841,List1B,white,woman,,,,null,,,,
null,"<img src=""stim_listB/shout8.gif""</stim_listB>",,html-keyboard-response,252,872493,0.0-15.0-1.15,40841,List1B,white,woman,,,,null,,,,
null,are shouting at each other,,html-keyboard-response,253,874497,0.0-15.0-2.15,40841,List1B,white,woman,,,,null,,,,
11199,,,survey-text,254,885700,0.0-15.0-3.15,40841,List1B,white,woman,,,,,"{""Q0"":""Kate and Jane are shouting at each other ""}","<img src=""stim_listB/shout8.gif""</stim_listB>",are shouting at each other,
null,"<div style=""font-size:60px;"">+</div>",,html-keyboard-response,255,886203,0.0-15.0-0.16,40841,List1B,white,woman,,,,null,,,,
null,"<img src=""stim_listB/talk1.gif""</stim_listB>",,html-keyboard-response,256,888207,0.0-15.0-1.16,40841,List1B,white,woman,,,,null,,,,
null,is talking to,,html-keyboard-response,257,890211,0.0-15.0-2.16,40841,List1B,white,woman,,,,null,,,,
5196,,,survey-text,258,895411,0.0-15.0-3.16,40841,List1B,white,woman,,,,,"{""Q0"":""""}","<img src=""stim_listB/talk1.gif""</stim_listB>",is talking to,
null,"<div style=""font-size:60px;"">+</div>",,html-keyboard-response,259,895914,0.0-15.0-0.17,40841,List1B,white,woman,,,,null,,,,
null,"<img src=""stim_listB/hug7.gif""</stim_listB>",,html-keyboard-response,260,897918,0.0-15.0-1.17,40841,List1B,white,woman,,,,null,,,,
null,is hugging,,html-keyboard-response,261,899922,0.0-15.0-2.17,40841,List1B,white,woman,,,,null,,,,
15580,,,survey-text,262,915506,0.0-15.0-3.17,40841,List1B,white,woman,,,,,"{""Q0"":""Beth is hugging Ruth ""}","<img src=""stim_listB/hug7.gif""</stim_listB>",is hugging,
null,"<div style=""font-size:60px;"">+</div>",,html-keyboard-response,263,916009,0.0-15.0-0.18,40841,List1B,white,woman,,,,null,,,,
null,"<img src=""stim_listB/meet3.gif""</stim_listB>",,html-keyboard-response,264,918012,0.0-15.0-1.18,40841,List1B,white,woman,,,,null,,,,
null,is meeting,,html-keyboard-response,265,920016,0.0-15.0-2.18,40841,List1B,white,woman,,,,null,,,,
6472,,,survey-text,266,926492,0.0-15.0-3.18,40841,List1B,white,woman,,,,,"{""Q0"":""Jane is meeting dave ""}","<img src=""stim_listB/meet3.gif""</stim_listB>",is meeting,
null,"<div style=""font-size:60px;"">+</div>",,html-keyboard-response,267,926995,0.0-15.0-0.19,40841,List1B,white,woman,,,,null,,,,
null,"<img src=""stim_listB/fight6.gif""</stim_listB>",,html-keyboard-response,268,928999,0.0-15.0-1.19,40841,List1B,white,woman,,,,null,,,,
null,are fighting each other,,html-keyboard-response,269,931003,0.0-15.0-2.19,40841,List1B,white,woman,,,,null,,,,
10833,,,survey-text,270,941840,0.0-15.0-3.19,40841,List1B,white,woman,,,,,"{""Q0"":""Fred and Luke are fighting each other ""}","<img src=""stim_listB/fight6.gif""</stim_listB>",are fighting each other,
2574,"<img src='img/portrait_matrix_list1.JPG' style='width:900px;height:500px;''></img><p>If you have memorised all the portraits and names and are ready to start, press Continue.</p><p><strong>Please note: Your memory of these faces will be tested 4 times during this experiment.</strong></p>",0,html-button-response,271,944418,0.0-16.0-0.0,40841,List1B,white,woman,,,,,,,,
7143,"<img src=""portrait/BW2.jpg""style=""width:400px;height:400px;""></img>",2,html-button-response,272,952567,0.0-16.0-1.0,40841,List1B,white,woman,,TRUE,2,,,,,
null,CORRECT,,html-keyboard-response,273,954071,0.0-16.0-2.0-0.0,40841,List1B,white,woman,,,,null,,,,
2395,"<img src=""portrait/WM1.jpg""style=""width:400px;height:400px;""></img>",6,html-button-response,274,956471,0.0-16.0-4.0,40841,List1B,white,woman,,TRUE,6,,,,,
null,CORRECT,,html-keyboard-response,275,957987,0.0-16.0-5.0-0.0,40841,List1B,white,woman,,,,null,,,,
2290,"<img src=""portrait/WW2.jpg""style=""width:400px;height:400px;""></img>",3,html-button-response,276,960282,0.0-16.0-7.0,40841,List1B,white,woman,,TRUE,3,,,,,
null,CORRECT,,html-keyboard-response,277,961786,0.0-16.0-8.0-0.0,40841,List1B,white,woman,,,,null,,,,
2246,"<img src=""portrait/BW1.jpg""style=""width:400px;height:400px;""></img>",0,html-button-response,278,964038,0.0-16.0-10.0,40841,List1B,white,woman,,TRUE,0,,,,,
null,CORRECT,,html-keyboard-response,279,965545,0.0-16.0-11.0-0.0,40841,List1B,white,woman,,,,null,,,,
2684,"<img src=""portrait/BM2.jpg""style=""width:400px;height:400px;""></img>",5,html-button-response,280,968235,0.0-16.0-13.0,40841,List1B,white,woman,,TRUE,5,,,,,
null,CORRECT,,html-keyboard-response,281,969739,0.0-16.0-14.0-0.0,40841,List1B,white,woman,,,,null,,,,
2776,"<img src=""portrait/BM1.jpg""style=""width:400px;height:400px;""></img>",4,html-button-response,282,972517,0.0-16.0-16.0,40841,List1B,white,woman,,TRUE,4,,,,,
null,CORRECT,,html-keyboard-response,283,974021,0.0-16.0-17.0-0.0,40841,List1B,white,woman,,,,null,,,,
1365,"<img src=""portrait/WM2.jpg""style=""width:400px;height:400px;""></img>",7,html-button-response,284,975393,0.0-16.0-19.0,40841,List1B,white,woman,,TRUE,7,,,,,
null,CORRECT,,html-keyboard-response,285,976898,0.0-16.0-20.0-0.0,40841,List1B,white,woman,,,,null,,,,
2869,"<img src=""portrait/WW1.jpg""style=""width:400px;height:400px;""></img>",1,html-button-response,286,979773,0.0-16.0-22.0,40841,List1B,white,woman,,TRUE,1,,,,,
null,CORRECT,,html-keyboard-response,287,981277,0.0-16.0-23.0-0.0,40841,List1B,white,woman,,,,null,,,,
1608,<p>You got 8 out of 8 right first time. Press Continue.</p>,0,html-button-response,288,982889,0.0-16.0-25.0,40841,List1B,white,woman,,,,,,,,
null,"<div style=""font-size:60px;"">+</div>",,html-keyboard-response,289,984395,0.0-17.0-0.0,40841,List1B,white,woman,,,,null,,,,
null,"<img src=""stim_listB/kiss7.gif""</stim_listB>",,html-keyboard-response,290,986400,0.0-17.0-1.0,40841,List1B,white,woman,,,,null,,,,
null,is kissing,,html-keyboard-response,291,988403,0.0-17.0-2.0,40841,List1B,white,woman,,,,null,,,,
7056,,,survey-text,292,995461,0.0-17.0-3.0,40841,List1B,white,woman,,,,,"{""Q0"":""Beth is kissing Ruth ""}","<img src=""stim_listB/kiss7.gif""</stim_listB>",is kissing,
null,"<div style=""font-size:60px;"">+</div>",,html-keyboard-response,293,995965,0.0-17.0-0.1,40841,List1B,white,woman,,,,null,,,,
null,"<img src=""stim_listB/fight1.gif""</stim_listB>",,html-keyboard-response,294,997969,0.0-17.0-1.1,40841,List1B,white,woman,,,,null,,,,
null,is fighting,,html-keyboard-response,295,999973,0.0-17.0-2.1,40841,List1B,white,woman,,,,null,,,,
7774,,,survey-text,296,1007750,0.0-17.0-3.1,40841,List1B,white,woman,,,,,"{""Q0"":""Kate is fighting mike ""}","<img src=""stim_listB/fight1.gif""</stim_listB>",is fighting,
null,"<div style=""font-size:60px;"">+</div>",,html-keyboard-response,297,1008253,0.0-17.0-0.2,40841,List1B,white,woman,,,,null,,,,
null,"<img src=""stim_listB/touch2.gif""</stim_listB>",,html-keyboard-response,298,1010257,0.0-17.0-1.2,40841,List1B,white,woman,,,,null,,,,
null,are touching each other,,html-keyboard-response,299,1012261,0.0-17.0-2.2,40841,List1B,white,woman,,,,null,,,,
10116,,,survey-text,300,1022382,0.0-17.0-3.2,40841,List1B,white,woman,,,,,"{""Q0"":""Fred and Beth are touching each other ""}","<img src=""stim_listB/touch2.gif""</stim_listB>",are touching each other,
null,"<div style=""font-size:60px;"">+</div>",,html-keyboard-response,301,1022885,0.0-17.0-0.3,40841,List1B,white,woman,,,,null,,,,
null,"<img src=""stim_listB/kiss4.gif""</stim_listB>",,html-keyboard-response,302,1024888,0.0-17.0-1.3,40841,List1B,white,woman,,,,null,,,,
null,are kissing each other,,html-keyboard-response,303,1026892,0.0-17.0-2.3,40841,List1B,white,woman,,,,null,,,,
8654,,,survey-text,304,1035549,0.0-17.0-3.3,40841,List1B,white,woman,,,,,"{""Q0"":""Jane and dave are kissing each other ""}","<img src=""stim_listB/kiss4.gif""</stim_listB>",are kissing each other,
null,"<div style=""font-size:60px;"">+</div>",,html-keyboard-response,305,1036053,0.0-17.0-0.4,40841,List1B,white,woman,,,,null,,,,
null,"<img src=""stim_listB/talk5.gif""</stim_listB>",,html-keyboard-response,306,1038056,0.0-17.0-1.4,40841,List1B,white,woman,,,,null,,,,
null,is talking to,,html-keyboard-response,307,1040059,0.0-17.0-2.4,40841,List1B,white,woman,,,,null,,,,
9257,,,survey-text,308,1049320,0.0-17.0-3.4,40841,List1B,white,woman,,,,,"{""Q0"":""Dave is talking to Fred ""}","<img src=""stim_listB/talk5.gif""</stim_listB>",is talking to,
null,"<div style=""font-size:60px;"">+</div>",,html-keyboard-response,309,1049823,0.0-17.0-0.5,40841,List1B,white,woman,,,,null,,,,
null,"<img src=""stim_listB/argue1.gif""</stim_listB>",,html-keyboard-response,310,1051826,0.0-17.0-1.5,40841,List1B,white,woman,,,,null,,,,
null,is arguing with,,html-keyboard-response,311,1053832,0.0-17.0-2.5,40841,List1B,white,woman,,,,null,,,,
8541,,,survey-text,312,1062374,0.0-17.0-3.5,40841,List1B,white,woman,,,,,"{""Q0"":""Beth is arguing with mike ""}","<img src=""stim_listB/argue1.gif""</stim_listB>",is arguing with,
null,"<div style=""font-size:60px;"">+</div>",,html-keyboard-response,313,1062876,0.0-17.0-0.6,40841,List1B,white,woman,,,,null,,,,
null,"<img src=""stim_listB/dance6.gif""</stim_listB>",,html-keyboard-response,314,1064880,0.0-17.0-1.6,40841,List1B,white,woman,,,,null,,,,
null,are dancing with each other,,html-keyboard-response,315,1066885,0.0-17.0-2.6,40841,List1B,white,woman,,,,null,,,,
10452,,,survey-text,316,1077341,0.0-17.0-3.6,40841,List1B,white,woman,,,,,"{""Q0"":""Mike and like are dancing with each other ""}","<img src=""stim_listB/dance6.gif""</stim_listB>",are dancing with each other,
null,"<div style=""font-size:60px;"">+</div>",,html-keyboard-response,317,1077843,0.0-17.0-0.7,40841,List1B,white,woman,,,,null,,,,
null,"<img src=""stim_listB/shout6.gif""</stim_listB>",,html-keyboard-response,318,1079847,0.0-17.0-1.7,40841,List1B,white,woman,,,,null,,,,
null,are shouting at each other,,html-keyboard-response,319,1081852,0.0-17.0-2.7,40841,List1B,white,woman,,,,null,,,,
9199,,,survey-text,320,1091055,0.0-17.0-3.7,40841,List1B,white,woman,,,,,"{""Q0"":""Mike and dave are shouting at each other ""}","<img src=""stim_listB/shout6.gif""</stim_listB>",are shouting at each other,
null,"<div style=""font-size:60px;"">+</div>",,html-keyboard-response,321,1091558,0.0-17.0-0.8,40841,List1B,white,woman,,,,null,,,,
null,"<img src=""stim_listB/fight3.gif""</stim_listB>",,html-keyboard-response,322,1093561,0.0-17.0-1.8,40841,List1B,white,woman,,,,null,,,,
null,is fighting,,html-keyboard-response,323,1095566,0.0-17.0-2.8,40841,List1B,white,woman,,,,null,,,,
6879,,,survey-text,324,1102449,0.0-17.0-3.8,40841,List1B,white,woman,,,,,"{""Q0"":""Jane is fighting dave ""}","<img src=""stim_listB/fight3.gif""</stim_listB>",is fighting,
null,"<div style=""font-size:60px;"">+</div>",,html-keyboard-response,325,1102951,0.0-17.0-0.9,40841,List1B,white,woman,,,,null,,,,
null,"<img src=""stim_listB/meet4.gif""</stim_listB>",,html-keyboard-response,326,1104955,0.0-17.0-1.9,40841,List1B,white,woman,,,,null,,,,
null,are meeting each other,,html-keyboard-response,327,1106959,0.0-17.0-2.9,40841,List1B,white,woman,,,,null,,,,
16353,,,survey-text,328,1123316,0.0-17.0-3.9,40841,List1B,white,woman,,,,,"{""Q0"":""Ruth and Luke are meeting each other ""}","<img src=""stim_listB/meet4.gif""</stim_listB>",are meeting each other,
null,"<div style=""font-size:60px;"">+</div>",,html-keyboard-response,329,1123819,0.0-17.0-0.10,40841,List1B,white,woman,,,,null,,,,
null,"<img src=""stim_listB/kiss3.gif""</stim_listB>",,html-keyboard-response,330,1125822,0.0-17.0-1.10,40841,List1B,white,woman,,,,null,,,,
null,is kissing,,html-keyboard-response,331,1127826,0.0-17.0-2.10,40841,List1B,white,woman,,,,null,,,,
10088,,,survey-text,332,1137917,0.0-17.0-3.10,40841,List1B,white,woman,,,,,"{""Q0"":""Ruth is kissing luke ""}","<img src=""stim_listB/kiss3.gif""</stim_listB>",is kissing,
null,"<div style=""font-size:60px;"">+</div>",,html-keyboard-response,333,1138420,0.0-17.0-0.11,40841,List1B,white,woman,,,,null,,,,
null,"<img src=""stim_listB/touch8.gif""</stim_listB>",,html-keyboard-response,334,1140424,0.0-17.0-1.11,40841,List1B,white,woman,,,,null,,,,
null,are touching each other,,html-keyboard-response,335,1142429,0.0-17.0-2.11,40841,List1B,white,woman,,,,null,,,,
10410,,,survey-text,336,1152842,0.0-17.0-3.11,40841,List1B,white,woman,,,,,"{""Q0"":""Ruth and Beth are touching each other ""}","<img src=""stim_listB/touch8.gif""</stim_listB>",are touching each other,
null,"<div style=""font-size:60px;"">+</div>",,html-keyboard-response,337,1153344,0.0-17.0-0.12,40841,List1B,white,woman,,,,null,,,,
null,"<img src=""stim_listB/hug3.gif""</stim_listB>",,html-keyboard-response,338,1155348,0.0-17.0-1.12,40841,List1B,white,woman,,,,null,,,,
null,is hugging,,html-keyboard-response,339,1157352,0.0-17.0-2.12,40841,List1B,white,woman,,,,null,,,,
10161,,,survey-text,340,1167518,0.0-17.0-3.12,40841,List1B,white,woman,,,,,"{""Q0"":""Ruth is hugging luke ""}","<img src=""stim_listB/hug3.gif""</stim_listB>",is hugging,
null,"<div style=""font-size:60px;"">+</div>",,html-keyboard-response,341,1168021,0.0-17.0-0.13,40841,List1B,white,woman,,,,null,,,,
null,"<img src=""stim_listB/kiss2.gif""</stim_listB>",,html-keyboard-response,342,1170024,0.0-17.0-1.13,40841,List1B,white,woman,,,,null,,,,
null,are kissing each other,,html-keyboard-response,343,1172028,0.0-17.0-2.13,40841,List1B,white,woman,,,,null,,,,
11052,,,survey-text,344,1183085,0.0-17.0-3.13,40841,List1B,white,woman,,,,,"{""Q0"":""Mike and Kate are kissing each other ""}","<img src=""stim_listB/kiss2.gif""</stim_listB>",are kissing each other,
null,"<div style=""font-size:60px;"">+</div>",,html-keyboard-response,345,1183588,0.0-17.0-0.14,40841,List1B,white,woman,,,,null,,,,
null,"<img src=""stim_listB/kiss6.gif""</stim_listB>",,html-keyboard-response,346,1185592,0.0-17.0-1.14,40841,List1B,white,woman,,,,null,,,,
null,are kissing each other,,html-keyboard-response,347,1187595,0.0-17.0-2.14,40841,List1B,white,woman,,,,null,,,,
8472,,,survey-text,348,1196071,0.0-17.0-3.14,40841,List1B,white,woman,,,,,"{""Q0"":""Mike and dave are kissing each other ""}","<img src=""stim_listB/kiss6.gif""</stim_listB>",are kissing each other,
null,"<div style=""font-size:60px;"">+</div>",,html-keyboard-response,349,1196574,0.0-17.0-0.15,40841,List1B,white,woman,,,,null,,,,
null,"<img src=""stim_listB/meet7.gif""</stim_listB>",,html-keyboard-response,350,1198578,0.0-17.0-1.15,40841,List1B,white,woman,,,,null,,,,
null,is meeting,,html-keyboard-response,351,1200582,0.0-17.0-2.15,40841,List1B,white,woman,,,,null,,,,
6119,,,survey-text,352,1206705,0.0-17.0-3.15,40841,List1B,white,woman,,,,,"{""Q0"":""Jane is meeting kate ""}","<img src=""stim_listB/meet7.gif""</stim_listB>",is meeting,
null,"<div style=""font-size:60px;"">+</div>",,html-keyboard-response,353,1207208,0.0-17.0-0.16,40841,List1B,white,woman,,,,null,,,,
null,"<img src=""stim_listB/kiss8.gif""</stim_listB>",,html-keyboard-response,354,1209213,0.0-17.0-1.16,40841,List1B,white,woman,,,,null,,,,
null,are kissing each other,,html-keyboard-response,355,1211217,0.0-17.0-2.16,40841,List1B,white,woman,,,,null,,,,
14757,,,survey-text,356,1225977,0.0-17.0-3.16,40841,List1B,white,woman,,,,,"{""Q0"":""Kate and Jane are kissing each other ""}","<img src=""stim_listB/kiss8.gif""</stim_listB>",are kissing each other,
null,"<div style=""font-size:60px;"">+</div>",,html-keyboard-response,357,1226479,0.0-17.0-0.17,40841,List1B,white,woman,,,,null,,,,
null,"<img src=""stim_listB/meet1.gif""</stim_listB>",,html-keyboard-response,358,1228483,0.0-17.0-1.17,40841,List1B,white,woman,,,,null,,,,
null,is meeting,,html-keyboard-response,359,1230486,0.0-17.0-2.17,40841,List1B,white,woman,,,,null,,,,
6533,,,survey-text,360,1237023,0.0-17.0-3.17,40841,List1B,white,woman,,,,,"{""Q0"":""Kate is meeting mike ""}","<img src=""stim_listB/meet1.gif""</stim_listB>",is meeting,
null,"<div style=""font-size:60px;"">+</div>",,html-keyboard-response,361,1237526,0.0-17.0-0.18,40841,List1B,white,woman,,,,null,,,,
null,"<img src=""stim_listB/argue4.gif""</stim_listB>",,html-keyboard-response,362,1239531,0.0-17.0-1.18,40841,List1B,white,woman,,,,null,,,,
null,are arguing with each other,,html-keyboard-response,363,1241536,0.0-17.0-2.18,40841,List1B,white,woman,,,,null,,,,
11924,,,survey-text,364,1253463,0.0-17.0-3.18,40841,List1B,white,woman,,,,,"{""Q0"":""Luke and Jane are arguing with each other ""}","<img src=""stim_listB/argue4.gif""</stim_listB>",are arguing with each other,
null,"<div style=""font-size:60px;"">+</div>",,html-keyboard-response,365,1253965,0.0-17.0-0.19,40841,List1B,white,woman,,,,null,,,,
null,"<img src=""stim_listB/meet6.gif""</stim_listB>",,html-keyboard-response,366,1255971,0.0-17.0-1.19,40841,List1B,white,woman,,,,null,,,,
null,are meeting each other,,html-keyboard-response,367,1257975,0.0-17.0-2.19,40841,List1B,white,woman,,,,null,,,,
10749,,,survey-text,368,1268728,0.0-17.0-3.19,40841,List1B,white,woman,,,,,"{""Q0"":""Fred and Luke are meeting each other ""}","<img src=""stim_listB/meet6.gif""</stim_listB>",are meeting each other,
2362,"<img src='img/portrait_matrix_list1.JPG' style='width:900px;height:500px;''></img><p>If you have memorised all the portraits and names and are ready to start, press Continue.</p><p><strong>Please note: Your memory of these faces will be tested 4 times during this experiment.</strong></p>",0,html-button-response,369,1271095,0.0-18.0-0.0,40841,List1B,white,woman,,,,,,,,
2045,"<img src=""portrait/WM1.jpg""style=""width:400px;height:400px;""></img>",6,html-button-response,370,1274146,0.0-18.0-1.0,40841,List1B,white,woman,,TRUE,6,,,,,
null,CORRECT,,html-keyboard-response,371,1275651,0.0-18.0-2.0-0.0,40841,List1B,white,woman,,,,null,,,,
2507,"<img src=""portrait/BW1.jpg""style=""width:400px;height:400px;""></img>",0,html-button-response,372,1278163,0.0-18.0-4.0,40841,List1B,white,woman,,TRUE,0,,,,,
null,CORRECT,,html-keyboard-response,373,1279667,0.0-18.0-5.0-0.0,40841,List1B,white,woman,,,,null,,,,
2007,"<img src=""portrait/WM2.jpg""style=""width:400px;height:400px;""></img>",7,html-button-response,374,1281680,0.0-18.0-7.0,40841,List1B,white,woman,,TRUE,7,,,,,
null,CORRECT,,html-keyboard-response,375,1283184,0.0-18.0-8.0-0.0,40841,List1B,white,woman,,,,null,,,,
2407,"<img src=""portrait/BM1.jpg""style=""width:400px;height:400px;""></img>",4,html-button-response,376,1285597,0.0-18.0-10.0,40841,List1B,white,woman,,TRUE,4,,,,,
null,CORRECT,,html-keyboard-response,377,1287102,0.0-18.0-11.0-0.0,40841,List1B,white,woman,,,,null,,,,
1687,"<img src=""portrait/BW2.jpg""style=""width:400px;height:400px;""></img>",2,html-button-response,378,1288795,0.0-18.0-13.0,40841,List1B,white,woman,,TRUE,2,,,,,
null,CORRECT,,html-keyboard-response,379,1290299,0.0-18.0-14.0-0.0,40841,List1B,white,woman,,,,null,,,,
2524,"<img src=""portrait/WW1.jpg""style=""width:400px;height:400px;""></img>",1,html-button-response,380,1292829,0.0-18.0-16.0,40841,List1B,white,woman,,TRUE,1,,,,,
null,CORRECT,,html-keyboard-response,381,1294332,0.0-18.0-17.0-0.0,40841,List1B,white,woman,,,,null,,,,
1927,"<img src=""portrait/BM2.jpg""style=""width:400px;height:400px;""></img>",5,html-button-response,382,1296266,0.0-18.0-19.0,40841,List1B,white,woman,,TRUE,5,,,,,
null,CORRECT,,html-keyboard-response,383,1297770,0.0-18.0-20.0-0.0,40841,List1B,white,woman,,,,null,,,,
1987,"<img src=""portrait/WW2.jpg""style=""width:400px;height:400px;""></img>",3,html-button-response,384,1299762,0.0-18.0-22.0,40841,List1B,white,woman,,TRUE,3,,,,,
null,CORRECT,,html-keyboard-response,385,1301266,0.0-18.0-23.0-0.0,40841,List1B,white,woman,,,,null,,,,
1559,<p>You got 8 out of 8 right first time. Press Continue.</p>,0,html-button-response,386,1302829,0.0-18.0-25.0,40841,List1B,white,woman,,,,,,,,
null,"<div style=""font-size:60px;"">+</div>",,html-keyboard-response,387,1304336,0.0-19.0-0.0,40841,List1B,white,woman,,,,null,,,,
null,"<img src=""stim_listB/talk6.gif""</stim_listB>",,html-keyboard-response,388,1306341,0.0-19.0-1.0,40841,List1B,white,woman,,,,null,,,,
null,are talking to each other,,html-keyboard-response,389,1308344,0.0-19.0-2.0,40841,List1B,white,woman,,,,null,,,,
13307,,,survey-text,390,1321653,0.0-19.0-3.0,40841,List1B,white,woman,,,,,"{""Q0"":""Mike and Luke are talking to each other ""}","<img src=""stim_listB/talk6.gif""</stim_listB>",are talking to each other,
null,"<div style=""font-size:60px;"">+</div>",,html-keyboard-response,391,1322157,0.0-19.0-0.1,40841,List1B,white,woman,,,,null,,,,
null,"<img src=""stim_listB/dance3.gif""</stim_listB>",,html-keyboard-response,392,1324162,0.0-19.0-1.1,40841,List1B,white,woman,,,,null,,,,
null,is dancing with,,html-keyboard-response,393,1326166,0.0-19.0-2.1,40841,List1B,white,woman,,,,null,,,,
7384,,,survey-text,394,1333553,0.0-19.0-3.1,40841,List1B,white,woman,,,,,"{""Q0"":""Jane is dancing with Luke ""}","<img src=""stim_listB/dance3.gif""</stim_listB>",is dancing with,
null,"<div style=""font-size:60px;"">+</div>",,html-keyboard-response,395,1334056,0.0-19.0-0.2,40841,List1B,white,woman,,,,null,,,,
null,"<img src=""stim_listB/fight7.gif""</stim_listB>",,html-keyboard-response,396,1336060,0.0-19.0-1.2,40841,List1B,white,woman,,,,null,,,,
null,is fighting,,html-keyboard-response,397,1338064,0.0-19.0-2.2,40841,List1B,white,woman,,,,null,,,,
7041,,,survey-text,398,1345109,0.0-19.0-3.2,40841,List1B,white,woman,,,,,"{""Q0"":""Kate is fighting Jane ""}","<img src=""stim_listB/fight7.gif""</stim_listB>",is fighting,
null,"<div style=""font-size:60px;"">+</div>",,html-keyboard-response,399,1345612,0.0-19.0-0.3,40841,List1B,white,woman,,,,null,,,,
null,"<img src=""stim_listB/dance4.gif""</stim_listB>",,html-keyboard-response,400,1347616,0.0-19.0-1.3,40841,List1B,white,woman,,,,null,,,,
null,are dancing with each other,,html-keyboard-response,401,1349620,0.0-19.0-2.3,40841,List1B,white,woman,,,,null,,,,
11103,,,survey-text,402,1360726,0.0-19.0-3.3,40841,List1B,white,woman,,,,,"{""Q0"":""Dave and Ruth are dancing with each other ""}","<img src=""stim_listB/dance4.gif""</stim_listB>",are dancing with each other,
null,"<div style=""font-size:60px;"">+</div>",,html-keyboard-response,403,1361229,0.0-19.0-0.4,40841,List1B,white,woman,,,,null,,,,
null,"<img src=""stim_listB/argue6.gif""</stim_listB>",,html-keyboard-response,404,1363233,0.0-19.0-1.4,40841,List1B,white,woman,,,,null,,,,
null,are arguing with each other,,html-keyboard-response,405,1365237,0.0-19.0-2.4,40841,List1B,white,woman,,,,null,,,,
9250,,,survey-text,406,1374491,0.0-19.0-3.4,40841,List1B,white,woman,,,,,"{""Q0"":""Fred and dave are arguing with each other ""}","<img src=""stim_listB/argue6.gif""</stim_listB>",are arguing with each other,
null,"<div style=""font-size:60px;"">+</div>",,html-keyboard-response,407,1374994,0.0-19.0-0.5,40841,List1B,white,woman,,,,null,,,,
null,"<img src=""stim_listB/marry8.gif""</stim_listB>",,html-keyboard-response,408,1376999,0.0-19.0-1.5,40841,List1B,white,woman,,,,null,,,,
null,are marrying each other,,html-keyboard-response,409,1379002,0.0-19.0-2.5,40841,List1B,white,woman,,,,null,,,,
12105,,,survey-text,410,1391112,0.0-19.0-3.5,40841,List1B,white,woman,,,,,"{""Q0"":""Jane and Beth are marrying each other ""}","<img src=""stim_listB/marry8.gif""</stim_listB>",are marrying each other,
null,"<div style=""font-size:60px;"">+</div>",,html-keyboard-response,411,1391616,0.0-19.0-0.6,40841,List1B,white,woman,,,,null,,,,
null,"<img src=""stim_listB/dance7.gif""</stim_listB>",,html-keyboard-response,412,1393619,0.0-19.0-1.6,40841,List1B,white,woman,,,,null,,,,
null,is dancing with,,html-keyboard-response,413,1395624,0.0-19.0-2.6,40841,List1B,white,woman,,,,null,,,,
7149,,,survey-text,414,1402776,0.0-19.0-3.6,40841,List1B,white,woman,,,,,"{""Q0"":""Jane is dancing with Beth ""}","<img src=""stim_listB/dance7.gif""</stim_listB>",is dancing with,
null,"<div style=""font-size:60px;"">+</div>",,html-keyboard-response,415,1403279,0.0-19.0-0.7,40841,List1B,white,woman,,,,null,,,,
null,"<img src=""stim_listB/hug6.gif""</stim_listB>",,html-keyboard-response,416,1405283,0.0-19.0-1.7,40841,List1B,white,woman,,,,null,,,,
null,are hugging each other,,html-keyboard-response,417,1407287,0.0-19.0-2.7,40841,List1B,white,woman,,,,null,,,,
11458,,,survey-text,418,1418748,0.0-19.0-3.7,40841,List1B,white,woman,,,,,"{""Q0"":""Mike and dave are hugging each other ""}","<img src=""stim_listB/hug6.gif""</stim_listB>",are hugging each other,
null,"<div style=""font-size:60px;"">+</div>",,html-keyboard-response,419,1419251,0.0-19.0-0.8,40841,List1B,white,woman,,,,null,,,,
null,"<img src=""stim_listB/dance2.gif""</stim_listB>",,html-keyboard-response,420,1421254,0.0-19.0-1.8,40841,List1B,white,woman,,,,null,,,,
null,are dancing with each other,,html-keyboard-response,421,1423257,0.0-19.0-2.8,40841,List1B,white,woman,,,,null,,,,
10773,,,survey-text,422,1434034,0.0-19.0-3.8,40841,List1B,white,woman,,,,,"{""Q0"":""Mike and Beth are dancing with each other ""}","<img src=""stim_listB/dance2.gif""</stim_listB>",are dancing with each other,
null,"<div style=""font-size:60px;"">+</div>",,html-keyboard-response,423,1434538,0.0-19.0-0.9,40841,List1B,white,woman,,,,null,,,,
null,"<img src=""stim_listB/dance1.gif""</stim_listB>",,html-keyboard-response,424,1436542,0.0-19.0-1.9,40841,List1B,white,woman,,,,null,,,,
null,is dancing with,,html-keyboard-response,425,1438546,0.0-19.0-2.9,40841,List1B,white,woman,,,,null,,,,
9999,,,survey-text,426,1448549,0.0-19.0-3.9,40841,List1B,white,woman,,,,,"{""Q0"":""Kate is dancing with Fred ""}","<img src=""stim_listB/dance1.gif""</stim_listB>",is dancing with,
null,"<div style=""font-size:60px;"">+</div>",,html-keyboard-response,427,1449052,0.0-19.0-0.10,40841,List1B,white,woman,,,,null,,,,
null,"<img src=""stim_listB/hug4.gif""</stim_listB>",,html-keyboard-response,428,1451058,0.0-19.0-1.10,40841,List1B,white,woman,,,,null,,,,
null,are hugging each other,,html-keyboard-response,429,1453062,0.0-19.0-2.10,40841,List1B,white,woman,,,,null,,,,
10232,,,survey-text,430,1463297,0.0-19.0-3.10,40841,List1B,white,woman,,,,,"{""Q0"":""Jane and dave are hugging each other ""}","<img src=""stim_listB/hug4.gif""</stim_listB>",are hugging each other,
null,"<div style=""font-size:60px;"">+</div>",,html-keyboard-response,431,1463800,0.0-19.0-0.11,40841,List1B,white,woman,,,,null,,,,
null,"<img src=""stim_listB/shout3.gif""</stim_listB>",,html-keyboard-response,432,1465805,0.0-19.0-1.11,40841,List1B,white,woman,,,,null,,,,
null,is shouting at,,html-keyboard-response,433,1467809,0.0-19.0-2.11,40841,List1B,white,woman,,,,null,,,,
7456,,,survey-text,434,1475269,0.0-19.0-3.11,40841,List1B,white,woman,,,,,"{""Q0"":""Ruth is shouting at Luke ""}","<img src=""stim_listB/shout3.gif""</stim_listB>",is shouting at,
null,"<div style=""font-size:60px;"">+</div>",,html-keyboard-response,435,1475772,0.0-19.0-0.12,40841,List1B,white,woman,,,,null,,,,
null,"<img src=""stim_listB/meet8.gif""</stim_listB>",,html-keyboard-response,436,1477776,0.0-19.0-1.12,40841,List1B,white,woman,,,,null,,,,
null,are meeting each other,,html-keyboard-response,437,1479780,0.0-19.0-2.12,40841,List1B,white,woman,,,,null,,,,
11438,,,survey-text,438,1491220,0.0-19.0-3.12,40841,List1B,white,woman,,,,,"{""Q0"":""Ruth and Beth are meeting each other ""}","<img src=""stim_listB/meet8.gif""</stim_listB>",are meeting each other,
null,"<div style=""font-size:60px;"">+</div>",,html-keyboard-response,439,1491723,0.0-19.0-0.13,40841,List1B,white,woman,,,,null,,,,
null,"<img src=""stim_listB/talk7.gif""</stim_listB>",,html-keyboard-response,440,1493725,0.0-19.0-1.13,40841,List1B,white,woman,,,,null,,,,
null,is talking to,,html-keyboard-response,441,1495727,0.0-19.0-2.13,40841,List1B,white,woman,,,,null,,,,
6939,,,survey-text,442,1502670,0.0-19.0-3.13,40841,List1B,white,woman,,,,,"{""Q0"":""Jane is talking to Beth ""}","<img src=""stim_listB/talk7.gif""</stim_listB>",is talking to,
null,"<div style=""font-size:60px;"">+</div>",,html-keyboard-response,443,1503174,0.0-19.0-0.14,40841,List1B,white,woman,,,,null,,,,
null,"<img src=""stim_listB/argue7.gif""</stim_listB>",,html-keyboard-response,444,1505178,0.0-19.0-1.14,40841,List1B,white,woman,,,,null,,,,
null,is arguing with,,html-keyboard-response,445,1507183,0.0-19.0-2.14,40841,List1B,white,woman,,,,null,,,,
7950,,,survey-text,446,1515137,0.0-19.0-3.14,40841,List1B,white,woman,,,,,"{""Q0"":""Kate is arguing with Ruth ""}","<img src=""stim_listB/argue7.gif""</stim_listB>",is arguing with,
null,"<div style=""font-size:60px;"">+</div>",,html-keyboard-response,447,1515641,0.0-19.0-0.15,40841,List1B,white,woman,,,,null,,,,
null,"<img src=""stim_listB/shout7.gif""</stim_listB>",,html-keyboard-response,448,1517644,0.0-19.0-1.15,40841,List1B,white,woman,,,,null,,,,
null,is shouting at,,html-keyboard-response,449,1519648,0.0-19.0-2.15,40841,List1B,white,woman,,,,null,,,,
8545,,,survey-text,450,1528196,0.0-19.0-3.15,40841,List1B,white,woman,,,,,"{""Q0"":""Beth is shouting at Ruth ""}","<img src=""stim_listB/shout7.gif""</stim_listB>",is shouting at,
null,"<div style=""font-size:60px;"">+</div>",,html-keyboard-response,451,1528699,0.0-19.0-0.16,40841,List1B,white,woman,,,,null,,,,
null,"<img src=""stim_listB/touch5.gif""</stim_listB>",,html-keyboard-response,452,1530703,0.0-19.0-1.16,40841,List1B,white,woman,,,,null,,,,
null,is touching,,html-keyboard-response,453,1532707,0.0-19.0-2.16,40841,List1B,white,woman,,,,null,,,,
7092,,,survey-text,454,1539802,0.0-19.0-3.16,40841,List1B,white,woman,,,,,"{""Q0"":""Dave is touching mike ""}","<img src=""stim_listB/touch5.gif""</stim_listB>",is touching,
null,"<div style=""font-size:60px;"">+</div>",,html-keyboard-response,455,1540303,0.0-19.0-0.17,40841,List1B,white,woman,,,,null,,,,
null,"<img src=""stim_listB/hug2.gif""</stim_listB>",,html-keyboard-response,456,1542305,0.0-19.0-1.17,40841,List1B,white,woman,,,,null,,,,
null,are hugging each other,,html-keyboard-response,457,1544307,0.0-19.0-2.17,40841,List1B,white,woman,,,,null,,,,
14933,,,survey-text,458,1559245,0.0-19.0-3.17,40841,List1B,white,woman,,,,,"{""Q0"":""Mike and Kate are hugging each other ""}","<img src=""stim_listB/hug2.gif""</stim_listB>",are hugging each other,
null,"<div style=""font-size:60px;"">+</div>",,html-keyboard-response,459,1559748,0.0-19.0-0.18,40841,List1B,white,woman,,,,null,,,,
null,"<img src=""stim_listB/marry2.gif""</stim_listB>",,html-keyboard-response,460,1561752,0.0-19.0-1.18,40841,List1B,white,woman,,,,null,,,,
null,are marrying each other,,html-keyboard-response,461,1563756,0.0-19.0-2.18,40841,List1B,white,woman,,,,null,,,,
13436,,,survey-text,462,1577195,0.0-19.0-3.18,40841,List1B,white,woman,,,,,"{""Q0"":""Kate and Fred are marrying each other ""}","<img src=""stim_listB/marry2.gif""</stim_listB>",are marrying each other,
null,"<div style=""font-size:60px;"">+</div>",,html-keyboard-response,463,1577698,0.0-19.0-0.19,40841,List1B,white,woman,,,,null,,,,
null,"<img src=""stim_listB/dance8.gif""</stim_listB>",,html-keyboard-response,464,1579703,0.0-19.0-1.19,40841,List1B,white,woman,,,,null,,,,
null,are dancing with each other,,html-keyboard-response,465,1581707,0.0-19.0-2.19,40841,List1B,white,woman,,,,null,,,,
10022,,,survey-text,466,1591735,0.0-19.0-3.19,40841,List1B,white,woman,,,,,"{""Q0"":""Kate and Ruth are dancing with each other ""}","<img src=""stim_listB/dance8.gif""</stim_listB>",are dancing with each other,
3290,<p>Thank you for completing that task.</p><p>The final part of this session is a short questionnaire.</p><p>Press Continue.</p>,0,html-button-response,467,1595028,0.0-20.0,40841,List1B,white,woman,,,,,,,,
43404,,,survey-text,468,1639440,0.0-21.0,40841,List1B,white,woman,,,,,"{""Q0"":""48"",""Q1"":""English "",""Q2"":""English "",""Q3"":""England "",""Q4"":""White British "",""Q5"":""Female ""}",,,demographics
38514,,,survey-likert,469,1677970,0.0-22.0,40841,List1B,white,woman,,,,,"{""Q0"":3,""Q1"":3,""Q2"":3,""Q3"":3,""Q4"":3,""Q5"":3,""Q6"":3,""Q7"":1,""Q8"":1,""Q9"":1,""Q10"":3,""Q11"":3,""Q12"":1,""Q13"":1}",,,likert_race
40550,,,survey-likert,470,1718529,0.0-23.0,40841,List1B,white,woman,,,,,"{""Q0"":3,""Q1"":3,""Q2"":3,""Q3"":3,""Q4"":4,""Q5"":4,""Q6"":4,""Q7"":2,""Q8"":4,""Q9"":4,""Q10"":3,""Q11"":3,""Q12"":3,""Q13"":3}",,,likert_gender
11308,,,survey-text,471,1729841,0.0-24.0,40841,List1B,white,woman,,,,,"{""Q0"":""ccc""}",,,worker_id
14807,,,external-html,472,1744778,0.0-25.0,40841,List1B,white,woman,debrief.html,,,,,,,
