rt,stimulus,button_pressed,trial_type,trial_index,time_elapsed,internal_node_id,subject,list,ppt_race,ppt_gender,url,first_guess,correct,key_press,responses,image_type,phrase_type,test_part
10845,Welcome to the experiment. Press Continue to begin.,0,html-button-response,0,10855,0.0-0.0,4392,List2A,black,woman,,,,,,,,
35777,,,external-html,1,47767,0.0-1.0,4392,List2A,black,woman,consent.html,,,,,,,
20412,"<p>On the next page, you will see portraits of 8 people and their names.</p><p>Your first task is to take a few minutes to memorise the names of these people.</p><p>You will have to recall their names during the rest of the experiment, so it is</p><p>essential that you try to memorise these people and their names as best as you can.</p><br><p><strong>You will then be tested on your memory of these names and portraits.</strong></p><br><p>The experiment will start after you have completed this memory test.</p><br><p>Ready?</p>",0,html-button-response,2,68185,0.0-2.0,4392,List2A,black,woman,,,,,,,,
124515,"<img src='img/portrait_matrix_list2.JPG' style='width:900px;height:500px;''></img><p>If you have memorised all the portraits and names and are ready to start, press Continue.</p><p><strong>Please note: Your memory of these faces will be tested 4 times during this experiment.</strong></p>",0,html-button-response,3,193705,0.0-3.0-0.0,4392,List2A,black,woman,,,,,,,,
12895,"<img src=""portrait/WM1.jpg""style=""width:400px;height:400px;""></img>",6,html-button-response,4,207621,0.0-3.0-1.0,4392,List2A,black,woman,,TRUE,6,,,,,
null,CORRECT,,html-keyboard-response,5,209135,0.0-3.0-2.0-0.0,4392,List2A,black,woman,,,,null,,,,
10982,"<img src=""portrait/WW1.jpg""style=""width:400px;height:400px;""></img>",1,html-button-response,6,220121,0.0-3.0-4.0,4392,List2A,black,woman,,TRUE,1,,,,,
null,CORRECT,,html-keyboard-response,7,221632,0.0-3.0-5.0-0.0,4392,List2A,black,woman,,,,null,,,,
15928,"<img src=""portrait/BW1.jpg""style=""width:400px;height:400px;""></img>",0,html-button-response,8,237563,0.0-3.0-7.0,4392,List2A,black,woman,,TRUE,0,,,,,
null,CORRECT,,html-keyboard-response,9,239071,0.0-3.0-8.0-0.0,4392,List2A,black,woman,,,,null,,,,
20976,"<img src=""portrait/BW2.jpg""style=""width:400px;height:400px;""></img>",3,html-button-response,10,260050,0.0-3.0-10.0,4392,List2A,black,woman,,TRUE,2,,,,,
8464,"<img src=""portrait/BW2.jpg""style=""width:400px;height:400px;""></img>",2,html-button-response,11,269519,0.0-3.0-12.0-0.0,4392,List2A,black,woman,,FALSE,2,,,,,
null,CORRECT,,html-keyboard-response,12,271025,0.0-3.0-12.0-1.0-0.0,4392,List2A,black,woman,,,,null,,,,
24955,"<img src=""portrait/WM2.jpg""style=""width:400px;height:400px;""></img>",7,html-button-response,13,295982,0.0-3.0-13.0,4392,List2A,black,woman,,TRUE,7,,,,,
null,CORRECT,,html-keyboard-response,14,297490,0.0-3.0-14.0-0.0,4392,List2A,black,woman,,,,null,,,,
4829,"<img src=""portrait/BM2.jpg""style=""width:400px;height:400px;""></img>",5,html-button-response,15,302322,0.0-3.0-16.0,4392,List2A,black,woman,,TRUE,5,,,,,
null,CORRECT,,html-keyboard-response,16,303829,0.0-3.0-17.0-0.0,4392,List2A,black,woman,,,,null,,,,
10321,"<img src=""portrait/BM1.jpg""style=""width:400px;height:400px;""></img>",4,html-button-response,17,314153,0.0-3.0-19.0,4392,List2A,black,woman,,TRUE,4,,,,,
null,CORRECT,,html-keyboard-response,18,315661,0.0-3.0-20.0-0.0,4392,List2A,black,woman,,,,null,,,,
4511,"<img src=""portrait/WW2.jpg""style=""width:400px;height:400px;""></img>",3,html-button-response,19,320174,0.0-3.0-22.0,4392,List2A,black,woman,,TRUE,3,,,,,
null,CORRECT,,html-keyboard-response,20,321679,0.0-3.0-23.0-0.0,4392,List2A,black,woman,,,,null,,,,
2404,<p>You got 7 out of 8 right first time. Press Continue.</p>,0,html-button-response,21,324085,0.0-3.0-25.0,4392,List2A,black,woman,,,,,,,,
3556,"As you did not score 100%, the memory game will repeat. Press Continue.",0,html-button-response,22,328645,0.0-3.0-26.0-0.0,4392,List2A,black,woman,,,,,,,,
4915,"<img src='img/portrait_matrix_list2.JPG' style='width:900px;height:500px;''></img><p>If you have memorised all the portraits and names and are ready to start, press Continue.</p><p><strong>Please note: Your memory of these faces will be tested 4 times during this experiment.</strong></p>",0,html-button-response,23,334577,0.0-3.1-0.1,4392,List2A,black,woman,,,,,,,,
9742,"<img src=""portrait/WM1.jpg""style=""width:400px;height:400px;""></img>",6,html-button-response,24,345327,0.0-3.1-1.1,4392,List2A,black,woman,,TRUE,6,,,,,
null,CORRECT,,html-keyboard-response,25,346844,0.0-3.1-2.1-0.1,4392,List2A,black,woman,,,,null,,,,
3904,"<img src=""portrait/WW1.jpg""style=""width:400px;height:400px;""></img>",1,html-button-response,26,350755,0.0-3.1-4.1,4392,List2A,black,woman,,TRUE,1,,,,,
null,CORRECT,,html-keyboard-response,27,352263,0.0-3.1-5.1-0.1,4392,List2A,black,woman,,,,null,,,,
4518,"<img src=""portrait/BW1.jpg""style=""width:400px;height:400px;""></img>",0,html-button-response,28,356785,0.0-3.1-7.1,4392,List2A,black,woman,,TRUE,0,,,,,
null,CORRECT,,html-keyboard-response,29,358292,0.0-3.1-8.1-0.1,4392,List2A,black,woman,,,,null,,,,
4118,"<img src=""portrait/BW2.jpg""style=""width:400px;height:400px;""></img>",2,html-button-response,30,362414,0.0-3.1-10.1,4392,List2A,black,woman,,TRUE,2,,,,,
null,CORRECT,,html-keyboard-response,31,363921,0.0-3.1-11.1-0.1,4392,List2A,black,woman,,,,null,,,,
7805,"<img src=""portrait/WM2.jpg""style=""width:400px;height:400px;""></img>",7,html-button-response,32,371731,0.0-3.1-13.1,4392,List2A,black,woman,,TRUE,7,,,,,
null,CORRECT,,html-keyboard-response,33,373241,0.0-3.1-14.1-0.1,4392,List2A,black,woman,,,,null,,,,
10257,"<img src=""portrait/BM2.jpg""style=""width:400px;height:400px;""></img>",5,html-button-response,34,383501,0.0-3.1-16.1,4392,List2A,black,woman,,TRUE,5,,,,,
null,CORRECT,,html-keyboard-response,35,385062,0.0-3.1-17.1-0.1,4392,List2A,black,woman,,,,null,,,,
8542,"<img src=""portrait/BM1.jpg""style=""width:400px;height:400px;""></img>",4,html-button-response,36,393611,0.0-3.1-19.1,4392,List2A,black,woman,,TRUE,4,,,,,
null,CORRECT,,html-keyboard-response,37,395126,0.0-3.1-20.1-0.1,4392,List2A,black,woman,,,,null,,,,
3550,"<img src=""portrait/WW2.jpg""style=""width:400px;height:400px;""></img>",3,html-button-response,38,398680,0.0-3.1-22.1,4392,List2A,black,woman,,TRUE,3,,,,,
null,CORRECT,,html-keyboard-response,39,400193,0.0-3.1-23.1-0.1,4392,List2A,black,woman,,,,null,,,,
1911,<p>You got 8 out of 8 right first time. Press Continue.</p>,0,html-button-response,40,402107,0.0-3.1-25.1,4392,List2A,black,woman,,,,,,,,
89145,"<p>In this experiment, you will view photographs of the people from the memory game interacting.</p><p>By using the <strong>exact</strong> phrase given <i>after</i> the photograph appears and recalling the correct names of the people in the photographs, form a sentence describing the interaction. You do not need to capitalise names.</p><p>Type your answer in the space provided. Please complete every sentence before moving onto the next trial.</p><p>You will only have a few seconds to memorise each given photograph and phrase before you can respond, so try your best to focus.</p><p>An example is given below. Press 'Continue' when you are ready.</p><img src='img/speaking_example_v2.jpg' style='width:800px;height:460px;''></img>",0,html-button-response,41,492258,0.0-4.0,4392,List2A,black,woman,,,,,,,,
3577,"<p>Before the experiment starts, you will watch two example trials. Press 'Continue'.</p>",0,html-button-response,42,496839,0.0-5.0,4392,List2A,black,woman,,,,,,,,
null,<img src='img/speaking_WW.gif'></img>,,html-keyboard-response,43,499846,0.0-6.0,4392,List2A,black,woman,,,,null,,,,
null,<p>is speaking to</p>,,html-keyboard-response,44,501854,0.0-7.0,4392,List2A,black,woman,,,,null,,,,
11524,<p><b>Answer:</b> jane is speaking to ruth</p>,0,html-button-response,45,513380,0.0-8.0,4392,List2A,black,woman,,,,,,,,
null,<img src='img/pointing_BM.gif'></img>,,html-keyboard-response,46,516393,0.0-9.0,4392,List2A,black,woman,,,,null,,,,
null,<p>are pointing at each other</p>,,html-keyboard-response,47,518405,0.0-10.0,4392,List2A,black,woman,,,,null,,,,
32049,<p><b>Answer:</b> fred and mike are pointing at each other</p>,0,html-button-response,48,550455,0.0-11.0,4392,List2A,black,woman,,,,,,,,
72321,"<p>Ready to start the experiment?</p><br><p><strong>Remember to describe the picture using a full sentence,</strong></p><p><strong> that combines the names of the people with the given phrase.</strong></p><p><strong> You do not need to capitalise names or use punctuation.</strong></p><br><p>Press 'Continue' to begin.</p>",0,html-button-response,49,623788,0.0-12.0,4392,List2A,black,woman,,,,,,,,
null,"<div style=""font-size:60px;"">+</div>",,html-keyboard-response,50,625306,0.0-13.0-0.0,4392,List2A,black,woman,,,,null,,,,
null,"<img src=""stim_listA/argue4.gif""</stim_listA>",,html-keyboard-response,51,627312,0.0-13.0-1.0,4392,List2A,black,woman,,,,null,,,,
null,are arguing with each other,,html-keyboard-response,52,629314,0.0-13.0-2.0,4392,List2A,black,woman,,,,null,,,,
43171,,,survey-text,53,672489,0.0-13.0-3.0,4392,List2A,black,woman,,,,,"{""Q0"":""fred and kate are pointing at each other""}","<img src=""stim_listA/argue4.gif""</stim_listA>",are arguing with each other,
null,"<div style=""font-size:60px;"">+</div>",,html-keyboard-response,54,672994,0.0-13.0-0.1,4392,List2A,black,woman,,,,null,,,,
null,"<img src=""stim_listA/hug2.gif""</stim_listA>",,html-keyboard-response,55,675003,0.0-13.0-1.1,4392,List2A,black,woman,,,,null,,,,
null,are hugging each other,,html-keyboard-response,56,677009,0.0-13.0-2.1,4392,List2A,black,woman,,,,null,,,,
47546,,,survey-text,57,724557,0.0-13.0-3.1,4392,List2A,black,woman,,,,,"{""Q0"":""Dave and jane are hugging each other""}","<img src=""stim_listA/hug2.gif""</stim_listA>",are hugging each other,
null,"<div style=""font-size:60px;"">+</div>",,html-keyboard-response,58,725063,0.0-13.0-0.2,4392,List2A,black,woman,,,,null,,,,
null,"<img src=""stim_listA/kiss5.gif""</stim_listA>",,html-keyboard-response,59,727083,0.0-13.0-1.2,4392,List2A,black,woman,,,,null,,,,
null,is kissing,,html-keyboard-response,60,729087,0.0-13.0-2.2,4392,List2A,black,woman,,,,null,,,,
29544,,,survey-text,61,758632,0.0-13.0-3.2,4392,List2A,black,woman,,,,,"{""Q0"":""luke is kissing fred""}","<img src=""stim_listA/kiss5.gif""</stim_listA>",is kissing,
null,"<div style=""font-size:60px;"">+</div>",,html-keyboard-response,62,759136,0.0-13.0-0.3,4392,List2A,black,woman,,,,null,,,,
null,"<img src=""stim_listA/fight6.gif""</stim_listA>",,html-keyboard-response,63,761142,0.0-13.0-1.3,4392,List2A,black,woman,,,,null,,,,
null,are fighting each other,,html-keyboard-response,64,763145,0.0-13.0-2.3,4392,List2A,black,woman,,,,null,,,,
18490,,,survey-text,65,781639,0.0-13.0-3.3,4392,List2A,black,woman,,,,,"{""Q0"":""Fred and Luke are fighting each other""}","<img src=""stim_listA/fight6.gif""</stim_listA>",are fighting each other,
null,"<div style=""font-size:60px;"">+</div>",,html-keyboard-response,66,782149,0.0-13.0-0.4,4392,List2A,black,woman,,,,null,,,,
null,"<img src=""stim_listA/shout3.gif""</stim_listA>",,html-keyboard-response,67,784156,0.0-13.0-1.4,4392,List2A,black,woman,,,,null,,,,
null,is shouting at,,html-keyboard-response,68,786158,0.0-13.0-2.4,4392,List2A,black,woman,,,,null,,,,
21581,,,survey-text,69,807741,0.0-13.0-3.4,4392,List2A,black,woman,,,,,"{""Q0"":""Fred is shouting at Beth""}","<img src=""stim_listA/shout3.gif""</stim_listA>",is shouting at,
null,"<div style=""font-size:60px;"">+</div>",,html-keyboard-response,70,808245,0.0-13.0-0.5,4392,List2A,black,woman,,,,null,,,,
null,"<img src=""stim_listA/meet1.gif""</stim_listA>",,html-keyboard-response,71,810249,0.0-13.0-1.5,4392,List2A,black,woman,,,,null,,,,
null,is meeting,,html-keyboard-response,72,812255,0.0-13.0-2.5,4392,List2A,black,woman,,,,null,,,,
164207,,,survey-text,73,976466,0.0-13.0-3.5,4392,List2A,black,woman,,,,,"{""Q0"":""Dave is meeting Jane""}","<img src=""stim_listA/meet1.gif""</stim_listA>",is meeting,
null,"<div style=""font-size:60px;"">+</div>",,html-keyboard-response,74,976974,0.0-13.0-0.6,4392,List2A,black,woman,,,,null,,,,
null,"<img src=""stim_listA/talk7.gif""</stim_listA>",,html-keyboard-response,75,978983,0.0-13.0-1.6,4392,List2A,black,woman,,,,null,,,,
null,is talking to,,html-keyboard-response,76,980987,0.0-13.0-2.6,4392,List2A,black,woman,,,,null,,,,
32225,,,survey-text,77,1013215,0.0-13.0-3.6,4392,List2A,black,woman,,,,,"{""Q0"":""Kate is talking to Ruth""}","<img src=""stim_listA/talk7.gif""</stim_listA>",is talking to,
null,"<div style=""font-size:60px;"">+</div>",,html-keyboard-response,78,1013718,0.0-13.0-0.7,4392,List2A,black,woman,,,,null,,,,
null,"<img src=""stim_listA/talk1.gif""</stim_listA>",,html-keyboard-response,79,1015725,0.0-13.0-1.7,4392,List2A,black,woman,,,,null,,,,
null,is talking to,,html-keyboard-response,80,1017731,0.0-13.0-2.7,4392,List2A,black,woman,,,,null,,,,
21711,,,survey-text,81,1039444,0.0-13.0-3.7,4392,List2A,black,woman,,,,,"{""Q0"":""Luke is talking to Jane""}","<img src=""stim_listA/talk1.gif""</stim_listA>",is talking to,
null,"<div style=""font-size:60px;"">+</div>",,html-keyboard-response,82,1039962,0.0-13.0-0.8,4392,List2A,black,woman,,,,null,,,,
null,"<img src=""stim_listA/marry7.gif""</stim_listA>",,html-keyboard-response,83,1041970,0.0-13.0-1.8,4392,List2A,black,woman,,,,null,,,,
null,is marrying,,html-keyboard-response,84,1043973,0.0-13.0-2.8,4392,List2A,black,woman,,,,null,,,,
42291,,,survey-text,85,1086267,0.0-13.0-3.8,4392,List2A,black,woman,,,,,"{""Q0"":""Beth is marrying Ruth""}","<img src=""stim_listA/marry7.gif""</stim_listA>",is marrying,
null,"<div style=""font-size:60px;"">+</div>",,html-keyboard-response,86,1086776,0.0-13.0-0.9,4392,List2A,black,woman,,,,null,,,,
null,"<img src=""stim_listA/argue3.gif""</stim_listA>",,html-keyboard-response,87,1088786,0.0-13.0-1.9,4392,List2A,black,woman,,,,null,,,,
null,is arguing with,,html-keyboard-response,88,1090790,0.0-13.0-2.9,4392,List2A,black,woman,,,,null,,,,
19375,,,survey-text,89,1110167,0.0-13.0-3.9,4392,List2A,black,woman,,,,,"{""Q0"":""Beth is arguing with Mike""}","<img src=""stim_listA/argue3.gif""</stim_listA>",is arguing with,
null,"<div style=""font-size:60px;"">+</div>",,html-keyboard-response,90,1110670,0.0-13.0-0.10,4392,List2A,black,woman,,,,null,,,,
null,"<img src=""stim_listA/meet4.gif""</stim_listA>",,html-keyboard-response,91,1112678,0.0-13.0-1.10,4392,List2A,black,woman,,,,null,,,,
null,are meeting each other,,html-keyboard-response,92,1114684,0.0-13.0-2.10,4392,List2A,black,woman,,,,null,,,,
21991,,,survey-text,93,1136677,0.0-13.0-3.10,4392,List2A,black,woman,,,,,"{""Q0"":""Beth and Fred are meeting each other""}","<img src=""stim_listA/meet4.gif""</stim_listA>",are meeting each other,
null,"<div style=""font-size:60px;"">+</div>",,html-keyboard-response,94,1137181,0.0-13.0-0.11,4392,List2A,black,woman,,,,null,,,,
null,"<img src=""stim_listA/hug7.gif""</stim_listA>",,html-keyboard-response,95,1139188,0.0-13.0-1.11,4392,List2A,black,woman,,,,null,,,,
null,is hugging,,html-keyboard-response,96,1141192,0.0-13.0-2.11,4392,List2A,black,woman,,,,null,,,,
16755,,,survey-text,97,1157948,0.0-13.0-3.11,4392,List2A,black,woman,,,,,"{""Q0"":""Ruth is hugging Beth""}","<img src=""stim_listA/hug7.gif""</stim_listA>",is hugging,
null,"<div style=""font-size:60px;"">+</div>",,html-keyboard-response,98,1158452,0.0-13.0-0.12,4392,List2A,black,woman,,,,null,,,,
null,"<img src=""stim_listA/meet6.gif""</stim_listA>",,html-keyboard-response,99,1160463,0.0-13.0-1.12,4392,List2A,black,woman,,,,null,,,,
null,are meeting each other,,html-keyboard-response,100,1162468,0.0-13.0-2.12,4392,List2A,black,woman,,,,null,,,,
27351,,,survey-text,101,1189822,0.0-13.0-3.12,4392,List2A,black,woman,,,,,"{""Q0"":""Fred and luke are meeting each other""}","<img src=""stim_listA/meet6.gif""</stim_listA>",are meeting each other,
null,"<div style=""font-size:60px;"">+</div>",,html-keyboard-response,102,1190326,0.0-13.0-0.13,4392,List2A,black,woman,,,,null,,,,
null,"<img src=""stim_listA/kiss2.gif""</stim_listA>",,html-keyboard-response,103,1192329,0.0-13.0-1.13,4392,List2A,black,woman,,,,null,,,,
null,are kissing each other,,html-keyboard-response,104,1194332,0.0-13.0-2.13,4392,List2A,black,woman,,,,null,,,,
20395,,,survey-text,105,1214729,0.0-13.0-3.13,4392,List2A,black,woman,,,,,"{""Q0"":""Jane and Dave are kissing each other""}","<img src=""stim_listA/kiss2.gif""</stim_listA>",are kissing each other,
null,"<div style=""font-size:60px;"">+</div>",,html-keyboard-response,106,1215233,0.0-13.0-0.14,4392,List2A,black,woman,,,,null,,,,
null,"<img src=""stim_listA/shout5.gif""</stim_listA>",,html-keyboard-response,107,1217241,0.0-13.0-1.14,4392,List2A,black,woman,,,,null,,,,
null,is shouting at,,html-keyboard-response,108,1219246,0.0-13.0-2.14,4392,List2A,black,woman,,,,null,,,,
14639,,,survey-text,109,1233887,0.0-13.0-3.14,4392,List2A,black,woman,,,,,"{""Q0"":""Fred is shouting at Luke""}","<img src=""stim_listA/shout5.gif""</stim_listA>",is shouting at,
null,"<div style=""font-size:60px;"">+</div>",,html-keyboard-response,110,1234392,0.0-13.0-0.15,4392,List2A,black,woman,,,,null,,,,
null,"<img src=""stim_listA/shout7.gif""</stim_listA>",,html-keyboard-response,111,1236403,0.0-13.0-1.15,4392,List2A,black,woman,,,,null,,,,
null,is shouting at,,html-keyboard-response,112,1238406,0.0-13.0-2.15,4392,List2A,black,woman,,,,null,,,,
18182,,,survey-text,113,1256590,0.0-13.0-3.15,4392,List2A,black,woman,,,,,"{""Q0"":""Beth is shouting at Ruth""}","<img src=""stim_listA/shout7.gif""</stim_listA>",is shouting at,
null,"<div style=""font-size:60px;"">+</div>",,html-keyboard-response,114,1257095,0.0-13.0-0.16,4392,List2A,black,woman,,,,null,,,,
null,"<img src=""stim_listA/touch5.gif""</stim_listA>",,html-keyboard-response,115,1259101,0.0-13.0-1.16,4392,List2A,black,woman,,,,null,,,,
null,is touching,,html-keyboard-response,116,1261105,0.0-13.0-2.16,4392,List2A,black,woman,,,,null,,,,
15571,,,survey-text,117,1276678,0.0-13.0-3.16,4392,List2A,black,woman,,,,,"{""Q0"":""Mike is touching Dave""}","<img src=""stim_listA/touch5.gif""</stim_listA>",is touching,
null,"<div style=""font-size:60px;"">+</div>",,html-keyboard-response,118,1277182,0.0-13.0-0.17,4392,List2A,black,woman,,,,null,,,,
null,"<img src=""stim_listA/dance4.gif""</stim_listA>",,html-keyboard-response,119,1279187,0.0-13.0-1.17,4392,List2A,black,woman,,,,null,,,,
null,are dancing with each other,,html-keyboard-response,120,1281192,0.0-13.0-2.17,4392,List2A,black,woman,,,,null,,,,
21352,,,survey-text,121,1302547,0.0-13.0-3.17,4392,List2A,black,woman,,,,,"{""Q0"":""Mike and Beth are dancing with each other""}","<img src=""stim_listA/dance4.gif""</stim_listA>",are dancing with each other,
null,"<div style=""font-size:60px;"">+</div>",,html-keyboard-response,122,1303052,0.0-13.0-0.18,4392,List2A,black,woman,,,,null,,,,
null,"<img src=""stim_listA/talk8.gif""</stim_listA>",,html-keyboard-response,123,1305058,0.0-13.0-1.18,4392,List2A,black,woman,,,,null,,,,
null,are talking to each other,,html-keyboard-response,124,1307062,0.0-13.0-2.18,4392,List2A,black,woman,,,,null,,,,
15164,,,survey-text,125,1322228,0.0-13.0-3.18,4392,List2A,black,woman,,,,,"{""Q0"":""Beth and Jane are talking to each other""}","<img src=""stim_listA/talk8.gif""</stim_listA>",are talking to each other,
null,"<div style=""font-size:60px;"">+</div>",,html-keyboard-response,126,1322739,0.0-13.0-0.19,4392,List2A,black,woman,,,,null,,,,
null,"<img src=""stim_listA/marry4.gif""</stim_listA>",,html-keyboard-response,127,1324746,0.0-13.0-1.19,4392,List2A,black,woman,,,,null,,,,
null,are marrying each other,,html-keyboard-response,128,1326751,0.0-13.0-2.19,4392,List2A,black,woman,,,,null,,,,
22504,,,survey-text,129,1349257,0.0-13.0-3.19,4392,List2A,black,woman,,,,,"{""Q0"":""Fred and Kate are marrying each other""}","<img src=""stim_listA/marry4.gif""</stim_listA>",are marrying each other,
8389,"<img src='img/portrait_matrix_list2.JPG' style='width:900px;height:500px;''></img><p>If you have memorised all the portraits and names and are ready to start, press Continue.</p><p><strong>Please note: Your memory of these faces will be tested 4 times during this experiment.</strong></p>",0,html-button-response,130,1357649,0.0-14.0-0.0,4392,List2A,black,woman,,,,,,,,
5680,"<img src=""portrait/WM1.jpg""style=""width:400px;height:400px;""></img>",6,html-button-response,131,1364339,0.0-14.0-1.0,4392,List2A,black,woman,,TRUE,6,,,,,
null,CORRECT,,html-keyboard-response,132,1365850,0.0-14.0-2.0-0.0,4392,List2A,black,woman,,,,null,,,,
4188,"<img src=""portrait/WW2.jpg""style=""width:400px;height:400px;""></img>",3,html-button-response,133,1370041,0.0-14.0-4.0,4392,List2A,black,woman,,TRUE,3,,,,,
null,CORRECT,,html-keyboard-response,134,1371555,0.0-14.0-5.0-0.0,4392,List2A,black,woman,,,,null,,,,
1991,"<img src=""portrait/BM2.jpg""style=""width:400px;height:400px;""></img>",5,html-button-response,135,1373550,0.0-14.0-7.0,4392,List2A,black,woman,,TRUE,5,,,,,
null,CORRECT,,html-keyboard-response,136,1375059,0.0-14.0-8.0-0.0,4392,List2A,black,woman,,,,null,,,,
4743,"<img src=""portrait/WW1.jpg""style=""width:400px;height:400px;""></img>",1,html-button-response,137,1379807,0.0-14.0-10.0,4392,List2A,black,woman,,TRUE,1,,,,,
null,CORRECT,,html-keyboard-response,138,1381316,0.0-14.0-11.0-0.0,4392,List2A,black,woman,,,,null,,,,
13755,"<img src=""portrait/BW1.jpg""style=""width:400px;height:400px;""></img>",0,html-button-response,139,1395077,0.0-14.0-13.0,4392,List2A,black,woman,,TRUE,0,,,,,
null,CORRECT,,html-keyboard-response,140,1396583,0.0-14.0-14.0-0.0,4392,List2A,black,woman,,,,null,,,,
4560,"<img src=""portrait/BW2.jpg""style=""width:400px;height:400px;""></img>",2,html-button-response,141,1401149,0.0-14.0-16.0,4392,List2A,black,woman,,TRUE,2,,,,,
null,CORRECT,,html-keyboard-response,142,1402654,0.0-14.0-17.0-0.0,4392,List2A,black,woman,,,,null,,,,
4026,"<img src=""portrait/BM1.jpg""style=""width:400px;height:400px;""></img>",4,html-button-response,143,1406685,0.0-14.0-19.0,4392,List2A,black,woman,,TRUE,4,,,,,
null,CORRECT,,html-keyboard-response,144,1408194,0.0-14.0-20.0-0.0,4392,List2A,black,woman,,,,null,,,,
6678,"<img src=""portrait/WM2.jpg""style=""width:400px;height:400px;""></img>",7,html-button-response,145,1414875,0.0-14.0-22.0,4392,List2A,black,woman,,TRUE,7,,,,,
null,CORRECT,,html-keyboard-response,146,1416383,0.0-14.0-23.0-0.0,4392,List2A,black,woman,,,,null,,,,
1884,<p>You got 8 out of 8 right first time. Press Continue.</p>,0,html-button-response,147,1418270,0.0-14.0-25.0,4392,List2A,black,woman,,,,,,,,
null,"<div style=""font-size:60px;"">+</div>",,html-keyboard-response,148,1419789,0.0-15.0-0.0,4392,List2A,black,woman,,,,null,,,,
null,"<img src=""stim_listA/touch2.gif""</stim_listA>",,html-keyboard-response,149,1421795,0.0-15.0-1.0,4392,List2A,black,woman,,,,null,,,,
null,are touching each other,,html-keyboard-response,150,1423799,0.0-15.0-2.0,4392,List2A,black,woman,,,,null,,,,
22025,,,survey-text,151,1445826,0.0-15.0-3.0,4392,List2A,black,woman,,,,,"{""Q0"":""Luke and Ruth are touching each other""}","<img src=""stim_listA/touch2.gif""</stim_listA>",are touching each other,
null,"<div style=""font-size:60px;"">+</div>",,html-keyboard-response,152,1446335,0.0-15.0-0.1,4392,List2A,black,woman,,,,null,,,,
null,"<img src=""stim_listA/hug1.gif""</stim_listA>",,html-keyboard-response,153,1448339,0.0-15.0-1.1,4392,List2A,black,woman,,,,null,,,,
null,is hugging,,html-keyboard-response,154,1450340,0.0-15.0-2.1,4392,List2A,black,woman,,,,null,,,,
13727,,,survey-text,155,1464069,0.0-15.0-3.1,4392,List2A,black,woman,,,,,"{""Q0"":""Luke is hugging ruth""}","<img src=""stim_listA/hug1.gif""</stim_listA>",is hugging,
null,"<div style=""font-size:60px;"">+</div>",,html-keyboard-response,156,1464572,0.0-15.0-0.2,4392,List2A,black,woman,,,,null,,,,
null,"<img src=""stim_listA/fight4.gif""</stim_listA>",,html-keyboard-response,157,1466579,0.0-15.0-1.2,4392,List2A,black,woman,,,,null,,,,
null,are fighting each other,,html-keyboard-response,158,1468584,0.0-15.0-2.2,4392,List2A,black,woman,,,,null,,,,
18762,,,survey-text,159,1487348,0.0-15.0-3.2,4392,List2A,black,woman,,,,,"{""Q0"":""Fred and beth are fighting each other""}","<img src=""stim_listA/fight4.gif""</stim_listA>",are fighting each other,
null,"<div style=""font-size:60px;"">+</div>",,html-keyboard-response,160,1487853,0.0-15.0-0.3,4392,List2A,black,woman,,,,null,,,,
null,"<img src=""stim_listA/argue6.gif""</stim_listA>",,html-keyboard-response,161,1489862,0.0-15.0-1.3,4392,List2A,black,woman,,,,null,,,,
null,are arguing with each other,,html-keyboard-response,162,1491866,0.0-15.0-2.3,4392,List2A,black,woman,,,,null,,,,
14600,,,survey-text,163,1506468,0.0-15.0-3.3,4392,List2A,black,woman,,,,,"{""Q0"":""Mike is arguing with Luke""}","<img src=""stim_listA/argue6.gif""</stim_listA>",are arguing with each other,
null,"<div style=""font-size:60px;"">+</div>",,html-keyboard-response,164,1506972,0.0-15.0-0.4,4392,List2A,black,woman,,,,null,,,,
null,"<img src=""stim_listA/dance5.gif""</stim_listA>",,html-keyboard-response,165,1508976,0.0-15.0-1.4,4392,List2A,black,woman,,,,null,,,,
null,is dancing with,,html-keyboard-response,166,1510980,0.0-15.0-2.4,4392,List2A,black,woman,,,,null,,,,
10299,,,survey-text,167,1521281,0.0-15.0-3.4,4392,List2A,black,woman,,,,,"{""Q0"":""Mike is dancing with Luke""}","<img src=""stim_listA/dance5.gif""</stim_listA>",is dancing with,
null,"<div style=""font-size:60px;"">+</div>",,html-keyboard-response,168,1521785,0.0-15.0-0.5,4392,List2A,black,woman,,,,null,,,,
null,"<img src=""stim_listA/hug6.gif""</stim_listA>",,html-keyboard-response,169,1523794,0.0-15.0-1.5,4392,List2A,black,woman,,,,null,,,,
null,are hugging each other,,html-keyboard-response,170,1525800,0.0-15.0-2.5,4392,List2A,black,woman,,,,null,,,,
15907,,,survey-text,171,1541709,0.0-15.0-3.5,4392,List2A,black,woman,,,,,"{""Q0"":""Mike and Dave are hugging each other""}","<img src=""stim_listA/hug6.gif""</stim_listA>",are hugging each other,
null,"<div style=""font-size:60px;"">+</div>",,html-keyboard-response,172,1542213,0.0-15.0-0.6,4392,List2A,black,woman,,,,null,,,,
null,"<img src=""stim_listA/talk3.gif""</stim_listA>",,html-keyboard-response,173,1544221,0.0-15.0-1.6,4392,List2A,black,woman,,,,null,,,,
null,is talking to,,html-keyboard-response,174,1546222,0.0-15.0-2.6,4392,List2A,black,woman,,,,null,,,,
21702,,,survey-text,175,1567926,0.0-15.0-3.6,4392,List2A,black,woman,,,,,"{""Q0"":""Fred is talking to kate""}","<img src=""stim_listA/talk3.gif""</stim_listA>",is talking to,
null,"<div style=""font-size:60px;"">+</div>",,html-keyboard-response,176,1568428,0.0-15.0-0.7,4392,List2A,black,woman,,,,null,,,,
null,"<img src=""stim_listA/shout4.gif""</stim_listA>",,html-keyboard-response,177,1570449,0.0-15.0-1.7,4392,List2A,black,woman,,,,null,,,,
null,are shouting at each other,,html-keyboard-response,178,1572452,0.0-15.0-2.7,4392,List2A,black,woman,,,,null,,,,
21345,,,survey-text,179,1593799,0.0-15.0-3.7,4392,List2A,black,woman,,,,,"{""Q0"":""Mike and Kate are shouting at each other""}","<img src=""stim_listA/shout4.gif""</stim_listA>",are shouting at each other,
null,"<div style=""font-size:60px;"">+</div>",,html-keyboard-response,180,1594303,0.0-15.0-0.8,4392,List2A,black,woman,,,,null,,,,
null,"<img src=""stim_listA/marry5.gif""</stim_listA>",,html-keyboard-response,181,1596308,0.0-15.0-1.8,4392,List2A,black,woman,,,,null,,,,
null,is marrying,,html-keyboard-response,182,1598312,0.0-15.0-2.8,4392,List2A,black,woman,,,,null,,,,
9335,,,survey-text,183,1607650,0.0-15.0-3.8,4392,List2A,black,woman,,,,,"{""Q0"":""Fred is marrying Dave""}","<img src=""stim_listA/marry5.gif""</stim_listA>",is marrying,
null,"<div style=""font-size:60px;"">+</div>",,html-keyboard-response,184,1608156,0.0-15.0-0.9,4392,List2A,black,woman,,,,null,,,,
null,"<img src=""stim_listA/kiss7.gif""</stim_listA>",,html-keyboard-response,185,1610164,0.0-15.0-1.9,4392,List2A,black,woman,,,,null,,,,
null,is kissing,,html-keyboard-response,186,1612167,0.0-15.0-2.9,4392,List2A,black,woman,,,,null,,,,
13506,,,survey-text,187,1625681,0.0-15.0-3.9,4392,List2A,black,woman,,,,,"{""Q0"":""Beth is kissing Ruth""}","<img src=""stim_listA/kiss7.gif""</stim_listA>",is kissing,
null,"<div style=""font-size:60px;"">+</div>",,html-keyboard-response,188,1626188,0.0-15.0-0.10,4392,List2A,black,woman,,,,null,,,,
null,"<img src=""stim_listA/talk4.gif""</stim_listA>",,html-keyboard-response,189,1628195,0.0-15.0-1.10,4392,List2A,black,woman,,,,null,,,,
null,are talking to each other,,html-keyboard-response,190,1630209,0.0-15.0-2.10,4392,List2A,black,woman,,,,null,,,,
16568,,,survey-text,191,1646780,0.0-15.0-3.10,4392,List2A,black,woman,,,,,"{""Q0"":""Mike and Beth are talking to each other""}","<img src=""stim_listA/talk4.gif""</stim_listA>",are talking to each other,
null,"<div style=""font-size:60px;"">+</div>",,html-keyboard-response,192,1647286,0.0-15.0-0.11,4392,List2A,black,woman,,,,null,,,,
null,"<img src=""stim_listA/meet5.gif""</stim_listA>",,html-keyboard-response,193,1649293,0.0-15.0-1.11,4392,List2A,black,woman,,,,null,,,,
null,is meeting,,html-keyboard-response,194,1651295,0.0-15.0-2.11,4392,List2A,black,woman,,,,null,,,,
12068,,,survey-text,195,1663365,0.0-15.0-3.11,4392,List2A,black,woman,,,,,"{""Q0"":""Mike is meeting Dave""}","<img src=""stim_listA/meet5.gif""</stim_listA>",is meeting,
null,"<div style=""font-size:60px;"">+</div>",,html-keyboard-response,196,1663869,0.0-15.0-0.12,4392,List2A,black,woman,,,,null,,,,
null,"<img src=""stim_listA/shout1.gif""</stim_listA>",,html-keyboard-response,197,1665883,0.0-15.0-1.12,4392,List2A,black,woman,,,,null,,,,
null,is shouting at,,html-keyboard-response,198,1667885,0.0-15.0-2.12,4392,List2A,black,woman,,,,null,,,,
19848,,,survey-text,199,1687736,0.0-15.0-3.12,4392,List2A,black,woman,,,,,"{""Q0"":""Ruth is shouting at Luke""}","<img src=""stim_listA/shout1.gif""</stim_listA>",is shouting at,
null,"<div style=""font-size:60px;"">+</div>",,html-keyboard-response,200,1688239,0.0-15.0-0.13,4392,List2A,black,woman,,,,null,,,,
null,"<img src=""stim_listA/dance8.gif""</stim_listA>",,html-keyboard-response,201,1690267,0.0-15.0-1.13,4392,List2A,black,woman,,,,null,,,,
null,are dancing with each other,,html-keyboard-response,202,1692269,0.0-15.0-2.13,4392,List2A,black,woman,,,,null,,,,
20722,,,survey-text,203,1712993,0.0-15.0-3.13,4392,List2A,black,woman,,,,,"{""Q0"":""Jane and Beth are dancing with each other""}","<img src=""stim_listA/dance8.gif""</stim_listA>",are dancing with each other,
null,"<div style=""font-size:60px;"">+</div>",,html-keyboard-response,204,1713498,0.0-15.0-0.14,4392,List2A,black,woman,,,,null,,,,
null,"<img src=""stim_listA/kiss8.gif""</stim_listA>",,html-keyboard-response,205,1715519,0.0-15.0-1.14,4392,List2A,black,woman,,,,null,,,,
null,are kissing each other,,html-keyboard-response,206,1717525,0.0-15.0-2.14,4392,List2A,black,woman,,,,null,,,,
19306,,,survey-text,207,1736834,0.0-15.0-3.14,4392,List2A,black,woman,,,,,"{""Q0"":""Jane and Kate are kissing each other""}","<img src=""stim_listA/kiss8.gif""</stim_listA>",are kissing each other,
null,"<div style=""font-size:60px;"">+</div>",,html-keyboard-response,208,1737339,0.0-15.0-0.15,4392,List2A,black,woman,,,,null,,,,
null,"<img src=""stim_listA/argue2.gif""</stim_listA>",,html-keyboard-response,209,1739347,0.0-15.0-1.15,4392,List2A,black,woman,,,,null,,,,
null,are arguing with each other,,html-keyboard-response,210,1741351,0.0-15.0-2.15,4392,List2A,black,woman,,,,null,,,,
17942,,,survey-text,211,1759294,0.0-15.0-3.15,4392,List2A,black,woman,,,,,"{""Q0"":""Jane and Luke are arguing with each other""}","<img src=""stim_listA/argue2.gif""</stim_listA>",are arguing with each other,
null,"<div style=""font-size:60px;"">+</div>",,html-keyboard-response,212,1759801,0.0-15.0-0.16,4392,List2A,black,woman,,,,null,,,,
null,"<img src=""stim_listA/meet3.gif""</stim_listA>",,html-keyboard-response,213,1761810,0.0-15.0-1.16,4392,List2A,black,woman,,,,null,,,,
null,is meeting,,html-keyboard-response,214,1763813,0.0-15.0-2.16,4392,List2A,black,woman,,,,null,,,,
10046,,,survey-text,215,1773862,0.0-15.0-3.16,4392,List2A,black,woman,,,,,"{""Q0"":""Mike is meeting Kate""}","<img src=""stim_listA/meet3.gif""</stim_listA>",is meeting,
null,"<div style=""font-size:60px;"">+</div>",,html-keyboard-response,216,1774367,0.0-15.0-0.17,4392,List2A,black,woman,,,,null,,,,
null,"<img src=""stim_listA/kiss4.gif""</stim_listA>",,html-keyboard-response,217,1776373,0.0-15.0-1.17,4392,List2A,black,woman,,,,null,,,,
null,are kissing each other,,html-keyboard-response,218,1778376,0.0-15.0-2.17,4392,List2A,black,woman,,,,null,,,,
15092,,,survey-text,219,1793470,0.0-15.0-3.17,4392,List2A,black,woman,,,,,"{""Q0"":""Mike and Kate are kissing each other""}","<img src=""stim_listA/kiss4.gif""</stim_listA>",are kissing each other,
null,"<div style=""font-size:60px;"">+</div>",,html-keyboard-response,220,1793975,0.0-15.0-0.18,4392,List2A,black,woman,,,,null,,,,
null,"<img src=""stim_listA/kiss1.gif""</stim_listA>",,html-keyboard-response,221,1795990,0.0-15.0-1.18,4392,List2A,black,woman,,,,null,,,,
null,is kissing,,html-keyboard-response,222,1797991,0.0-15.0-2.18,4392,List2A,black,woman,,,,null,,,,
12493,,,survey-text,223,1810486,0.0-15.0-3.18,4392,List2A,black,woman,,,,,"{""Q0"":""Luke is kissing ruth""}","<img src=""stim_listA/kiss1.gif""</stim_listA>",is kissing,
null,"<div style=""font-size:60px;"">+</div>",,html-keyboard-response,224,1810991,0.0-15.0-0.19,4392,List2A,black,woman,,,,null,,,,
null,"<img src=""stim_listA/talk6.gif""</stim_listA>",,html-keyboard-response,225,1812999,0.0-15.0-1.19,4392,List2A,black,woman,,,,null,,,,
null,are talking to each other,,html-keyboard-response,226,1815006,0.0-15.0-2.19,4392,List2A,black,woman,,,,null,,,,
18346,,,survey-text,227,1833354,0.0-15.0-3.19,4392,List2A,black,woman,,,,,"{""Q0"":""Fred and Dave are talking to each other""}","<img src=""stim_listA/talk6.gif""</stim_listA>",are talking to each other,
14408,"<img src='img/portrait_matrix_list2.JPG' style='width:900px;height:500px;''></img><p>If you have memorised all the portraits and names and are ready to start, press Continue.</p><p><strong>Please note: Your memory of these faces will be tested 4 times during this experiment.</strong></p>",0,html-button-response,228,1847765,0.0-16.0-0.0,4392,List2A,black,woman,,,,,,,,
8887,"<img src=""portrait/BW2.jpg""style=""width:400px;height:400px;""></img>",2,html-button-response,229,1857660,0.0-16.0-1.0,4392,List2A,black,woman,,TRUE,2,,,,,
null,CORRECT,,html-keyboard-response,230,1859172,0.0-16.0-2.0-0.0,4392,List2A,black,woman,,,,null,,,,
3793,"<img src=""portrait/WW1.jpg""style=""width:400px;height:400px;""></img>",1,html-button-response,231,1862970,0.0-16.0-4.0,4392,List2A,black,woman,,TRUE,1,,,,,
null,CORRECT,,html-keyboard-response,232,1864481,0.0-16.0-5.0-0.0,4392,List2A,black,woman,,,,null,,,,
9090,"<img src=""portrait/WM2.jpg""style=""width:400px;height:400px;""></img>",7,html-button-response,233,1873577,0.0-16.0-7.0,4392,List2A,black,woman,,TRUE,7,,,,,
null,CORRECT,,html-keyboard-response,234,1875083,0.0-16.0-8.0-0.0,4392,List2A,black,woman,,,,null,,,,
3840,"<img src=""portrait/WM1.jpg""style=""width:400px;height:400px;""></img>",6,html-button-response,235,1878927,0.0-16.0-10.0,4392,List2A,black,woman,,TRUE,6,,,,,
null,CORRECT,,html-keyboard-response,236,1880435,0.0-16.0-11.0-0.0,4392,List2A,black,woman,,,,null,,,,
1832,"<img src=""portrait/BM2.jpg""style=""width:400px;height:400px;""></img>",5,html-button-response,237,1882271,0.0-16.0-13.0,4392,List2A,black,woman,,TRUE,5,,,,,
null,CORRECT,,html-keyboard-response,238,1883777,0.0-16.0-14.0-0.0,4392,List2A,black,woman,,,,null,,,,
4735,"<img src=""portrait/BW1.jpg""style=""width:400px;height:400px;""></img>",0,html-button-response,239,1888517,0.0-16.0-16.0,4392,List2A,black,woman,,TRUE,0,,,,,
null,CORRECT,,html-keyboard-response,240,1890026,0.0-16.0-17.0-0.0,4392,List2A,black,woman,,,,null,,,,
3671,"<img src=""portrait/WW2.jpg""style=""width:400px;height:400px;""></img>",3,html-button-response,241,1893703,0.0-16.0-19.0,4392,List2A,black,woman,,TRUE,3,,,,,
null,CORRECT,,html-keyboard-response,242,1895208,0.0-16.0-20.0-0.0,4392,List2A,black,woman,,,,null,,,,
5387,"<img src=""portrait/BM1.jpg""style=""width:400px;height:400px;""></img>",4,html-button-response,243,1900599,0.0-16.0-22.0,4392,List2A,black,woman,,TRUE,4,,,,,
null,CORRECT,,html-keyboard-response,244,1902106,0.0-16.0-23.0-0.0,4392,List2A,black,woman,,,,null,,,,
2358,<p>You got 8 out of 8 right first time. Press Continue.</p>,0,html-button-response,245,1904478,0.0-16.0-25.0,4392,List2A,black,woman,,,,,,,,
null,"<div style=""font-size:60px;"">+</div>",,html-keyboard-response,246,1905991,0.0-17.0-0.0,4392,List2A,black,woman,,,,null,,,,
null,"<img src=""stim_listA/touch3.gif""</stim_listA>",,html-keyboard-response,247,1908004,0.0-17.0-1.0,4392,List2A,black,woman,,,,null,,,,
null,is touching,,html-keyboard-response,248,1910006,0.0-17.0-2.0,4392,List2A,black,woman,,,,null,,,,
9029,,,survey-text,249,1919037,0.0-17.0-3.0,4392,List2A,black,woman,,,,,"{""Q0"":""Mike is touching Kate""}","<img src=""stim_listA/touch3.gif""</stim_listA>",is touching,
null,"<div style=""font-size:60px;"">+</div>",,html-keyboard-response,250,1919539,0.0-17.0-0.1,4392,List2A,black,woman,,,,null,,,,
null,"<img src=""stim_listA/marry6.gif""</stim_listA>",,html-keyboard-response,251,1921547,0.0-17.0-1.1,4392,List2A,black,woman,,,,null,,,,
null,are marrying each other,,html-keyboard-response,252,1923556,0.0-17.0-2.1,4392,List2A,black,woman,,,,null,,,,
17796,,,survey-text,253,1941356,0.0-17.0-3.1,4392,List2A,black,woman,,,,,"{""Q0"":""Mike and Luke are marrying each other""}","<img src=""stim_listA/marry6.gif""</stim_listA>",are marrying each other,
null,"<div style=""font-size:60px;"">+</div>",,html-keyboard-response,254,1941860,0.0-17.0-0.2,4392,List2A,black,woman,,,,null,,,,
null,"<img src=""stim_listA/fight3.gif""</stim_listA>",,html-keyboard-response,255,1943866,0.0-17.0-1.2,4392,List2A,black,woman,,,,null,,,,
null,is fighting,,html-keyboard-response,256,1945872,0.0-17.0-2.2,4392,List2A,black,woman,,,,null,,,,
10767,,,survey-text,257,1956641,0.0-17.0-3.2,4392,List2A,black,woman,,,,,"{""Q0"":""Mike is fighting Kate""}","<img src=""stim_listA/fight3.gif""</stim_listA>",is fighting,
null,"<div style=""font-size:60px;"">+</div>",,html-keyboard-response,258,1957147,0.0-17.0-0.3,4392,List2A,black,woman,,,,null,,,,
null,"<img src=""stim_listA/hug3.gif""</stim_listA>",,html-keyboard-response,259,1959153,0.0-17.0-1.3,4392,List2A,black,woman,,,,null,,,,
null,is hugging,,html-keyboard-response,260,1961164,0.0-17.0-2.3,4392,List2A,black,woman,,,,null,,,,
12613,,,survey-text,261,1973780,0.0-17.0-3.3,4392,List2A,black,woman,,,,,"{""Q0"":""Fred is hugging Beth""}","<img src=""stim_listA/hug3.gif""</stim_listA>",is hugging,
null,"<div style=""font-size:60px;"">+</div>",,html-keyboard-response,262,1974286,0.0-17.0-0.4,4392,List2A,black,woman,,,,null,,,,
null,"<img src=""stim_listA/argue8.gif""</stim_listA>",,html-keyboard-response,263,1976292,0.0-17.0-1.4,4392,List2A,black,woman,,,,null,,,,
null,are arguing with each other,,html-keyboard-response,264,1978294,0.0-17.0-2.4,4392,List2A,black,woman,,,,null,,,,
18581,,,survey-text,265,1996877,0.0-17.0-3.4,4392,List2A,black,woman,,,,,"{""Q0"":""Ruth and Kate are arguing with each other""}","<img src=""stim_listA/argue8.gif""</stim_listA>",are arguing with each other,
null,"<div style=""font-size:60px;"">+</div>",,html-keyboard-response,266,1997385,0.0-17.0-0.5,4392,List2A,black,woman,,,,null,,,,
null,"<img src=""stim_listA/dance7.gif""</stim_listA>",,html-keyboard-response,267,1999392,0.0-17.0-1.5,4392,List2A,black,woman,,,,null,,,,
null,is dancing with,,html-keyboard-response,268,2001396,0.0-17.0-2.5,4392,List2A,black,woman,,,,null,,,,
14455,,,survey-text,269,2015854,0.0-17.0-3.5,4392,List2A,black,woman,,,,,"{""Q0"":""Kate is dancing with Ruth""}","<img src=""stim_listA/dance7.gif""</stim_listA>",is dancing with,
null,"<div style=""font-size:60px;"">+</div>",,html-keyboard-response,270,2016357,0.0-17.0-0.6,4392,List2A,black,woman,,,,null,,,,
null,"<img src=""stim_listA/dance1.gif""</stim_listA>",,html-keyboard-response,271,2018363,0.0-17.0-1.6,4392,List2A,black,woman,,,,null,,,,
null,is dancing with,,html-keyboard-response,272,2020382,0.0-17.0-2.6,4392,List2A,black,woman,,,,null,,,,
15103,,,survey-text,273,2035488,0.0-17.0-3.6,4392,List2A,black,woman,,,,,"{""Q0"":""Luke is dancing with Jane""}","<img src=""stim_listA/dance1.gif""</stim_listA>",is dancing with,
null,"<div style=""font-size:60px;"">+</div>",,html-keyboard-response,274,2036003,0.0-17.0-0.7,4392,List2A,black,woman,,,,null,,,,
null,"<img src=""stim_listA/kiss3.gif""</stim_listA>",,html-keyboard-response,275,2038008,0.0-17.0-1.7,4392,List2A,black,woman,,,,null,,,,
null,is kissing,,html-keyboard-response,276,2040013,0.0-17.0-2.7,4392,List2A,black,woman,,,,null,,,,
9518,,,survey-text,277,2049533,0.0-17.0-3.7,4392,List2A,black,woman,,,,,"{""Q0"":""Fred is kissing Beth""}","<img src=""stim_listA/kiss3.gif""</stim_listA>",is kissing,
null,"<div style=""font-size:60px;"">+</div>",,html-keyboard-response,278,2050036,0.0-17.0-0.8,4392,List2A,black,woman,,,,null,,,,
null,"<img src=""stim_listA/talk2.gif""</stim_listA>",,html-keyboard-response,279,2052042,0.0-17.0-1.8,4392,List2A,black,woman,,,,null,,,,
null,are talking to each other,,html-keyboard-response,280,2054046,0.0-17.0-2.8,4392,List2A,black,woman,,,,null,,,,
16090,,,survey-text,281,2070138,0.0-17.0-3.8,4392,List2A,black,woman,,,,,"{""Q0"":""Dave and Ruth are talking to each other""}","<img src=""stim_listA/talk2.gif""</stim_listA>",are talking to each other,
null,"<div style=""font-size:60px;"">+</div>",,html-keyboard-response,282,2070654,0.0-17.0-0.9,4392,List2A,black,woman,,,,null,,,,
null,"<img src=""stim_listA/marry8.gif""</stim_listA>",,html-keyboard-response,283,2072658,0.0-17.0-1.9,4392,List2A,black,woman,,,,null,,,,
null,are marrying each other,,html-keyboard-response,284,2074660,0.0-17.0-2.9,4392,List2A,black,woman,,,,null,,,,
17441,,,survey-text,285,2092103,0.0-17.0-3.9,4392,List2A,black,woman,,,,,"{""Q0"":""Ruth and Kate are marrying each other""}","<img src=""stim_listA/marry8.gif""</stim_listA>",are marrying each other,
null,"<div style=""font-size:60px;"">+</div>",,html-keyboard-response,286,2092608,0.0-17.0-0.10,4392,List2A,black,woman,,,,null,,,,
null,"<img src=""stim_listA/argue1.gif""</stim_listA>",,html-keyboard-response,287,2094614,0.0-17.0-1.10,4392,List2A,black,woman,,,,null,,,,
null,is arguing with,,html-keyboard-response,288,2096618,0.0-17.0-2.10,4392,List2A,black,woman,,,,null,,,,
13804,,,survey-text,289,2110424,0.0-17.0-3.10,4392,List2A,black,woman,,,,,"{""Q0"":""Ruth is arguing with Dave""}","<img src=""stim_listA/argue1.gif""</stim_listA>",is arguing with,
null,"<div style=""font-size:60px;"">+</div>",,html-keyboard-response,290,2110927,0.0-17.0-0.11,4392,List2A,black,woman,,,,null,,,,
null,"<img src=""stim_listA/fight2.gif""</stim_listA>",,html-keyboard-response,291,2112930,0.0-17.0-1.11,4392,List2A,black,woman,,,,null,,,,
null,are fighting each other,,html-keyboard-response,292,2114946,0.0-17.0-2.11,4392,List2A,black,woman,,,,null,,,,
13293,,,survey-text,293,2128242,0.0-17.0-3.11,4392,List2A,black,woman,,,,,"{""Q0"":""Ruth and Luke are fighting each other""}","<img src=""stim_listA/fight2.gif""</stim_listA>",are fighting each other,
null,"<div style=""font-size:60px;"">+</div>",,html-keyboard-response,294,2128749,0.0-17.0-0.12,4392,List2A,black,woman,,,,null,,,,
null,"<img src=""stim_listA/shout6.gif""</stim_listA>",,html-keyboard-response,295,2130758,0.0-17.0-1.12,4392,List2A,black,woman,,,,null,,,,
null,are shouting at each other,,html-keyboard-response,296,2132762,0.0-17.0-2.12,4392,List2A,black,woman,,,,null,,,,
11613,,,survey-text,297,2144377,0.0-17.0-3.12,4392,List2A,black,woman,,,,,"{""Q0"":""Mike and Dave are shouting at each other""}","<img src=""stim_listA/shout6.gif""</stim_listA>",are shouting at each other,
null,"<div style=""font-size:60px;"">+</div>",,html-keyboard-response,298,2144884,0.0-17.0-0.13,4392,List2A,black,woman,,,,null,,,,
null,"<img src=""stim_listA/dance3.gif""</stim_listA>",,html-keyboard-response,299,2146891,0.0-17.0-1.13,4392,List2A,black,woman,,,,null,,,,
null,is dancing with,,html-keyboard-response,300,2148904,0.0-17.0-2.13,4392,List2A,black,woman,,,,null,,,,
10022,,,survey-text,301,2158929,0.0-17.0-3.13,4392,List2A,black,woman,,,,,"{""Q0"":""Fred is dancing with Kate""}","<img src=""stim_listA/dance3.gif""</stim_listA>",is dancing with,
null,"<div style=""font-size:60px;"">+</div>",,html-keyboard-response,302,2159432,0.0-17.0-0.14,4392,List2A,black,woman,,,,null,,,,
null,"<img src=""stim_listA/fight7.gif""</stim_listA>",,html-keyboard-response,303,2161441,0.0-17.0-1.14,4392,List2A,black,woman,,,,null,,,,
null,is fighting,,html-keyboard-response,304,2163444,0.0-17.0-2.14,4392,List2A,black,woman,,,,null,,,,
9764,,,survey-text,305,2173210,0.0-17.0-3.14,4392,List2A,black,woman,,,,,"{""Q0"":""Kate is fighting with Jane""}","<img src=""stim_listA/fight7.gif""</stim_listA>",is fighting,
null,"<div style=""font-size:60px;"">+</div>",,html-keyboard-response,306,2173715,0.0-17.0-0.15,4392,List2A,black,woman,,,,null,,,,
null,"<img src=""stim_listA/meet2.gif""</stim_listA>",,html-keyboard-response,307,2175718,0.0-17.0-1.15,4392,List2A,black,woman,,,,null,,,,
null,are meeting each other,,html-keyboard-response,308,2177722,0.0-17.0-2.15,4392,List2A,black,woman,,,,null,,,,
17221,,,survey-text,309,2194946,0.0-17.0-3.15,4392,List2A,black,woman,,,,,"{""Q0"":""Ruth and Luke are meeting each other""}","<img src=""stim_listA/meet2.gif""</stim_listA>",are meeting each other,
null,"<div style=""font-size:60px;"">+</div>",,html-keyboard-response,310,2195462,0.0-17.0-0.16,4392,List2A,black,woman,,,,null,,,,
null,"<img src=""stim_listA/hug4.gif""</stim_listA>",,html-keyboard-response,311,2197465,0.0-17.0-1.16,4392,List2A,black,woman,,,,null,,,,
null,are hugging each other,,html-keyboard-response,312,2199470,0.0-17.0-2.16,4392,List2A,black,woman,,,,null,,,,
14205,,,survey-text,313,2213677,0.0-17.0-3.16,4392,List2A,black,woman,,,,,"{""Q0"":""Mike and Kate are hugging each other""}","<img src=""stim_listA/hug4.gif""</stim_listA>",are hugging each other,
null,"<div style=""font-size:60px;"">+</div>",,html-keyboard-response,314,2214181,0.0-17.0-0.17,4392,List2A,black,woman,,,,null,,,,
null,"<img src=""stim_listA/kiss6.gif""</stim_listA>",,html-keyboard-response,315,2216188,0.0-17.0-1.17,4392,List2A,black,woman,,,,null,,,,
null,are kissing each other,,html-keyboard-response,316,2218192,0.0-17.0-2.17,4392,List2A,black,woman,,,,null,,,,
12518,,,survey-text,317,2230714,0.0-17.0-3.17,4392,List2A,black,woman,,,,,"{""Q0"":""Mike and Dave are kissing each other""}","<img src=""stim_listA/kiss6.gif""</stim_listA>",are kissing each other,
null,"<div style=""font-size:60px;"">+</div>",,html-keyboard-response,318,2231218,0.0-17.0-0.18,4392,List2A,black,woman,,,,null,,,,
null,"<img src=""stim_listA/argue7.gif""</stim_listA>",,html-keyboard-response,319,2233221,0.0-17.0-1.18,4392,List2A,black,woman,,,,null,,,,
null,is arguing with,,html-keyboard-response,320,2235225,0.0-17.0-2.18,4392,List2A,black,woman,,,,null,,,,
11259,,,survey-text,321,2246487,0.0-17.0-3.18,4392,List2A,black,woman,,,,,"{""Q0"":""Beth is arguing with Jane""}","<img src=""stim_listA/argue7.gif""</stim_listA>",is arguing with,
null,"<div style=""font-size:60px;"">+</div>",,html-keyboard-response,322,2246993,0.0-17.0-0.19,4392,List2A,black,woman,,,,null,,,,
null,"<img src=""stim_listA/touch1.gif""</stim_listA>",,html-keyboard-response,323,2248999,0.0-17.0-1.19,4392,List2A,black,woman,,,,null,,,,
null,is touching,,html-keyboard-response,324,2251004,0.0-17.0-2.19,4392,List2A,black,woman,,,,null,,,,
8081,,,survey-text,325,2259088,0.0-17.0-3.19,4392,List2A,black,woman,,,,,"{""Q0"":""Jane is touching Luke""}","<img src=""stim_listA/touch1.gif""</stim_listA>",is touching,
5881,"<img src='img/portrait_matrix_list2.JPG' style='width:900px;height:500px;''></img><p>If you have memorised all the portraits and names and are ready to start, press Continue.</p><p><strong>Please note: Your memory of these faces will be tested 4 times during this experiment.</strong></p>",0,html-button-response,326,2264973,0.0-18.0-0.0,4392,List2A,black,woman,,,,,,,,
5206,"<img src=""portrait/WW1.jpg""style=""width:400px;height:400px;""></img>",1,html-button-response,327,2271183,0.0-18.0-1.0,4392,List2A,black,woman,,TRUE,1,,,,,
null,CORRECT,,html-keyboard-response,328,2272688,0.0-18.0-2.0-0.0,4392,List2A,black,woman,,,,null,,,,
7237,"<img src=""portrait/WM2.jpg""style=""width:400px;height:400px;""></img>",7,html-button-response,329,2279929,0.0-18.0-4.0,4392,List2A,black,woman,,TRUE,7,,,,,
null,CORRECT,,html-keyboard-response,330,2281439,0.0-18.0-5.0-0.0,4392,List2A,black,woman,,,,null,,,,
6448,"<img src=""portrait/BW1.jpg""style=""width:400px;height:400px;""></img>",0,html-button-response,331,2287891,0.0-18.0-7.0,4392,List2A,black,woman,,TRUE,0,,,,,
null,CORRECT,,html-keyboard-response,332,2289400,0.0-18.0-8.0-0.0,4392,List2A,black,woman,,,,null,,,,
2218,"<img src=""portrait/BM2.jpg""style=""width:400px;height:400px;""></img>",5,html-button-response,333,2291624,0.0-18.0-10.0,4392,List2A,black,woman,,TRUE,5,,,,,
null,CORRECT,,html-keyboard-response,334,2293133,0.0-18.0-11.0-0.0,4392,List2A,black,woman,,,,null,,,,
4275,"<img src=""portrait/WW2.jpg""style=""width:400px;height:400px;""></img>",3,html-button-response,335,2297411,0.0-18.0-13.0,4392,List2A,black,woman,,TRUE,3,,,,,
null,CORRECT,,html-keyboard-response,336,2298920,0.0-18.0-14.0-0.0,4392,List2A,black,woman,,,,null,,,,
2369,"<img src=""portrait/BM1.jpg""style=""width:400px;height:400px;""></img>",4,html-button-response,337,2301295,0.0-18.0-16.0,4392,List2A,black,woman,,TRUE,4,,,,,
null,CORRECT,,html-keyboard-response,338,2302802,0.0-18.0-17.0-0.0,4392,List2A,black,woman,,,,null,,,,
3655,"<img src=""portrait/WM1.jpg""style=""width:400px;height:400px;""></img>",6,html-button-response,339,2306461,0.0-18.0-19.0,4392,List2A,black,woman,,TRUE,6,,,,,
null,CORRECT,,html-keyboard-response,340,2307968,0.0-18.0-20.0-0.0,4392,List2A,black,woman,,,,null,,,,
4673,"<img src=""portrait/BW2.jpg""style=""width:400px;height:400px;""></img>",2,html-button-response,341,2312645,0.0-18.0-22.0,4392,List2A,black,woman,,TRUE,2,,,,,
null,CORRECT,,html-keyboard-response,342,2314156,0.0-18.0-23.0-0.0,4392,List2A,black,woman,,,,null,,,,
1494,<p>You got 8 out of 8 right first time. Press Continue.</p>,0,html-button-response,343,2315654,0.0-18.0-25.0,4392,List2A,black,woman,,,,,,,,
null,"<div style=""font-size:60px;"">+</div>",,html-keyboard-response,344,2317162,0.0-19.0-0.0,4392,List2A,black,woman,,,,null,,,,
null,"<img src=""stim_listA/talk5.gif""</stim_listA>",,html-keyboard-response,345,2319168,0.0-19.0-1.0,4392,List2A,black,woman,,,,null,,,,
null,is talking to,,html-keyboard-response,346,2321173,0.0-19.0-2.0,4392,List2A,black,woman,,,,null,,,,
11201,,,survey-text,347,2332379,0.0-19.0-3.0,4392,List2A,black,woman,,,,,"{""Q0"":""Mike is talking to Luke""}","<img src=""stim_listA/talk5.gif""</stim_listA>",is talking to,
null,"<div style=""font-size:60px;"">+</div>",,html-keyboard-response,348,2332884,0.0-19.0-0.1,4392,List2A,black,woman,,,,null,,,,
null,"<img src=""stim_listA/fight1.gif""</stim_listA>",,html-keyboard-response,349,2334888,0.0-19.0-1.1,4392,List2A,black,woman,,,,null,,,,
null,is fighting,,html-keyboard-response,350,2336893,0.0-19.0-2.1,4392,List2A,black,woman,,,,null,,,,
6600,,,survey-text,351,2343497,0.0-19.0-3.1,4392,List2A,black,woman,,,,,"{""Q0"":""Jane is fighting Dave""}","<img src=""stim_listA/fight1.gif""</stim_listA>",is fighting,
null,"<div style=""font-size:60px;"">+</div>",,html-keyboard-response,352,2344002,0.0-19.0-0.2,4392,List2A,black,woman,,,,null,,,,
null,"<img src=""stim_listA/touch6.gif""</stim_listA>",,html-keyboard-response,353,2346026,0.0-19.0-1.2,4392,List2A,black,woman,,,,null,,,,
null,are touching each other,,html-keyboard-response,354,2348029,0.0-19.0-2.2,4392,List2A,black,woman,,,,null,,,,
12774,,,survey-text,355,2360806,0.0-19.0-3.2,4392,List2A,black,woman,,,,,"{""Q0"":""Fred and Luke are touching each other""}","<img src=""stim_listA/touch6.gif""</stim_listA>",are touching each other,
null,"<div style=""font-size:60px;"">+</div>",,html-keyboard-response,356,2361310,0.0-19.0-0.3,4392,List2A,black,woman,,,,null,,,,
null,"<img src=""stim_listA/fight5.gif""</stim_listA>",,html-keyboard-response,357,2363320,0.0-19.0-1.3,4392,List2A,black,woman,,,,null,,,,
null,is fighting,,html-keyboard-response,358,2365323,0.0-19.0-2.3,4392,List2A,black,woman,,,,null,,,,
6660,,,survey-text,359,2371985,0.0-19.0-3.3,4392,List2A,black,woman,,,,,"{""Q0"":""Mike is fighting Dave""}","<img src=""stim_listA/fight5.gif""</stim_listA>",is fighting,
null,"<div style=""font-size:60px;"">+</div>",,html-keyboard-response,360,2372492,0.0-19.0-0.4,4392,List2A,black,woman,,,,null,,,,
null,"<img src=""stim_listA/touch8.gif""</stim_listA>",,html-keyboard-response,361,2374503,0.0-19.0-1.4,4392,List2A,black,woman,,,,null,,,,
null,are touching each other,,html-keyboard-response,362,2376506,0.0-19.0-2.4,4392,List2A,black,woman,,,,null,,,,
17110,,,survey-text,363,2393618,0.0-19.0-3.4,4392,List2A,black,woman,,,,,"{""Q0"":""Ruth and Beth are touching each other""}","<img src=""stim_listA/touch8.gif""</stim_listA>",are touching each other,
null,"<div style=""font-size:60px;"">+</div>",,html-keyboard-response,364,2394123,0.0-19.0-0.5,4392,List2A,black,woman,,,,null,,,,
null,"<img src=""stim_listA/touch4.gif""</stim_listA>",,html-keyboard-response,365,2396128,0.0-19.0-1.5,4392,List2A,black,woman,,,,null,,,,
null,are touching each other,,html-keyboard-response,366,2398131,0.0-19.0-2.5,4392,List2A,black,woman,,,,null,,,,
14606,,,survey-text,367,2412743,0.0-19.0-3.5,4392,List2A,black,woman,,,,,"{""Q0"":""Fred and beth are touching each other""}","<img src=""stim_listA/touch4.gif""</stim_listA>",are touching each other,
null,"<div style=""font-size:60px;"">+</div>",,html-keyboard-response,368,2413251,0.0-19.0-0.6,4392,List2A,black,woman,,,,null,,,,
null,"<img src=""stim_listA/dance2.gif""</stim_listA>",,html-keyboard-response,369,2415255,0.0-19.0-1.6,4392,List2A,black,woman,,,,null,,,,
null,are dancing with each other,,html-keyboard-response,370,2417258,0.0-19.0-2.6,4392,List2A,black,woman,,,,null,,,,
16657,,,survey-text,371,2433918,0.0-19.0-3.6,4392,List2A,black,woman,,,,,"{""Q0"":""Ruth and Dave are dancing with each other""}","<img src=""stim_listA/dance2.gif""</stim_listA>",are dancing with each other,
null,"<div style=""font-size:60px;"">+</div>",,html-keyboard-response,372,2434423,0.0-19.0-0.7,4392,List2A,black,woman,,,,null,,,,
null,"<img src=""stim_listA/marry2.gif""</stim_listA>",,html-keyboard-response,373,2436428,0.0-19.0-1.7,4392,List2A,black,woman,,,,null,,,,
null,are marrying each other,,html-keyboard-response,374,2438432,0.0-19.0-2.7,4392,List2A,black,woman,,,,null,,,,
17780,,,survey-text,375,2456215,0.0-19.0-3.7,4392,List2A,black,woman,,,,,"{""Q0"":""Luke and Jane are marrying each other""}","<img src=""stim_listA/marry2.gif""</stim_listA>",are marrying each other,
null,"<div style=""font-size:60px;"">+</div>",,html-keyboard-response,376,2456721,0.0-19.0-0.8,4392,List2A,black,woman,,,,null,,,,
null,"<img src=""stim_listA/touch7.gif""</stim_listA>",,html-keyboard-response,377,2458727,0.0-19.0-1.8,4392,List2A,black,woman,,,,null,,,,
null,is touching,,html-keyboard-response,378,2460732,0.0-19.0-2.8,4392,List2A,black,woman,,,,null,,,,
15082,,,survey-text,379,2475817,0.0-19.0-3.8,4392,List2A,black,woman,,,,,"{""Q0"":""Jane is touching Kate""}","<img src=""stim_listA/touch7.gif""</stim_listA>",is touching,
null,"<div style=""font-size:60px;"">+</div>",,html-keyboard-response,380,2476323,0.0-19.0-0.9,4392,List2A,black,woman,,,,null,,,,
null,"<img src=""stim_listA/marry1.gif""</stim_listA>",,html-keyboard-response,381,2478332,0.0-19.0-1.9,4392,List2A,black,woman,,,,null,,,,
null,is marrying,,html-keyboard-response,382,2480336,0.0-19.0-2.9,4392,List2A,black,woman,,,,null,,,,
15286,,,survey-text,383,2495623,0.0-19.0-3.9,4392,List2A,black,woman,,,,,"{""Q0"":""Ruth is marrying Dave""}","<img src=""stim_listA/marry1.gif""</stim_listA>",is marrying,
null,"<div style=""font-size:60px;"">+</div>",,html-keyboard-response,384,2496126,0.0-19.0-0.10,4392,List2A,black,woman,,,,null,,,,
null,"<img src=""stim_listA/argue5.gif""</stim_listA>",,html-keyboard-response,385,2498129,0.0-19.0-1.10,4392,List2A,black,woman,,,,null,,,,
null,is arguing with,,html-keyboard-response,386,2500135,0.0-19.0-2.10,4392,List2A,black,woman,,,,null,,,,
8834,,,survey-text,387,2508975,0.0-19.0-3.10,4392,List2A,black,woman,,,,,"{""Q0"":""Fred is arguing with Dave""}","<img src=""stim_listA/argue5.gif""</stim_listA>",is arguing with,
null,"<div style=""font-size:60px;"">+</div>",,html-keyboard-response,388,2509481,0.0-19.0-0.11,4392,List2A,black,woman,,,,null,,,,
null,"<img src=""stim_listA/shout2.gif""</stim_listA>",,html-keyboard-response,389,2511489,0.0-19.0-1.11,4392,List2A,black,woman,,,,null,,,,
null,are shouting at each other,,html-keyboard-response,390,2513493,0.0-19.0-2.11,4392,List2A,black,woman,,,,null,,,,
12642,,,survey-text,391,2526137,0.0-19.0-3.11,4392,List2A,black,woman,,,,,"{""Q0"":""Jane and Dave are shouting at each other""}","<img src=""stim_listA/shout2.gif""</stim_listA>",are shouting at each other,
null,"<div style=""font-size:60px;"">+</div>",,html-keyboard-response,392,2526641,0.0-19.0-0.12,4392,List2A,black,woman,,,,null,,,,
null,"<img src=""stim_listA/meet8.gif""</stim_listA>",,html-keyboard-response,393,2528648,0.0-19.0-1.12,4392,List2A,black,woman,,,,null,,,,
null,are meeting each other,,html-keyboard-response,394,2530657,0.0-19.0-2.12,4392,List2A,black,woman,,,,null,,,,
11900,,,survey-text,395,2542560,0.0-19.0-3.12,4392,List2A,black,woman,,,,,"{""Q0"":""Ruth and Beth are meeting each other""}","<img src=""stim_listA/meet8.gif""</stim_listA>",are meeting each other,
null,"<div style=""font-size:60px;"">+</div>",,html-keyboard-response,396,2543063,0.0-19.0-0.13,4392,List2A,black,woman,,,,null,,,,
null,"<img src=""stim_listA/fight8.gif""</stim_listA>",,html-keyboard-response,397,2545067,0.0-19.0-1.13,4392,List2A,black,woman,,,,null,,,,
null,are fighting each other,,html-keyboard-response,398,2547069,0.0-19.0-2.13,4392,List2A,black,woman,,,,null,,,,
19303,,,survey-text,399,2566374,0.0-19.0-3.13,4392,List2A,black,woman,,,,,"{""Q0"":""Ruth and Beth arefighting with each other""}","<img src=""stim_listA/fight8.gif""</stim_listA>",are fighting each other,
null,"<div style=""font-size:60px;"">+</div>",,html-keyboard-response,400,2566877,0.0-19.0-0.14,4392,List2A,black,woman,,,,null,,,,
null,"<img src=""stim_listA/hug8.gif""</stim_listA>",,html-keyboard-response,401,2568883,0.0-19.0-1.14,4392,List2A,black,woman,,,,null,,,,
null,are hugging each other,,html-keyboard-response,402,2570887,0.0-19.0-2.14,4392,List2A,black,woman,,,,null,,,,
24126,,,survey-text,403,2595017,0.0-19.0-3.14,4392,List2A,black,woman,,,,,"{""Q0"":""jane and Kate are hugging each other""}","<img src=""stim_listA/hug8.gif""</stim_listA>",are hugging each other,
null,"<div style=""font-size:60px;"">+</div>",,html-keyboard-response,404,2595520,0.0-19.0-0.15,4392,List2A,black,woman,,,,null,,,,
null,"<img src=""stim_listA/meet7.gif""</stim_listA>",,html-keyboard-response,405,2597529,0.0-19.0-1.15,4392,List2A,black,woman,,,,null,,,,
null,is meeting,,html-keyboard-response,406,2599534,0.0-19.0-2.15,4392,List2A,black,woman,,,,null,,,,
8128,,,survey-text,407,2607666,0.0-19.0-3.15,4392,List2A,black,woman,,,,,"{""Q0"":""Jane is meeting Kate""}","<img src=""stim_listA/meet7.gif""</stim_listA>",is meeting,
null,"<div style=""font-size:60px;"">+</div>",,html-keyboard-response,408,2608168,0.0-19.0-0.16,4392,List2A,black,woman,,,,null,,,,
null,"<img src=""stim_listA/marry3.gif""</stim_listA>",,html-keyboard-response,409,2610175,0.0-19.0-1.16,4392,List2A,black,woman,,,,null,,,,
null,is marrying,,html-keyboard-response,410,2612180,0.0-19.0-2.16,4392,List2A,black,woman,,,,null,,,,
8026,,,survey-text,411,2620208,0.0-19.0-3.16,4392,List2A,black,woman,,,,,"{""Q0"":""Mike is marrying Beth""}","<img src=""stim_listA/marry3.gif""</stim_listA>",is marrying,
null,"<div style=""font-size:60px;"">+</div>",,html-keyboard-response,412,2620713,0.0-19.0-0.17,4392,List2A,black,woman,,,,null,,,,
null,"<img src=""stim_listA/shout8.gif""</stim_listA>",,html-keyboard-response,413,2622718,0.0-19.0-1.17,4392,List2A,black,woman,,,,null,,,,
null,are shouting at each other,,html-keyboard-response,414,2624721,0.0-19.0-2.17,4392,List2A,black,woman,,,,null,,,,
15954,,,survey-text,415,2640676,0.0-19.0-3.17,4392,List2A,black,woman,,,,,"{""Q0"":""Jane and Kate are shouting at each other""}","<img src=""stim_listA/shout8.gif""</stim_listA>",are shouting at each other,
null,"<div style=""font-size:60px;"">+</div>",,html-keyboard-response,416,2641182,0.0-19.0-0.18,4392,List2A,black,woman,,,,null,,,,
null,"<img src=""stim_listA/hug5.gif""</stim_listA>",,html-keyboard-response,417,2643191,0.0-19.0-1.18,4392,List2A,black,woman,,,,null,,,,
null,is hugging,,html-keyboard-response,418,2645195,0.0-19.0-2.18,4392,List2A,black,woman,,,,null,,,,
8779,,,survey-text,419,2653977,0.0-19.0-3.18,4392,List2A,black,woman,,,,,"{""Q0"":""Fred is hugging Luke""}","<img src=""stim_listA/hug5.gif""</stim_listA>",is hugging,
null,"<div style=""font-size:60px;"">+</div>",,html-keyboard-response,420,2654480,0.0-19.0-0.19,4392,List2A,black,woman,,,,null,,,,
null,"<img src=""stim_listA/dance6.gif""</stim_listA>",,html-keyboard-response,421,2656484,0.0-19.0-1.19,4392,List2A,black,woman,,,,null,,,,
null,are dancing with each other,,html-keyboard-response,422,2658486,0.0-19.0-2.19,4392,List2A,black,woman,,,,null,,,,
13584,,,survey-text,423,2672073,0.0-19.0-3.19,4392,List2A,black,woman,,,,,"{""Q0"":""Fred and Dave are dancing with each other""}","<img src=""stim_listA/dance6.gif""</stim_listA>",are dancing with each other,
3113,<p>Thank you for completing that task.</p><p>The final part of this session is a short questionnaire.</p><p>Press Continue.</p>,0,html-button-response,424,2675189,0.0-20.0,4392,List2A,black,woman,,,,,,,,
26669,,,survey-text,425,2702867,0.0-21.0,4392,List2A,black,woman,,,,,"{""Q0"":""30"",""Q1"":""English"",""Q2"":""English"",""Q3"":""England"",""Q4"":""Black"",""Q5"":""Female""}",,,demographics
38295,,,survey-likert,426,2741199,0.0-22.0,4392,List2A,black,woman,,,,,"{""Q0"":5,""Q1"":3,""Q2"":5,""Q3"":6,""Q4"":6,""Q5"":6,""Q6"":6,""Q7"":5,""Q8"":6,""Q9"":5,""Q10"":4,""Q11"":3,""Q12"":5,""Q13"":4}",,,likert_race
30814,,,survey-likert,427,2772039,0.0-23.0,4392,List2A,black,woman,,,,,"{""Q0"":6,""Q1"":6,""Q2"":6,""Q3"":6,""Q4"":6,""Q5"":6,""Q6"":6,""Q7"":6,""Q8"":6,""Q9"":6,""Q10"":6,""Q11"":4,""Q12"":6,""Q13"":6}",,,likert_gender
14890,,,survey-text,428,2786935,0.0-24.0,4392,List2A,black,woman,,,,,"{""Q0"":""ccc""}",,,worker_id
25813,,,external-html,429,2812916,0.0-25.0,4392,List2A,black,woman,debrief.html,,,,,,,
