rt,stimulus,button_pressed,trial_type,trial_index,time_elapsed,internal_node_id,subject,list,ppt_race,ppt_gender,url,first_guess,correct,key_press,responses,image_type,phrase_type,test_part
2265,Welcome to the experiment. Press Continue to begin.,0,html-button-response,0,2281,0.0-0.0,44016,List1B,black,woman,,,,,,,,
46048,,,external-html,1,49380,0.0-1.0,44016,List1B,black,woman,consent.html,,,,,,,
17185,"<p>On the next page, you will see portraits of 8 people and their names.</p><p>Your first task is to take a few minutes to memorise the names of these people.</p><p>You will have to recall their names during the rest of the experiment, so it is</p><p>essential that you try to memorise these people and their names as best as you can.</p><br><p><strong>You will then be tested on your memory of these names and portraits.</strong></p><br><p>The experiment will start after you have completed this memory test.</p><br><p>Ready?</p>",0,html-button-response,2,66565,0.0-2.0,44016,List1B,black,woman,,,,,,,,
58356,"<img src='img/portrait_matrix_list1.JPG' style='width:900px;height:500px;''></img><p>If you have memorised all the portraits and names and are ready to start, press Continue.</p><p><strong>Please note: Your memory of these faces will be tested 4 times during this experiment.</strong></p>",0,html-button-response,3,125924,0.0-3.0-0.0,44016,List1B,black,woman,,,,,,,,
6778,"<img src=""portrait/WM1.jpg""style=""width:400px;height:400px;""></img>",4,html-button-response,4,133704,0.0-3.0-1.0,44016,List1B,black,woman,,TRUE,6,,,,,
4620,"<img src=""portrait/WM1.jpg""style=""width:400px;height:400px;""></img>",6,html-button-response,5,139327,0.0-3.0-3.0-0.0,44016,List1B,black,woman,,FALSE,6,,,,,
null,CORRECT,,html-keyboard-response,6,140829,0.0-3.0-3.0-1.0-0.0,44016,List1B,black,woman,,,,null,,,,
2603,"<img src=""portrait/BW2.jpg""style=""width:400px;height:400px;""></img>",2,html-button-response,7,143435,0.0-3.0-4.0,44016,List1B,black,woman,,TRUE,2,,,,,
null,CORRECT,,html-keyboard-response,8,144937,0.0-3.0-5.0-0.0,44016,List1B,black,woman,,,,null,,,,
3149,"<img src=""portrait/BM1.jpg""style=""width:400px;height:400px;""></img>",4,html-button-response,9,148087,0.0-3.0-7.0,44016,List1B,black,woman,,TRUE,4,,,,,
null,CORRECT,,html-keyboard-response,10,149590,0.0-3.0-8.0-0.0,44016,List1B,black,woman,,,,null,,,,
6204,"<img src=""portrait/WW1.jpg""style=""width:400px;height:400px;""></img>",1,html-button-response,11,155795,0.0-3.0-10.0,44016,List1B,black,woman,,TRUE,1,,,,,
null,CORRECT,,html-keyboard-response,12,157297,0.0-3.0-11.0-0.0,44016,List1B,black,woman,,,,null,,,,
10498,"<img src=""portrait/WM2.jpg""style=""width:400px;height:400px;""></img>",6,html-button-response,13,167795,0.0-3.0-13.0,44016,List1B,black,woman,,TRUE,7,,,,,
2202,"<img src=""portrait/WM2.jpg""style=""width:400px;height:400px;""></img>",7,html-button-response,14,171000,0.0-3.0-15.0-0.0,44016,List1B,black,woman,,FALSE,7,,,,,
null,CORRECT,,html-keyboard-response,15,172503,0.0-3.0-15.0-1.0-0.0,44016,List1B,black,woman,,,,null,,,,
4696,"<img src=""portrait/BM2.jpg""style=""width:400px;height:400px;""></img>",5,html-button-response,16,177199,0.0-3.0-16.0,44016,List1B,black,woman,,TRUE,5,,,,,
null,CORRECT,,html-keyboard-response,17,178701,0.0-3.0-17.0-0.0,44016,List1B,black,woman,,,,null,,,,
3029,"<img src=""portrait/BW1.jpg""style=""width:400px;height:400px;""></img>",2,html-button-response,18,181732,0.0-3.0-19.0,44016,List1B,black,woman,,TRUE,0,,,,,
5840,"<img src=""portrait/BW1.jpg""style=""width:400px;height:400px;""></img>",0,html-button-response,19,188574,0.0-3.0-21.0-0.0,44016,List1B,black,woman,,FALSE,0,,,,,
null,CORRECT,,html-keyboard-response,20,190076,0.0-3.0-21.0-1.0-0.0,44016,List1B,black,woman,,,,null,,,,
3065,"<img src=""portrait/WW2.jpg""style=""width:400px;height:400px;""></img>",3,html-button-response,21,193141,0.0-3.0-22.0,44016,List1B,black,woman,,TRUE,3,,,,,
null,CORRECT,,html-keyboard-response,22,194644,0.0-3.0-23.0-0.0,44016,List1B,black,woman,,,,null,,,,
1998,<p>You got 5 out of 8 right first time. Press Continue.</p>,0,html-button-response,23,196643,0.0-3.0-25.0,44016,List1B,black,woman,,,,,,,,
3367,"As you did not score 100%, the memory game will repeat. Press Continue.",0,html-button-response,24,201011,0.0-3.0-26.0-0.0,44016,List1B,black,woman,,,,,,,,
33007,"<img src='img/portrait_matrix_list1.JPG' style='width:900px;height:500px;''></img><p>If you have memorised all the portraits and names and are ready to start, press Continue.</p><p><strong>Please note: Your memory of these faces will be tested 4 times during this experiment.</strong></p>",0,html-button-response,25,235021,0.0-3.1-0.1,44016,List1B,black,woman,,,,,,,,
4412,"<img src=""portrait/WM1.jpg""style=""width:400px;height:400px;""></img>",6,html-button-response,26,240434,0.0-3.1-1.1,44016,List1B,black,woman,,TRUE,6,,,,,
null,CORRECT,,html-keyboard-response,27,241937,0.0-3.1-2.1-0.1,44016,List1B,black,woman,,,,null,,,,
2588,"<img src=""portrait/BW2.jpg""style=""width:400px;height:400px;""></img>",2,html-button-response,28,244527,0.0-3.1-4.1,44016,List1B,black,woman,,TRUE,2,,,,,
null,CORRECT,,html-keyboard-response,29,246028,0.0-3.1-5.1-0.1,44016,List1B,black,woman,,,,null,,,,
3376,"<img src=""portrait/BM1.jpg""style=""width:400px;height:400px;""></img>",4,html-button-response,30,249405,0.0-3.1-7.1,44016,List1B,black,woman,,TRUE,4,,,,,
null,CORRECT,,html-keyboard-response,31,250907,0.0-3.1-8.1-0.1,44016,List1B,black,woman,,,,null,,,,
2322,"<img src=""portrait/WW1.jpg""style=""width:400px;height:400px;""></img>",1,html-button-response,32,253230,0.0-3.1-10.1,44016,List1B,black,woman,,TRUE,1,,,,,
null,CORRECT,,html-keyboard-response,33,254731,0.0-3.1-11.1-0.1,44016,List1B,black,woman,,,,null,,,,
2938,"<img src=""portrait/WM2.jpg""style=""width:400px;height:400px;""></img>",7,html-button-response,34,257669,0.0-3.1-13.1,44016,List1B,black,woman,,TRUE,7,,,,,
null,CORRECT,,html-keyboard-response,35,259172,0.0-3.1-14.1-0.1,44016,List1B,black,woman,,,,null,,,,
5732,"<img src=""portrait/BM2.jpg""style=""width:400px;height:400px;""></img>",5,html-button-response,36,264906,0.0-3.1-16.1,44016,List1B,black,woman,,TRUE,5,,,,,
null,CORRECT,,html-keyboard-response,37,266408,0.0-3.1-17.1-0.1,44016,List1B,black,woman,,,,null,,,,
4135,"<img src=""portrait/BW1.jpg""style=""width:400px;height:400px;""></img>",0,html-button-response,38,270543,0.0-3.1-19.1,44016,List1B,black,woman,,TRUE,0,,,,,
null,CORRECT,,html-keyboard-response,39,272046,0.0-3.1-20.1-0.1,44016,List1B,black,woman,,,,null,,,,
1795,"<img src=""portrait/WW2.jpg""style=""width:400px;height:400px;""></img>",3,html-button-response,40,273843,0.0-3.1-22.1,44016,List1B,black,woman,,TRUE,3,,,,,
null,CORRECT,,html-keyboard-response,41,275346,0.0-3.1-23.1-0.1,44016,List1B,black,woman,,,,null,,,,
1643,<p>You got 8 out of 8 right first time. Press Continue.</p>,0,html-button-response,42,276989,0.0-3.1-25.1,44016,List1B,black,woman,,,,,,,,
54019,"<p>In this experiment, you will view photographs of the people from the memory game interacting.</p><p>By using the <strong>exact</strong> phrase given <i>after</i> the photograph appears and recalling the correct names of the people in the photographs, form a sentence describing the interaction. You do not need to capitalise names.</p><p>Type your answer in the space provided. Please complete every sentence before moving onto the next trial.</p><p>You will only have a few seconds to memorise each given photograph and phrase before you can respond, so try your best to focus.</p><p>An example is given below. Press 'Continue' when you are ready.</p><img src='img/speaking_example_v2.jpg' style='width:800px;height:460px;''></img>",0,html-button-response,43,332009,0.0-4.0,44016,List1B,black,woman,,,,,,,,
2955,"<p>Before the experiment starts, you will watch two example trials. Press 'Continue'.</p>",0,html-button-response,44,335966,0.0-5.0,44016,List1B,black,woman,,,,,,,,
null,<img src='img/speaking_WW.gif'></img>,,html-keyboard-response,45,338967,0.0-6.0,44016,List1B,black,woman,,,,null,,,,
null,<p>is speaking to</p>,,html-keyboard-response,46,340968,0.0-7.0,44016,List1B,black,woman,,,,null,,,,
3697,<p><b>Answer:</b> kate is speaking to beth</p>,0,html-button-response,47,344665,0.0-8.0,44016,List1B,black,woman,,,,,,,,
null,<img src='img/pointing_BM.gif'></img>,,html-keyboard-response,48,347667,0.0-9.0,44016,List1B,black,woman,,,,null,,,,
null,<p>are pointing at each other</p>,,html-keyboard-response,49,349668,0.0-10.0,44016,List1B,black,woman,,,,null,,,,
2498,<p><b>Answer:</b> luke and dave are pointing at each other</p>,0,html-button-response,50,352167,0.0-11.0,44016,List1B,black,woman,,,,,,,,
11163,"<p>Ready to start the experiment?</p><br><p><strong>Remember to describe the picture using a full sentence,</strong></p><p><strong>that combines the names of the people with the given phrase.</strong></p><p><strong>If you do not do this correctly you will not be paid.</strong></p><p><strong> You do not need to capitalise names or use punctuation.</strong></p><br><p>Press 'Continue' to begin.</p>",0,html-button-response,51,364333,0.0-12.0,44016,List1B,black,woman,,,,,,,,
null,"<div style=""font-size:60px;"">+</div>",,html-keyboard-response,52,365836,0.0-13.0-0.0,44016,List1B,black,woman,,,,null,,,,
null,"<img src=""stim_listB/meet3.gif""</stim_listB>",,html-keyboard-response,53,367837,0.0-13.0-1.0,44016,List1B,black,woman,,,,null,,,,
null,is meeting,,html-keyboard-response,54,369839,0.0-13.0-2.0,44016,List1B,black,woman,,,,null,,,,
12936,,,survey-text,55,382775,0.0-13.0-3.0,44016,List1B,black,woman,,,,,"{""Q0"":""Dave is meeting Jane""}","<img src=""stim_listB/meet3.gif""</stim_listB>",is meeting,
null,"<div style=""font-size:60px;"">+</div>",,html-keyboard-response,56,383277,0.0-13.0-0.1,44016,List1B,black,woman,,,,null,,,,
null,"<img src=""stim_listB/hug3.gif""</stim_listB>",,html-keyboard-response,57,385279,0.0-13.0-1.1,44016,List1B,black,woman,,,,null,,,,
null,is hugging,,html-keyboard-response,58,387282,0.0-13.0-2.1,44016,List1B,black,woman,,,,null,,,,
7890,,,survey-text,59,395172,0.0-13.0-3.1,44016,List1B,black,woman,,,,,"{""Q0"":""Luke is hugging Ruth""}","<img src=""stim_listB/hug3.gif""</stim_listB>",is hugging,
null,"<div style=""font-size:60px;"">+</div>",,html-keyboard-response,60,395673,0.0-13.0-0.2,44016,List1B,black,woman,,,,null,,,,
null,"<img src=""stim_listB/talk4.gif""</stim_listB>",,html-keyboard-response,61,397675,0.0-13.0-1.2,44016,List1B,black,woman,,,,null,,,,
null,are talking to each other,,html-keyboard-response,62,399675,0.0-13.0-2.2,44016,List1B,black,woman,,,,null,,,,
20692,,,survey-text,63,420368,0.0-13.0-3.2,44016,List1B,black,woman,,,,,"{""Q0"":""Luke and Ruth are talking to each other""}","<img src=""stim_listB/talk4.gif""</stim_listB>",are talking to each other,
null,"<div style=""font-size:60px;"">+</div>",,html-keyboard-response,64,420869,0.0-13.0-0.3,44016,List1B,black,woman,,,,null,,,,
null,"<img src=""stim_listB/talk1.gif""</stim_listB>",,html-keyboard-response,65,422871,0.0-13.0-1.3,44016,List1B,black,woman,,,,null,,,,
null,is talking to,,html-keyboard-response,66,424871,0.0-13.0-2.3,44016,List1B,black,woman,,,,null,,,,
37958,,,survey-text,67,462830,0.0-13.0-3.3,44016,List1B,black,woman,,,,,"{""Q0"":""Kate is talking to ""}","<img src=""stim_listB/talk1.gif""</stim_listB>",is talking to,
null,"<div style=""font-size:60px;"">+</div>",,html-keyboard-response,68,463332,0.0-13.0-0.4,44016,List1B,black,woman,,,,null,,,,
null,"<img src=""stim_listB/meet1.gif""</stim_listB>",,html-keyboard-response,69,465333,0.0-13.0-1.4,44016,List1B,black,woman,,,,null,,,,
null,is meeting,,html-keyboard-response,70,467334,0.0-13.0-2.4,44016,List1B,black,woman,,,,null,,,,
10095,,,survey-text,71,477430,0.0-13.0-3.4,44016,List1B,black,woman,,,,,"{""Q0"":""kate is meeting mike""}","<img src=""stim_listB/meet1.gif""</stim_listB>",is meeting,
null,"<div style=""font-size:60px;"">+</div>",,html-keyboard-response,72,477932,0.0-13.0-0.5,44016,List1B,black,woman,,,,null,,,,
null,"<img src=""stim_listB/talk3.gif""</stim_listB>",,html-keyboard-response,73,479933,0.0-13.0-1.5,44016,List1B,black,woman,,,,null,,,,
null,is talking to,,html-keyboard-response,74,481934,0.0-13.0-2.5,44016,List1B,black,woman,,,,null,,,,
10506,,,survey-text,75,492441,0.0-13.0-3.5,44016,List1B,black,woman,,,,,"{""Q0"":""Jane is talking to Luke""}","<img src=""stim_listB/talk3.gif""</stim_listB>",is talking to,
null,"<div style=""font-size:60px;"">+</div>",,html-keyboard-response,76,492942,0.0-13.0-0.6,44016,List1B,black,woman,,,,null,,,,
null,"<img src=""stim_listB/fight3.gif""</stim_listB>",,html-keyboard-response,77,494944,0.0-13.0-1.6,44016,List1B,black,woman,,,,null,,,,
null,is fighting,,html-keyboard-response,78,496946,0.0-13.0-2.6,44016,List1B,black,woman,,,,null,,,,
10048,,,survey-text,79,506995,0.0-13.0-3.6,44016,List1B,black,woman,,,,,"{""Q0"":""Jane is fighting Luke""}","<img src=""stim_listB/fight3.gif""</stim_listB>",is fighting,
null,"<div style=""font-size:60px;"">+</div>",,html-keyboard-response,80,507496,0.0-13.0-0.7,44016,List1B,black,woman,,,,null,,,,
null,"<img src=""stim_listB/meet5.gif""</stim_listB>",,html-keyboard-response,81,509498,0.0-13.0-1.7,44016,List1B,black,woman,,,,null,,,,
null,is meeting,,html-keyboard-response,82,511499,0.0-13.0-2.7,44016,List1B,black,woman,,,,null,,,,
8552,,,survey-text,83,520052,0.0-13.0-3.7,44016,List1B,black,woman,,,,,"{""Q0"":""Dave is meeting Mike""}","<img src=""stim_listB/meet5.gif""</stim_listB>",is meeting,
null,"<div style=""font-size:60px;"">+</div>",,html-keyboard-response,84,520553,0.0-13.0-0.8,44016,List1B,black,woman,,,,null,,,,
null,"<img src=""stim_listB/shout8.gif""</stim_listB>",,html-keyboard-response,85,522555,0.0-13.0-1.8,44016,List1B,black,woman,,,,null,,,,
null,are shouting at each other,,html-keyboard-response,86,524556,0.0-13.0-2.8,44016,List1B,black,woman,,,,null,,,,
16715,,,survey-text,87,541272,0.0-13.0-3.8,44016,List1B,black,woman,,,,,"{""Q0"":""Jane and Kate are shouting at eachother""}","<img src=""stim_listB/shout8.gif""</stim_listB>",are shouting at each other,
null,"<div style=""font-size:60px;"">+</div>",,html-keyboard-response,88,541774,0.0-13.0-0.9,44016,List1B,black,woman,,,,null,,,,
null,"<img src=""stim_listB/meet7.gif""</stim_listB>",,html-keyboard-response,89,543776,0.0-13.0-1.9,44016,List1B,black,woman,,,,null,,,,
null,is meeting,,html-keyboard-response,90,545777,0.0-13.0-2.9,44016,List1B,black,woman,,,,null,,,,
12764,,,survey-text,91,558541,0.0-13.0-3.9,44016,List1B,black,woman,,,,,"{""Q0"":""Jane and kate are meeting""}","<img src=""stim_listB/meet7.gif""</stim_listB>",is meeting,
null,"<div style=""font-size:60px;"">+</div>",,html-keyboard-response,92,559043,0.0-13.0-0.10,44016,List1B,black,woman,,,,null,,,,
null,"<img src=""stim_listB/touch6.gif""</stim_listB>",,html-keyboard-response,93,561045,0.0-13.0-1.10,44016,List1B,black,woman,,,,null,,,,
null,are touching each other,,html-keyboard-response,94,563046,0.0-13.0-2.10,44016,List1B,black,woman,,,,null,,,,
42030,,,survey-text,95,605077,0.0-13.0-3.10,44016,List1B,black,woman,,,,,"{""Q0"":""Luke and are shouting at achother""}","<img src=""stim_listB/touch6.gif""</stim_listB>",are touching each other,
null,"<div style=""font-size:60px;"">+</div>",,html-keyboard-response,96,605578,0.0-13.0-0.11,44016,List1B,black,woman,,,,null,,,,
null,"<img src=""stim_listB/touch3.gif""</stim_listB>",,html-keyboard-response,97,607580,0.0-13.0-1.11,44016,List1B,black,woman,,,,null,,,,
null,is touching,,html-keyboard-response,98,609581,0.0-13.0-2.11,44016,List1B,black,woman,,,,null,,,,
13535,,,survey-text,99,623118,0.0-13.0-3.11,44016,List1B,black,woman,,,,,"{""Q0"":""Luke and JANE IS touching""}","<img src=""stim_listB/touch3.gif""</stim_listB>",is touching,
null,"<div style=""font-size:60px;"">+</div>",,html-keyboard-response,100,623619,0.0-13.0-0.12,44016,List1B,black,woman,,,,null,,,,
null,"<img src=""stim_listB/shout4.gif""</stim_listB>",,html-keyboard-response,101,625620,0.0-13.0-1.12,44016,List1B,black,woman,,,,null,,,,
null,are shouting at each other,,html-keyboard-response,102,627622,0.0-13.0-2.12,44016,List1B,black,woman,,,,null,,,,
9854,,,survey-text,103,637476,0.0-13.0-3.12,44016,List1B,black,woman,,,,,"{""Q0"":""Luke and Jane are shouting at each other""}","<img src=""stim_listB/shout4.gif""</stim_listB>",are shouting at each other,
null,"<div style=""font-size:60px;"">+</div>",,html-keyboard-response,104,637978,0.0-13.0-0.13,44016,List1B,black,woman,,,,null,,,,
null,"<img src=""stim_listB/argue1.gif""</stim_listB>",,html-keyboard-response,105,639979,0.0-13.0-1.13,44016,List1B,black,woman,,,,null,,,,
null,is arguing with,,html-keyboard-response,106,641980,0.0-13.0-2.13,44016,List1B,black,woman,,,,null,,,,
7677,,,survey-text,107,649657,0.0-13.0-3.13,44016,List1B,black,woman,,,,,"{""Q0"":""beth is arguing with mike""}","<img src=""stim_listB/argue1.gif""</stim_listB>",is arguing with,
null,"<div style=""font-size:60px;"">+</div>",,html-keyboard-response,108,650159,0.0-13.0-0.14,44016,List1B,black,woman,,,,null,,,,
null,"<img src=""stim_listB/marry1.gif""</stim_listB>",,html-keyboard-response,109,652159,0.0-13.0-1.14,44016,List1B,black,woman,,,,null,,,,
null,is marrying,,html-keyboard-response,110,654160,0.0-13.0-2.14,44016,List1B,black,woman,,,,null,,,,
7165,,,survey-text,111,661325,0.0-13.0-3.14,44016,List1B,black,woman,,,,,"{""Q0"":""beth is marrying mike""}","<img src=""stim_listB/marry1.gif""</stim_listB>",is marrying,
null,"<div style=""font-size:60px;"">+</div>",,html-keyboard-response,112,661826,0.0-13.0-0.15,44016,List1B,black,woman,,,,null,,,,
null,"<img src=""stim_listB/marry8.gif""</stim_listB>",,html-keyboard-response,113,663828,0.0-13.0-1.15,44016,List1B,black,woman,,,,null,,,,
null,are marrying each other,,html-keyboard-response,114,665829,0.0-13.0-2.15,44016,List1B,black,woman,,,,null,,,,
12465,,,survey-text,115,678294,0.0-13.0-3.15,44016,List1B,black,woman,,,,,"{""Q0"":""jane and beth are marrying each other""}","<img src=""stim_listB/marry8.gif""</stim_listB>",are marrying each other,
null,"<div style=""font-size:60px;"">+</div>",,html-keyboard-response,116,678795,0.0-13.0-0.16,44016,List1B,black,woman,,,,null,,,,
null,"<img src=""stim_listB/kiss6.gif""</stim_listB>",,html-keyboard-response,117,680797,0.0-13.0-1.16,44016,List1B,black,woman,,,,null,,,,
null,are kissing each other,,html-keyboard-response,118,682798,0.0-13.0-2.16,44016,List1B,black,woman,,,,null,,,,
8659,,,survey-text,119,691457,0.0-13.0-3.16,44016,List1B,black,woman,,,,,"{""Q0"":""dave and mike are kissing each other""}","<img src=""stim_listB/kiss6.gif""</stim_listB>",are kissing each other,
null,"<div style=""font-size:60px;"">+</div>",,html-keyboard-response,120,691959,0.0-13.0-0.17,44016,List1B,black,woman,,,,null,,,,
null,"<img src=""stim_listB/fight1.gif""</stim_listB>",,html-keyboard-response,121,693960,0.0-13.0-1.17,44016,List1B,black,woman,,,,null,,,,
null,is fighting,,html-keyboard-response,122,695962,0.0-13.0-2.17,44016,List1B,black,woman,,,,null,,,,
12692,,,survey-text,123,708654,0.0-13.0-3.17,44016,List1B,black,woman,,,,,"{""Q0"":""kate and ... is fighting""}","<img src=""stim_listB/fight1.gif""</stim_listB>",is fighting,
null,"<div style=""font-size:60px;"">+</div>",,html-keyboard-response,124,709156,0.0-13.0-0.18,44016,List1B,black,woman,,,,null,,,,
null,"<img src=""stim_listB/touch1.gif""</stim_listB>",,html-keyboard-response,125,711158,0.0-13.0-1.18,44016,List1B,black,woman,,,,null,,,,
null,is touching,,html-keyboard-response,126,713159,0.0-13.0-2.18,44016,List1B,black,woman,,,,null,,,,
8268,,,survey-text,127,721427,0.0-13.0-3.18,44016,List1B,black,woman,,,,,"{""Q0"":""kate is touching mike""}","<img src=""stim_listB/touch1.gif""</stim_listB>",is touching,
null,"<div style=""font-size:60px;"">+</div>",,html-keyboard-response,128,721929,0.0-13.0-0.19,44016,List1B,black,woman,,,,null,,,,
null,"<img src=""stim_listB/fight4.gif""</stim_listB>",,html-keyboard-response,129,723930,0.0-13.0-1.19,44016,List1B,black,woman,,,,null,,,,
null,are fighting each other,,html-keyboard-response,130,725931,0.0-13.0-2.19,44016,List1B,black,woman,,,,null,,,,
11085,,,survey-text,131,737017,0.0-13.0-3.19,44016,List1B,black,woman,,,,,"{""Q0"":""ruth and luke are fighting""}","<img src=""stim_listB/fight4.gif""</stim_listB>",are fighting each other,
21490,"<img src='img/portrait_matrix_list1.JPG' style='width:900px;height:500px;''></img><p>If you have memorised all the portraits and names and are ready to start, press Continue.</p><p><strong>Please note: Your memory of these faces will be tested 4 times during this experiment.</strong></p>",0,html-button-response,132,758508,0.0-14.0-0.0,44016,List1B,black,woman,,,,,,,,
3033,"<img src=""portrait/WW1.jpg""style=""width:400px;height:400px;""></img>",1,html-button-response,133,762543,0.0-14.0-1.0,44016,List1B,black,woman,,TRUE,1,,,,,
null,CORRECT,,html-keyboard-response,134,764046,0.0-14.0-2.0-0.0,44016,List1B,black,woman,,,,null,,,,
2460,"<img src=""portrait/BM2.jpg""style=""width:400px;height:400px;""></img>",5,html-button-response,135,766507,0.0-14.0-4.0,44016,List1B,black,woman,,TRUE,5,,,,,
null,CORRECT,,html-keyboard-response,136,768011,0.0-14.0-5.0-0.0,44016,List1B,black,woman,,,,null,,,,
3036,"<img src=""portrait/BW2.jpg""style=""width:400px;height:400px;""></img>",2,html-button-response,137,771047,0.0-14.0-7.0,44016,List1B,black,woman,,TRUE,2,,,,,
null,CORRECT,,html-keyboard-response,138,772549,0.0-14.0-8.0-0.0,44016,List1B,black,woman,,,,null,,,,
2756,"<img src=""portrait/BM1.jpg""style=""width:400px;height:400px;""></img>",4,html-button-response,139,775306,0.0-14.0-10.0,44016,List1B,black,woman,,TRUE,4,,,,,
null,CORRECT,,html-keyboard-response,140,776810,0.0-14.0-11.0-0.0,44016,List1B,black,woman,,,,null,,,,
4112,"<img src=""portrait/BW1.jpg""style=""width:400px;height:400px;""></img>",0,html-button-response,141,780923,0.0-14.0-13.0,44016,List1B,black,woman,,TRUE,0,,,,,
null,CORRECT,,html-keyboard-response,142,782425,0.0-14.0-14.0-0.0,44016,List1B,black,woman,,,,null,,,,
2323,"<img src=""portrait/WW2.jpg""style=""width:400px;height:400px;""></img>",3,html-button-response,143,784749,0.0-14.0-16.0,44016,List1B,black,woman,,TRUE,3,,,,,
null,CORRECT,,html-keyboard-response,144,786250,0.0-14.0-17.0-0.0,44016,List1B,black,woman,,,,null,,,,
2879,"<img src=""portrait/WM1.jpg""style=""width:400px;height:400px;""></img>",6,html-button-response,145,789130,0.0-14.0-19.0,44016,List1B,black,woman,,TRUE,6,,,,,
null,CORRECT,,html-keyboard-response,146,790634,0.0-14.0-20.0-0.0,44016,List1B,black,woman,,,,null,,,,
1996,"<img src=""portrait/WM2.jpg""style=""width:400px;height:400px;""></img>",7,html-button-response,147,792631,0.0-14.0-22.0,44016,List1B,black,woman,,TRUE,7,,,,,
null,CORRECT,,html-keyboard-response,148,794133,0.0-14.0-23.0-0.0,44016,List1B,black,woman,,,,null,,,,
1890,<p>You got 8 out of 8 right first time. Press Continue.</p>,0,html-button-response,149,796024,0.0-14.0-25.0,44016,List1B,black,woman,,,,,,,,
null,"<div style=""font-size:60px;"">+</div>",,html-keyboard-response,150,797527,0.0-15.0-0.0,44016,List1B,black,woman,,,,null,,,,
null,"<img src=""stim_listB/talk2.gif""</stim_listB>",,html-keyboard-response,151,799528,0.0-15.0-1.0,44016,List1B,black,woman,,,,null,,,,
null,are talking to each other,,html-keyboard-response,152,801530,0.0-15.0-2.0,44016,List1B,black,woman,,,,null,,,,
12058,,,survey-text,153,813588,0.0-15.0-3.0,44016,List1B,black,woman,,,,,"{""Q0"":""beth and mike are talking to each other""}","<img src=""stim_listB/talk2.gif""</stim_listB>",are talking to each other,
null,"<div style=""font-size:60px;"">+</div>",,html-keyboard-response,154,814090,0.0-15.0-0.1,44016,List1B,black,woman,,,,null,,,,
null,"<img src=""stim_listB/talk8.gif""</stim_listB>",,html-keyboard-response,155,816092,0.0-15.0-1.1,44016,List1B,black,woman,,,,null,,,,
null,are talking to each other,,html-keyboard-response,156,818094,0.0-15.0-2.1,44016,List1B,black,woman,,,,null,,,,
12423,,,survey-text,157,830517,0.0-15.0-3.1,44016,List1B,black,woman,,,,,"{""Q0"":""ruth and kate are talking to each other""}","<img src=""stim_listB/talk8.gif""</stim_listB>",are talking to each other,
null,"<div style=""font-size:60px;"">+</div>",,html-keyboard-response,158,831018,0.0-15.0-0.2,44016,List1B,black,woman,,,,null,,,,
null,"<img src=""stim_listB/kiss5.gif""</stim_listB>",,html-keyboard-response,159,833019,0.0-15.0-1.2,44016,List1B,black,woman,,,,null,,,,
null,is kissing,,html-keyboard-response,160,835020,0.0-15.0-2.2,44016,List1B,black,woman,,,,null,,,,
8358,,,survey-text,161,843378,0.0-15.0-3.2,44016,List1B,black,woman,,,,,"{""Q0"":""dave is kissing fred""}","<img src=""stim_listB/kiss5.gif""</stim_listB>",is kissing,
null,"<div style=""font-size:60px;"">+</div>",,html-keyboard-response,162,843879,0.0-15.0-0.3,44016,List1B,black,woman,,,,null,,,,
null,"<img src=""stim_listB/shout7.gif""</stim_listB>",,html-keyboard-response,163,845881,0.0-15.0-1.3,44016,List1B,black,woman,,,,null,,,,
null,is shouting at,,html-keyboard-response,164,847884,0.0-15.0-2.3,44016,List1B,black,woman,,,,null,,,,
7230,,,survey-text,165,855115,0.0-15.0-3.3,44016,List1B,black,woman,,,,,"{""Q0"":""ruth is shouting at beth""}","<img src=""stim_listB/shout7.gif""</stim_listB>",is shouting at,
null,"<div style=""font-size:60px;"">+</div>",,html-keyboard-response,166,855616,0.0-15.0-0.4,44016,List1B,black,woman,,,,null,,,,
null,"<img src=""stim_listB/hug4.gif""</stim_listB>",,html-keyboard-response,167,857618,0.0-15.0-1.4,44016,List1B,black,woman,,,,null,,,,
null,are hugging each other,,html-keyboard-response,168,859619,0.0-15.0-2.4,44016,List1B,black,woman,,,,null,,,,
15333,,,survey-text,169,874952,0.0-15.0-3.4,44016,List1B,black,woman,,,,,"{""Q0"":""jane and luke are hugging each other""}","<img src=""stim_listB/hug4.gif""</stim_listB>",are hugging each other,
null,"<div style=""font-size:60px;"">+</div>",,html-keyboard-response,170,875454,0.0-15.0-0.5,44016,List1B,black,woman,,,,null,,,,
null,"<img src=""stim_listB/marry6.gif""</stim_listB>",,html-keyboard-response,171,877456,0.0-15.0-1.5,44016,List1B,black,woman,,,,null,,,,
null,are marrying each other,,html-keyboard-response,172,879459,0.0-15.0-2.5,44016,List1B,black,woman,,,,null,,,,
9141,,,survey-text,173,888600,0.0-15.0-3.5,44016,List1B,black,woman,,,,,"{""Q0"":""dave and fred are marrying each other""}","<img src=""stim_listB/marry6.gif""</stim_listB>",are marrying each other,
null,"<div style=""font-size:60px;"">+</div>",,html-keyboard-response,174,889101,0.0-15.0-0.6,44016,List1B,black,woman,,,,null,,,,
null,"<img src=""stim_listB/marry2.gif""</stim_listB>",,html-keyboard-response,175,891102,0.0-15.0-1.6,44016,List1B,black,woman,,,,null,,,,
null,are marrying each other,,html-keyboard-response,176,893103,0.0-15.0-2.6,44016,List1B,black,woman,,,,null,,,,
8631,,,survey-text,177,901735,0.0-15.0-3.6,44016,List1B,black,woman,,,,,"{""Q0"":""fred and kate are marrying each other""}","<img src=""stim_listB/marry2.gif""</stim_listB>",are marrying each other,
null,"<div style=""font-size:60px;"">+</div>",,html-keyboard-response,178,902236,0.0-15.0-0.7,44016,List1B,black,woman,,,,null,,,,
null,"<img src=""stim_listB/dance2.gif""</stim_listB>",,html-keyboard-response,179,904238,0.0-15.0-1.7,44016,List1B,black,woman,,,,null,,,,
null,are dancing with each other,,html-keyboard-response,180,906239,0.0-15.0-2.7,44016,List1B,black,woman,,,,null,,,,
9661,,,survey-text,181,915900,0.0-15.0-3.7,44016,List1B,black,woman,,,,,"{""Q0"":""beth and mike are dancing with eachother""}","<img src=""stim_listB/dance2.gif""</stim_listB>",are dancing with each other,
null,"<div style=""font-size:60px;"">+</div>",,html-keyboard-response,182,916402,0.0-15.0-0.8,44016,List1B,black,woman,,,,null,,,,
null,"<img src=""stim_listB/fight6.gif""</stim_listB>",,html-keyboard-response,183,918404,0.0-15.0-1.8,44016,List1B,black,woman,,,,null,,,,
null,are fighting each other,,html-keyboard-response,184,920405,0.0-15.0-2.8,44016,List1B,black,woman,,,,null,,,,
11441,,,survey-text,185,931846,0.0-15.0-3.8,44016,List1B,black,woman,,,,,"{""Q0"":""fred and luke are fighting with each other""}","<img src=""stim_listB/fight6.gif""</stim_listB>",are fighting each other,
null,"<div style=""font-size:60px;"">+</div>",,html-keyboard-response,186,932348,0.0-15.0-0.9,44016,List1B,black,woman,,,,null,,,,
null,"<img src=""stim_listB/talk6.gif""</stim_listB>",,html-keyboard-response,187,934350,0.0-15.0-1.9,44016,List1B,black,woman,,,,null,,,,
null,are talking to each other,,html-keyboard-response,188,936351,0.0-15.0-2.9,44016,List1B,black,woman,,,,null,,,,
10389,,,survey-text,189,946741,0.0-15.0-3.9,44016,List1B,black,woman,,,,,"{""Q0"":""mike and dave are talking to each other""}","<img src=""stim_listB/talk6.gif""</stim_listB>",are talking to each other,
null,"<div style=""font-size:60px;"">+</div>",,html-keyboard-response,190,947243,0.0-15.0-0.10,44016,List1B,black,woman,,,,null,,,,
null,"<img src=""stim_listB/meet6.gif""</stim_listB>",,html-keyboard-response,191,949244,0.0-15.0-1.10,44016,List1B,black,woman,,,,null,,,,
null,are meeting each other,,html-keyboard-response,192,951245,0.0-15.0-2.10,44016,List1B,black,woman,,,,null,,,,
10164,,,survey-text,193,961411,0.0-15.0-3.10,44016,List1B,black,woman,,,,,"{""Q0"":""fred and dave are meeting each other""}","<img src=""stim_listB/meet6.gif""</stim_listB>",are meeting each other,
null,"<div style=""font-size:60px;"">+</div>",,html-keyboard-response,194,961912,0.0-15.0-0.11,44016,List1B,black,woman,,,,null,,,,
null,"<img src=""stim_listB/argue6.gif""</stim_listB>",,html-keyboard-response,195,963914,0.0-15.0-1.11,44016,List1B,black,woman,,,,null,,,,
null,are arguing with each other,,html-keyboard-response,196,965915,0.0-15.0-2.11,44016,List1B,black,woman,,,,null,,,,
11277,,,survey-text,197,977194,0.0-15.0-3.11,44016,List1B,black,woman,,,,,"{""Q0"":""dave and fred are arguing with each other""}","<img src=""stim_listB/argue6.gif""</stim_listB>",are arguing with each other,
null,"<div style=""font-size:60px;"">+</div>",,html-keyboard-response,198,977696,0.0-15.0-0.12,44016,List1B,black,woman,,,,null,,,,
null,"<img src=""stim_listB/fight8.gif""</stim_listB>",,html-keyboard-response,199,979697,0.0-15.0-1.12,44016,List1B,black,woman,,,,null,,,,
null,are fighting each other,,html-keyboard-response,200,981698,0.0-15.0-2.12,44016,List1B,black,woman,,,,null,,,,
9308,,,survey-text,201,991006,0.0-15.0-3.12,44016,List1B,black,woman,,,,,"{""Q0"":""ruth and beth are fighting each other""}","<img src=""stim_listB/fight8.gif""</stim_listB>",are fighting each other,
null,"<div style=""font-size:60px;"">+</div>",,html-keyboard-response,202,991507,0.0-15.0-0.13,44016,List1B,black,woman,,,,null,,,,
null,"<img src=""stim_listB/kiss8.gif""</stim_listB>",,html-keyboard-response,203,993509,0.0-15.0-1.13,44016,List1B,black,woman,,,,null,,,,
null,are kissing each other,,html-keyboard-response,204,995511,0.0-15.0-2.13,44016,List1B,black,woman,,,,null,,,,
10504,,,survey-text,205,1006016,0.0-15.0-3.13,44016,List1B,black,woman,,,,,"{""Q0"":""kate and jane are kissing each other""}","<img src=""stim_listB/kiss8.gif""</stim_listB>",are kissing each other,
null,"<div style=""font-size:60px;"">+</div>",,html-keyboard-response,206,1006517,0.0-15.0-0.14,44016,List1B,black,woman,,,,null,,,,
null,"<img src=""stim_listB/marry5.gif""</stim_listB>",,html-keyboard-response,207,1008518,0.0-15.0-1.14,44016,List1B,black,woman,,,,null,,,,
null,is marrying,,html-keyboard-response,208,1010520,0.0-15.0-2.14,44016,List1B,black,woman,,,,null,,,,
9667,,,survey-text,209,1020188,0.0-15.0-3.14,44016,List1B,black,woman,,,,,"{""Q0"":""mike is still marrying dave""}","<img src=""stim_listB/marry5.gif""</stim_listB>",is marrying,
null,"<div style=""font-size:60px;"">+</div>",,html-keyboard-response,210,1020690,0.0-15.0-0.15,44016,List1B,black,woman,,,,null,,,,
null,"<img src=""stim_listB/shout5.gif""</stim_listB>",,html-keyboard-response,211,1022692,0.0-15.0-1.15,44016,List1B,black,woman,,,,null,,,,
null,is shouting at,,html-keyboard-response,212,1024693,0.0-15.0-2.15,44016,List1B,black,woman,,,,null,,,,
7848,,,survey-text,213,1032541,0.0-15.0-3.15,44016,List1B,black,woman,,,,,"{""Q0"":""dave is shouting at fred""}","<img src=""stim_listB/shout5.gif""</stim_listB>",is shouting at,
null,"<div style=""font-size:60px;"">+</div>",,html-keyboard-response,214,1033042,0.0-15.0-0.16,44016,List1B,black,woman,,,,null,,,,
null,"<img src=""stim_listB/marry4.gif""</stim_listB>",,html-keyboard-response,215,1035043,0.0-15.0-1.16,44016,List1B,black,woman,,,,null,,,,
null,are marrying each other,,html-keyboard-response,216,1037044,0.0-15.0-2.16,44016,List1B,black,woman,,,,null,,,,
12391,,,survey-text,217,1049436,0.0-15.0-3.16,44016,List1B,black,woman,,,,,"{""Q0"":""dave and jane are marrying each other""}","<img src=""stim_listB/marry4.gif""</stim_listB>",are marrying each other,
null,"<div style=""font-size:60px;"">+</div>",,html-keyboard-response,218,1049937,0.0-15.0-0.17,44016,List1B,black,woman,,,,null,,,,
null,"<img src=""stim_listB/touch4.gif""</stim_listB>",,html-keyboard-response,219,1051939,0.0-15.0-1.17,44016,List1B,black,woman,,,,null,,,,
null,are touching each other,,html-keyboard-response,220,1053941,0.0-15.0-2.17,44016,List1B,black,woman,,,,null,,,,
25249,,,survey-text,221,1079190,0.0-15.0-3.17,44016,List1B,black,woman,,,,,"{""Q0"":""ruth is touching luke ""}","<img src=""stim_listB/touch4.gif""</stim_listB>",are touching each other,
null,"<div style=""font-size:60px;"">+</div>",,html-keyboard-response,222,1079692,0.0-15.0-0.18,44016,List1B,black,woman,,,,null,,,,
null,"<img src=""stim_listB/hug7.gif""</stim_listB>",,html-keyboard-response,223,1081693,0.0-15.0-1.18,44016,List1B,black,woman,,,,null,,,,
null,is hugging,,html-keyboard-response,224,1083694,0.0-15.0-2.18,44016,List1B,black,woman,,,,null,,,,
6962,,,survey-text,225,1090658,0.0-15.0-3.18,44016,List1B,black,woman,,,,,"{""Q0"":""ruth is hugging beth""}","<img src=""stim_listB/hug7.gif""</stim_listB>",is hugging,
null,"<div style=""font-size:60px;"">+</div>",,html-keyboard-response,226,1091160,0.0-15.0-0.19,44016,List1B,black,woman,,,,null,,,,
null,"<img src=""stim_listB/hug1.gif""</stim_listB>",,html-keyboard-response,227,1093162,0.0-15.0-1.19,44016,List1B,black,woman,,,,null,,,,
null,is hugging,,html-keyboard-response,228,1095163,0.0-15.0-2.19,44016,List1B,black,woman,,,,null,,,,
6941,,,survey-text,229,1102104,0.0-15.0-3.19,44016,List1B,black,woman,,,,,"{""Q0"":""fred is hugging beth""}","<img src=""stim_listB/hug1.gif""</stim_listB>",is hugging,
7685,"<img src='img/portrait_matrix_list1.JPG' style='width:900px;height:500px;''></img><p>If you have memorised all the portraits and names and are ready to start, press Continue.</p><p><strong>Please note: Your memory of these faces will be tested 4 times during this experiment.</strong></p>",0,html-button-response,230,1109790,0.0-16.0-0.0,44016,List1B,black,woman,,,,,,,,
4044,"<img src=""portrait/WM2.jpg""style=""width:400px;height:400px;""></img>",7,html-button-response,231,1114835,0.0-16.0-1.0,44016,List1B,black,woman,,TRUE,7,,,,,
null,CORRECT,,html-keyboard-response,232,1116338,0.0-16.0-2.0-0.0,44016,List1B,black,woman,,,,null,,,,
2300,"<img src=""portrait/BW1.jpg""style=""width:400px;height:400px;""></img>",0,html-button-response,233,1118640,0.0-16.0-4.0,44016,List1B,black,woman,,TRUE,0,,,,,
null,CORRECT,,html-keyboard-response,234,1120142,0.0-16.0-5.0-0.0,44016,List1B,black,woman,,,,null,,,,
1731,"<img src=""portrait/BW2.jpg""style=""width:400px;height:400px;""></img>",2,html-button-response,235,1121874,0.0-16.0-7.0,44016,List1B,black,woman,,TRUE,2,,,,,
null,CORRECT,,html-keyboard-response,236,1123376,0.0-16.0-8.0-0.0,44016,List1B,black,woman,,,,null,,,,
3860,"<img src=""portrait/WW1.jpg""style=""width:400px;height:400px;""></img>",1,html-button-response,237,1127237,0.0-16.0-10.0,44016,List1B,black,woman,,TRUE,1,,,,,
null,CORRECT,,html-keyboard-response,238,1128740,0.0-16.0-11.0-0.0,44016,List1B,black,woman,,,,null,,,,
2467,"<img src=""portrait/BM2.jpg""style=""width:400px;height:400px;""></img>",5,html-button-response,239,1131208,0.0-16.0-13.0,44016,List1B,black,woman,,TRUE,5,,,,,
null,CORRECT,,html-keyboard-response,240,1132710,0.0-16.0-14.0-0.0,44016,List1B,black,woman,,,,null,,,,
4466,"<img src=""portrait/WM1.jpg""style=""width:400px;height:400px;""></img>",6,html-button-response,241,1137178,0.0-16.0-16.0,44016,List1B,black,woman,,TRUE,6,,,,,
null,CORRECT,,html-keyboard-response,242,1138680,0.0-16.0-17.0-0.0,44016,List1B,black,woman,,,,null,,,,
2575,"<img src=""portrait/BM1.jpg""style=""width:400px;height:400px;""></img>",4,html-button-response,243,1141256,0.0-16.0-19.0,44016,List1B,black,woman,,TRUE,4,,,,,
null,CORRECT,,html-keyboard-response,244,1142759,0.0-16.0-20.0-0.0,44016,List1B,black,woman,,,,null,,,,
2618,"<img src=""portrait/WW2.jpg""style=""width:400px;height:400px;""></img>",3,html-button-response,245,1145378,0.0-16.0-22.0,44016,List1B,black,woman,,TRUE,3,,,,,
null,CORRECT,,html-keyboard-response,246,1146880,0.0-16.0-23.0-0.0,44016,List1B,black,woman,,,,null,,,,
2142,<p>You got 8 out of 8 right first time. Press Continue.</p>,0,html-button-response,247,1149023,0.0-16.0-25.0,44016,List1B,black,woman,,,,,,,,
null,"<div style=""font-size:60px;"">+</div>",,html-keyboard-response,248,1150525,0.0-17.0-0.0,44016,List1B,black,woman,,,,null,,,,
null,"<img src=""stim_listB/shout1.gif""</stim_listB>",,html-keyboard-response,249,1152527,0.0-17.0-1.0,44016,List1B,black,woman,,,,null,,,,
null,is shouting at,,html-keyboard-response,250,1154528,0.0-17.0-2.0,44016,List1B,black,woman,,,,null,,,,
7657,,,survey-text,251,1162186,0.0-17.0-3.0,44016,List1B,black,woman,,,,,"{""Q0"":""fred is shouting at beth""}","<img src=""stim_listB/shout1.gif""</stim_listB>",is shouting at,
null,"<div style=""font-size:60px;"">+</div>",,html-keyboard-response,252,1162688,0.0-17.0-0.1,44016,List1B,black,woman,,,,null,,,,
null,"<img src=""stim_listB/argue4.gif""</stim_listB>",,html-keyboard-response,253,1164689,0.0-17.0-1.1,44016,List1B,black,woman,,,,null,,,,
null,are arguing with each other,,html-keyboard-response,254,1166690,0.0-17.0-2.1,44016,List1B,black,woman,,,,null,,,,
15842,,,survey-text,255,1182533,0.0-17.0-3.1,44016,List1B,black,woman,,,,,"{""Q0"":""jane and luke are hugging with each other""}","<img src=""stim_listB/argue4.gif""</stim_listB>",are arguing with each other,
null,"<div style=""font-size:60px;"">+</div>",,html-keyboard-response,256,1183034,0.0-17.0-0.2,44016,List1B,black,woman,,,,null,,,,
null,"<img src=""stim_listB/touch8.gif""</stim_listB>",,html-keyboard-response,257,1185036,0.0-17.0-1.2,44016,List1B,black,woman,,,,null,,,,
null,are touching each other,,html-keyboard-response,258,1187036,0.0-17.0-2.2,44016,List1B,black,woman,,,,null,,,,
12280,,,survey-text,259,1199317,0.0-17.0-3.2,44016,List1B,black,woman,,,,,"{""Q0"":""ruth and beth are touching with each other""}","<img src=""stim_listB/touch8.gif""</stim_listB>",are touching each other,
null,"<div style=""font-size:60px;"">+</div>",,html-keyboard-response,260,1199818,0.0-17.0-0.3,44016,List1B,black,woman,,,,null,,,,
null,"<img src=""stim_listB/argue7.gif""</stim_listB>",,html-keyboard-response,261,1201819,0.0-17.0-1.3,44016,List1B,black,woman,,,,null,,,,
null,is arguing with,,html-keyboard-response,262,1203821,0.0-17.0-2.3,44016,List1B,black,woman,,,,null,,,,
11233,,,survey-text,263,1215054,0.0-17.0-3.3,44016,List1B,black,woman,,,,,"{""Q0"":""ruth is arguing with kate""}","<img src=""stim_listB/argue7.gif""</stim_listB>",is arguing with,
null,"<div style=""font-size:60px;"">+</div>",,html-keyboard-response,264,1215557,0.0-17.0-0.4,44016,List1B,black,woman,,,,null,,,,
null,"<img src=""stim_listB/hug6.gif""</stim_listB>",,html-keyboard-response,265,1217558,0.0-17.0-1.4,44016,List1B,black,woman,,,,null,,,,
null,are hugging each other,,html-keyboard-response,266,1219559,0.0-17.0-2.4,44016,List1B,black,woman,,,,null,,,,
11805,,,survey-text,267,1231364,0.0-17.0-3.4,44016,List1B,black,woman,,,,,"{""Q0"":""dave and mike are hugging each other""}","<img src=""stim_listB/hug6.gif""</stim_listB>",are hugging each other,
null,"<div style=""font-size:60px;"">+</div>",,html-keyboard-response,268,1231864,0.0-17.0-0.5,44016,List1B,black,woman,,,,null,,,,
null,"<img src=""stim_listB/shout2.gif""</stim_listB>",,html-keyboard-response,269,1233866,0.0-17.0-1.5,44016,List1B,black,woman,,,,null,,,,
null,are shouting at each other,,html-keyboard-response,270,1235868,0.0-17.0-2.5,44016,List1B,black,woman,,,,null,,,,
12618,,,survey-text,271,1248488,0.0-17.0-3.5,44016,List1B,black,woman,,,,,"{""Q0"":""mike and kate are shouting with each other""}","<img src=""stim_listB/shout2.gif""</stim_listB>",are shouting at each other,
null,"<div style=""font-size:60px;"">+</div>",,html-keyboard-response,272,1248989,0.0-17.0-0.6,44016,List1B,black,woman,,,,null,,,,
null,"<img src=""stim_listB/kiss2.gif""</stim_listB>",,html-keyboard-response,273,1250991,0.0-17.0-1.6,44016,List1B,black,woman,,,,null,,,,
null,are kissing each other,,html-keyboard-response,274,1252992,0.0-17.0-2.6,44016,List1B,black,woman,,,,null,,,,
9834,,,survey-text,275,1262827,0.0-17.0-3.6,44016,List1B,black,woman,,,,,"{""Q0"":""mike and kate are kissing each other""}","<img src=""stim_listB/kiss2.gif""</stim_listB>",are kissing each other,
null,"<div style=""font-size:60px;"">+</div>",,html-keyboard-response,276,1263328,0.0-17.0-0.7,44016,List1B,black,woman,,,,null,,,,
null,"<img src=""stim_listB/dance1.gif""</stim_listB>",,html-keyboard-response,277,1265330,0.0-17.0-1.7,44016,List1B,black,woman,,,,null,,,,
null,is dancing with,,html-keyboard-response,278,1267332,0.0-17.0-2.7,44016,List1B,black,woman,,,,null,,,,
7777,,,survey-text,279,1275109,0.0-17.0-3.7,44016,List1B,black,woman,,,,,"{""Q0"":""fred is dancing with kate""}","<img src=""stim_listB/dance1.gif""</stim_listB>",is dancing with,
null,"<div style=""font-size:60px;"">+</div>",,html-keyboard-response,280,1275610,0.0-17.0-0.8,44016,List1B,black,woman,,,,null,,,,
null,"<img src=""stim_listB/talk7.gif""</stim_listB>",,html-keyboard-response,281,1277611,0.0-17.0-1.8,44016,List1B,black,woman,,,,null,,,,
null,is talking to,,html-keyboard-response,282,1279612,0.0-17.0-2.8,44016,List1B,black,woman,,,,null,,,,
8067,,,survey-text,283,1287680,0.0-17.0-3.8,44016,List1B,black,woman,,,,,"{""Q0"":""beth is talking to jane""}","<img src=""stim_listB/talk7.gif""</stim_listB>",is talking to,
null,"<div style=""font-size:60px;"">+</div>",,html-keyboard-response,284,1288181,0.0-17.0-0.9,44016,List1B,black,woman,,,,null,,,,
null,"<img src=""stim_listB/talk5.gif""</stim_listB>",,html-keyboard-response,285,1290182,0.0-17.0-1.9,44016,List1B,black,woman,,,,null,,,,
null,is talking to,,html-keyboard-response,286,1292184,0.0-17.0-2.9,44016,List1B,black,woman,,,,null,,,,
6870,,,survey-text,287,1299054,0.0-17.0-3.9,44016,List1B,black,woman,,,,,"{""Q0"":""fred is talking to dave""}","<img src=""stim_listB/talk5.gif""</stim_listB>",is talking to,
null,"<div style=""font-size:60px;"">+</div>",,html-keyboard-response,288,1299555,0.0-17.0-0.10,44016,List1B,black,woman,,,,null,,,,
null,"<img src=""stim_listB/meet8.gif""</stim_listB>",,html-keyboard-response,289,1301557,0.0-17.0-1.10,44016,List1B,black,woman,,,,null,,,,
null,are meeting each other,,html-keyboard-response,290,1303559,0.0-17.0-2.10,44016,List1B,black,woman,,,,null,,,,
12426,,,survey-text,291,1315985,0.0-17.0-3.10,44016,List1B,black,woman,,,,,"{""Q0"":""ruth and beth are meeting with each other""}","<img src=""stim_listB/meet8.gif""</stim_listB>",are meeting each other,
null,"<div style=""font-size:60px;"">+</div>",,html-keyboard-response,292,1316487,0.0-17.0-0.11,44016,List1B,black,woman,,,,null,,,,
null,"<img src=""stim_listB/kiss7.gif""</stim_listB>",,html-keyboard-response,293,1318488,0.0-17.0-1.11,44016,List1B,black,woman,,,,null,,,,
null,is kissing,,html-keyboard-response,294,1320490,0.0-17.0-2.11,44016,List1B,black,woman,,,,null,,,,
8022,,,survey-text,295,1328512,0.0-17.0-3.11,44016,List1B,black,woman,,,,,"{""Q0"":""ruth is kissing beth""}","<img src=""stim_listB/kiss7.gif""</stim_listB>",is kissing,
null,"<div style=""font-size:60px;"">+</div>",,html-keyboard-response,296,1329014,0.0-17.0-0.12,44016,List1B,black,woman,,,,null,,,,
null,"<img src=""stim_listB/touch2.gif""</stim_listB>",,html-keyboard-response,297,1331015,0.0-17.0-1.12,44016,List1B,black,woman,,,,null,,,,
null,are touching each other,,html-keyboard-response,298,1333017,0.0-17.0-2.12,44016,List1B,black,woman,,,,null,,,,
20224,,,survey-text,299,1353241,0.0-17.0-3.12,44016,List1B,black,woman,,,,,"{""Q0"":""fred and beth are touching each other""}","<img src=""stim_listB/touch2.gif""</stim_listB>",are touching each other,
null,"<div style=""font-size:60px;"">+</div>",,html-keyboard-response,300,1353743,0.0-17.0-0.13,44016,List1B,black,woman,,,,null,,,,
null,"<img src=""stim_listB/argue2.gif""</stim_listB>",,html-keyboard-response,301,1355744,0.0-17.0-1.13,44016,List1B,black,woman,,,,null,,,,
null,are arguing with each other,,html-keyboard-response,302,1357746,0.0-17.0-2.13,44016,List1B,black,woman,,,,null,,,,
11745,,,survey-text,303,1369491,0.0-17.0-3.13,44016,List1B,black,woman,,,,,"{""Q0"":""kate and fred are arguing with each other""}","<img src=""stim_listB/argue2.gif""</stim_listB>",are arguing with each other,
null,"<div style=""font-size:60px;"">+</div>",,html-keyboard-response,304,1369992,0.0-17.0-0.14,44016,List1B,black,woman,,,,null,,,,
null,"<img src=""stim_listB/hug5.gif""</stim_listB>",,html-keyboard-response,305,1371993,0.0-17.0-1.14,44016,List1B,black,woman,,,,null,,,,
null,is hugging,,html-keyboard-response,306,1373994,0.0-17.0-2.14,44016,List1B,black,woman,,,,null,,,,
8234,,,survey-text,307,1382229,0.0-17.0-3.14,44016,List1B,black,woman,,,,,"{""Q0"":""fred is hugging dave""}","<img src=""stim_listB/hug5.gif""</stim_listB>",is hugging,
null,"<div style=""font-size:60px;"">+</div>",,html-keyboard-response,308,1382730,0.0-17.0-0.15,44016,List1B,black,woman,,,,null,,,,
null,"<img src=""stim_listB/marry7.gif""</stim_listB>",,html-keyboard-response,309,1384732,0.0-17.0-1.15,44016,List1B,black,woman,,,,null,,,,
null,is marrying,,html-keyboard-response,310,1386733,0.0-17.0-2.15,44016,List1B,black,woman,,,,null,,,,
7042,,,survey-text,311,1393776,0.0-17.0-3.15,44016,List1B,black,woman,,,,,"{""Q0"":""ruth is marrying kate""}","<img src=""stim_listB/marry7.gif""</stim_listB>",is marrying,
null,"<div style=""font-size:60px;"">+</div>",,html-keyboard-response,312,1394277,0.0-17.0-0.16,44016,List1B,black,woman,,,,null,,,,
null,"<img src=""stim_listB/fight2.gif""</stim_listB>",,html-keyboard-response,313,1396278,0.0-17.0-1.16,44016,List1B,black,woman,,,,null,,,,
null,are fighting each other,,html-keyboard-response,314,1398280,0.0-17.0-2.16,44016,List1B,black,woman,,,,null,,,,
10438,,,survey-text,315,1408718,0.0-17.0-3.16,44016,List1B,black,woman,,,,,"{""Q0"":""fred and beth are fighting with each other""}","<img src=""stim_listB/fight2.gif""</stim_listB>",are fighting each other,
null,"<div style=""font-size:60px;"">+</div>",,html-keyboard-response,316,1409219,0.0-17.0-0.17,44016,List1B,black,woman,,,,null,,,,
null,"<img src=""stim_listB/dance5.gif""</stim_listB>",,html-keyboard-response,317,1411220,0.0-17.0-1.17,44016,List1B,black,woman,,,,null,,,,
null,is dancing with,,html-keyboard-response,318,1413222,0.0-17.0-2.17,44016,List1B,black,woman,,,,null,,,,
8458,,,survey-text,319,1421680,0.0-17.0-3.17,44016,List1B,black,woman,,,,,"{""Q0"":""fred is dancing with dave""}","<img src=""stim_listB/dance5.gif""</stim_listB>",is dancing with,
null,"<div style=""font-size:60px;"">+</div>",,html-keyboard-response,320,1422181,0.0-17.0-0.18,44016,List1B,black,woman,,,,null,,,,
null,"<img src=""stim_listB/shout6.gif""</stim_listB>",,html-keyboard-response,321,1424183,0.0-17.0-1.18,44016,List1B,black,woman,,,,null,,,,
null,are shouting at each other,,html-keyboard-response,322,1426184,0.0-17.0-2.18,44016,List1B,black,woman,,,,null,,,,
9033,,,survey-text,323,1435218,0.0-17.0-3.18,44016,List1B,black,woman,,,,,"{""Q0"":""dave and mike are shouting at each other""}","<img src=""stim_listB/shout6.gif""</stim_listB>",are shouting at each other,
null,"<div style=""font-size:60px;"">+</div>",,html-keyboard-response,324,1435719,0.0-17.0-0.19,44016,List1B,black,woman,,,,null,,,,
null,"<img src=""stim_listB/dance3.gif""</stim_listB>",,html-keyboard-response,325,1437721,0.0-17.0-1.19,44016,List1B,black,woman,,,,null,,,,
null,is dancing with,,html-keyboard-response,326,1439722,0.0-17.0-2.19,44016,List1B,black,woman,,,,null,,,,
8161,,,survey-text,327,1447884,0.0-17.0-3.19,44016,List1B,black,woman,,,,,"{""Q0"":""jane is dancing with luke""}","<img src=""stim_listB/dance3.gif""</stim_listB>",is dancing with,
5775,"<img src='img/portrait_matrix_list1.JPG' style='width:900px;height:500px;''></img><p>If you have memorised all the portraits and names and are ready to start, press Continue.</p><p><strong>Please note: Your memory of these faces will be tested 4 times during this experiment.</strong></p>",0,html-button-response,328,1453660,0.0-18.0-0.0,44016,List1B,black,woman,,,,,,,,
3993,"<img src=""portrait/WM1.jpg""style=""width:400px;height:400px;""></img>",6,html-button-response,329,1458656,0.0-18.0-1.0,44016,List1B,black,woman,,TRUE,6,,,,,
null,CORRECT,,html-keyboard-response,330,1460160,0.0-18.0-2.0-0.0,44016,List1B,black,woman,,,,null,,,,
8613,"<img src=""portrait/WM2.jpg""style=""width:400px;height:400px;""></img>",7,html-button-response,331,1468773,0.0-18.0-4.0,44016,List1B,black,woman,,TRUE,7,,,,,
null,CORRECT,,html-keyboard-response,332,1470275,0.0-18.0-5.0-0.0,44016,List1B,black,woman,,,,null,,,,
2466,"<img src=""portrait/WW2.jpg""style=""width:400px;height:400px;""></img>",3,html-button-response,333,1472743,0.0-18.0-7.0,44016,List1B,black,woman,,TRUE,3,,,,,
null,CORRECT,,html-keyboard-response,334,1474245,0.0-18.0-8.0-0.0,44016,List1B,black,woman,,,,null,,,,
2004,"<img src=""portrait/BW1.jpg""style=""width:400px;height:400px;""></img>",0,html-button-response,335,1476251,0.0-18.0-10.0,44016,List1B,black,woman,,TRUE,0,,,,,
null,CORRECT,,html-keyboard-response,336,1477754,0.0-18.0-11.0-0.0,44016,List1B,black,woman,,,,null,,,,
1521,"<img src=""portrait/BW2.jpg""style=""width:400px;height:400px;""></img>",2,html-button-response,337,1479276,0.0-18.0-13.0,44016,List1B,black,woman,,TRUE,2,,,,,
null,CORRECT,,html-keyboard-response,338,1480777,0.0-18.0-14.0-0.0,44016,List1B,black,woman,,,,null,,,,
2727,"<img src=""portrait/BM1.jpg""style=""width:400px;height:400px;""></img>",4,html-button-response,339,1483506,0.0-18.0-16.0,44016,List1B,black,woman,,TRUE,4,,,,,
null,CORRECT,,html-keyboard-response,340,1485008,0.0-18.0-17.0-0.0,44016,List1B,black,woman,,,,null,,,,
1956,"<img src=""portrait/WW1.jpg""style=""width:400px;height:400px;""></img>",1,html-button-response,341,1486964,0.0-18.0-19.0,44016,List1B,black,woman,,TRUE,1,,,,,
null,CORRECT,,html-keyboard-response,342,1488465,0.0-18.0-20.0-0.0,44016,List1B,black,woman,,,,null,,,,
2706,"<img src=""portrait/BM2.jpg""style=""width:400px;height:400px;""></img>",5,html-button-response,343,1491172,0.0-18.0-22.0,44016,List1B,black,woman,,TRUE,5,,,,,
null,CORRECT,,html-keyboard-response,344,1492675,0.0-18.0-23.0-0.0,44016,List1B,black,woman,,,,null,,,,
1991,<p>You got 8 out of 8 right first time. Press Continue.</p>,0,html-button-response,345,1494667,0.0-18.0-25.0,44016,List1B,black,woman,,,,,,,,
null,"<div style=""font-size:60px;"">+</div>",,html-keyboard-response,346,1496169,0.0-19.0-0.0,44016,List1B,black,woman,,,,null,,,,
null,"<img src=""stim_listB/shout3.gif""</stim_listB>",,html-keyboard-response,347,1498171,0.0-19.0-1.0,44016,List1B,black,woman,,,,null,,,,
null,is shouting at,,html-keyboard-response,348,1500173,0.0-19.0-2.0,44016,List1B,black,woman,,,,null,,,,
11532,,,survey-text,349,1511706,0.0-19.0-3.0,44016,List1B,black,woman,,,,,"{""Q0"":""ruth is shouting at luke""}","<img src=""stim_listB/shout3.gif""</stim_listB>",is shouting at,
null,"<div style=""font-size:60px;"">+</div>",,html-keyboard-response,350,1512206,0.0-19.0-0.1,44016,List1B,black,woman,,,,null,,,,
null,"<img src=""stim_listB/fight5.gif""</stim_listB>",,html-keyboard-response,351,1514207,0.0-19.0-1.1,44016,List1B,black,woman,,,,null,,,,
null,is fighting,,html-keyboard-response,352,1516209,0.0-19.0-2.1,44016,List1B,black,woman,,,,null,,,,
6718,,,survey-text,353,1522928,0.0-19.0-3.1,44016,List1B,black,woman,,,,,"{""Q0"":""dave is fighting mike""}","<img src=""stim_listB/fight5.gif""</stim_listB>",is fighting,
null,"<div style=""font-size:60px;"">+</div>",,html-keyboard-response,354,1523429,0.0-19.0-0.2,44016,List1B,black,woman,,,,null,,,,
null,"<img src=""stim_listB/marry3.gif""</stim_listB>",,html-keyboard-response,355,1525430,0.0-19.0-1.2,44016,List1B,black,woman,,,,null,,,,
null,is marrying,,html-keyboard-response,356,1527432,0.0-19.0-2.2,44016,List1B,black,woman,,,,null,,,,
8607,,,survey-text,357,1536039,0.0-19.0-3.2,44016,List1B,black,woman,,,,,"{""Q0"":""dave is marrying ruth""}","<img src=""stim_listB/marry3.gif""</stim_listB>",is marrying,
null,"<div style=""font-size:60px;"">+</div>",,html-keyboard-response,358,1536540,0.0-19.0-0.3,44016,List1B,black,woman,,,,null,,,,
null,"<img src=""stim_listB/hug2.gif""</stim_listB>",,html-keyboard-response,359,1538543,0.0-19.0-1.3,44016,List1B,black,woman,,,,null,,,,
null,are hugging each other,,html-keyboard-response,360,1540544,0.0-19.0-2.3,44016,List1B,black,woman,,,,null,,,,
10814,,,survey-text,361,1551359,0.0-19.0-3.3,44016,List1B,black,woman,,,,,"{""Q0"":""mike and kate are hugging each other""}","<img src=""stim_listB/hug2.gif""</stim_listB>",are hugging each other,
null,"<div style=""font-size:60px;"">+</div>",,html-keyboard-response,362,1551860,0.0-19.0-0.4,44016,List1B,black,woman,,,,null,,,,
null,"<img src=""stim_listB/dance4.gif""</stim_listB>",,html-keyboard-response,363,1553862,0.0-19.0-1.4,44016,List1B,black,woman,,,,null,,,,
null,are dancing with each other,,html-keyboard-response,364,1555863,0.0-19.0-2.4,44016,List1B,black,woman,,,,null,,,,
10469,,,survey-text,365,1566332,0.0-19.0-3.4,44016,List1B,black,woman,,,,,"{""Q0"":""ruth and dave are fighting with each other""}","<img src=""stim_listB/dance4.gif""</stim_listB>",are dancing with each other,
null,"<div style=""font-size:60px;"">+</div>",,html-keyboard-response,366,1566833,0.0-19.0-0.5,44016,List1B,black,woman,,,,null,,,,
null,"<img src=""stim_listB/touch7.gif""</stim_listB>",,html-keyboard-response,367,1568834,0.0-19.0-1.5,44016,List1B,black,woman,,,,null,,,,
null,is touching,,html-keyboard-response,368,1570836,0.0-19.0-2.5,44016,List1B,black,woman,,,,null,,,,
10302,,,survey-text,369,1581138,0.0-19.0-3.5,44016,List1B,black,woman,,,,,"{""Q0"":""kate is touching jane""}","<img src=""stim_listB/touch7.gif""</stim_listB>",is touching,
null,"<div style=""font-size:60px;"">+</div>",,html-keyboard-response,370,1581640,0.0-19.0-0.6,44016,List1B,black,woman,,,,null,,,,
null,"<img src=""stim_listB/kiss4.gif""</stim_listB>",,html-keyboard-response,371,1583642,0.0-19.0-1.6,44016,List1B,black,woman,,,,null,,,,
null,are kissing each other,,html-keyboard-response,372,1585644,0.0-19.0-2.6,44016,List1B,black,woman,,,,null,,,,
12255,,,survey-text,373,1597900,0.0-19.0-3.6,44016,List1B,black,woman,,,,,"{""Q0"":""luke and jane are kissing each other""}","<img src=""stim_listB/kiss4.gif""</stim_listB>",are kissing each other,
null,"<div style=""font-size:60px;"">+</div>",,html-keyboard-response,374,1598401,0.0-19.0-0.7,44016,List1B,black,woman,,,,null,,,,
null,"<img src=""stim_listB/argue3.gif""</stim_listB>",,html-keyboard-response,375,1600403,0.0-19.0-1.7,44016,List1B,black,woman,,,,null,,,,
null,is arguing with,,html-keyboard-response,376,1602405,0.0-19.0-2.7,44016,List1B,black,woman,,,,null,,,,
8953,,,survey-text,377,1611359,0.0-19.0-3.7,44016,List1B,black,woman,,,,,"{""Q0"":""ruth is arguing with dave""}","<img src=""stim_listB/argue3.gif""</stim_listB>",is arguing with,
null,"<div style=""font-size:60px;"">+</div>",,html-keyboard-response,378,1611860,0.0-19.0-0.8,44016,List1B,black,woman,,,,null,,,,
null,"<img src=""stim_listB/argue8.gif""</stim_listB>",,html-keyboard-response,379,1613863,0.0-19.0-1.8,44016,List1B,black,woman,,,,null,,,,
null,are arguing with each other,,html-keyboard-response,380,1615864,0.0-19.0-2.8,44016,List1B,black,woman,,,,null,,,,
13577,,,survey-text,381,1629441,0.0-19.0-3.8,44016,List1B,black,woman,,,,,"{""Q0"":""beth and jane are arguing with eachother""}","<img src=""stim_listB/argue8.gif""</stim_listB>",are arguing with each other,
null,"<div style=""font-size:60px;"">+</div>",,html-keyboard-response,382,1629942,0.0-19.0-0.9,44016,List1B,black,woman,,,,null,,,,
null,"<img src=""stim_listB/meet2.gif""</stim_listB>",,html-keyboard-response,383,1631944,0.0-19.0-1.9,44016,List1B,black,woman,,,,null,,,,
null,are meeting each other,,html-keyboard-response,384,1633945,0.0-19.0-2.9,44016,List1B,black,woman,,,,null,,,,
11620,,,survey-text,385,1645565,0.0-19.0-3.9,44016,List1B,black,woman,,,,,"{""Q0"":""fred and beth are meeting with each other""}","<img src=""stim_listB/meet2.gif""</stim_listB>",are meeting each other,
null,"<div style=""font-size:60px;"">+</div>",,html-keyboard-response,386,1646067,0.0-19.0-0.10,44016,List1B,black,woman,,,,null,,,,
null,"<img src=""stim_listB/meet4.gif""</stim_listB>",,html-keyboard-response,387,1648067,0.0-19.0-1.10,44016,List1B,black,woman,,,,null,,,,
null,are meeting each other,,html-keyboard-response,388,1650069,0.0-19.0-2.10,44016,List1B,black,woman,,,,null,,,,
10888,,,survey-text,389,1660957,0.0-19.0-3.10,44016,List1B,black,woman,,,,,"{""Q0"":""ruth and luke are meeting each other""}","<img src=""stim_listB/meet4.gif""</stim_listB>",are meeting each other,
null,"<div style=""font-size:60px;"">+</div>",,html-keyboard-response,390,1661459,0.0-19.0-0.11,44016,List1B,black,woman,,,,null,,,,
null,"<img src=""stim_listB/fight7.gif""</stim_listB>",,html-keyboard-response,391,1663461,0.0-19.0-1.11,44016,List1B,black,woman,,,,null,,,,
null,is fighting,,html-keyboard-response,392,1665462,0.0-19.0-2.11,44016,List1B,black,woman,,,,null,,,,
11117,,,survey-text,393,1676580,0.0-19.0-3.11,44016,List1B,black,woman,,,,,"{""Q0"":""jane is fighting kate""}","<img src=""stim_listB/fight7.gif""</stim_listB>",is fighting,
null,"<div style=""font-size:60px;"">+</div>",,html-keyboard-response,394,1677081,0.0-19.0-0.12,44016,List1B,black,woman,,,,null,,,,
null,"<img src=""stim_listB/dance8.gif""</stim_listB>",,html-keyboard-response,395,1679083,0.0-19.0-1.12,44016,List1B,black,woman,,,,null,,,,
null,are dancing with each other,,html-keyboard-response,396,1681084,0.0-19.0-2.12,44016,List1B,black,woman,,,,null,,,,
13959,,,survey-text,397,1695044,0.0-19.0-3.12,44016,List1B,black,woman,,,,,"{""Q0"":""kate and jane are dancing with each other""}","<img src=""stim_listB/dance8.gif""</stim_listB>",are dancing with each other,
null,"<div style=""font-size:60px;"">+</div>",,html-keyboard-response,398,1695545,0.0-19.0-0.13,44016,List1B,black,woman,,,,null,,,,
null,"<img src=""stim_listB/kiss1.gif""</stim_listB>",,html-keyboard-response,399,1697548,0.0-19.0-1.13,44016,List1B,black,woman,,,,null,,,,
null,is kissing,,html-keyboard-response,400,1699550,0.0-19.0-2.13,44016,List1B,black,woman,,,,null,,,,
8051,,,survey-text,401,1707601,0.0-19.0-3.13,44016,List1B,black,woman,,,,,"{""Q0"":""fred is kissing beth""}","<img src=""stim_listB/kiss1.gif""</stim_listB>",is kissing,
null,"<div style=""font-size:60px;"">+</div>",,html-keyboard-response,402,1708102,0.0-19.0-0.14,44016,List1B,black,woman,,,,null,,,,
null,"<img src=""stim_listB/dance7.gif""</stim_listB>",,html-keyboard-response,403,1710104,0.0-19.0-1.14,44016,List1B,black,woman,,,,null,,,,
null,is dancing with,,html-keyboard-response,404,1712106,0.0-19.0-2.14,44016,List1B,black,woman,,,,null,,,,
8868,,,survey-text,405,1720975,0.0-19.0-3.14,44016,List1B,black,woman,,,,,"{""Q0"":""beth is dancing with jane""}","<img src=""stim_listB/dance7.gif""</stim_listB>",is dancing with,
null,"<div style=""font-size:60px;"">+</div>",,html-keyboard-response,406,1721476,0.0-19.0-0.15,44016,List1B,black,woman,,,,null,,,,
null,"<img src=""stim_listB/kiss3.gif""</stim_listB>",,html-keyboard-response,407,1723479,0.0-19.0-1.15,44016,List1B,black,woman,,,,null,,,,
null,is kissing,,html-keyboard-response,408,1725479,0.0-19.0-2.15,44016,List1B,black,woman,,,,null,,,,
8298,,,survey-text,409,1733779,0.0-19.0-3.15,44016,List1B,black,woman,,,,,"{""Q0"":""ruth is kissing dave""}","<img src=""stim_listB/kiss3.gif""</stim_listB>",is kissing,
null,"<div style=""font-size:60px;"">+</div>",,html-keyboard-response,410,1734280,0.0-19.0-0.16,44016,List1B,black,woman,,,,null,,,,
null,"<img src=""stim_listB/hug8.gif""</stim_listB>",,html-keyboard-response,411,1736281,0.0-19.0-1.16,44016,List1B,black,woman,,,,null,,,,
null,are hugging each other,,html-keyboard-response,412,1738282,0.0-19.0-2.16,44016,List1B,black,woman,,,,null,,,,
10167,,,survey-text,413,1748450,0.0-19.0-3.16,44016,List1B,black,woman,,,,,"{""Q0"":""jane and kate are hugging each other""}","<img src=""stim_listB/hug8.gif""</stim_listB>",are hugging each other,
null,"<div style=""font-size:60px;"">+</div>",,html-keyboard-response,414,1748950,0.0-19.0-0.17,44016,List1B,black,woman,,,,null,,,,
null,"<img src=""stim_listB/dance6.gif""</stim_listB>",,html-keyboard-response,415,1750951,0.0-19.0-1.17,44016,List1B,black,woman,,,,null,,,,
null,are dancing with each other,,html-keyboard-response,416,1752952,0.0-19.0-2.17,44016,List1B,black,woman,,,,null,,,,
11418,,,survey-text,417,1764371,0.0-19.0-3.17,44016,List1B,black,woman,,,,,"{""Q0"":""dave and mike are hugging each other""}","<img src=""stim_listB/dance6.gif""</stim_listB>",are dancing with each other,
null,"<div style=""font-size:60px;"">+</div>",,html-keyboard-response,418,1764872,0.0-19.0-0.18,44016,List1B,black,woman,,,,null,,,,
null,"<img src=""stim_listB/touch5.gif""</stim_listB>",,html-keyboard-response,419,1766875,0.0-19.0-1.18,44016,List1B,black,woman,,,,null,,,,
null,is touching,,html-keyboard-response,420,1768876,0.0-19.0-2.18,44016,List1B,black,woman,,,,null,,,,
14798,,,survey-text,421,1783675,0.0-19.0-3.18,44016,List1B,black,woman,,,,,"{""Q0"":""dave is touching mike""}","<img src=""stim_listB/touch5.gif""</stim_listB>",is touching,
null,"<div style=""font-size:60px;"">+</div>",,html-keyboard-response,422,1784177,0.0-19.0-0.19,44016,List1B,black,woman,,,,null,,,,
null,"<img src=""stim_listB/argue5.gif""</stim_listB>",,html-keyboard-response,423,1786179,0.0-19.0-1.19,44016,List1B,black,woman,,,,null,,,,
null,is arguing with,,html-keyboard-response,424,1788181,0.0-19.0-2.19,44016,List1B,black,woman,,,,null,,,,
8043,,,survey-text,425,1796225,0.0-19.0-3.19,44016,List1B,black,woman,,,,,"{""Q0"":""luke is arguing with mike""}","<img src=""stim_listB/argue5.gif""</stim_listB>",is arguing with,
2375,<p>Thank you for completing that task.</p><p>The final part of this session is a short questionnaire.</p><p>Press Continue.</p>,0,html-button-response,426,1798600,0.0-20.0,44016,List1B,black,woman,,,,,,,,
28716,,,survey-text,427,1828319,0.0-21.0,44016,List1B,black,woman,,,,,"{""Q0"":""21"",""Q1"":""english"",""Q2"":""english"",""Q3"":""UK"",""Q4"":""Black"",""Q5"":""female""}",,,demographics
90834,,,survey-likert,428,1919157,0.0-22.0,44016,List1B,black,woman,,,,,"{""Q0"":5,""Q1"":5,""Q2"":5,""Q3"":6,""Q4"":6,""Q5"":4,""Q6"":6,""Q7"":2,""Q8"":5,""Q9"":5,""Q10"":3,""Q11"":5,""Q12"":6,""Q13"":4}",,,likert_race
86976,,,survey-likert,429,2006138,0.0-23.0,44016,List1B,black,woman,,,,,"{""Q0"":4,""Q1"":4,""Q2"":5,""Q3"":6,""Q4"":5,""Q5"":4,""Q6"":4,""Q7"":1,""Q8"":5,""Q9"":5,""Q10"":3,""Q11"":1,""Q12"":4,""Q13"":5}",,,likert_gender
11517,,,survey-text,430,2017658,0.0-24.0,44016,List1B,black,woman,,,,,"{""Q0"":""ccc""}",,,worker_id
2417,,,external-html,431,2020163,0.0-25.0,44016,List1B,black,woman,debrief.html,,,,,,,
