rt,stimulus,button_pressed,trial_type,trial_index,time_elapsed,internal_node_id,subject,list,ppt_race,ppt_gender,url,first_guess,correct,key_press,responses,image_type,phrase_type,test_part
2722,Welcome to the experiment. Press Continue to begin.,0,html-button-response,0,2749,0.0-0.0,45314,List2A,black,woman,,,,,,,,
18583,,,external-html,1,22505,0.0-1.0,45314,List2A,black,woman,consent.html,,,,,,,
3540,"<p>On the next page, you will see portraits of 8 people and their names.</p><p>Your first task is to take a few minutes to memorise the names of these people.</p><p>You will have to recall their names during the rest of the experiment, so it is</p><p>essential that you try to memorise these people and their names as best as you can.</p><br><p><strong>You will then be tested on your memory of these names and portraits.</strong></p><br><p>The experiment will start after you have completed this memory test.</p><br><p>Ready?</p>",0,html-button-response,2,26047,0.0-2.0,45314,List2A,black,woman,,,,,,,,
13008,"<img src='img/portrait_matrix_list2.JPG' style='width:900px;height:500px;''></img><p>If you have memorised all the portraits and names and are ready to start, press Continue.</p><p><strong>Please note: Your memory of these faces will be tested 4 times during this experiment.</strong></p>",0,html-button-response,3,40059,0.0-3.0-0.0,45314,List2A,black,woman,,,,,,,,
7524,"<img src=""portrait/BM1.jpg""style=""width:400px;height:400px;""></img>",4,html-button-response,4,48587,0.0-3.0-1.0,45314,List2A,black,woman,,TRUE,4,,,,,
null,CORRECT,,html-keyboard-response,5,50094,0.0-3.0-2.0-0.0,45314,List2A,black,woman,,,,null,,,,
2696,"<img src=""portrait/WW2.jpg""style=""width:400px;height:400px;""></img>",3,html-button-response,6,52792,0.0-3.0-4.0,45314,List2A,black,woman,,TRUE,3,,,,,
null,CORRECT,,html-keyboard-response,7,54300,0.0-3.0-5.0-0.0,45314,List2A,black,woman,,,,null,,,,
3935,"<img src=""portrait/BM2.jpg""style=""width:400px;height:400px;""></img>",5,html-button-response,8,58236,0.0-3.0-7.0,45314,List2A,black,woman,,TRUE,5,,,,,
null,CORRECT,,html-keyboard-response,9,59742,0.0-3.0-8.0-0.0,45314,List2A,black,woman,,,,null,,,,
4655,"<img src=""portrait/WM2.jpg""style=""width:400px;height:400px;""></img>",7,html-button-response,10,64399,0.0-3.0-10.0,45314,List2A,black,woman,,TRUE,7,,,,,
null,CORRECT,,html-keyboard-response,11,65904,0.0-3.0-11.0-0.0,45314,List2A,black,woman,,,,null,,,,
3001,"<img src=""portrait/WW1.jpg""style=""width:400px;height:400px;""></img>",0,html-button-response,12,68907,0.0-3.0-13.0,45314,List2A,black,woman,,TRUE,1,,,,,
2101,"<img src=""portrait/WW1.jpg""style=""width:400px;height:400px;""></img>",1,html-button-response,13,72011,0.0-3.0-15.0-0.0,45314,List2A,black,woman,,FALSE,1,,,,,
null,CORRECT,,html-keyboard-response,14,73517,0.0-3.0-15.0-1.0-0.0,45314,List2A,black,woman,,,,null,,,,
3793,"<img src=""portrait/WM1.jpg""style=""width:400px;height:400px;""></img>",6,html-button-response,15,77311,0.0-3.0-16.0,45314,List2A,black,woman,,TRUE,6,,,,,
null,CORRECT,,html-keyboard-response,16,78818,0.0-3.0-17.0-0.0,45314,List2A,black,woman,,,,null,,,,
4661,"<img src=""portrait/BW2.jpg""style=""width:400px;height:400px;""></img>",2,html-button-response,17,83480,0.0-3.0-19.0,45314,List2A,black,woman,,TRUE,2,,,,,
null,CORRECT,,html-keyboard-response,18,84990,0.0-3.0-20.0-0.0,45314,List2A,black,woman,,,,null,,,,
3495,"<img src=""portrait/BW1.jpg""style=""width:400px;height:400px;""></img>",3,html-button-response,19,88486,0.0-3.0-22.0,45314,List2A,black,woman,,TRUE,0,,,,,
1421,"<img src=""portrait/BW1.jpg""style=""width:400px;height:400px;""></img>",0,html-button-response,20,90910,0.0-3.0-24.0-0.0,45314,List2A,black,woman,,FALSE,0,,,,,
null,CORRECT,,html-keyboard-response,21,92417,0.0-3.0-24.0-1.0-0.0,45314,List2A,black,woman,,,,null,,,,
2220,<p>You got 6 out of 8 right first time. Press Continue.</p>,0,html-button-response,22,94638,0.0-3.0-25.0,45314,List2A,black,woman,,,,,,,,
1336,"As you did not score 100%, the memory game will repeat. Press Continue.",0,html-button-response,23,96976,0.0-3.0-26.0-0.0,45314,List2A,black,woman,,,,,,,,
15518,"<img src='img/portrait_matrix_list2.JPG' style='width:900px;height:500px;''></img><p>If you have memorised all the portraits and names and are ready to start, press Continue.</p><p><strong>Please note: Your memory of these faces will be tested 4 times during this experiment.</strong></p>",0,html-button-response,24,113501,0.0-3.1-0.1,45314,List2A,black,woman,,,,,,,,
16044,"<img src=""portrait/BM1.jpg""style=""width:400px;height:400px;""></img>",4,html-button-response,25,130548,0.0-3.1-1.1,45314,List2A,black,woman,,TRUE,4,,,,,
null,CORRECT,,html-keyboard-response,26,132058,0.0-3.1-2.1-0.1,45314,List2A,black,woman,,,,null,,,,
1913,"<img src=""portrait/WW2.jpg""style=""width:400px;height:400px;""></img>",3,html-button-response,27,133974,0.0-3.1-4.1,45314,List2A,black,woman,,TRUE,3,,,,,
null,CORRECT,,html-keyboard-response,28,135476,0.0-3.1-5.1-0.1,45314,List2A,black,woman,,,,null,,,,
2560,"<img src=""portrait/BM2.jpg""style=""width:400px;height:400px;""></img>",5,html-button-response,29,138038,0.0-3.1-7.1,45314,List2A,black,woman,,TRUE,5,,,,,
null,CORRECT,,html-keyboard-response,30,139544,0.0-3.1-8.1-0.1,45314,List2A,black,woman,,,,null,,,,
1796,"<img src=""portrait/WM2.jpg""style=""width:400px;height:400px;""></img>",7,html-button-response,31,141342,0.0-3.1-10.1,45314,List2A,black,woman,,TRUE,7,,,,,
null,CORRECT,,html-keyboard-response,32,142850,0.0-3.1-11.1-0.1,45314,List2A,black,woman,,,,null,,,,
2499,"<img src=""portrait/WW1.jpg""style=""width:400px;height:400px;""></img>",1,html-button-response,33,145350,0.0-3.1-13.1,45314,List2A,black,woman,,TRUE,1,,,,,
null,CORRECT,,html-keyboard-response,34,146860,0.0-3.1-14.1-0.1,45314,List2A,black,woman,,,,null,,,,
2664,"<img src=""portrait/WM1.jpg""style=""width:400px;height:400px;""></img>",6,html-button-response,35,149526,0.0-3.1-16.1,45314,List2A,black,woman,,TRUE,6,,,,,
null,CORRECT,,html-keyboard-response,36,151030,0.0-3.1-17.1-0.1,45314,List2A,black,woman,,,,null,,,,
2182,"<img src=""portrait/BW2.jpg""style=""width:400px;height:400px;""></img>",0,html-button-response,37,153214,0.0-3.1-19.1,45314,List2A,black,woman,,TRUE,2,,,,,
1461,"<img src=""portrait/BW2.jpg""style=""width:400px;height:400px;""></img>",2,html-button-response,38,155678,0.0-3.1-21.1-0.1,45314,List2A,black,woman,,FALSE,2,,,,,
null,CORRECT,,html-keyboard-response,39,157183,0.0-3.1-21.1-1.1-0.1,45314,List2A,black,woman,,,,null,,,,
3950,"<img src=""portrait/BW1.jpg""style=""width:400px;height:400px;""></img>",0,html-button-response,40,161134,0.0-3.1-22.1,45314,List2A,black,woman,,TRUE,0,,,,,
null,CORRECT,,html-keyboard-response,41,162642,0.0-3.1-23.1-0.1,45314,List2A,black,woman,,,,null,,,,
1237,<p>You got 7 out of 8 right first time. Press Continue.</p>,0,html-button-response,42,163880,0.0-3.1-25.1,45314,List2A,black,woman,,,,,,,,
990,"As you did not score 100%, the memory game will repeat. Press Continue.",0,html-button-response,43,165875,0.0-3.1-26.1-0.1,45314,List2A,black,woman,,,,,,,,
1825,"<img src='img/portrait_matrix_list2.JPG' style='width:900px;height:500px;''></img><p>If you have memorised all the portraits and names and are ready to start, press Continue.</p><p><strong>Please note: Your memory of these faces will be tested 4 times during this experiment.</strong></p>",0,html-button-response,44,168707,0.0-3.2-0.2,45314,List2A,black,woman,,,,,,,,
6239,"<img src=""portrait/BM1.jpg""style=""width:400px;height:400px;""></img>",4,html-button-response,45,175951,0.0-3.2-1.2,45314,List2A,black,woman,,TRUE,4,,,,,
null,CORRECT,,html-keyboard-response,46,177461,0.0-3.2-2.2-0.2,45314,List2A,black,woman,,,,null,,,,
1977,"<img src=""portrait/WW2.jpg""style=""width:400px;height:400px;""></img>",3,html-button-response,47,179439,0.0-3.2-4.2,45314,List2A,black,woman,,TRUE,3,,,,,
null,CORRECT,,html-keyboard-response,48,180944,0.0-3.2-5.2-0.2,45314,List2A,black,woman,,,,null,,,,
7160,"<img src=""portrait/BM2.jpg""style=""width:400px;height:400px;""></img>",5,html-button-response,49,188106,0.0-3.2-7.2,45314,List2A,black,woman,,TRUE,5,,,,,
null,CORRECT,,html-keyboard-response,50,189611,0.0-3.2-8.2-0.2,45314,List2A,black,woman,,,,null,,,,
1537,"<img src=""portrait/WM2.jpg""style=""width:400px;height:400px;""></img>",7,html-button-response,51,191150,0.0-3.2-10.2,45314,List2A,black,woman,,TRUE,7,,,,,
null,CORRECT,,html-keyboard-response,52,192659,0.0-3.2-11.2-0.2,45314,List2A,black,woman,,,,null,,,,
2795,"<img src=""portrait/WW1.jpg""style=""width:400px;height:400px;""></img>",1,html-button-response,53,195456,0.0-3.2-13.2,45314,List2A,black,woman,,TRUE,1,,,,,
null,CORRECT,,html-keyboard-response,54,196966,0.0-3.2-14.2-0.2,45314,List2A,black,woman,,,,null,,,,
8695,"<img src=""portrait/WM1.jpg""style=""width:400px;height:400px;""></img>",6,html-button-response,55,205662,0.0-3.2-16.2,45314,List2A,black,woman,,TRUE,6,,,,,
null,CORRECT,,html-keyboard-response,56,207172,0.0-3.2-17.2-0.2,45314,List2A,black,woman,,,,null,,,,
5119,"<img src=""portrait/BW2.jpg""style=""width:400px;height:400px;""></img>",2,html-button-response,57,212292,0.0-3.2-19.2,45314,List2A,black,woman,,TRUE,2,,,,,
null,CORRECT,,html-keyboard-response,58,213800,0.0-3.2-20.2-0.2,45314,List2A,black,woman,,,,null,,,,
3395,"<img src=""portrait/BW1.jpg""style=""width:400px;height:400px;""></img>",0,html-button-response,59,217196,0.0-3.2-22.2,45314,List2A,black,woman,,TRUE,0,,,,,
null,CORRECT,,html-keyboard-response,60,218704,0.0-3.2-23.2-0.2,45314,List2A,black,woman,,,,null,,,,
1236,<p>You got 8 out of 8 right first time. Press Continue.</p>,0,html-button-response,61,219940,0.0-3.2-25.2,45314,List2A,black,woman,,,,,,,,
17378,"<p>In this experiment, you will view photographs of the people from the memory game interacting.</p><p>By using the <strong>exact</strong> phrase given <i>after</i> the photograph appears and recalling the correct names of the people in the photographs, form a sentence describing the interaction. You do not need to capitalise names.</p><p>Type your answer in the space provided. Please complete every sentence before moving onto the next trial.</p><p>You will only have a few seconds to memorise each given photograph and phrase before you can respond, so try your best to focus.</p><p>An example is given below. Press 'Continue' when you are ready.</p><img src='img/speaking_example_v2.jpg' style='width:800px;height:460px;''></img>",0,html-button-response,62,238323,0.0-4.0,45314,List2A,black,woman,,,,,,,,
1368,"<p>Before the experiment starts, you will watch two example trials. Press 'Continue'.</p>",0,html-button-response,63,240697,0.0-5.0,45314,List2A,black,woman,,,,,,,,
null,<img src='img/speaking_WW.gif'></img>,,html-keyboard-response,64,243699,0.0-6.0,45314,List2A,black,woman,,,,null,,,,
null,<p>is speaking to</p>,,html-keyboard-response,65,245700,0.0-7.0,45314,List2A,black,woman,,,,null,,,,
1270,<p><b>Answer:</b> jane is speaking to ruth</p>,0,html-button-response,66,246971,0.0-8.0,45314,List2A,black,woman,,,,,,,,
null,<img src='img/pointing_BM.gif'></img>,,html-keyboard-response,67,249981,0.0-9.0,45314,List2A,black,woman,,,,null,,,,
null,<p>are pointing at each other</p>,,html-keyboard-response,68,251984,0.0-10.0,45314,List2A,black,woman,,,,null,,,,
3889,<p><b>Answer:</b> fred and mike are pointing at each other</p>,0,html-button-response,69,255874,0.0-11.0,45314,List2A,black,woman,,,,,,,,
2898,"<p>Ready to start the experiment?</p><br><p><strong>Remember to describe the picture using a full sentence,</strong></p><p><strong> that combines the names of the people with the given phrase.</strong></p><p><strong> You do not need to capitalise names or use punctuation.</strong></p><br><p>Press 'Continue' to begin.</p>",0,html-button-response,70,259775,0.0-12.0,45314,List2A,black,woman,,,,,,,,
null,"<div style=""font-size:60px;"">+</div>",,html-keyboard-response,71,261280,0.0-13.0-0.0,45314,List2A,black,woman,,,,null,,,,
null,"<img src=""stim_listA/kiss4.gif""</stim_listA>",,html-keyboard-response,72,263285,0.0-13.0-1.0,45314,List2A,black,woman,,,,null,,,,
null,are kissing each other,,html-keyboard-response,73,265286,0.0-13.0-2.0,45314,List2A,black,woman,,,,null,,,,
11005,,,survey-text,74,276293,0.0-13.0-3.0,45314,List2A,black,woman,,,,,"{""Q0"":""Kate and Beth are kissing each other.""}","<img src=""stim_listA/kiss4.gif""</stim_listA>",are kissing each other,
null,"<div style=""font-size:60px;"">+</div>",,html-keyboard-response,75,276799,0.0-13.0-0.1,45314,List2A,black,woman,,,,null,,,,
null,"<img src=""stim_listA/argue6.gif""</stim_listA>",,html-keyboard-response,76,278803,0.0-13.0-1.1,45314,List2A,black,woman,,,,null,,,,
null,are arguing with each other,,html-keyboard-response,77,280806,0.0-13.0-2.1,45314,List2A,black,woman,,,,null,,,,
11954,,,survey-text,78,292762,0.0-13.0-3.1,45314,List2A,black,woman,,,,,"{""Q0"":""Fred and Luke are arguing with each other.""}","<img src=""stim_listA/argue6.gif""</stim_listA>",are arguing with each other,
null,"<div style=""font-size:60px;"">+</div>",,html-keyboard-response,79,293264,0.0-13.0-0.2,45314,List2A,black,woman,,,,null,,,,
null,"<img src=""stim_listA/fight6.gif""</stim_listA>",,html-keyboard-response,80,295266,0.0-13.0-1.2,45314,List2A,black,woman,,,,null,,,,
null,are fighting each other,,html-keyboard-response,81,297267,0.0-13.0-2.2,45314,List2A,black,woman,,,,null,,,,
8098,,,survey-text,82,305366,0.0-13.0-3.2,45314,List2A,black,woman,,,,,"{""Q0"":""Fred and Luke are fighting each other.""}","<img src=""stim_listA/fight6.gif""</stim_listA>",are fighting each other,
null,"<div style=""font-size:60px;"">+</div>",,html-keyboard-response,83,305871,0.0-13.0-0.3,45314,List2A,black,woman,,,,null,,,,
null,"<img src=""stim_listA/hug1.gif""</stim_listA>",,html-keyboard-response,84,307876,0.0-13.0-1.3,45314,List2A,black,woman,,,,null,,,,
null,is hugging,,html-keyboard-response,85,309878,0.0-13.0-2.3,45314,List2A,black,woman,,,,null,,,,
5150,,,survey-text,86,315030,0.0-13.0-3.3,45314,List2A,black,woman,,,,,"{""Q0"":""Ruth is hugging Luke.""}","<img src=""stim_listA/hug1.gif""</stim_listA>",is hugging,
null,"<div style=""font-size:60px;"">+</div>",,html-keyboard-response,87,315532,0.0-13.0-0.4,45314,List2A,black,woman,,,,null,,,,
null,"<img src=""stim_listA/talk1.gif""</stim_listA>",,html-keyboard-response,88,317535,0.0-13.0-1.4,45314,List2A,black,woman,,,,null,,,,
null,is talking to,,html-keyboard-response,89,319535,0.0-13.0-2.4,45314,List2A,black,woman,,,,null,,,,
5306,,,survey-text,90,324842,0.0-13.0-3.4,45314,List2A,black,woman,,,,,"{""Q0"":""Jane is talking to Luke.""}","<img src=""stim_listA/talk1.gif""</stim_listA>",is talking to,
null,"<div style=""font-size:60px;"">+</div>",,html-keyboard-response,91,325344,0.0-13.0-0.5,45314,List2A,black,woman,,,,null,,,,
null,"<img src=""stim_listA/marry2.gif""</stim_listA>",,html-keyboard-response,92,327345,0.0-13.0-1.5,45314,List2A,black,woman,,,,null,,,,
null,are marrying each other,,html-keyboard-response,93,329348,0.0-13.0-2.5,45314,List2A,black,woman,,,,null,,,,
7578,,,survey-text,94,336927,0.0-13.0-3.5,45314,List2A,black,woman,,,,,"{""Q0"":""Jane and Luke are marrying each other.""}","<img src=""stim_listA/marry2.gif""</stim_listA>",are marrying each other,
null,"<div style=""font-size:60px;"">+</div>",,html-keyboard-response,95,337430,0.0-13.0-0.6,45314,List2A,black,woman,,,,null,,,,
null,"<img src=""stim_listA/fight5.gif""</stim_listA>",,html-keyboard-response,96,339434,0.0-13.0-1.6,45314,List2A,black,woman,,,,null,,,,
null,is fighting,,html-keyboard-response,97,341436,0.0-13.0-2.6,45314,List2A,black,woman,,,,null,,,,
7008,,,survey-text,98,348445,0.0-13.0-3.6,45314,List2A,black,woman,,,,,"{""Q0"":""Mike is fighting Luke.""}","<img src=""stim_listA/fight5.gif""</stim_listA>",is fighting,
null,"<div style=""font-size:60px;"">+</div>",,html-keyboard-response,99,348951,0.0-13.0-0.7,45314,List2A,black,woman,,,,null,,,,
null,"<img src=""stim_listA/marry8.gif""</stim_listA>",,html-keyboard-response,100,350956,0.0-13.0-1.7,45314,List2A,black,woman,,,,null,,,,
null,are marrying each other,,html-keyboard-response,101,352958,0.0-13.0-2.7,45314,List2A,black,woman,,,,null,,,,
11353,,,survey-text,102,364312,0.0-13.0-3.7,45314,List2A,black,woman,,,,,"{""Q0"":""Kate and Ruth are marrying each other.""}","<img src=""stim_listA/marry8.gif""</stim_listA>",are marrying each other,
null,"<div style=""font-size:60px;"">+</div>",,html-keyboard-response,103,364816,0.0-13.0-0.8,45314,List2A,black,woman,,,,null,,,,
null,"<img src=""stim_listA/marry3.gif""</stim_listA>",,html-keyboard-response,104,366820,0.0-13.0-1.8,45314,List2A,black,woman,,,,null,,,,
null,is marrying,,html-keyboard-response,105,368821,0.0-13.0-2.8,45314,List2A,black,woman,,,,null,,,,
6129,,,survey-text,106,374950,0.0-13.0-3.8,45314,List2A,black,woman,,,,,"{""Q0"":""Beth is marrying Mike.""}","<img src=""stim_listA/marry3.gif""</stim_listA>",is marrying,
null,"<div style=""font-size:60px;"">+</div>",,html-keyboard-response,107,375454,0.0-13.0-0.9,45314,List2A,black,woman,,,,null,,,,
null,"<img src=""stim_listA/meet2.gif""</stim_listA>",,html-keyboard-response,108,377458,0.0-13.0-1.9,45314,List2A,black,woman,,,,null,,,,
null,are meeting each other,,html-keyboard-response,109,379459,0.0-13.0-2.9,45314,List2A,black,woman,,,,null,,,,
12544,,,survey-text,110,392005,0.0-13.0-3.9,45314,List2A,black,woman,,,,,"{""Q0"":""Ruth and Luke are meeting each other.""}","<img src=""stim_listA/meet2.gif""</stim_listA>",are meeting each other,
null,"<div style=""font-size:60px;"">+</div>",,html-keyboard-response,111,392509,0.0-13.0-0.10,45314,List2A,black,woman,,,,null,,,,
null,"<img src=""stim_listA/talk8.gif""</stim_listA>",,html-keyboard-response,112,394510,0.0-13.0-1.10,45314,List2A,black,woman,,,,null,,,,
null,are talking to each other,,html-keyboard-response,113,396511,0.0-13.0-2.10,45314,List2A,black,woman,,,,null,,,,
7569,,,survey-text,114,404081,0.0-13.0-3.10,45314,List2A,black,woman,,,,,"{""Q0"":""Beth and Jane are talking to each other.""}","<img src=""stim_listA/talk8.gif""</stim_listA>",are talking to each other,
null,"<div style=""font-size:60px;"">+</div>",,html-keyboard-response,115,404587,0.0-13.0-0.11,45314,List2A,black,woman,,,,null,,,,
null,"<img src=""stim_listA/hug5.gif""</stim_listA>",,html-keyboard-response,116,406591,0.0-13.0-1.11,45314,List2A,black,woman,,,,null,,,,
null,is hugging,,html-keyboard-response,117,408595,0.0-13.0-2.11,45314,List2A,black,woman,,,,null,,,,
7131,,,survey-text,118,415727,0.0-13.0-3.11,45314,List2A,black,woman,,,,,"{""Q0"":""Luke is hugging Fred.""}","<img src=""stim_listA/hug5.gif""</stim_listA>",is hugging,
null,"<div style=""font-size:60px;"">+</div>",,html-keyboard-response,119,416228,0.0-13.0-0.12,45314,List2A,black,woman,,,,null,,,,
null,"<img src=""stim_listA/argue1.gif""</stim_listA>",,html-keyboard-response,120,418229,0.0-13.0-1.12,45314,List2A,black,woman,,,,null,,,,
null,is arguing with,,html-keyboard-response,121,420231,0.0-13.0-2.12,45314,List2A,black,woman,,,,null,,,,
13102,,,survey-text,122,433334,0.0-13.0-3.12,45314,List2A,black,woman,,,,,"{""Q0"":""Dave is arguing with Ruth.""}","<img src=""stim_listA/argue1.gif""</stim_listA>",is arguing with,
null,"<div style=""font-size:60px;"">+</div>",,html-keyboard-response,123,433837,0.0-13.0-0.13,45314,List2A,black,woman,,,,null,,,,
null,"<img src=""stim_listA/touch3.gif""</stim_listA>",,html-keyboard-response,124,435839,0.0-13.0-1.13,45314,List2A,black,woman,,,,null,,,,
null,is touching,,html-keyboard-response,125,437843,0.0-13.0-2.13,45314,List2A,black,woman,,,,null,,,,
7289,,,survey-text,126,445132,0.0-13.0-3.13,45314,List2A,black,woman,,,,,"{""Q0"":""Mike is touching Kate.""}","<img src=""stim_listA/touch3.gif""</stim_listA>",is touching,
null,"<div style=""font-size:60px;"">+</div>",,html-keyboard-response,127,445636,0.0-13.0-0.14,45314,List2A,black,woman,,,,null,,,,
null,"<img src=""stim_listA/dance5.gif""</stim_listA>",,html-keyboard-response,128,447638,0.0-13.0-1.14,45314,List2A,black,woman,,,,null,,,,
null,is dancing with,,html-keyboard-response,129,449639,0.0-13.0-2.14,45314,List2A,black,woman,,,,null,,,,
6505,,,survey-text,130,456145,0.0-13.0-3.14,45314,List2A,black,woman,,,,,"{""Q0"":""Luke is dancing with Mike.""}","<img src=""stim_listA/dance5.gif""</stim_listA>",is dancing with,
null,"<div style=""font-size:60px;"">+</div>",,html-keyboard-response,131,456649,0.0-13.0-0.15,45314,List2A,black,woman,,,,null,,,,
null,"<img src=""stim_listA/dance2.gif""</stim_listA>",,html-keyboard-response,132,458654,0.0-13.0-1.15,45314,List2A,black,woman,,,,null,,,,
null,are dancing with each other,,html-keyboard-response,133,460656,0.0-13.0-2.15,45314,List2A,black,woman,,,,null,,,,
12034,,,survey-text,134,472691,0.0-13.0-3.15,45314,List2A,black,woman,,,,,"{""Q0"":""Ruth and Dave are dancing with each other.""}","<img src=""stim_listA/dance2.gif""</stim_listA>",are dancing with each other,
null,"<div style=""font-size:60px;"">+</div>",,html-keyboard-response,135,473195,0.0-13.0-0.16,45314,List2A,black,woman,,,,null,,,,
null,"<img src=""stim_listA/shout8.gif""</stim_listA>",,html-keyboard-response,136,475196,0.0-13.0-1.16,45314,List2A,black,woman,,,,null,,,,
null,are shouting at each other,,html-keyboard-response,137,477197,0.0-13.0-2.16,45314,List2A,black,woman,,,,null,,,,
7494,,,survey-text,138,484692,0.0-13.0-3.16,45314,List2A,black,woman,,,,,"{""Q0"":""Jane and Beth are shouting at each other.""}","<img src=""stim_listA/shout8.gif""</stim_listA>",are shouting at each other,
null,"<div style=""font-size:60px;"">+</div>",,html-keyboard-response,139,485197,0.0-13.0-0.17,45314,List2A,black,woman,,,,null,,,,
null,"<img src=""stim_listA/dance4.gif""</stim_listA>",,html-keyboard-response,140,487202,0.0-13.0-1.17,45314,List2A,black,woman,,,,null,,,,
null,are dancing with each other,,html-keyboard-response,141,489206,0.0-13.0-2.17,45314,List2A,black,woman,,,,null,,,,
7618,,,survey-text,142,496824,0.0-13.0-3.17,45314,List2A,black,woman,,,,,"{""Q0"":""Beth and Mike are dancing with each other.""}","<img src=""stim_listA/dance4.gif""</stim_listA>",are dancing with each other,
null,"<div style=""font-size:60px;"">+</div>",,html-keyboard-response,143,497327,0.0-13.0-0.18,45314,List2A,black,woman,,,,null,,,,
null,"<img src=""stim_listA/argue2.gif""</stim_listA>",,html-keyboard-response,144,499331,0.0-13.0-1.18,45314,List2A,black,woman,,,,null,,,,
null,are arguing with each other,,html-keyboard-response,145,501335,0.0-13.0-2.18,45314,List2A,black,woman,,,,null,,,,
8112,,,survey-text,146,509449,0.0-13.0-3.18,45314,List2A,black,woman,,,,,"{""Q0"":""Jane and Luke are arguing with each other.""}","<img src=""stim_listA/argue2.gif""</stim_listA>",are arguing with each other,
null,"<div style=""font-size:60px;"">+</div>",,html-keyboard-response,147,509954,0.0-13.0-0.19,45314,List2A,black,woman,,,,null,,,,
null,"<img src=""stim_listA/touch7.gif""</stim_listA>",,html-keyboard-response,148,511957,0.0-13.0-1.19,45314,List2A,black,woman,,,,null,,,,
null,is touching,,html-keyboard-response,149,513960,0.0-13.0-2.19,45314,List2A,black,woman,,,,null,,,,
5294,,,survey-text,150,519255,0.0-13.0-3.19,45314,List2A,black,woman,,,,,"{""Q0"":""Jane is touching Beth.""}","<img src=""stim_listA/touch7.gif""</stim_listA>",is touching,
3349,"<img src='img/portrait_matrix_list2.JPG' style='width:900px;height:500px;''></img><p>If you have memorised all the portraits and names and are ready to start, press Continue.</p><p><strong>Please note: Your memory of these faces will be tested 4 times during this experiment.</strong></p>",0,html-button-response,151,522607,0.0-14.0-0.0,45314,List2A,black,woman,,,,,,,,
1777,"<img src=""portrait/WW1.jpg""style=""width:400px;height:400px;""></img>",1,html-button-response,152,525386,0.0-14.0-1.0,45314,List2A,black,woman,,TRUE,1,,,,,
null,CORRECT,,html-keyboard-response,153,526893,0.0-14.0-2.0-0.0,45314,List2A,black,woman,,,,null,,,,
2591,"<img src=""portrait/WM1.jpg""style=""width:400px;height:400px;""></img>",6,html-button-response,154,529485,0.0-14.0-4.0,45314,List2A,black,woman,,TRUE,6,,,,,
null,CORRECT,,html-keyboard-response,155,530991,0.0-14.0-5.0-0.0,45314,List2A,black,woman,,,,null,,,,
1982,"<img src=""portrait/WW2.jpg""style=""width:400px;height:400px;""></img>",3,html-button-response,156,532973,0.0-14.0-7.0,45314,List2A,black,woman,,TRUE,3,,,,,
null,CORRECT,,html-keyboard-response,157,534480,0.0-14.0-8.0-0.0,45314,List2A,black,woman,,,,null,,,,
1405,"<img src=""portrait/WM2.jpg""style=""width:400px;height:400px;""></img>",7,html-button-response,158,535886,0.0-14.0-10.0,45314,List2A,black,woman,,TRUE,7,,,,,
null,CORRECT,,html-keyboard-response,159,537392,0.0-14.0-11.0-0.0,45314,List2A,black,woman,,,,null,,,,
2668,"<img src=""portrait/BM2.jpg""style=""width:400px;height:400px;""></img>",5,html-button-response,160,540062,0.0-14.0-13.0,45314,List2A,black,woman,,TRUE,5,,,,,
null,CORRECT,,html-keyboard-response,161,541564,0.0-14.0-14.0-0.0,45314,List2A,black,woman,,,,null,,,,
1186,"<img src=""portrait/BM1.jpg""style=""width:400px;height:400px;""></img>",4,html-button-response,162,542752,0.0-14.0-16.0,45314,List2A,black,woman,,TRUE,4,,,,,
null,CORRECT,,html-keyboard-response,163,544257,0.0-14.0-17.0-0.0,45314,List2A,black,woman,,,,null,,,,
1876,"<img src=""portrait/BW1.jpg""style=""width:400px;height:400px;""></img>",0,html-button-response,164,546134,0.0-14.0-19.0,45314,List2A,black,woman,,TRUE,0,,,,,
null,CORRECT,,html-keyboard-response,165,547639,0.0-14.0-20.0-0.0,45314,List2A,black,woman,,,,null,,,,
4429,"<img src=""portrait/BW2.jpg""style=""width:400px;height:400px;""></img>",2,html-button-response,166,552068,0.0-14.0-22.0,45314,List2A,black,woman,,TRUE,2,,,,,
null,CORRECT,,html-keyboard-response,167,553574,0.0-14.0-23.0-0.0,45314,List2A,black,woman,,,,null,,,,
1119,<p>You got 8 out of 8 right first time. Press Continue.</p>,0,html-button-response,168,554694,0.0-14.0-25.0,45314,List2A,black,woman,,,,,,,,
null,"<div style=""font-size:60px;"">+</div>",,html-keyboard-response,169,556203,0.0-15.0-0.0,45314,List2A,black,woman,,,,null,,,,
null,"<img src=""stim_listA/marry1.gif""</stim_listA>",,html-keyboard-response,170,558206,0.0-15.0-1.0,45314,List2A,black,woman,,,,null,,,,
null,is marrying,,html-keyboard-response,171,560208,0.0-15.0-2.0,45314,List2A,black,woman,,,,null,,,,
8602,,,survey-text,172,568811,0.0-15.0-3.0,45314,List2A,black,woman,,,,,"{""Q0"":""Dave is marrying Ruth.""}","<img src=""stim_listA/marry1.gif""</stim_listA>",is marrying,
null,"<div style=""font-size:60px;"">+</div>",,html-keyboard-response,173,569315,0.0-15.0-0.1,45314,List2A,black,woman,,,,null,,,,
null,"<img src=""stim_listA/talk5.gif""</stim_listA>",,html-keyboard-response,174,571321,0.0-15.0-1.1,45314,List2A,black,woman,,,,null,,,,
null,is talking to,,html-keyboard-response,175,573324,0.0-15.0-2.1,45314,List2A,black,woman,,,,null,,,,
5442,,,survey-text,176,578767,0.0-15.0-3.1,45314,List2A,black,woman,,,,,"{""Q0"":""Luke is talking to Mike.""}","<img src=""stim_listA/talk5.gif""</stim_listA>",is talking to,
null,"<div style=""font-size:60px;"">+</div>",,html-keyboard-response,177,579271,0.0-15.0-0.2,45314,List2A,black,woman,,,,null,,,,
null,"<img src=""stim_listA/hug7.gif""</stim_listA>",,html-keyboard-response,178,581276,0.0-15.0-1.2,45314,List2A,black,woman,,,,null,,,,
null,is hugging,,html-keyboard-response,179,583279,0.0-15.0-2.2,45314,List2A,black,woman,,,,null,,,,
6992,,,survey-text,180,590271,0.0-15.0-3.2,45314,List2A,black,woman,,,,,"{""Q0"":""Ruth is hugging Beth.""}","<img src=""stim_listA/hug7.gif""</stim_listA>",is hugging,
null,"<div style=""font-size:60px;"">+</div>",,html-keyboard-response,181,590774,0.0-15.0-0.3,45314,List2A,black,woman,,,,null,,,,
null,"<img src=""stim_listA/hug6.gif""</stim_listA>",,html-keyboard-response,182,592776,0.0-15.0-1.3,45314,List2A,black,woman,,,,null,,,,
null,are hugging each other,,html-keyboard-response,183,594777,0.0-15.0-2.3,45314,List2A,black,woman,,,,null,,,,
8177,,,survey-text,184,602955,0.0-15.0-3.3,45314,List2A,black,woman,,,,,"{""Q0"":""Mike and Dave are hugging each other.""}","<img src=""stim_listA/hug6.gif""</stim_listA>",are hugging each other,
null,"<div style=""font-size:60px;"">+</div>",,html-keyboard-response,185,603461,0.0-15.0-0.4,45314,List2A,black,woman,,,,null,,,,
null,"<img src=""stim_listA/talk6.gif""</stim_listA>",,html-keyboard-response,186,605462,0.0-15.0-1.4,45314,List2A,black,woman,,,,null,,,,
null,are talking to each other,,html-keyboard-response,187,607467,0.0-15.0-2.4,45314,List2A,black,woman,,,,null,,,,
7403,,,survey-text,188,614870,0.0-15.0-3.4,45314,List2A,black,woman,,,,,"{""Q0"":""Fred and Dave are talking to each other.""}","<img src=""stim_listA/talk6.gif""</stim_listA>",are talking to each other,
null,"<div style=""font-size:60px;"">+</div>",,html-keyboard-response,189,615375,0.0-15.0-0.5,45314,List2A,black,woman,,,,null,,,,
null,"<img src=""stim_listA/fight8.gif""</stim_listA>",,html-keyboard-response,190,617378,0.0-15.0-1.5,45314,List2A,black,woman,,,,null,,,,
null,are fighting each other,,html-keyboard-response,191,619381,0.0-15.0-2.5,45314,List2A,black,woman,,,,null,,,,
7188,,,survey-text,192,626571,0.0-15.0-3.5,45314,List2A,black,woman,,,,,"{""Q0"":""Ruth and Beth are fighting each other.""}","<img src=""stim_listA/fight8.gif""</stim_listA>",are fighting each other,
null,"<div style=""font-size:60px;"">+</div>",,html-keyboard-response,193,627074,0.0-15.0-0.6,45314,List2A,black,woman,,,,null,,,,
null,"<img src=""stim_listA/dance3.gif""</stim_listA>",,html-keyboard-response,194,629079,0.0-15.0-1.6,45314,List2A,black,woman,,,,null,,,,
null,is dancing with,,html-keyboard-response,195,631083,0.0-15.0-2.6,45314,List2A,black,woman,,,,null,,,,
7003,,,survey-text,196,638087,0.0-15.0-3.6,45314,List2A,black,woman,,,,,"{""Q0"":""Fred is dancing with Kate.""}","<img src=""stim_listA/dance3.gif""</stim_listA>",is dancing with,
null,"<div style=""font-size:60px;"">+</div>",,html-keyboard-response,197,638591,0.0-15.0-0.7,45314,List2A,black,woman,,,,null,,,,
null,"<img src=""stim_listA/fight4.gif""</stim_listA>",,html-keyboard-response,198,640594,0.0-15.0-1.7,45314,List2A,black,woman,,,,null,,,,
null,are fighting each other,,html-keyboard-response,199,642599,0.0-15.0-2.7,45314,List2A,black,woman,,,,null,,,,
8833,,,survey-text,200,651433,0.0-15.0-3.7,45314,List2A,black,woman,,,,,"{""Q0"":""Beth and Fred are fighting each other.""}","<img src=""stim_listA/fight4.gif""</stim_listA>",are fighting each other,
null,"<div style=""font-size:60px;"">+</div>",,html-keyboard-response,201,651937,0.0-15.0-0.8,45314,List2A,black,woman,,,,null,,,,
null,"<img src=""stim_listA/fight2.gif""</stim_listA>",,html-keyboard-response,202,653942,0.0-15.0-1.8,45314,List2A,black,woman,,,,null,,,,
null,are fighting each other,,html-keyboard-response,203,655943,0.0-15.0-2.8,45314,List2A,black,woman,,,,null,,,,
10758,,,survey-text,204,666702,0.0-15.0-3.8,45314,List2A,black,woman,,,,,"{""Q0"":""Luke and Ruth are fighting each other.""}","<img src=""stim_listA/fight2.gif""</stim_listA>",are fighting each other,
null,"<div style=""font-size:60px;"">+</div>",,html-keyboard-response,205,667205,0.0-15.0-0.9,45314,List2A,black,woman,,,,null,,,,
null,"<img src=""stim_listA/kiss8.gif""</stim_listA>",,html-keyboard-response,206,669207,0.0-15.0-1.9,45314,List2A,black,woman,,,,null,,,,
null,are kissing each other,,html-keyboard-response,207,671212,0.0-15.0-2.9,45314,List2A,black,woman,,,,null,,,,
13879,,,survey-text,208,685092,0.0-15.0-3.9,45314,List2A,black,woman,,,,,"{""Q0"":""Jane and Kate are kissing each other.""}","<img src=""stim_listA/kiss8.gif""</stim_listA>",are kissing each other,
null,"<div style=""font-size:60px;"">+</div>",,html-keyboard-response,209,685597,0.0-15.0-0.10,45314,List2A,black,woman,,,,null,,,,
null,"<img src=""stim_listA/fight1.gif""</stim_listA>",,html-keyboard-response,210,687603,0.0-15.0-1.10,45314,List2A,black,woman,,,,null,,,,
null,is fighting,,html-keyboard-response,211,689604,0.0-15.0-2.10,45314,List2A,black,woman,,,,null,,,,
10010,,,survey-text,212,699615,0.0-15.0-3.10,45314,List2A,black,woman,,,,,"{""Q0"":""Dave is fighting Jane.""}","<img src=""stim_listA/fight1.gif""</stim_listA>",is fighting,
null,"<div style=""font-size:60px;"">+</div>",,html-keyboard-response,213,700120,0.0-15.0-0.11,45314,List2A,black,woman,,,,null,,,,
null,"<img src=""stim_listA/kiss6.gif""</stim_listA>",,html-keyboard-response,214,702123,0.0-15.0-1.11,45314,List2A,black,woman,,,,null,,,,
null,are kissing each other,,html-keyboard-response,215,704126,0.0-15.0-2.11,45314,List2A,black,woman,,,,null,,,,
10129,,,survey-text,216,714256,0.0-15.0-3.11,45314,List2A,black,woman,,,,,"{""Q0"":""Dave and Mike are kissing each other.""}","<img src=""stim_listA/kiss6.gif""</stim_listA>",are kissing each other,
null,"<div style=""font-size:60px;"">+</div>",,html-keyboard-response,217,714761,0.0-15.0-0.12,45314,List2A,black,woman,,,,null,,,,
null,"<img src=""stim_listA/hug2.gif""</stim_listA>",,html-keyboard-response,218,716763,0.0-15.0-1.12,45314,List2A,black,woman,,,,null,,,,
null,are hugging each other,,html-keyboard-response,219,718767,0.0-15.0-2.12,45314,List2A,black,woman,,,,null,,,,
7587,,,survey-text,220,726356,0.0-15.0-3.12,45314,List2A,black,woman,,,,,"{""Q0"":""Dave and Jane are hugging each other.""}","<img src=""stim_listA/hug2.gif""</stim_listA>",are hugging each other,
null,"<div style=""font-size:60px;"">+</div>",,html-keyboard-response,221,726859,0.0-15.0-0.13,45314,List2A,black,woman,,,,null,,,,
null,"<img src=""stim_listA/hug4.gif""</stim_listA>",,html-keyboard-response,222,728864,0.0-15.0-1.13,45314,List2A,black,woman,,,,null,,,,
null,are hugging each other,,html-keyboard-response,223,730866,0.0-15.0-2.13,45314,List2A,black,woman,,,,null,,,,
7875,,,survey-text,224,738742,0.0-15.0-3.13,45314,List2A,black,woman,,,,,"{""Q0"":""Mike and Beth are hugging each other.""}","<img src=""stim_listA/hug4.gif""</stim_listA>",are hugging each other,
null,"<div style=""font-size:60px;"">+</div>",,html-keyboard-response,225,739245,0.0-15.0-0.14,45314,List2A,black,woman,,,,null,,,,
null,"<img src=""stim_listA/argue5.gif""</stim_listA>",,html-keyboard-response,226,741248,0.0-15.0-1.14,45314,List2A,black,woman,,,,null,,,,
null,is arguing with,,html-keyboard-response,227,743250,0.0-15.0-2.14,45314,List2A,black,woman,,,,null,,,,
5933,,,survey-text,228,749185,0.0-15.0-3.14,45314,List2A,black,woman,,,,,"{""Q0"":""Dave is arguing with Fred.""}","<img src=""stim_listA/argue5.gif""</stim_listA>",is arguing with,
null,"<div style=""font-size:60px;"">+</div>",,html-keyboard-response,229,749690,0.0-15.0-0.15,45314,List2A,black,woman,,,,null,,,,
null,"<img src=""stim_listA/dance1.gif""</stim_listA>",,html-keyboard-response,230,751695,0.0-15.0-1.15,45314,List2A,black,woman,,,,null,,,,
null,is dancing with,,html-keyboard-response,231,753697,0.0-15.0-2.15,45314,List2A,black,woman,,,,null,,,,
6607,,,survey-text,232,760305,0.0-15.0-3.15,45314,List2A,black,woman,,,,,"{""Q0"":""Luke is dancing with Jane.""}","<img src=""stim_listA/dance1.gif""</stim_listA>",is dancing with,
null,"<div style=""font-size:60px;"">+</div>",,html-keyboard-response,233,760810,0.0-15.0-0.16,45314,List2A,black,woman,,,,null,,,,
null,"<img src=""stim_listA/marry7.gif""</stim_listA>",,html-keyboard-response,234,762812,0.0-15.0-1.16,45314,List2A,black,woman,,,,null,,,,
null,is marrying,,html-keyboard-response,235,764814,0.0-15.0-2.16,45314,List2A,black,woman,,,,null,,,,
5571,,,survey-text,236,770386,0.0-15.0-3.16,45314,List2A,black,woman,,,,,"{""Q0"":""Beth is marrying Jane.""}","<img src=""stim_listA/marry7.gif""</stim_listA>",is marrying,
null,"<div style=""font-size:60px;"">+</div>",,html-keyboard-response,237,770888,0.0-15.0-0.17,45314,List2A,black,woman,,,,null,,,,
null,"<img src=""stim_listA/hug8.gif""</stim_listA>",,html-keyboard-response,238,772894,0.0-15.0-1.17,45314,List2A,black,woman,,,,null,,,,
null,are hugging each other,,html-keyboard-response,239,774898,0.0-15.0-2.17,45314,List2A,black,woman,,,,null,,,,
7738,,,survey-text,240,782636,0.0-15.0-3.17,45314,List2A,black,woman,,,,,"{""Q0"":""Jane and Kate are hugging each other.""}","<img src=""stim_listA/hug8.gif""</stim_listA>",are hugging each other,
null,"<div style=""font-size:60px;"">+</div>",,html-keyboard-response,241,783140,0.0-15.0-0.18,45314,List2A,black,woman,,,,null,,,,
null,"<img src=""stim_listA/fight3.gif""</stim_listA>",,html-keyboard-response,242,785143,0.0-15.0-1.18,45314,List2A,black,woman,,,,null,,,,
null,is fighting,,html-keyboard-response,243,787144,0.0-15.0-2.18,45314,List2A,black,woman,,,,null,,,,
7898,,,survey-text,244,795042,0.0-15.0-3.18,45314,List2A,black,woman,,,,,"{""Q0"":""Kate is fighting Mike.""}","<img src=""stim_listA/fight3.gif""</stim_listA>",is fighting,
null,"<div style=""font-size:60px;"">+</div>",,html-keyboard-response,245,795546,0.0-15.0-0.19,45314,List2A,black,woman,,,,null,,,,
null,"<img src=""stim_listA/shout3.gif""</stim_listA>",,html-keyboard-response,246,797551,0.0-15.0-1.19,45314,List2A,black,woman,,,,null,,,,
null,is shouting at,,html-keyboard-response,247,799554,0.0-15.0-2.19,45314,List2A,black,woman,,,,null,,,,
8771,,,survey-text,248,808327,0.0-15.0-3.19,45314,List2A,black,woman,,,,,"{""Q0"":""Fred is shouting at Beth.""}","<img src=""stim_listA/shout3.gif""</stim_listA>",is shouting at,
2745,"<img src='img/portrait_matrix_list2.JPG' style='width:900px;height:500px;''></img><p>If you have memorised all the portraits and names and are ready to start, press Continue.</p><p><strong>Please note: Your memory of these faces will be tested 4 times during this experiment.</strong></p>",0,html-button-response,249,811073,0.0-16.0-0.0,45314,List2A,black,woman,,,,,,,,
5141,"<img src=""portrait/BM1.jpg""style=""width:400px;height:400px;""></img>",4,html-button-response,250,817219,0.0-16.0-1.0,45314,List2A,black,woman,,TRUE,4,,,,,
null,CORRECT,,html-keyboard-response,251,818723,0.0-16.0-2.0-0.0,45314,List2A,black,woman,,,,null,,,,
2228,"<img src=""portrait/BW1.jpg""style=""width:400px;height:400px;""></img>",0,html-button-response,252,820954,0.0-16.0-4.0,45314,List2A,black,woman,,TRUE,0,,,,,
null,CORRECT,,html-keyboard-response,253,822459,0.0-16.0-5.0-0.0,45314,List2A,black,woman,,,,null,,,,
1437,"<img src=""portrait/WW2.jpg""style=""width:400px;height:400px;""></img>",3,html-button-response,254,823898,0.0-16.0-7.0,45314,List2A,black,woman,,TRUE,3,,,,,
null,CORRECT,,html-keyboard-response,255,825402,0.0-16.0-8.0-0.0,45314,List2A,black,woman,,,,null,,,,
3358,"<img src=""portrait/BM2.jpg""style=""width:400px;height:400px;""></img>",5,html-button-response,256,828762,0.0-16.0-10.0,45314,List2A,black,woman,,TRUE,5,,,,,
null,CORRECT,,html-keyboard-response,257,830267,0.0-16.0-11.0-0.0,45314,List2A,black,woman,,,,null,,,,
1491,"<img src=""portrait/WM2.jpg""style=""width:400px;height:400px;""></img>",7,html-button-response,258,831760,0.0-16.0-13.0,45314,List2A,black,woman,,TRUE,7,,,,,
null,CORRECT,,html-keyboard-response,259,833268,0.0-16.0-14.0-0.0,45314,List2A,black,woman,,,,null,,,,
1530,"<img src=""portrait/WW1.jpg""style=""width:400px;height:400px;""></img>",1,html-button-response,260,834800,0.0-16.0-16.0,45314,List2A,black,woman,,TRUE,1,,,,,
null,CORRECT,,html-keyboard-response,261,836304,0.0-16.0-17.0-0.0,45314,List2A,black,woman,,,,null,,,,
1918,"<img src=""portrait/WM1.jpg""style=""width:400px;height:400px;""></img>",6,html-button-response,262,838224,0.0-16.0-19.0,45314,List2A,black,woman,,TRUE,6,,,,,
null,CORRECT,,html-keyboard-response,263,839730,0.0-16.0-20.0-0.0,45314,List2A,black,woman,,,,null,,,,
1589,"<img src=""portrait/BW2.jpg""style=""width:400px;height:400px;""></img>",2,html-button-response,264,841320,0.0-16.0-22.0,45314,List2A,black,woman,,TRUE,2,,,,,
null,CORRECT,,html-keyboard-response,265,842830,0.0-16.0-23.0-0.0,45314,List2A,black,woman,,,,null,,,,
1222,<p>You got 8 out of 8 right first time. Press Continue.</p>,0,html-button-response,266,844052,0.0-16.0-25.0,45314,List2A,black,woman,,,,,,,,
null,"<div style=""font-size:60px;"">+</div>",,html-keyboard-response,267,845557,0.0-17.0-0.0,45314,List2A,black,woman,,,,null,,,,
null,"<img src=""stim_listA/argue3.gif""</stim_listA>",,html-keyboard-response,268,847561,0.0-17.0-1.0,45314,List2A,black,woman,,,,null,,,,
null,is arguing with,,html-keyboard-response,269,849563,0.0-17.0-2.0,45314,List2A,black,woman,,,,null,,,,
6729,,,survey-text,270,856293,0.0-17.0-3.0,45314,List2A,black,woman,,,,,"{""Q0"":""Beth is arguing with Mike.""}","<img src=""stim_listA/argue3.gif""</stim_listA>",is arguing with,
null,"<div style=""font-size:60px;"">+</div>",,html-keyboard-response,271,856798,0.0-17.0-0.1,45314,List2A,black,woman,,,,null,,,,
null,"<img src=""stim_listA/meet7.gif""</stim_listA>",,html-keyboard-response,272,858799,0.0-17.0-1.1,45314,List2A,black,woman,,,,null,,,,
null,is meeting,,html-keyboard-response,273,860800,0.0-17.0-2.1,45314,List2A,black,woman,,,,null,,,,
5895,,,survey-text,274,866695,0.0-17.0-3.1,45314,List2A,black,woman,,,,,"{""Q0"":""Jane is meeting Kate.""}","<img src=""stim_listA/meet7.gif""</stim_listA>",is meeting,
null,"<div style=""font-size:60px;"">+</div>",,html-keyboard-response,275,867197,0.0-17.0-0.2,45314,List2A,black,woman,,,,null,,,,
null,"<img src=""stim_listA/dance6.gif""</stim_listA>",,html-keyboard-response,276,869199,0.0-17.0-1.2,45314,List2A,black,woman,,,,null,,,,
null,are dancing with each other,,html-keyboard-response,277,871200,0.0-17.0-2.2,45314,List2A,black,woman,,,,null,,,,
7944,,,survey-text,278,879145,0.0-17.0-3.2,45314,List2A,black,woman,,,,,"{""Q0"":""Dave and Fred are dancing with each other.""}","<img src=""stim_listA/dance6.gif""</stim_listA>",are dancing with each other,
null,"<div style=""font-size:60px;"">+</div>",,html-keyboard-response,279,879648,0.0-17.0-0.3,45314,List2A,black,woman,,,,null,,,,
null,"<img src=""stim_listA/touch4.gif""</stim_listA>",,html-keyboard-response,280,881650,0.0-17.0-1.3,45314,List2A,black,woman,,,,null,,,,
null,are touching each other,,html-keyboard-response,281,883651,0.0-17.0-2.3,45314,List2A,black,woman,,,,null,,,,
6981,,,survey-text,282,890634,0.0-17.0-3.3,45314,List2A,black,woman,,,,,"{""Q0"":""Beth and Fred are touching each other.""}","<img src=""stim_listA/touch4.gif""</stim_listA>",are touching each other,
null,"<div style=""font-size:60px;"">+</div>",,html-keyboard-response,283,891135,0.0-17.0-0.4,45314,List2A,black,woman,,,,null,,,,
null,"<img src=""stim_listA/marry6.gif""</stim_listA>",,html-keyboard-response,284,893136,0.0-17.0-1.4,45314,List2A,black,woman,,,,null,,,,
null,are marrying each other,,html-keyboard-response,285,895140,0.0-17.0-2.4,45314,List2A,black,woman,,,,null,,,,
8226,,,survey-text,286,903366,0.0-17.0-3.4,45314,List2A,black,woman,,,,,"{""Q0"":""Luke and Fred are marrying each other.""}","<img src=""stim_listA/marry6.gif""</stim_listA>",are marrying each other,
null,"<div style=""font-size:60px;"">+</div>",,html-keyboard-response,287,903871,0.0-17.0-0.5,45314,List2A,black,woman,,,,null,,,,
null,"<img src=""stim_listA/touch2.gif""</stim_listA>",,html-keyboard-response,288,905874,0.0-17.0-1.5,45314,List2A,black,woman,,,,null,,,,
null,are touching each other,,html-keyboard-response,289,907877,0.0-17.0-2.5,45314,List2A,black,woman,,,,null,,,,
6989,,,survey-text,290,914866,0.0-17.0-3.5,45314,List2A,black,woman,,,,,"{""Q0"":""Luke and Ruth are touching each other.""}","<img src=""stim_listA/touch2.gif""</stim_listA>",are touching each other,
null,"<div style=""font-size:60px;"">+</div>",,html-keyboard-response,291,915371,0.0-17.0-0.6,45314,List2A,black,woman,,,,null,,,,
null,"<img src=""stim_listA/touch6.gif""</stim_listA>",,html-keyboard-response,292,917376,0.0-17.0-1.6,45314,List2A,black,woman,,,,null,,,,
null,are touching each other,,html-keyboard-response,293,919376,0.0-17.0-2.6,45314,List2A,black,woman,,,,null,,,,
7919,,,survey-text,294,927297,0.0-17.0-3.6,45314,List2A,black,woman,,,,,"{""Q0"":""Fred and Luke are touching each other.""}","<img src=""stim_listA/touch6.gif""</stim_listA>",are touching each other,
null,"<div style=""font-size:60px;"">+</div>",,html-keyboard-response,295,927803,0.0-17.0-0.7,45314,List2A,black,woman,,,,null,,,,
null,"<img src=""stim_listA/kiss7.gif""</stim_listA>",,html-keyboard-response,296,929807,0.0-17.0-1.7,45314,List2A,black,woman,,,,null,,,,
null,is kissing,,html-keyboard-response,297,931809,0.0-17.0-2.7,45314,List2A,black,woman,,,,null,,,,
5596,,,survey-text,298,937405,0.0-17.0-3.7,45314,List2A,black,woman,,,,,"{""Q0"":""Beth is kissing Ruth.""}","<img src=""stim_listA/kiss7.gif""</stim_listA>",is kissing,
null,"<div style=""font-size:60px;"">+</div>",,html-keyboard-response,299,937907,0.0-17.0-0.8,45314,List2A,black,woman,,,,null,,,,
null,"<img src=""stim_listA/meet3.gif""</stim_listA>",,html-keyboard-response,300,939912,0.0-17.0-1.8,45314,List2A,black,woman,,,,null,,,,
null,is meeting,,html-keyboard-response,301,941916,0.0-17.0-2.8,45314,List2A,black,woman,,,,null,,,,
7565,,,survey-text,302,949482,0.0-17.0-3.8,45314,List2A,black,woman,,,,,"{""Q0"":""Kate is meeting Mike.""}","<img src=""stim_listA/meet3.gif""</stim_listA>",is meeting,
null,"<div style=""font-size:60px;"">+</div>",,html-keyboard-response,303,949986,0.0-17.0-0.9,45314,List2A,black,woman,,,,null,,,,
null,"<img src=""stim_listA/argue4.gif""</stim_listA>",,html-keyboard-response,304,951990,0.0-17.0-1.9,45314,List2A,black,woman,,,,null,,,,
null,are arguing with each other,,html-keyboard-response,305,953994,0.0-17.0-2.9,45314,List2A,black,woman,,,,null,,,,
7395,,,survey-text,306,961390,0.0-17.0-3.9,45314,List2A,black,woman,,,,,"{""Q0"":""Kate and Fred are arguing with each other.""}","<img src=""stim_listA/argue4.gif""</stim_listA>",are arguing with each other,
null,"<div style=""font-size:60px;"">+</div>",,html-keyboard-response,307,961895,0.0-17.0-0.10,45314,List2A,black,woman,,,,null,,,,
null,"<img src=""stim_listA/hug3.gif""</stim_listA>",,html-keyboard-response,308,963897,0.0-17.0-1.10,45314,List2A,black,woman,,,,null,,,,
null,is hugging,,html-keyboard-response,309,965898,0.0-17.0-2.10,45314,List2A,black,woman,,,,null,,,,
4176,,,survey-text,310,970075,0.0-17.0-3.10,45314,List2A,black,woman,,,,,"{""Q0"":""Beth is hugging Fred.""}","<img src=""stim_listA/hug3.gif""</stim_listA>",is hugging,
null,"<div style=""font-size:60px;"">+</div>",,html-keyboard-response,311,970580,0.0-17.0-0.11,45314,List2A,black,woman,,,,null,,,,
null,"<img src=""stim_listA/shout4.gif""</stim_listA>",,html-keyboard-response,312,972584,0.0-17.0-1.11,45314,List2A,black,woman,,,,null,,,,
null,are shouting at each other,,html-keyboard-response,313,974586,0.0-17.0-2.11,45314,List2A,black,woman,,,,null,,,,
7941,,,survey-text,314,982529,0.0-17.0-3.11,45314,List2A,black,woman,,,,,"{""Q0"":""Kate and Fred are shouting at each other.""}","<img src=""stim_listA/shout4.gif""</stim_listA>",are shouting at each other,
null,"<div style=""font-size:60px;"">+</div>",,html-keyboard-response,315,983032,0.0-17.0-0.12,45314,List2A,black,woman,,,,null,,,,
null,"<img src=""stim_listA/touch1.gif""</stim_listA>",,html-keyboard-response,316,985034,0.0-17.0-1.12,45314,List2A,black,woman,,,,null,,,,
null,is touching,,html-keyboard-response,317,987037,0.0-17.0-2.12,45314,List2A,black,woman,,,,null,,,,
4222,,,survey-text,318,991259,0.0-17.0-3.12,45314,List2A,black,woman,,,,,"{""Q0"":""Dave is touching Jane.""}","<img src=""stim_listA/touch1.gif""</stim_listA>",is touching,
null,"<div style=""font-size:60px;"">+</div>",,html-keyboard-response,319,991762,0.0-17.0-0.13,45314,List2A,black,woman,,,,null,,,,
null,"<img src=""stim_listA/meet8.gif""</stim_listA>",,html-keyboard-response,320,993765,0.0-17.0-1.13,45314,List2A,black,woman,,,,null,,,,
null,are meeting each other,,html-keyboard-response,321,995769,0.0-17.0-2.13,45314,List2A,black,woman,,,,null,,,,
7736,,,survey-text,322,1003506,0.0-17.0-3.13,45314,List2A,black,woman,,,,,"{""Q0"":""Beth and Ruth are meeting each other.""}","<img src=""stim_listA/meet8.gif""</stim_listA>",are meeting each other,
null,"<div style=""font-size:60px;"">+</div>",,html-keyboard-response,323,1004011,0.0-17.0-0.14,45314,List2A,black,woman,,,,null,,,,
null,"<img src=""stim_listA/touch5.gif""</stim_listA>",,html-keyboard-response,324,1006017,0.0-17.0-1.14,45314,List2A,black,woman,,,,null,,,,
null,is touching,,html-keyboard-response,325,1008018,0.0-17.0-2.14,45314,List2A,black,woman,,,,null,,,,
4495,,,survey-text,326,1012514,0.0-17.0-3.14,45314,List2A,black,woman,,,,,"{""Q0"":""Dave is touching Mike.""}","<img src=""stim_listA/touch5.gif""</stim_listA>",is touching,
null,"<div style=""font-size:60px;"">+</div>",,html-keyboard-response,327,1013018,0.0-17.0-0.15,45314,List2A,black,woman,,,,null,,,,
null,"<img src=""stim_listA/meet4.gif""</stim_listA>",,html-keyboard-response,328,1015024,0.0-17.0-1.15,45314,List2A,black,woman,,,,null,,,,
null,are meeting each other,,html-keyboard-response,329,1017026,0.0-17.0-2.15,45314,List2A,black,woman,,,,null,,,,
7150,,,survey-text,330,1024177,0.0-17.0-3.15,45314,List2A,black,woman,,,,,"{""Q0"":""Beth and Fred are meeting each other.""}","<img src=""stim_listA/meet4.gif""</stim_listA>",are meeting each other,
null,"<div style=""font-size:60px;"">+</div>",,html-keyboard-response,331,1024680,0.0-17.0-0.16,45314,List2A,black,woman,,,,null,,,,
null,"<img src=""stim_listA/dance7.gif""</stim_listA>",,html-keyboard-response,332,1026681,0.0-17.0-1.16,45314,List2A,black,woman,,,,null,,,,
null,is dancing with,,html-keyboard-response,333,1028682,0.0-17.0-2.16,45314,List2A,black,woman,,,,null,,,,
5613,,,survey-text,334,1034297,0.0-17.0-3.16,45314,List2A,black,woman,,,,,"{""Q0"":""Kate is dancing with Ruth.""}","<img src=""stim_listA/dance7.gif""</stim_listA>",is dancing with,
null,"<div style=""font-size:60px;"">+</div>",,html-keyboard-response,335,1034802,0.0-17.0-0.17,45314,List2A,black,woman,,,,null,,,,
null,"<img src=""stim_listA/shout7.gif""</stim_listA>",,html-keyboard-response,336,1036805,0.0-17.0-1.17,45314,List2A,black,woman,,,,null,,,,
null,is shouting at,,html-keyboard-response,337,1038809,0.0-17.0-2.17,45314,List2A,black,woman,,,,null,,,,
9282,,,survey-text,338,1048091,0.0-17.0-3.17,45314,List2A,black,woman,,,,,"{""Q0"":""Ruth is shouting at Kate. ""}","<img src=""stim_listA/shout7.gif""</stim_listA>",is shouting at,
null,"<div style=""font-size:60px;"">+</div>",,html-keyboard-response,339,1048595,0.0-17.0-0.18,45314,List2A,black,woman,,,,null,,,,
null,"<img src=""stim_listA/shout1.gif""</stim_listA>",,html-keyboard-response,340,1050598,0.0-17.0-1.18,45314,List2A,black,woman,,,,null,,,,
null,is shouting at,,html-keyboard-response,341,1052601,0.0-17.0-2.18,45314,List2A,black,woman,,,,null,,,,
4966,,,survey-text,342,1057568,0.0-17.0-3.18,45314,List2A,black,woman,,,,,"{""Q0"":""Luke is shouting at Beth.""}","<img src=""stim_listA/shout1.gif""</stim_listA>",is shouting at,
null,"<div style=""font-size:60px;"">+</div>",,html-keyboard-response,343,1058069,0.0-17.0-0.19,45314,List2A,black,woman,,,,null,,,,
null,"<img src=""stim_listA/talk3.gif""</stim_listA>",,html-keyboard-response,344,1060073,0.0-17.0-1.19,45314,List2A,black,woman,,,,null,,,,
null,is talking to,,html-keyboard-response,345,1062074,0.0-17.0-2.19,45314,List2A,black,woman,,,,null,,,,
6789,,,survey-text,346,1068864,0.0-17.0-3.19,45314,List2A,black,woman,,,,,"{""Q0"":""Kate is talking to Fred.""}","<img src=""stim_listA/talk3.gif""</stim_listA>",is talking to,
3965,"<img src='img/portrait_matrix_list2.JPG' style='width:900px;height:500px;''></img><p>If you have memorised all the portraits and names and are ready to start, press Continue.</p><p><strong>Please note: Your memory of these faces will be tested 4 times during this experiment.</strong></p>",0,html-button-response,347,1072830,0.0-18.0-0.0,45314,List2A,black,woman,,,,,,,,
1565,"<img src=""portrait/WW1.jpg""style=""width:400px;height:400px;""></img>",1,html-button-response,348,1075398,0.0-18.0-1.0,45314,List2A,black,woman,,TRUE,1,,,,,
null,CORRECT,,html-keyboard-response,349,1076907,0.0-18.0-2.0-0.0,45314,List2A,black,woman,,,,null,,,,
2298,"<img src=""portrait/WM1.jpg""style=""width:400px;height:400px;""></img>",6,html-button-response,350,1079207,0.0-18.0-4.0,45314,List2A,black,woman,,TRUE,6,,,,,
null,CORRECT,,html-keyboard-response,351,1080709,0.0-18.0-5.0-0.0,45314,List2A,black,woman,,,,null,,,,
1825,"<img src=""portrait/BW2.jpg""style=""width:400px;height:400px;""></img>",2,html-button-response,352,1082537,0.0-18.0-7.0,45314,List2A,black,woman,,TRUE,2,,,,,
null,CORRECT,,html-keyboard-response,353,1084043,0.0-18.0-8.0-0.0,45314,List2A,black,woman,,,,null,,,,
1530,"<img src=""portrait/WM2.jpg""style=""width:400px;height:400px;""></img>",7,html-button-response,354,1085575,0.0-18.0-10.0,45314,List2A,black,woman,,TRUE,7,,,,,
null,CORRECT,,html-keyboard-response,355,1087078,0.0-18.0-11.0-0.0,45314,List2A,black,woman,,,,null,,,,
1568,"<img src=""portrait/BW1.jpg""style=""width:400px;height:400px;""></img>",0,html-button-response,356,1088647,0.0-18.0-13.0,45314,List2A,black,woman,,TRUE,0,,,,,
null,CORRECT,,html-keyboard-response,357,1090152,0.0-18.0-14.0-0.0,45314,List2A,black,woman,,,,null,,,,
1525,"<img src=""portrait/WW2.jpg""style=""width:400px;height:400px;""></img>",3,html-button-response,358,1091679,0.0-18.0-16.0,45314,List2A,black,woman,,TRUE,3,,,,,
null,CORRECT,,html-keyboard-response,359,1093185,0.0-18.0-17.0-0.0,45314,List2A,black,woman,,,,null,,,,
2326,"<img src=""portrait/BM2.jpg""style=""width:400px;height:400px;""></img>",5,html-button-response,360,1095511,0.0-18.0-19.0,45314,List2A,black,woman,,TRUE,5,,,,,
null,CORRECT,,html-keyboard-response,361,1097017,0.0-18.0-20.0-0.0,45314,List2A,black,woman,,,,null,,,,
1279,"<img src=""portrait/BM1.jpg""style=""width:400px;height:400px;""></img>",4,html-button-response,362,1098298,0.0-18.0-22.0,45314,List2A,black,woman,,TRUE,4,,,,,
null,CORRECT,,html-keyboard-response,363,1099805,0.0-18.0-23.0-0.0,45314,List2A,black,woman,,,,null,,,,
1085,<p>You got 8 out of 8 right first time. Press Continue.</p>,0,html-button-response,364,1100891,0.0-18.0-25.0,45314,List2A,black,woman,,,,,,,,
null,"<div style=""font-size:60px;"">+</div>",,html-keyboard-response,365,1102397,0.0-19.0-0.0,45314,List2A,black,woman,,,,null,,,,
null,"<img src=""stim_listA/fight7.gif""</stim_listA>",,html-keyboard-response,366,1104400,0.0-19.0-1.0,45314,List2A,black,woman,,,,null,,,,
null,is fighting,,html-keyboard-response,367,1106403,0.0-19.0-2.0,45314,List2A,black,woman,,,,null,,,,
5807,,,survey-text,368,1112212,0.0-19.0-3.0,45314,List2A,black,woman,,,,,"{""Q0"":""Jane is fighting Kate.""}","<img src=""stim_listA/fight7.gif""</stim_listA>",is fighting,
null,"<div style=""font-size:60px;"">+</div>",,html-keyboard-response,369,1112717,0.0-19.0-0.1,45314,List2A,black,woman,,,,null,,,,
null,"<img src=""stim_listA/marry5.gif""</stim_listA>",,html-keyboard-response,370,1114722,0.0-19.0-1.1,45314,List2A,black,woman,,,,null,,,,
null,is marrying,,html-keyboard-response,371,1116723,0.0-19.0-2.1,45314,List2A,black,woman,,,,null,,,,
5930,,,survey-text,372,1122654,0.0-19.0-3.1,45314,List2A,black,woman,,,,,"{""Q0"":""Dave is marrying Fred.""}","<img src=""stim_listA/marry5.gif""</stim_listA>",is marrying,
null,"<div style=""font-size:60px;"">+</div>",,html-keyboard-response,373,1123160,0.0-19.0-0.2,45314,List2A,black,woman,,,,null,,,,
null,"<img src=""stim_listA/meet5.gif""</stim_listA>",,html-keyboard-response,374,1125162,0.0-19.0-1.2,45314,List2A,black,woman,,,,null,,,,
null,is meeting,,html-keyboard-response,375,1127165,0.0-19.0-2.2,45314,List2A,black,woman,,,,null,,,,
4138,,,survey-text,376,1131304,0.0-19.0-3.2,45314,List2A,black,woman,,,,,"{""Q0"":""Dave is meeting Mike.""}","<img src=""stim_listA/meet5.gif""</stim_listA>",is meeting,
null,"<div style=""font-size:60px;"">+</div>",,html-keyboard-response,377,1131810,0.0-19.0-0.3,45314,List2A,black,woman,,,,null,,,,
null,"<img src=""stim_listA/argue8.gif""</stim_listA>",,html-keyboard-response,378,1133814,0.0-19.0-1.3,45314,List2A,black,woman,,,,null,,,,
null,are arguing with each other,,html-keyboard-response,379,1135819,0.0-19.0-2.3,45314,List2A,black,woman,,,,null,,,,
7161,,,survey-text,380,1142981,0.0-19.0-3.3,45314,List2A,black,woman,,,,,"{""Q0"":""Kate and Ruth are arguing with each other.""}","<img src=""stim_listA/argue8.gif""</stim_listA>",are arguing with each other,
null,"<div style=""font-size:60px;"">+</div>",,html-keyboard-response,381,1143484,0.0-19.0-0.4,45314,List2A,black,woman,,,,null,,,,
null,"<img src=""stim_listA/talk7.gif""</stim_listA>",,html-keyboard-response,382,1145489,0.0-19.0-1.4,45314,List2A,black,woman,,,,null,,,,
null,is talking to,,html-keyboard-response,383,1147493,0.0-19.0-2.4,45314,List2A,black,woman,,,,null,,,,
4710,,,survey-text,384,1152203,0.0-19.0-3.4,45314,List2A,black,woman,,,,,"{""Q0"":""Kate is talking to Ruth.""}","<img src=""stim_listA/talk7.gif""</stim_listA>",is talking to,
null,"<div style=""font-size:60px;"">+</div>",,html-keyboard-response,385,1152705,0.0-19.0-0.5,45314,List2A,black,woman,,,,null,,,,
null,"<img src=""stim_listA/kiss2.gif""</stim_listA>",,html-keyboard-response,386,1154709,0.0-19.0-1.5,45314,List2A,black,woman,,,,null,,,,
null,are kissing each other,,html-keyboard-response,387,1156714,0.0-19.0-2.5,45314,List2A,black,woman,,,,null,,,,
6721,,,survey-text,388,1163436,0.0-19.0-3.5,45314,List2A,black,woman,,,,,"{""Q0"":""Dave and Jane are kissing each other.""}","<img src=""stim_listA/kiss2.gif""</stim_listA>",are kissing each other,
null,"<div style=""font-size:60px;"">+</div>",,html-keyboard-response,389,1163941,0.0-19.0-0.6,45314,List2A,black,woman,,,,null,,,,
null,"<img src=""stim_listA/argue7.gif""</stim_listA>",,html-keyboard-response,390,1165943,0.0-19.0-1.6,45314,List2A,black,woman,,,,null,,,,
null,is arguing with,,html-keyboard-response,391,1167943,0.0-19.0-2.6,45314,List2A,black,woman,,,,null,,,,
7768,,,survey-text,392,1175712,0.0-19.0-3.6,45314,List2A,black,woman,,,,,"{""Q0"":""Jane is arguing with Beth.""}","<img src=""stim_listA/argue7.gif""</stim_listA>",is arguing with,
null,"<div style=""font-size:60px;"">+</div>",,html-keyboard-response,393,1176216,0.0-19.0-0.7,45314,List2A,black,woman,,,,null,,,,
null,"<img src=""stim_listA/kiss3.gif""</stim_listA>",,html-keyboard-response,394,1178220,0.0-19.0-1.7,45314,List2A,black,woman,,,,null,,,,
null,is kissing,,html-keyboard-response,395,1180224,0.0-19.0-2.7,45314,List2A,black,woman,,,,null,,,,
4668,,,survey-text,396,1184892,0.0-19.0-3.7,45314,List2A,black,woman,,,,,"{""Q0"":""Beth is kissing Fred.""}","<img src=""stim_listA/kiss3.gif""</stim_listA>",is kissing,
null,"<div style=""font-size:60px;"">+</div>",,html-keyboard-response,397,1185395,0.0-19.0-0.8,45314,List2A,black,woman,,,,null,,,,
null,"<img src=""stim_listA/kiss1.gif""</stim_listA>",,html-keyboard-response,398,1187400,0.0-19.0-1.8,45314,List2A,black,woman,,,,null,,,,
null,is kissing,,html-keyboard-response,399,1189406,0.0-19.0-2.8,45314,List2A,black,woman,,,,null,,,,
4475,,,survey-text,400,1193883,0.0-19.0-3.8,45314,List2A,black,woman,,,,,"{""Q0"":""Luke is kissing Ruth.""}","<img src=""stim_listA/kiss1.gif""</stim_listA>",is kissing,
null,"<div style=""font-size:60px;"">+</div>",,html-keyboard-response,401,1194387,0.0-19.0-0.9,45314,List2A,black,woman,,,,null,,,,
null,"<img src=""stim_listA/dance8.gif""</stim_listA>",,html-keyboard-response,402,1196389,0.0-19.0-1.9,45314,List2A,black,woman,,,,null,,,,
null,are dancing with each other,,html-keyboard-response,403,1198393,0.0-19.0-2.9,45314,List2A,black,woman,,,,null,,,,
6979,,,survey-text,404,1205373,0.0-19.0-3.9,45314,List2A,black,woman,,,,,"{""Q0"":""Jane and Beth are dancing with each other.""}","<img src=""stim_listA/dance8.gif""</stim_listA>",are dancing with each other,
null,"<div style=""font-size:60px;"">+</div>",,html-keyboard-response,405,1205875,0.0-19.0-0.10,45314,List2A,black,woman,,,,null,,,,
null,"<img src=""stim_listA/shout6.gif""</stim_listA>",,html-keyboard-response,406,1207880,0.0-19.0-1.10,45314,List2A,black,woman,,,,null,,,,
null,are shouting at each other,,html-keyboard-response,407,1209881,0.0-19.0-2.10,45314,List2A,black,woman,,,,null,,,,
7028,,,survey-text,408,1216910,0.0-19.0-3.10,45314,List2A,black,woman,,,,,"{""Q0"":""Dave and Mike are shouting at each other.""}","<img src=""stim_listA/shout6.gif""</stim_listA>",are shouting at each other,
null,"<div style=""font-size:60px;"">+</div>",,html-keyboard-response,409,1217412,0.0-19.0-0.11,45314,List2A,black,woman,,,,null,,,,
null,"<img src=""stim_listA/shout2.gif""</stim_listA>",,html-keyboard-response,410,1219413,0.0-19.0-1.11,45314,List2A,black,woman,,,,null,,,,
null,are shouting at each other,,html-keyboard-response,411,1221415,0.0-19.0-2.11,45314,List2A,black,woman,,,,null,,,,
6765,,,survey-text,412,1228182,0.0-19.0-3.11,45314,List2A,black,woman,,,,,"{""Q0"":""Jane and Dave are shouting at each other.""}","<img src=""stim_listA/shout2.gif""</stim_listA>",are shouting at each other,
null,"<div style=""font-size:60px;"">+</div>",,html-keyboard-response,413,1228684,0.0-19.0-0.12,45314,List2A,black,woman,,,,null,,,,
null,"<img src=""stim_listA/talk4.gif""</stim_listA>",,html-keyboard-response,414,1230686,0.0-19.0-1.12,45314,List2A,black,woman,,,,null,,,,
null,are talking to each other,,html-keyboard-response,415,1232690,0.0-19.0-2.12,45314,List2A,black,woman,,,,null,,,,
6615,,,survey-text,416,1239306,0.0-19.0-3.12,45314,List2A,black,woman,,,,,"{""Q0"":""Beth and Mike are talking to each other.""}","<img src=""stim_listA/talk4.gif""</stim_listA>",are talking to each other,
null,"<div style=""font-size:60px;"">+</div>",,html-keyboard-response,417,1239810,0.0-19.0-0.13,45314,List2A,black,woman,,,,null,,,,
null,"<img src=""stim_listA/kiss5.gif""</stim_listA>",,html-keyboard-response,418,1241815,0.0-19.0-1.13,45314,List2A,black,woman,,,,null,,,,
null,is kissing,,html-keyboard-response,419,1243818,0.0-19.0-2.13,45314,List2A,black,woman,,,,null,,,,
4379,,,survey-text,420,1248199,0.0-19.0-3.13,45314,List2A,black,woman,,,,,"{""Q0"":""Luke is kissing Fred.""}","<img src=""stim_listA/kiss5.gif""</stim_listA>",is kissing,
null,"<div style=""font-size:60px;"">+</div>",,html-keyboard-response,421,1248704,0.0-19.0-0.14,45314,List2A,black,woman,,,,null,,,,
null,"<img src=""stim_listA/touch8.gif""</stim_listA>",,html-keyboard-response,422,1250708,0.0-19.0-1.14,45314,List2A,black,woman,,,,null,,,,
null,are touching each other,,html-keyboard-response,423,1252711,0.0-19.0-2.14,45314,List2A,black,woman,,,,null,,,,
6466,,,survey-text,424,1259177,0.0-19.0-3.14,45314,List2A,black,woman,,,,,"{""Q0"":""Beth and Ruth are touching each other.""}","<img src=""stim_listA/touch8.gif""</stim_listA>",are touching each other,
null,"<div style=""font-size:60px;"">+</div>",,html-keyboard-response,425,1259681,0.0-19.0-0.15,45314,List2A,black,woman,,,,null,,,,
null,"<img src=""stim_listA/marry4.gif""</stim_listA>",,html-keyboard-response,426,1261686,0.0-19.0-1.15,45314,List2A,black,woman,,,,null,,,,
null,are marrying each other,,html-keyboard-response,427,1263687,0.0-19.0-2.15,45314,List2A,black,woman,,,,null,,,,
14318,,,survey-text,428,1278006,0.0-19.0-3.15,45314,List2A,black,woman,,,,,"{""Q0"":""Kate and Fred are marrying each other.""}","<img src=""stim_listA/marry4.gif""</stim_listA>",are marrying each other,
null,"<div style=""font-size:60px;"">+</div>",,html-keyboard-response,429,1278510,0.0-19.0-0.16,45314,List2A,black,woman,,,,null,,,,
null,"<img src=""stim_listA/meet1.gif""</stim_listA>",,html-keyboard-response,430,1280513,0.0-19.0-1.16,45314,List2A,black,woman,,,,null,,,,
null,is meeting,,html-keyboard-response,431,1282515,0.0-19.0-2.16,45314,List2A,black,woman,,,,null,,,,
4901,,,survey-text,432,1287416,0.0-19.0-3.16,45314,List2A,black,woman,,,,,"{""Q0"":""Jane is meeting Dave.""}","<img src=""stim_listA/meet1.gif""</stim_listA>",is meeting,
null,"<div style=""font-size:60px;"">+</div>",,html-keyboard-response,433,1287920,0.0-19.0-0.17,45314,List2A,black,woman,,,,null,,,,
null,"<img src=""stim_listA/meet6.gif""</stim_listA>",,html-keyboard-response,434,1289923,0.0-19.0-1.17,45314,List2A,black,woman,,,,null,,,,
null,are meeting each other,,html-keyboard-response,435,1291928,0.0-19.0-2.17,45314,List2A,black,woman,,,,null,,,,
6101,,,survey-text,436,1298031,0.0-19.0-3.17,45314,List2A,black,woman,,,,,"{""Q0"":""Luke and Fred are meeting each other.""}","<img src=""stim_listA/meet6.gif""</stim_listA>",are meeting each other,
null,"<div style=""font-size:60px;"">+</div>",,html-keyboard-response,437,1298534,0.0-19.0-0.18,45314,List2A,black,woman,,,,null,,,,
null,"<img src=""stim_listA/talk2.gif""</stim_listA>",,html-keyboard-response,438,1300539,0.0-19.0-1.18,45314,List2A,black,woman,,,,null,,,,
null,are talking to each other,,html-keyboard-response,439,1302543,0.0-19.0-2.18,45314,List2A,black,woman,,,,null,,,,
6130,,,survey-text,440,1308675,0.0-19.0-3.18,45314,List2A,black,woman,,,,,"{""Q0"":""Ruth and Dave are talking to each other.""}","<img src=""stim_listA/talk2.gif""</stim_listA>",are talking to each other,
null,"<div style=""font-size:60px;"">+</div>",,html-keyboard-response,441,1309178,0.0-19.0-0.19,45314,List2A,black,woman,,,,null,,,,
null,"<img src=""stim_listA/shout5.gif""</stim_listA>",,html-keyboard-response,442,1311181,0.0-19.0-1.19,45314,List2A,black,woman,,,,null,,,,
null,is shouting at,,html-keyboard-response,443,1313184,0.0-19.0-2.19,45314,List2A,black,woman,,,,null,,,,
4985,,,survey-text,444,1318170,0.0-19.0-3.19,45314,List2A,black,woman,,,,,"{""Q0"":""Luke is shouting at Fred.""}","<img src=""stim_listA/shout5.gif""</stim_listA>",is shouting at,
1605,<p>Thank you for completing that task.</p><p>The final part of this session is a short questionnaire.</p><p>Press Continue.</p>,0,html-button-response,445,1319776,0.0-20.0,45314,List2A,black,woman,,,,,,,,
24362,,,survey-text,446,1345141,0.0-21.0,45314,List2A,black,woman,,,,,"{""Q0"":""24"",""Q1"":""English"",""Q2"":""English"",""Q3"":""The United States of America"",""Q4"":""Black/African American"",""Q5"":""Female""}",,,demographics
47951,,,survey-likert,447,1393099,0.0-22.0,45314,List2A,black,woman,,,,,"{""Q0"":4,""Q1"":3,""Q2"":5,""Q3"":3,""Q4"":6,""Q5"":1,""Q6"":3,""Q7"":6,""Q8"":6,""Q9"":6,""Q10"":0,""Q11"":0,""Q12"":2,""Q13"":2}",,,likert_race
44504,,,survey-likert,448,1437609,0.0-23.0,45314,List2A,black,woman,,,,,"{""Q0"":4,""Q1"":2,""Q2"":2,""Q3"":2,""Q4"":6,""Q5"":1,""Q6"":3,""Q7"":6,""Q8"":6,""Q9"":6,""Q10"":1,""Q11"":1,""Q12"":3,""Q13"":3}",,,likert_gender
9583,,,survey-text,449,1447196,0.0-24.0,45314,List2A,black,woman,,,,,"{""Q0"":""ccc""}",,,worker_id
7336,,,external-html,450,1455045,0.0-25.0,45314,List2A,black,woman,debrief.html,,,,,,,
