rt,stimulus,button_pressed,trial_type,trial_index,time_elapsed,internal_node_id,subject,list,ppt_race,ppt_gender,url,first_guess,correct,key_press,responses,image_type,phrase_type,test_part
4985,Welcome to the experiment. Press Continue to begin.,0,html-button-response,0,4995,0.0-0.0,45357,List1B,black,woman,,,,,,,,
211470,,,external-html,1,217574,0.0-1.0,45357,List1B,black,woman,consent.html,,,,,,,
20305,"<p>On the next page, you will see portraits of 8 people and their names.</p><p>Your first task is to take a few minutes to memorise the names of these people.</p><p>You will have to recall their names during the rest of the experiment, so it is</p><p>essential that you try to memorise these people and their names as best as you can.</p><br><p><strong>You will then be tested on your memory of these names and portraits.</strong></p><br><p>The experiment will start after you have completed this memory test.</p><br><p>Ready?</p>",0,html-button-response,2,237887,0.0-2.0,45357,List1B,black,woman,,,,,,,,
62792,"<img src='img/portrait_matrix_list1.JPG' style='width:900px;height:500px;''></img><p>If you have memorised all the portraits and names and are ready to start, press Continue.</p><p><strong>Please note: Your memory of these faces will be tested 4 times during this experiment.</strong></p>",0,html-button-response,3,301706,0.0-3.0-0.0,45357,List1B,black,woman,,,,,,,,
23463,"<img src=""portrait/WM2.jpg""style=""width:400px;height:400px;""></img>",6,html-button-response,4,326188,0.0-3.0-1.0,45357,List1B,black,woman,,TRUE,7,,,,,
4091,"<img src=""portrait/WM2.jpg""style=""width:400px;height:400px;""></img>",7,html-button-response,5,331299,0.0-3.0-3.0-0.0,45357,List1B,black,woman,,FALSE,7,,,,,
null,CORRECT,,html-keyboard-response,6,332833,0.0-3.0-3.0-1.0-0.0,45357,List1B,black,woman,,,,null,,,,
7941,"<img src=""portrait/BW2.jpg""style=""width:400px;height:400px;""></img>",2,html-button-response,7,340788,0.0-3.0-4.0,45357,List1B,black,woman,,TRUE,2,,,,,
null,CORRECT,,html-keyboard-response,8,342313,0.0-3.0-5.0-0.0,45357,List1B,black,woman,,,,null,,,,
3777,"<img src=""portrait/BW1.jpg""style=""width:400px;height:400px;""></img>",0,html-button-response,9,346099,0.0-3.0-7.0,45357,List1B,black,woman,,TRUE,0,,,,,
null,CORRECT,,html-keyboard-response,10,347626,0.0-3.0-8.0-0.0,45357,List1B,black,woman,,,,null,,,,
6034,"<img src=""portrait/BM1.jpg""style=""width:400px;height:400px;""></img>",4,html-button-response,11,353672,0.0-3.0-10.0,45357,List1B,black,woman,,TRUE,4,,,,,
null,CORRECT,,html-keyboard-response,12,355182,0.0-3.0-11.0-0.0,45357,List1B,black,woman,,,,null,,,,
2504,"<img src=""portrait/WW1.jpg""style=""width:400px;height:400px;""></img>",1,html-button-response,13,357701,0.0-3.0-13.0,45357,List1B,black,woman,,TRUE,1,,,,,
null,CORRECT,,html-keyboard-response,14,359216,0.0-3.0-14.0-0.0,45357,List1B,black,woman,,,,null,,,,
6392,"<img src=""portrait/WM1.jpg""style=""width:400px;height:400px;""></img>",6,html-button-response,15,365621,0.0-3.0-16.0,45357,List1B,black,woman,,TRUE,6,,,,,
null,CORRECT,,html-keyboard-response,16,367153,0.0-3.0-17.0-0.0,45357,List1B,black,woman,,,,null,,,,
3720,"<img src=""portrait/WW2.jpg""style=""width:400px;height:400px;""></img>",3,html-button-response,17,370884,0.0-3.0-19.0,45357,List1B,black,woman,,TRUE,3,,,,,
null,CORRECT,,html-keyboard-response,18,372420,0.0-3.0-20.0-0.0,45357,List1B,black,woman,,,,null,,,,
3403,"<img src=""portrait/BM2.jpg""style=""width:400px;height:400px;""></img>",5,html-button-response,19,375837,0.0-3.0-22.0,45357,List1B,black,woman,,TRUE,5,,,,,
null,CORRECT,,html-keyboard-response,20,377362,0.0-3.0-23.0-0.0,45357,List1B,black,woman,,,,null,,,,
8551,<p>You got 7 out of 8 right first time. Press Continue.</p>,0,html-button-response,21,385926,0.0-3.0-25.0,45357,List1B,black,woman,,,,,,,,
4818,"As you did not score 100%, the memory game will repeat. Press Continue.",0,html-button-response,22,391756,0.0-3.0-26.0-0.0,45357,List1B,black,woman,,,,,,,,
9189,"<img src='img/portrait_matrix_list1.JPG' style='width:900px;height:500px;''></img><p>If you have memorised all the portraits and names and are ready to start, press Continue.</p><p><strong>Please note: Your memory of these faces will be tested 4 times during this experiment.</strong></p>",0,html-button-response,23,401966,0.0-3.1-0.1,45357,List1B,black,woman,,,,,,,,
1926,"<img src=""portrait/WM2.jpg""style=""width:400px;height:400px;""></img>",7,html-button-response,24,404920,0.0-3.1-1.1,45357,List1B,black,woman,,TRUE,7,,,,,
null,CORRECT,,html-keyboard-response,25,406447,0.0-3.1-2.1-0.1,45357,List1B,black,woman,,,,null,,,,
4627,"<img src=""portrait/BW2.jpg""style=""width:400px;height:400px;""></img>",2,html-button-response,26,411087,0.0-3.1-4.1,45357,List1B,black,woman,,TRUE,2,,,,,
null,CORRECT,,html-keyboard-response,27,412608,0.0-3.1-5.1-0.1,45357,List1B,black,woman,,,,null,,,,
2905,"<img src=""portrait/BW1.jpg""style=""width:400px;height:400px;""></img>",0,html-button-response,28,415525,0.0-3.1-7.1,45357,List1B,black,woman,,TRUE,0,,,,,
null,CORRECT,,html-keyboard-response,29,417048,0.0-3.1-8.1-0.1,45357,List1B,black,woman,,,,null,,,,
7164,"<img src=""portrait/BM1.jpg""style=""width:400px;height:400px;""></img>",4,html-button-response,30,424221,0.0-3.1-10.1,45357,List1B,black,woman,,TRUE,4,,,,,
null,CORRECT,,html-keyboard-response,31,425740,0.0-3.1-11.1-0.1,45357,List1B,black,woman,,,,null,,,,
6046,"<img src=""portrait/WW1.jpg""style=""width:400px;height:400px;""></img>",1,html-button-response,32,431799,0.0-3.1-13.1,45357,List1B,black,woman,,TRUE,1,,,,,
null,CORRECT,,html-keyboard-response,33,433319,0.0-3.1-14.1-0.1,45357,List1B,black,woman,,,,null,,,,
4020,"<img src=""portrait/WM1.jpg""style=""width:400px;height:400px;""></img>",6,html-button-response,34,437353,0.0-3.1-16.1,45357,List1B,black,woman,,TRUE,6,,,,,
null,CORRECT,,html-keyboard-response,35,438893,0.0-3.1-17.1-0.1,45357,List1B,black,woman,,,,null,,,,
3205,"<img src=""portrait/WW2.jpg""style=""width:400px;height:400px;""></img>",3,html-button-response,36,442112,0.0-3.1-19.1,45357,List1B,black,woman,,TRUE,3,,,,,
null,CORRECT,,html-keyboard-response,37,443637,0.0-3.1-20.1-0.1,45357,List1B,black,woman,,,,null,,,,
2933,"<img src=""portrait/BM2.jpg""style=""width:400px;height:400px;""></img>",5,html-button-response,38,446583,0.0-3.1-22.1,45357,List1B,black,woman,,TRUE,5,,,,,
null,CORRECT,,html-keyboard-response,39,448103,0.0-3.1-23.1-0.1,45357,List1B,black,woman,,,,null,,,,
3757,<p>You got 8 out of 8 right first time. Press Continue.</p>,0,html-button-response,40,451873,0.0-3.1-25.1,45357,List1B,black,woman,,,,,,,,
36418,"<p>In this experiment, you will view photographs of the people from the memory game interacting.</p><p>By using the <strong>exact</strong> phrase given <i>after</i> the photograph appears and recalling the correct names of the people in the photographs, form a sentence describing the interaction. You do not need to capitalise names.</p><p>Type your answer in the space provided. Please complete every sentence before moving onto the next trial.</p><p>You will only have a few seconds to memorise each given photograph and phrase before you can respond, so try your best to focus.</p><p>An example is given below. Press 'Continue' when you are ready.</p><img src='img/speaking_example_v2.jpg' style='width:800px;height:460px;''></img>",0,html-button-response,41,489304,0.0-4.0,45357,List1B,black,woman,,,,,,,,
5364,"<p>Before the experiment starts, you will watch two example trials. Press 'Continue'.</p>",0,html-button-response,42,495680,0.0-5.0,45357,List1B,black,woman,,,,,,,,
null,<img src='img/speaking_WW.gif'></img>,,html-keyboard-response,43,498712,0.0-6.0,45357,List1B,black,woman,,,,null,,,,
null,<p>is speaking to</p>,,html-keyboard-response,44,500711,0.0-7.0,45357,List1B,black,woman,,,,null,,,,
6081,<p><b>Answer:</b> kate is speaking to beth</p>,0,html-button-response,45,506800,0.0-8.0,45357,List1B,black,woman,,,,,,,,
null,<img src='img/pointing_BM.gif'></img>,,html-keyboard-response,46,509832,0.0-9.0,45357,List1B,black,woman,,,,null,,,,
null,<p>are pointing at each other</p>,,html-keyboard-response,47,511838,0.0-10.0,45357,List1B,black,woman,,,,null,,,,
5309,<p><b>Answer:</b> luke and dave are pointing at each other</p>,0,html-button-response,48,517153,0.0-11.0,45357,List1B,black,woman,,,,,,,,
22740,"<p>Ready to start the experiment?</p><br><p><strong>Remember to describe the picture using a full sentence,</strong></p><p><strong>that combines the names of the people with the given phrase.</strong></p><p><strong>If you do not do this correctly you will not be paid.</strong></p><p><strong> You do not need to capitalise names or use punctuation.</strong></p><br><p>Press 'Continue' to begin.</p>",0,html-button-response,49,540915,0.0-12.0,45357,List1B,black,woman,,,,,,,,
null,"<div style=""font-size:60px;"">+</div>",,html-keyboard-response,50,542445,0.0-13.0-0.0,45357,List1B,black,woman,,,,null,,,,
null,"<img src=""stim_listB/marry8.gif""</stim_listB>",,html-keyboard-response,51,544471,0.0-13.0-1.0,45357,List1B,black,woman,,,,null,,,,
null,are marrying each other,,html-keyboard-response,52,546456,0.0-13.0-2.0,45357,List1B,black,woman,,,,null,,,,
41369,,,survey-text,53,587837,0.0-13.0-3.0,45357,List1B,black,woman,,,,,"{""Q0"":""beth and kate are marrying eachother""}","<img src=""stim_listB/marry8.gif""</stim_listB>",are marrying each other,
null,"<div style=""font-size:60px;"">+</div>",,html-keyboard-response,54,588353,0.0-13.0-0.1,45357,List1B,black,woman,,,,null,,,,
null,"<img src=""stim_listB/fight2.gif""</stim_listB>",,html-keyboard-response,55,590373,0.0-13.0-1.1,45357,List1B,black,woman,,,,null,,,,
null,are fighting each other,,html-keyboard-response,56,592368,0.0-13.0-2.1,45357,List1B,black,woman,,,,null,,,,
8107,,,survey-text,57,600481,0.0-13.0-3.1,45357,List1B,black,woman,,,,,"{""Q0"":""""}","<img src=""stim_listB/fight2.gif""</stim_listB>",are fighting each other,
null,"<div style=""font-size:60px;"">+</div>",,html-keyboard-response,58,600996,0.0-13.0-0.2,45357,List1B,black,woman,,,,null,,,,
null,"<img src=""stim_listB/hug5.gif""</stim_listB>",,html-keyboard-response,59,603021,0.0-13.0-1.2,45357,List1B,black,woman,,,,null,,,,
null,is hugging,,html-keyboard-response,60,605020,0.0-13.0-2.2,45357,List1B,black,woman,,,,null,,,,
833,,,survey-text,61,605859,0.0-13.0-3.2,45357,List1B,black,woman,,,,,"{""Q0"":""""}","<img src=""stim_listB/hug5.gif""</stim_listB>",is hugging,
null,"<div style=""font-size:60px;"">+</div>",,html-keyboard-response,62,606387,0.0-13.0-0.3,45357,List1B,black,woman,,,,null,,,,
null,"<img src=""stim_listB/dance8.gif""</stim_listB>",,html-keyboard-response,63,608402,0.0-13.0-1.3,45357,List1B,black,woman,,,,null,,,,
null,are dancing with each other,,html-keyboard-response,64,610412,0.0-13.0-2.3,45357,List1B,black,woman,,,,null,,,,
61006,,,survey-text,65,671424,0.0-13.0-3.3,45357,List1B,black,woman,,,,,"{""Q0"":""ruth and kate are dancing with each other""}","<img src=""stim_listB/dance8.gif""</stim_listB>",are dancing with each other,
null,"<div style=""font-size:60px;"">+</div>",,html-keyboard-response,66,671935,0.0-13.0-0.4,45357,List1B,black,woman,,,,null,,,,
null,"<img src=""stim_listB/touch6.gif""</stim_listB>",,html-keyboard-response,67,673949,0.0-13.0-1.4,45357,List1B,black,woman,,,,null,,,,
null,are touching each other,,html-keyboard-response,68,675948,0.0-13.0-2.4,45357,List1B,black,woman,,,,null,,,,
27014,,,survey-text,69,702972,0.0-13.0-3.4,45357,List1B,black,woman,,,,,"{""Q0"":""luke and mike are touching each other""}","<img src=""stim_listB/touch6.gif""</stim_listB>",are touching each other,
null,"<div style=""font-size:60px;"">+</div>",,html-keyboard-response,70,703490,0.0-13.0-0.5,45357,List1B,black,woman,,,,null,,,,
null,"<img src=""stim_listB/hug3.gif""</stim_listB>",,html-keyboard-response,71,705507,0.0-13.0-1.5,45357,List1B,black,woman,,,,null,,,,
null,is hugging,,html-keyboard-response,72,707512,0.0-13.0-2.5,45357,List1B,black,woman,,,,null,,,,
23377,,,survey-text,73,730899,0.0-13.0-3.5,45357,List1B,black,woman,,,,,"{""Q0"":""luke and ruth are hugging each other""}","<img src=""stim_listB/hug3.gif""</stim_listB>",is hugging,
null,"<div style=""font-size:60px;"">+</div>",,html-keyboard-response,74,731415,0.0-13.0-0.6,45357,List1B,black,woman,,,,null,,,,
null,"<img src=""stim_listB/shout1.gif""</stim_listB>",,html-keyboard-response,75,733430,0.0-13.0-1.6,45357,List1B,black,woman,,,,null,,,,
null,is shouting at,,html-keyboard-response,76,735430,0.0-13.0-2.6,45357,List1B,black,woman,,,,null,,,,
39142,,,survey-text,77,774581,0.0-13.0-3.6,45357,List1B,black,woman,,,,,"{""Q0"":""fred is shouting at beth""}","<img src=""stim_listB/shout1.gif""</stim_listB>",is shouting at,
null,"<div style=""font-size:60px;"">+</div>",,html-keyboard-response,78,775083,0.0-13.0-0.7,45357,List1B,black,woman,,,,null,,,,
null,"<img src=""stim_listB/fight4.gif""</stim_listB>",,html-keyboard-response,79,777108,0.0-13.0-1.7,45357,List1B,black,woman,,,,null,,,,
null,are fighting each other,,html-keyboard-response,80,779110,0.0-13.0-2.7,45357,List1B,black,woman,,,,null,,,,
43769,,,survey-text,81,822887,0.0-13.0-3.7,45357,List1B,black,woman,,,,,"{""Q0"":""luke and jane are fighting each other""}","<img src=""stim_listB/fight4.gif""</stim_listB>",are fighting each other,
null,"<div style=""font-size:60px;"">+</div>",,html-keyboard-response,82,823394,0.0-13.0-0.8,45357,List1B,black,woman,,,,null,,,,
null,"<img src=""stim_listB/touch1.gif""</stim_listB>",,html-keyboard-response,83,825404,0.0-13.0-1.8,45357,List1B,black,woman,,,,null,,,,
null,is touching,,html-keyboard-response,84,827406,0.0-13.0-2.8,45357,List1B,black,woman,,,,null,,,,
22912,,,survey-text,85,850336,0.0-13.0-3.8,45357,List1B,black,woman,,,,,"{""Q0"":""kate is touchind fred""}","<img src=""stim_listB/touch1.gif""</stim_listB>",is touching,
null,"<div style=""font-size:60px;"">+</div>",,html-keyboard-response,86,850850,0.0-13.0-0.9,45357,List1B,black,woman,,,,null,,,,
null,"<img src=""stim_listB/dance7.gif""</stim_listB>",,html-keyboard-response,87,852865,0.0-13.0-1.9,45357,List1B,black,woman,,,,null,,,,
null,is dancing with,,html-keyboard-response,88,854865,0.0-13.0-2.9,45357,List1B,black,woman,,,,null,,,,
20047,,,survey-text,89,874920,0.0-13.0-3.9,45357,List1B,black,woman,,,,,"{""Q0"":""beth is dancing with jane""}","<img src=""stim_listB/dance7.gif""</stim_listB>",is dancing with,
null,"<div style=""font-size:60px;"">+</div>",,html-keyboard-response,90,875431,0.0-13.0-0.10,45357,List1B,black,woman,,,,null,,,,
null,"<img src=""stim_listB/hug1.gif""</stim_listB>",,html-keyboard-response,91,877446,0.0-13.0-1.10,45357,List1B,black,woman,,,,null,,,,
null,is hugging,,html-keyboard-response,92,879443,0.0-13.0-2.10,45357,List1B,black,woman,,,,null,,,,
30493,,,survey-text,93,909945,0.0-13.0-3.10,45357,List1B,black,woman,,,,,"{""Q0"":""mike is hugging jane""}","<img src=""stim_listB/hug1.gif""</stim_listB>",is hugging,
null,"<div style=""font-size:60px;"">+</div>",,html-keyboard-response,94,910464,0.0-13.0-0.11,45357,List1B,black,woman,,,,null,,,,
null,"<img src=""stim_listB/hug2.gif""</stim_listB>",,html-keyboard-response,95,912484,0.0-13.0-1.11,45357,List1B,black,woman,,,,null,,,,
null,are hugging each other,,html-keyboard-response,96,914478,0.0-13.0-2.11,45357,List1B,black,woman,,,,null,,,,
26339,,,survey-text,97,940826,0.0-13.0-3.11,45357,List1B,black,woman,,,,,"{""Q0"":""mike is hugging kate""}","<img src=""stim_listB/hug2.gif""</stim_listB>",are hugging each other,
null,"<div style=""font-size:60px;"">+</div>",,html-keyboard-response,98,941343,0.0-13.0-0.12,45357,List1B,black,woman,,,,null,,,,
null,"<img src=""stim_listB/shout2.gif""</stim_listB>",,html-keyboard-response,99,943365,0.0-13.0-1.12,45357,List1B,black,woman,,,,null,,,,
null,are shouting at each other,,html-keyboard-response,100,945371,0.0-13.0-2.12,45357,List1B,black,woman,,,,null,,,,
32585,,,survey-text,101,977964,0.0-13.0-3.12,45357,List1B,black,woman,,,,,"{""Q0"":""kate and mike are shouting at each other""}","<img src=""stim_listB/shout2.gif""</stim_listB>",are shouting at each other,
null,"<div style=""font-size:60px;"">+</div>",,html-keyboard-response,102,978483,0.0-13.0-0.13,45357,List1B,black,woman,,,,null,,,,
null,"<img src=""stim_listB/kiss1.gif""</stim_listB>",,html-keyboard-response,103,980497,0.0-13.0-1.13,45357,List1B,black,woman,,,,null,,,,
null,is kissing,,html-keyboard-response,104,982504,0.0-13.0-2.13,45357,List1B,black,woman,,,,null,,,,
28922,,,survey-text,105,1011436,0.0-13.0-3.13,45357,List1B,black,woman,,,,,"{""Q0"":""fred is kissing jane""}","<img src=""stim_listB/kiss1.gif""</stim_listB>",is kissing,
null,"<div style=""font-size:60px;"">+</div>",,html-keyboard-response,106,1011970,0.0-13.0-0.14,45357,List1B,black,woman,,,,null,,,,
null,"<img src=""stim_listB/marry3.gif""</stim_listB>",,html-keyboard-response,107,1013980,0.0-13.0-1.14,45357,List1B,black,woman,,,,null,,,,
null,is marrying,,html-keyboard-response,108,1015984,0.0-13.0-2.14,45357,List1B,black,woman,,,,null,,,,
32758,,,survey-text,109,1048749,0.0-13.0-3.14,45357,List1B,black,woman,,,,,"{""Q0"":""dave is marrying beth""}","<img src=""stim_listB/marry3.gif""</stim_listB>",is marrying,
null,"<div style=""font-size:60px;"">+</div>",,html-keyboard-response,110,1049268,0.0-13.0-0.15,45357,List1B,black,woman,,,,null,,,,
null,"<img src=""stim_listB/kiss7.gif""</stim_listB>",,html-keyboard-response,111,1051281,0.0-13.0-1.15,45357,List1B,black,woman,,,,null,,,,
null,is kissing,,html-keyboard-response,112,1053294,0.0-13.0-2.15,45357,List1B,black,woman,,,,null,,,,
33782,,,survey-text,113,1087086,0.0-13.0-3.15,45357,List1B,black,woman,,,,,"{""Q0"":""ruth is kissing jane""}","<img src=""stim_listB/kiss7.gif""</stim_listB>",is kissing,
null,"<div style=""font-size:60px;"">+</div>",,html-keyboard-response,114,1087600,0.0-13.0-0.16,45357,List1B,black,woman,,,,null,,,,
null,"<img src=""stim_listB/dance3.gif""</stim_listB>",,html-keyboard-response,115,1089626,0.0-13.0-1.16,45357,List1B,black,woman,,,,null,,,,
null,is dancing with,,html-keyboard-response,116,1091610,0.0-13.0-2.16,45357,List1B,black,woman,,,,null,,,,
27974,,,survey-text,117,1119592,0.0-13.0-3.16,45357,List1B,black,woman,,,,,"{""Q0"":""luke is dancing with beth""}","<img src=""stim_listB/dance3.gif""</stim_listB>",is dancing with,
null,"<div style=""font-size:60px;"">+</div>",,html-keyboard-response,118,1120110,0.0-13.0-0.17,45357,List1B,black,woman,,,,null,,,,
null,"<img src=""stim_listB/dance1.gif""</stim_listB>",,html-keyboard-response,119,1122125,0.0-13.0-1.17,45357,List1B,black,woman,,,,null,,,,
null,is dancing with,,html-keyboard-response,120,1124125,0.0-13.0-2.17,45357,List1B,black,woman,,,,null,,,,
27046,,,survey-text,121,1151179,0.0-13.0-3.17,45357,List1B,black,woman,,,,,"{""Q0"":""kate is dancing with fred""}","<img src=""stim_listB/dance1.gif""</stim_listB>",is dancing with,
null,"<div style=""font-size:60px;"">+</div>",,html-keyboard-response,122,1151699,0.0-13.0-0.18,45357,List1B,black,woman,,,,null,,,,
null,"<img src=""stim_listB/touch5.gif""</stim_listB>",,html-keyboard-response,123,1153719,0.0-13.0-1.18,45357,List1B,black,woman,,,,null,,,,
null,is touching,,html-keyboard-response,124,1155710,0.0-13.0-2.18,45357,List1B,black,woman,,,,null,,,,
14028,,,survey-text,125,1169747,0.0-13.0-3.18,45357,List1B,black,woman,,,,,"{""Q0"":""mike is touching dave""}","<img src=""stim_listB/touch5.gif""</stim_listB>",is touching,
null,"<div style=""font-size:60px;"">+</div>",,html-keyboard-response,126,1170263,0.0-13.0-0.19,45357,List1B,black,woman,,,,null,,,,
null,"<img src=""stim_listB/fight6.gif""</stim_listB>",,html-keyboard-response,127,1172284,0.0-13.0-1.19,45357,List1B,black,woman,,,,null,,,,
null,are fighting each other,,html-keyboard-response,128,1174278,0.0-13.0-2.19,45357,List1B,black,woman,,,,null,,,,
25202,,,survey-text,129,1199490,0.0-13.0-3.19,45357,List1B,black,woman,,,,,"{""Q0"":""luke and mike are fighting each other""}","<img src=""stim_listB/fight6.gif""</stim_listB>",are fighting each other,
77091,"<img src='img/portrait_matrix_list1.JPG' style='width:900px;height:500px;''></img><p>If you have memorised all the portraits and names and are ready to start, press Continue.</p><p><strong>Please note: Your memory of these faces will be tested 4 times during this experiment.</strong></p>",0,html-button-response,130,1276588,0.0-14.0-0.0,45357,List1B,black,woman,,,,,,,,
2932,"<img src=""portrait/WM2.jpg""style=""width:400px;height:400px;""></img>",7,html-button-response,131,1280541,0.0-14.0-1.0,45357,List1B,black,woman,,TRUE,7,,,,,
null,CORRECT,,html-keyboard-response,132,1282061,0.0-14.0-2.0-0.0,45357,List1B,black,woman,,,,null,,,,
8560,"<img src=""portrait/BW1.jpg""style=""width:400px;height:400px;""></img>",2,html-button-response,133,1290639,0.0-14.0-4.0,45357,List1B,black,woman,,TRUE,0,,,,,
3194,"<img src=""portrait/BW1.jpg""style=""width:400px;height:400px;""></img>",1,html-button-response,134,1294861,0.0-14.0-6.0-0.0,45357,List1B,black,woman,,FALSE,0,,,,,
null,INCORRECT,,html-keyboard-response,135,1296385,0.0-14.0-6.0-2.0-0.0,45357,List1B,black,woman,,,,null,,,,
4065,"<img src=""portrait/WW1.jpg""style=""width:400px;height:400px;""></img>",1,html-button-response,136,1300463,0.0-14.0-7.0,45357,List1B,black,woman,,TRUE,1,,,,,
null,CORRECT,,html-keyboard-response,137,1301975,0.0-14.0-8.0-0.0,45357,List1B,black,woman,,,,null,,,,
22499,"<img src=""portrait/BM1.jpg""style=""width:400px;height:400px;""></img>",5,html-button-response,138,1324488,0.0-14.0-10.0,45357,List1B,black,woman,,TRUE,4,,,,,
3228,"<img src=""portrait/BM1.jpg""style=""width:400px;height:400px;""></img>",4,html-button-response,139,1328737,0.0-14.0-12.0-0.0,45357,List1B,black,woman,,FALSE,4,,,,,
null,CORRECT,,html-keyboard-response,140,1330253,0.0-14.0-12.0-1.0-0.0,45357,List1B,black,woman,,,,null,,,,
7637,"<img src=""portrait/BW2.jpg""style=""width:400px;height:400px;""></img>",2,html-button-response,141,1337904,0.0-14.0-13.0,45357,List1B,black,woman,,TRUE,2,,,,,
null,CORRECT,,html-keyboard-response,142,1339429,0.0-14.0-14.0-0.0,45357,List1B,black,woman,,,,null,,,,
2077,"<img src=""portrait/WW2.jpg""style=""width:400px;height:400px;""></img>",3,html-button-response,143,1341519,0.0-14.0-16.0,45357,List1B,black,woman,,TRUE,3,,,,,
null,CORRECT,,html-keyboard-response,144,1343057,0.0-14.0-17.0-0.0,45357,List1B,black,woman,,,,null,,,,
4481,"<img src=""portrait/WM1.jpg""style=""width:400px;height:400px;""></img>",6,html-button-response,145,1347552,0.0-14.0-19.0,45357,List1B,black,woman,,TRUE,6,,,,,
null,CORRECT,,html-keyboard-response,146,1349073,0.0-14.0-20.0-0.0,45357,List1B,black,woman,,,,null,,,,
1880,"<img src=""portrait/BM2.jpg""style=""width:400px;height:400px;""></img>",5,html-button-response,147,1350968,0.0-14.0-22.0,45357,List1B,black,woman,,TRUE,5,,,,,
null,CORRECT,,html-keyboard-response,148,1352485,0.0-14.0-23.0-0.0,45357,List1B,black,woman,,,,null,,,,
1836,<p>You got 6 out of 8 right first time. Press Continue.</p>,0,html-button-response,149,1354336,0.0-14.0-25.0,45357,List1B,black,woman,,,,,,,,
1608,"As you did not score 100%, the memory game will repeat. Press Continue.",0,html-button-response,150,1356968,0.0-14.0-26.0-0.0,45357,List1B,black,woman,,,,,,,,
47047,"<img src='img/portrait_matrix_list1.JPG' style='width:900px;height:500px;''></img><p>If you have memorised all the portraits and names and are ready to start, press Continue.</p><p><strong>Please note: Your memory of these faces will be tested 4 times during this experiment.</strong></p>",0,html-button-response,151,1405049,0.0-14.1-0.1,45357,List1B,black,woman,,,,,,,,
3944,"<img src=""portrait/WM2.jpg""style=""width:400px;height:400px;""></img>",7,html-button-response,152,1410051,0.0-14.1-1.1,45357,List1B,black,woman,,TRUE,7,,,,,
null,CORRECT,,html-keyboard-response,153,1411566,0.0-14.1-2.1-0.1,45357,List1B,black,woman,,,,null,,,,
10829,"<img src=""portrait/BW1.jpg""style=""width:400px;height:400px;""></img>",0,html-button-response,154,1422409,0.0-14.1-4.1,45357,List1B,black,woman,,TRUE,0,,,,,
null,CORRECT,,html-keyboard-response,155,1423936,0.0-14.1-5.1-0.1,45357,List1B,black,woman,,,,null,,,,
4412,"<img src=""portrait/WW1.jpg""style=""width:400px;height:400px;""></img>",1,html-button-response,156,1428364,0.0-14.1-7.1,45357,List1B,black,woman,,TRUE,1,,,,,
null,CORRECT,,html-keyboard-response,157,1429900,0.0-14.1-8.1-0.1,45357,List1B,black,woman,,,,null,,,,
2610,"<img src=""portrait/BM1.jpg""style=""width:400px;height:400px;""></img>",4,html-button-response,158,1432524,0.0-14.1-10.1,45357,List1B,black,woman,,TRUE,4,,,,,
null,CORRECT,,html-keyboard-response,159,1434046,0.0-14.1-11.1-0.1,45357,List1B,black,woman,,,,null,,,,
3176,"<img src=""portrait/BW2.jpg""style=""width:400px;height:400px;""></img>",2,html-button-response,160,1437237,0.0-14.1-13.1,45357,List1B,black,woman,,TRUE,2,,,,,
null,CORRECT,,html-keyboard-response,161,1438758,0.0-14.1-14.1-0.1,45357,List1B,black,woman,,,,null,,,,
1885,"<img src=""portrait/WW2.jpg""style=""width:400px;height:400px;""></img>",3,html-button-response,162,1440659,0.0-14.1-16.1,45357,List1B,black,woman,,TRUE,3,,,,,
null,CORRECT,,html-keyboard-response,163,1442175,0.0-14.1-17.1-0.1,45357,List1B,black,woman,,,,null,,,,
5958,"<img src=""portrait/WM1.jpg""style=""width:400px;height:400px;""></img>",6,html-button-response,164,1448149,0.0-14.1-19.1,45357,List1B,black,woman,,TRUE,6,,,,,
null,CORRECT,,html-keyboard-response,165,1449668,0.0-14.1-20.1-0.1,45357,List1B,black,woman,,,,null,,,,
3736,"<img src=""portrait/BM2.jpg""style=""width:400px;height:400px;""></img>",5,html-button-response,166,1453420,0.0-14.1-22.1,45357,List1B,black,woman,,TRUE,5,,,,,
null,CORRECT,,html-keyboard-response,167,1454953,0.0-14.1-23.1-0.1,45357,List1B,black,woman,,,,null,,,,
1955,<p>You got 8 out of 8 right first time. Press Continue.</p>,0,html-button-response,168,1456923,0.0-14.1-25.1,45357,List1B,black,woman,,,,,,,,
null,"<div style=""font-size:60px;"">+</div>",,html-keyboard-response,169,1458465,0.0-15.0-0.0,45357,List1B,black,woman,,,,null,,,,
null,"<img src=""stim_listB/fight8.gif""</stim_listB>",,html-keyboard-response,170,1460477,0.0-15.0-1.0,45357,List1B,black,woman,,,,null,,,,
null,are fighting each other,,html-keyboard-response,171,1462492,0.0-15.0-2.0,45357,List1B,black,woman,,,,null,,,,
28007,,,survey-text,172,1490508,0.0-15.0-3.0,45357,List1B,black,woman,,,,,"{""Q0"":""beth and ruth are fighting each other""}","<img src=""stim_listB/fight8.gif""</stim_listB>",are fighting each other,
null,"<div style=""font-size:60px;"">+</div>",,html-keyboard-response,173,1491017,0.0-15.0-0.1,45357,List1B,black,woman,,,,null,,,,
null,"<img src=""stim_listB/marry2.gif""</stim_listB>",,html-keyboard-response,174,1493032,0.0-15.0-1.1,45357,List1B,black,woman,,,,null,,,,
null,are marrying each other,,html-keyboard-response,175,1495036,0.0-15.0-2.1,45357,List1B,black,woman,,,,null,,,,
23496,,,survey-text,176,1518541,0.0-15.0-3.1,45357,List1B,black,woman,,,,,"{""Q0"":""fred and kate are marrying each other""}","<img src=""stim_listB/marry2.gif""</stim_listB>",are marrying each other,
null,"<div style=""font-size:60px;"">+</div>",,html-keyboard-response,177,1519054,0.0-15.0-0.2,45357,List1B,black,woman,,,,null,,,,
null,"<img src=""stim_listB/touch3.gif""</stim_listB>",,html-keyboard-response,178,1521075,0.0-15.0-1.2,45357,List1B,black,woman,,,,null,,,,
null,is touching,,html-keyboard-response,179,1523071,0.0-15.0-2.2,45357,List1B,black,woman,,,,null,,,,
32014,,,survey-text,180,1555095,0.0-15.0-3.2,45357,List1B,black,woman,,,,,"{""Q0"":""dave and jane is touching""}","<img src=""stim_listB/touch3.gif""</stim_listB>",is touching,
null,"<div style=""font-size:60px;"">+</div>",,html-keyboard-response,181,1555606,0.0-15.0-0.3,45357,List1B,black,woman,,,,null,,,,
null,"<img src=""stim_listB/kiss8.gif""</stim_listB>",,html-keyboard-response,182,1557629,0.0-15.0-1.3,45357,List1B,black,woman,,,,null,,,,
null,are kissing each other,,html-keyboard-response,183,1559625,0.0-15.0-2.3,45357,List1B,black,woman,,,,null,,,,
19293,,,survey-text,184,1578929,0.0-15.0-3.3,45357,List1B,black,woman,,,,,"{""Q0"":""jane and ruth is kissing""}","<img src=""stim_listB/kiss8.gif""</stim_listB>",are kissing each other,
null,"<div style=""font-size:60px;"">+</div>",,html-keyboard-response,185,1579438,0.0-15.0-0.4,45357,List1B,black,woman,,,,null,,,,
null,"<img src=""stim_listB/fight1.gif""</stim_listB>",,html-keyboard-response,186,1581458,0.0-15.0-1.4,45357,List1B,black,woman,,,,null,,,,
null,is fighting,,html-keyboard-response,187,1583443,0.0-15.0-2.4,45357,List1B,black,woman,,,,null,,,,
19377,,,survey-text,188,1602832,0.0-15.0-3.4,45357,List1B,black,woman,,,,,"{""Q0"":""mike and kate is fighting""}","<img src=""stim_listB/fight1.gif""</stim_listB>",is fighting,
null,"<div style=""font-size:60px;"">+</div>",,html-keyboard-response,189,1603350,0.0-15.0-0.5,45357,List1B,black,woman,,,,null,,,,
null,"<img src=""stim_listB/talk5.gif""</stim_listB>",,html-keyboard-response,190,1605369,0.0-15.0-1.5,45357,List1B,black,woman,,,,null,,,,
null,is talking to,,html-keyboard-response,191,1607362,0.0-15.0-2.5,45357,List1B,black,woman,,,,null,,,,
1571,,,survey-text,192,1608943,0.0-15.0-3.5,45357,List1B,black,woman,,,,,"{""Q0"":""""}","<img src=""stim_listB/talk5.gif""</stim_listB>",is talking to,
null,"<div style=""font-size:60px;"">+</div>",,html-keyboard-response,193,1609463,0.0-15.0-0.6,45357,List1B,black,woman,,,,null,,,,
null,"<img src=""stim_listB/dance6.gif""</stim_listB>",,html-keyboard-response,194,1611475,0.0-15.0-1.6,45357,List1B,black,woman,,,,null,,,,
null,are dancing with each other,,html-keyboard-response,195,1613479,0.0-15.0-2.6,45357,List1B,black,woman,,,,null,,,,
20100,,,survey-text,196,1633587,0.0-15.0-3.6,45357,List1B,black,woman,,,,,"{""Q0"":""luke is dancing with fred""}","<img src=""stim_listB/dance6.gif""</stim_listB>",are dancing with each other,
null,"<div style=""font-size:60px;"">+</div>",,html-keyboard-response,197,1634112,0.0-15.0-0.7,45357,List1B,black,woman,,,,null,,,,
null,"<img src=""stim_listB/shout8.gif""</stim_listB>",,html-keyboard-response,198,1636134,0.0-15.0-1.7,45357,List1B,black,woman,,,,null,,,,
null,are shouting at each other,,html-keyboard-response,199,1638126,0.0-15.0-2.7,45357,List1B,black,woman,,,,null,,,,
27545,,,survey-text,200,1665681,0.0-15.0-3.7,45357,List1B,black,woman,,,,,"{""Q0"":""kate and ruth are shouting each other""}","<img src=""stim_listB/shout8.gif""</stim_listB>",are shouting at each other,
null,"<div style=""font-size:60px;"">+</div>",,html-keyboard-response,201,1666199,0.0-15.0-0.8,45357,List1B,black,woman,,,,null,,,,
null,"<img src=""stim_listB/marry1.gif""</stim_listB>",,html-keyboard-response,202,1668217,0.0-15.0-1.8,45357,List1B,black,woman,,,,null,,,,
null,is marrying,,html-keyboard-response,203,1670224,0.0-15.0-2.8,45357,List1B,black,woman,,,,null,,,,
17456,,,survey-text,204,1687689,0.0-15.0-3.8,45357,List1B,black,woman,,,,,"{""Q0"":""beth is marrying mike""}","<img src=""stim_listB/marry1.gif""</stim_listB>",is marrying,
null,"<div style=""font-size:60px;"">+</div>",,html-keyboard-response,205,1688200,0.0-15.0-0.9,45357,List1B,black,woman,,,,null,,,,
null,"<img src=""stim_listB/meet7.gif""</stim_listB>",,html-keyboard-response,206,1690218,0.0-15.0-1.9,45357,List1B,black,woman,,,,null,,,,
null,is meeting,,html-keyboard-response,207,1692219,0.0-15.0-2.9,45357,List1B,black,woman,,,,null,,,,
19405,,,survey-text,208,1711635,0.0-15.0-3.9,45357,List1B,black,woman,,,,,"{""Q0"":""kate is meeting jane""}","<img src=""stim_listB/meet7.gif""</stim_listB>",is meeting,
null,"<div style=""font-size:60px;"">+</div>",,html-keyboard-response,209,1712144,0.0-15.0-0.10,45357,List1B,black,woman,,,,null,,,,
null,"<img src=""stim_listB/shout6.gif""</stim_listB>",,html-keyboard-response,210,1714168,0.0-15.0-1.10,45357,List1B,black,woman,,,,null,,,,
null,are shouting at each other,,html-keyboard-response,211,1716159,0.0-15.0-2.10,45357,List1B,black,woman,,,,null,,,,
29867,,,survey-text,212,1746036,0.0-15.0-3.10,45357,List1B,black,woman,,,,,"{""Q0"":""mike and dave are shouting at each other""}","<img src=""stim_listB/shout6.gif""</stim_listB>",are shouting at each other,
null,"<div style=""font-size:60px;"">+</div>",,html-keyboard-response,213,1746551,0.0-15.0-0.11,45357,List1B,black,woman,,,,null,,,,
null,"<img src=""stim_listB/meet1.gif""</stim_listB>",,html-keyboard-response,214,1748563,0.0-15.0-1.11,45357,List1B,black,woman,,,,null,,,,
null,is meeting,,html-keyboard-response,215,1750563,0.0-15.0-2.11,45357,List1B,black,woman,,,,null,,,,
14222,,,survey-text,216,1764797,0.0-15.0-3.11,45357,List1B,black,woman,,,,,"{""Q0"":""kate is meeting mike""}","<img src=""stim_listB/meet1.gif""</stim_listB>",is meeting,
null,"<div style=""font-size:60px;"">+</div>",,html-keyboard-response,217,1765306,0.0-15.0-0.12,45357,List1B,black,woman,,,,null,,,,
null,"<img src=""stim_listB/meet6.gif""</stim_listB>",,html-keyboard-response,218,1767317,0.0-15.0-1.12,45357,List1B,black,woman,,,,null,,,,
null,are meeting each other,,html-keyboard-response,219,1769321,0.0-15.0-2.12,45357,List1B,black,woman,,,,null,,,,
23532,,,survey-text,220,1792861,0.0-15.0-3.12,45357,List1B,black,woman,,,,,"{""Q0"":""fred and luke are meeting each other""}","<img src=""stim_listB/meet6.gif""</stim_listB>",are meeting each other,
null,"<div style=""font-size:60px;"">+</div>",,html-keyboard-response,221,1793380,0.0-15.0-0.13,45357,List1B,black,woman,,,,null,,,,
null,"<img src=""stim_listB/kiss4.gif""</stim_listB>",,html-keyboard-response,222,1795394,0.0-15.0-1.13,45357,List1B,black,woman,,,,null,,,,
null,are kissing each other,,html-keyboard-response,223,1797402,0.0-15.0-2.13,45357,List1B,black,woman,,,,null,,,,
19710,,,survey-text,224,1817121,0.0-15.0-3.13,45357,List1B,black,woman,,,,,"{""Q0"":""dave and jane is kissing each other""}","<img src=""stim_listB/kiss4.gif""</stim_listB>",are kissing each other,
null,"<div style=""font-size:60px;"">+</div>",,html-keyboard-response,225,1817639,0.0-15.0-0.14,45357,List1B,black,woman,,,,null,,,,
null,"<img src=""stim_listB/argue5.gif""</stim_listB>",,html-keyboard-response,226,1819654,0.0-15.0-1.14,45357,List1B,black,woman,,,,null,,,,
null,is arguing with,,html-keyboard-response,227,1821657,0.0-15.0-2.14,45357,List1B,black,woman,,,,null,,,,
14951,,,survey-text,228,1836616,0.0-15.0-3.14,45357,List1B,black,woman,,,,,"{""Q0"":""luke is arguing with mike""}","<img src=""stim_listB/argue5.gif""</stim_listB>",is arguing with,
null,"<div style=""font-size:60px;"">+</div>",,html-keyboard-response,229,1837126,0.0-15.0-0.15,45357,List1B,black,woman,,,,null,,,,
null,"<img src=""stim_listB/shout7.gif""</stim_listB>",,html-keyboard-response,230,1839140,0.0-15.0-1.15,45357,List1B,black,woman,,,,null,,,,
null,is shouting at,,html-keyboard-response,231,1841150,0.0-15.0-2.15,45357,List1B,black,woman,,,,null,,,,
4320,,,survey-text,232,1845478,0.0-15.0-3.15,45357,List1B,black,woman,,,,,"{""Q0"":""""}","<img src=""stim_listB/shout7.gif""</stim_listB>",is shouting at,
null,"<div style=""font-size:60px;"">+</div>",,html-keyboard-response,233,1845992,0.0-15.0-0.16,45357,List1B,black,woman,,,,null,,,,
null,"<img src=""stim_listB/argue8.gif""</stim_listB>",,html-keyboard-response,234,1848013,0.0-15.0-1.16,45357,List1B,black,woman,,,,null,,,,
null,are arguing with each other,,html-keyboard-response,235,1850004,0.0-15.0-2.16,45357,List1B,black,woman,,,,null,,,,
14657,,,survey-text,236,1864671,0.0-15.0-3.16,45357,List1B,black,woman,,,,,"{""Q0"":""ruth is arguing with beth""}","<img src=""stim_listB/argue8.gif""</stim_listB>",are arguing with each other,
null,"<div style=""font-size:60px;"">+</div>",,html-keyboard-response,237,1865198,0.0-15.0-0.17,45357,List1B,black,woman,,,,null,,,,
null,"<img src=""stim_listB/fight5.gif""</stim_listB>",,html-keyboard-response,238,1867222,0.0-15.0-1.17,45357,List1B,black,woman,,,,null,,,,
null,is fighting,,html-keyboard-response,239,1869217,0.0-15.0-2.17,45357,List1B,black,woman,,,,null,,,,
13958,,,survey-text,240,1883185,0.0-15.0-3.17,45357,List1B,black,woman,,,,,"{""Q0"":""mike is fighting dave""}","<img src=""stim_listB/fight5.gif""</stim_listB>",is fighting,
null,"<div style=""font-size:60px;"">+</div>",,html-keyboard-response,241,1883700,0.0-15.0-0.18,45357,List1B,black,woman,,,,null,,,,
null,"<img src=""stim_listB/marry5.gif""</stim_listB>",,html-keyboard-response,242,1885718,0.0-15.0-1.18,45357,List1B,black,woman,,,,null,,,,
null,is marrying,,html-keyboard-response,243,1887723,0.0-15.0-2.18,45357,List1B,black,woman,,,,null,,,,
11803,,,survey-text,244,1899536,0.0-15.0-3.18,45357,List1B,black,woman,,,,,"{""Q0"":""luke is marrying mike""}","<img src=""stim_listB/marry5.gif""</stim_listB>",is marrying,
null,"<div style=""font-size:60px;"">+</div>",,html-keyboard-response,245,1900054,0.0-15.0-0.19,45357,List1B,black,woman,,,,null,,,,
null,"<img src=""stim_listB/kiss3.gif""</stim_listB>",,html-keyboard-response,246,1902066,0.0-15.0-1.19,45357,List1B,black,woman,,,,null,,,,
null,is kissing,,html-keyboard-response,247,1904081,0.0-15.0-2.19,45357,List1B,black,woman,,,,null,,,,
15377,,,survey-text,248,1919467,0.0-15.0-3.19,45357,List1B,black,woman,,,,,"{""Q0"":""luke is kissing ruth""}","<img src=""stim_listB/kiss3.gif""</stim_listB>",is kissing,
14167,"<img src='img/portrait_matrix_list1.JPG' style='width:900px;height:500px;''></img><p>If you have memorised all the portraits and names and are ready to start, press Continue.</p><p><strong>Please note: Your memory of these faces will be tested 4 times during this experiment.</strong></p>",0,html-button-response,249,1933644,0.0-16.0-0.0,45357,List1B,black,woman,,,,,,,,
3248,"<img src=""portrait/WM1.jpg""style=""width:400px;height:400px;""></img>",6,html-button-response,250,1937909,0.0-16.0-1.0,45357,List1B,black,woman,,TRUE,6,,,,,
null,CORRECT,,html-keyboard-response,251,1939426,0.0-16.0-2.0-0.0,45357,List1B,black,woman,,,,null,,,,
2143,"<img src=""portrait/BM2.jpg""style=""width:400px;height:400px;""></img>",5,html-button-response,252,1941586,0.0-16.0-4.0,45357,List1B,black,woman,,TRUE,5,,,,,
null,CORRECT,,html-keyboard-response,253,1943105,0.0-16.0-5.0-0.0,45357,List1B,black,woman,,,,null,,,,
6803,"<img src=""portrait/WW1.jpg""style=""width:400px;height:400px;""></img>",1,html-button-response,254,1949924,0.0-16.0-7.0,45357,List1B,black,woman,,TRUE,1,,,,,
null,CORRECT,,html-keyboard-response,255,1951451,0.0-16.0-8.0-0.0,45357,List1B,black,woman,,,,null,,,,
2199,"<img src=""portrait/BW2.jpg""style=""width:400px;height:400px;""></img>",2,html-button-response,256,1953669,0.0-16.0-10.0,45357,List1B,black,woman,,TRUE,2,,,,,
null,CORRECT,,html-keyboard-response,257,1955199,0.0-16.0-11.0-0.0,45357,List1B,black,woman,,,,null,,,,
2260,"<img src=""portrait/BW1.jpg""style=""width:400px;height:400px;""></img>",0,html-button-response,258,1957477,0.0-16.0-13.0,45357,List1B,black,woman,,TRUE,0,,,,,
null,CORRECT,,html-keyboard-response,259,1958978,0.0-16.0-14.0-0.0,45357,List1B,black,woman,,,,null,,,,
5795,"<img src=""portrait/WM2.jpg""style=""width:400px;height:400px;""></img>",7,html-button-response,260,1964791,0.0-16.0-16.0,45357,List1B,black,woman,,TRUE,7,,,,,
null,CORRECT,,html-keyboard-response,261,1966312,0.0-16.0-17.0-0.0,45357,List1B,black,woman,,,,null,,,,
2902,"<img src=""portrait/BM1.jpg""style=""width:400px;height:400px;""></img>",4,html-button-response,262,1969230,0.0-16.0-19.0,45357,List1B,black,woman,,TRUE,4,,,,,
null,CORRECT,,html-keyboard-response,263,1970753,0.0-16.0-20.0-0.0,45357,List1B,black,woman,,,,null,,,,
1947,"<img src=""portrait/WW2.jpg""style=""width:400px;height:400px;""></img>",3,html-button-response,264,1972708,0.0-16.0-22.0,45357,List1B,black,woman,,TRUE,3,,,,,
null,CORRECT,,html-keyboard-response,265,1974228,0.0-16.0-23.0-0.0,45357,List1B,black,woman,,,,null,,,,
3502,<p>You got 8 out of 8 right first time. Press Continue.</p>,0,html-button-response,266,1977748,0.0-16.0-25.0,45357,List1B,black,woman,,,,,,,,
null,"<div style=""font-size:60px;"">+</div>",,html-keyboard-response,267,1979297,0.0-17.0-0.0,45357,List1B,black,woman,,,,null,,,,
null,"<img src=""stim_listB/dance5.gif""</stim_listB>",,html-keyboard-response,268,1981321,0.0-17.0-1.0,45357,List1B,black,woman,,,,null,,,,
null,is dancing with,,html-keyboard-response,269,1983317,0.0-17.0-2.0,45357,List1B,black,woman,,,,null,,,,
21077,,,survey-text,270,2004404,0.0-17.0-3.0,45357,List1B,black,woman,,,,,"{""Q0"":""fred is dancing with dave""}","<img src=""stim_listB/dance5.gif""</stim_listB>",is dancing with,
null,"<div style=""font-size:60px;"">+</div>",,html-keyboard-response,271,2004928,0.0-17.0-0.1,45357,List1B,black,woman,,,,null,,,,
null,"<img src=""stim_listB/shout4.gif""</stim_listB>",,html-keyboard-response,272,2006973,0.0-17.0-1.1,45357,List1B,black,woman,,,,null,,,,
null,are shouting at each other,,html-keyboard-response,273,2008970,0.0-17.0-2.1,45357,List1B,black,woman,,,,null,,,,
18883,,,survey-text,274,2027864,0.0-17.0-3.1,45357,List1B,black,woman,,,,,"{""Q0"":""jane is shouting at luke""}","<img src=""stim_listB/shout4.gif""</stim_listB>",are shouting at each other,
null,"<div style=""font-size:60px;"">+</div>",,html-keyboard-response,275,2028385,0.0-17.0-0.2,45357,List1B,black,woman,,,,null,,,,
null,"<img src=""stim_listB/touch7.gif""</stim_listB>",,html-keyboard-response,276,2030394,0.0-17.0-1.2,45357,List1B,black,woman,,,,null,,,,
null,is touching,,html-keyboard-response,277,2032410,0.0-17.0-2.2,45357,List1B,black,woman,,,,null,,,,
16610,,,survey-text,278,2049031,0.0-17.0-3.2,45357,List1B,black,woman,,,,,"{""Q0"":""jane is touching kate""}","<img src=""stim_listB/touch7.gif""</stim_listB>",is touching,
null,"<div style=""font-size:60px;"">+</div>",,html-keyboard-response,279,2049557,0.0-17.0-0.3,45357,List1B,black,woman,,,,null,,,,
null,"<img src=""stim_listB/argue3.gif""</stim_listB>",,html-keyboard-response,280,2051592,0.0-17.0-1.3,45357,List1B,black,woman,,,,null,,,,
null,is arguing with,,html-keyboard-response,281,2053590,0.0-17.0-2.3,45357,List1B,black,woman,,,,null,,,,
14008,,,survey-text,282,2067607,0.0-17.0-3.3,45357,List1B,black,woman,,,,,"{""Q0"":""dave is arguing with dave""}","<img src=""stim_listB/argue3.gif""</stim_listB>",is arguing with,
null,"<div style=""font-size:60px;"">+</div>",,html-keyboard-response,283,2068130,0.0-17.0-0.4,45357,List1B,black,woman,,,,null,,,,
null,"<img src=""stim_listB/touch4.gif""</stim_listB>",,html-keyboard-response,284,2070152,0.0-17.0-1.4,45357,List1B,black,woman,,,,null,,,,
null,are touching each other,,html-keyboard-response,285,2072150,0.0-17.0-2.4,45357,List1B,black,woman,,,,null,,,,
25833,,,survey-text,286,2097992,0.0-17.0-3.4,45357,List1B,black,woman,,,,,"{""Q0"":""luke and ruth are touching each other""}","<img src=""stim_listB/touch4.gif""</stim_listB>",are touching each other,
null,"<div style=""font-size:60px;"">+</div>",,html-keyboard-response,287,2098516,0.0-17.0-0.5,45357,List1B,black,woman,,,,null,,,,
null,"<img src=""stim_listB/talk3.gif""</stim_listB>",,html-keyboard-response,288,2100537,0.0-17.0-1.5,45357,List1B,black,woman,,,,null,,,,
null,is talking to,,html-keyboard-response,289,2102526,0.0-17.0-2.5,45357,List1B,black,woman,,,,null,,,,
17249,,,survey-text,290,2119784,0.0-17.0-3.5,45357,List1B,black,woman,,,,,"{""Q0"":""jane is talking to luke""}","<img src=""stim_listB/talk3.gif""</stim_listB>",is talking to,
null,"<div style=""font-size:60px;"">+</div>",,html-keyboard-response,291,2120301,0.0-17.0-0.6,45357,List1B,black,woman,,,,null,,,,
null,"<img src=""stim_listB/marry6.gif""</stim_listB>",,html-keyboard-response,292,2122318,0.0-17.0-1.6,45357,List1B,black,woman,,,,null,,,,
null,are marrying each other,,html-keyboard-response,293,2124316,0.0-17.0-2.6,45357,List1B,black,woman,,,,null,,,,
24228,,,survey-text,294,2148553,0.0-17.0-3.6,45357,List1B,black,woman,,,,,"{""Q0"":""fred  and dave are marrying each other""}","<img src=""stim_listB/marry6.gif""</stim_listB>",are marrying each other,
null,"<div style=""font-size:60px;"">+</div>",,html-keyboard-response,295,2149073,0.0-17.0-0.7,45357,List1B,black,woman,,,,null,,,,
null,"<img src=""stim_listB/talk7.gif""</stim_listB>",,html-keyboard-response,296,2151095,0.0-17.0-1.7,45357,List1B,black,woman,,,,null,,,,
null,is talking to,,html-keyboard-response,297,2153105,0.0-17.0-2.7,45357,List1B,black,woman,,,,null,,,,
16160,,,survey-text,298,2169274,0.0-17.0-3.7,45357,List1B,black,woman,,,,,"{""Q0"":""jane is talking to beth""}","<img src=""stim_listB/talk7.gif""</stim_listB>",is talking to,
null,"<div style=""font-size:60px;"">+</div>",,html-keyboard-response,299,2169796,0.0-17.0-0.8,45357,List1B,black,woman,,,,null,,,,
null,"<img src=""stim_listB/meet5.gif""</stim_listB>",,html-keyboard-response,300,2171817,0.0-17.0-1.8,45357,List1B,black,woman,,,,null,,,,
null,is meeting,,html-keyboard-response,301,2173806,0.0-17.0-2.8,45357,List1B,black,woman,,,,null,,,,
16809,,,survey-text,302,2190620,0.0-17.0-3.8,45357,List1B,black,woman,,,,,"{""Q0"":""dave is meeting mike""}","<img src=""stim_listB/meet5.gif""</stim_listB>",is meeting,
null,"<div style=""font-size:60px;"">+</div>",,html-keyboard-response,303,2191140,0.0-17.0-0.9,45357,List1B,black,woman,,,,null,,,,
null,"<img src=""stim_listB/shout5.gif""</stim_listB>",,html-keyboard-response,304,2193168,0.0-17.0-1.9,45357,List1B,black,woman,,,,null,,,,
null,is shouting at,,html-keyboard-response,305,2195193,0.0-17.0-2.9,45357,List1B,black,woman,,,,null,,,,
21065,,,survey-text,306,2216268,0.0-17.0-3.9,45357,List1B,black,woman,,,,,"{""Q0"":""luke is shouting at fred""}","<img src=""stim_listB/shout5.gif""</stim_listB>",is shouting at,
null,"<div style=""font-size:60px;"">+</div>",,html-keyboard-response,307,2216781,0.0-17.0-0.10,45357,List1B,black,woman,,,,null,,,,
null,"<img src=""stim_listB/meet8.gif""</stim_listB>",,html-keyboard-response,308,2218801,0.0-17.0-1.10,45357,List1B,black,woman,,,,null,,,,
null,are meeting each other,,html-keyboard-response,309,2220796,0.0-17.0-2.10,45357,List1B,black,woman,,,,null,,,,
34167,,,survey-text,310,2254972,0.0-17.0-3.10,45357,List1B,black,woman,,,,,"{""Q0"":""ruth and beth are meeting each other""}","<img src=""stim_listB/meet8.gif""</stim_listB>",are meeting each other,
null,"<div style=""font-size:60px;"">+</div>",,html-keyboard-response,311,2255487,0.0-17.0-0.11,45357,List1B,black,woman,,,,null,,,,
null,"<img src=""stim_listB/talk6.gif""</stim_listB>",,html-keyboard-response,312,2257500,0.0-17.0-1.11,45357,List1B,black,woman,,,,null,,,,
null,are talking to each other,,html-keyboard-response,313,2259504,0.0-17.0-2.11,45357,List1B,black,woman,,,,null,,,,
28402,,,survey-text,314,2287918,0.0-17.0-3.11,45357,List1B,black,woman,,,,,"{""Q0"":""mike and luke are talking to each other""}","<img src=""stim_listB/talk6.gif""</stim_listB>",are talking to each other,
null,"<div style=""font-size:60px;"">+</div>",,html-keyboard-response,315,2288441,0.0-17.0-0.12,45357,List1B,black,woman,,,,null,,,,
null,"<img src=""stim_listB/talk1.gif""</stim_listB>",,html-keyboard-response,316,2290464,0.0-17.0-1.12,45357,List1B,black,woman,,,,null,,,,
null,is talking to,,html-keyboard-response,317,2292467,0.0-17.0-2.12,45357,List1B,black,woman,,,,null,,,,
18225,,,survey-text,318,2310703,0.0-17.0-3.12,45357,List1B,black,woman,,,,,"{""Q0"":""kate is talking to fred""}","<img src=""stim_listB/talk1.gif""</stim_listB>",is talking to,
null,"<div style=""font-size:60px;"">+</div>",,html-keyboard-response,319,2311233,0.0-17.0-0.13,45357,List1B,black,woman,,,,null,,,,
null,"<img src=""stim_listB/fight7.gif""</stim_listB>",,html-keyboard-response,320,2313248,0.0-17.0-1.13,45357,List1B,black,woman,,,,null,,,,
null,is fighting,,html-keyboard-response,321,2315262,0.0-17.0-2.13,45357,List1B,black,woman,,,,null,,,,
18127,,,survey-text,322,2333399,0.0-17.0-3.13,45357,List1B,black,woman,,,,,"{""Q0"":""ruth is fighting beth""}","<img src=""stim_listB/fight7.gif""</stim_listB>",is fighting,
null,"<div style=""font-size:60px;"">+</div>",,html-keyboard-response,323,2333915,0.0-17.0-0.14,45357,List1B,black,woman,,,,null,,,,
null,"<img src=""stim_listB/meet2.gif""</stim_listB>",,html-keyboard-response,324,2335944,0.0-17.0-1.14,45357,List1B,black,woman,,,,null,,,,
null,are meeting each other,,html-keyboard-response,325,2337961,0.0-17.0-2.14,45357,List1B,black,woman,,,,null,,,,
26843,,,survey-text,326,2364816,0.0-17.0-3.14,45357,List1B,black,woman,,,,,"{""Q0"":""beth and fred are meeting each other""}","<img src=""stim_listB/meet2.gif""</stim_listB>",are meeting each other,
null,"<div style=""font-size:60px;"">+</div>",,html-keyboard-response,327,2365337,0.0-17.0-0.15,45357,List1B,black,woman,,,,null,,,,
null,"<img src=""stim_listB/kiss6.gif""</stim_listB>",,html-keyboard-response,328,2367356,0.0-17.0-1.15,45357,List1B,black,woman,,,,null,,,,
null,are kissing each other,,html-keyboard-response,329,2369360,0.0-17.0-2.15,45357,List1B,black,woman,,,,null,,,,
24497,,,survey-text,330,2393866,0.0-17.0-3.15,45357,List1B,black,woman,,,,,"{""Q0"":""dave and mike are kissing each other""}","<img src=""stim_listB/kiss6.gif""</stim_listB>",are kissing each other,
null,"<div style=""font-size:60px;"">+</div>",,html-keyboard-response,331,2394390,0.0-17.0-0.16,45357,List1B,black,woman,,,,null,,,,
null,"<img src=""stim_listB/meet4.gif""</stim_listB>",,html-keyboard-response,332,2396420,0.0-17.0-1.16,45357,List1B,black,woman,,,,null,,,,
null,are meeting each other,,html-keyboard-response,333,2398429,0.0-17.0-2.16,45357,List1B,black,woman,,,,null,,,,
20521,,,survey-text,334,2418963,0.0-17.0-3.16,45357,List1B,black,woman,,,,,"{""Q0"":""luke and ruth are meeting each other""}","<img src=""stim_listB/meet4.gif""</stim_listB>",are meeting each other,
null,"<div style=""font-size:60px;"">+</div>",,html-keyboard-response,335,2419485,0.0-17.0-0.17,45357,List1B,black,woman,,,,null,,,,
null,"<img src=""stim_listB/argue7.gif""</stim_listB>",,html-keyboard-response,336,2421504,0.0-17.0-1.17,45357,List1B,black,woman,,,,null,,,,
null,is arguing with,,html-keyboard-response,337,2423508,0.0-17.0-2.17,45357,List1B,black,woman,,,,null,,,,
27020,,,survey-text,338,2450538,0.0-17.0-3.17,45357,List1B,black,woman,,,,,"{""Q0"":""kate is arguing with ruth""}","<img src=""stim_listB/argue7.gif""</stim_listB>",is arguing with,
null,"<div style=""font-size:60px;"">+</div>",,html-keyboard-response,339,2451053,0.0-17.0-0.18,45357,List1B,black,woman,,,,null,,,,
null,"<img src=""stim_listB/talk8.gif""</stim_listB>",,html-keyboard-response,340,2453066,0.0-17.0-1.18,45357,List1B,black,woman,,,,null,,,,
null,are talking to each other,,html-keyboard-response,341,2455070,0.0-17.0-2.18,45357,List1B,black,woman,,,,null,,,,
15052,,,survey-text,342,2470132,0.0-17.0-3.18,45357,List1B,black,woman,,,,,"{""Q0"":""kate is talking to ruth""}","<img src=""stim_listB/talk8.gif""</stim_listB>",are talking to each other,
null,"<div style=""font-size:60px;"">+</div>",,html-keyboard-response,343,2470659,0.0-17.0-0.19,45357,List1B,black,woman,,,,null,,,,
null,"<img src=""stim_listB/hug6.gif""</stim_listB>",,html-keyboard-response,344,2472674,0.0-17.0-1.19,45357,List1B,black,woman,,,,null,,,,
null,are hugging each other,,html-keyboard-response,345,2474689,0.0-17.0-2.19,45357,List1B,black,woman,,,,null,,,,
25663,,,survey-text,346,2500365,0.0-17.0-3.19,45357,List1B,black,woman,,,,,"{""Q0"":""dave and mike are hugging each other""}","<img src=""stim_listB/hug6.gif""</stim_listB>",are hugging each other,
13632,"<img src='img/portrait_matrix_list1.JPG' style='width:900px;height:500px;''></img><p>If you have memorised all the portraits and names and are ready to start, press Continue.</p><p><strong>Please note: Your memory of these faces will be tested 4 times during this experiment.</strong></p>",0,html-button-response,347,2514005,0.0-18.0-0.0,45357,List1B,black,woman,,,,,,,,
3781,"<img src=""portrait/BM1.jpg""style=""width:400px;height:400px;""></img>",4,html-button-response,348,2518806,0.0-18.0-1.0,45357,List1B,black,woman,,TRUE,4,,,,,
null,CORRECT,,html-keyboard-response,349,2520336,0.0-18.0-2.0-0.0,45357,List1B,black,woman,,,,null,,,,
2924,"<img src=""portrait/WM1.jpg""style=""width:400px;height:400px;""></img>",6,html-button-response,350,2523277,0.0-18.0-4.0,45357,List1B,black,woman,,TRUE,6,,,,,
null,CORRECT,,html-keyboard-response,351,2524801,0.0-18.0-5.0-0.0,45357,List1B,black,woman,,,,null,,,,
1747,"<img src=""portrait/WM2.jpg""style=""width:400px;height:400px;""></img>",7,html-button-response,352,2526566,0.0-18.0-7.0,45357,List1B,black,woman,,TRUE,7,,,,,
null,CORRECT,,html-keyboard-response,353,2528081,0.0-18.0-8.0-0.0,45357,List1B,black,woman,,,,null,,,,
2356,"<img src=""portrait/WW2.jpg""style=""width:400px;height:400px;""></img>",3,html-button-response,354,2530454,0.0-18.0-10.0,45357,List1B,black,woman,,TRUE,3,,,,,
null,CORRECT,,html-keyboard-response,355,2531985,0.0-18.0-11.0-0.0,45357,List1B,black,woman,,,,null,,,,
2779,"<img src=""portrait/BW1.jpg""style=""width:400px;height:400px;""></img>",0,html-button-response,356,2534783,0.0-18.0-13.0,45357,List1B,black,woman,,TRUE,0,,,,,
null,CORRECT,,html-keyboard-response,357,2536309,0.0-18.0-14.0-0.0,45357,List1B,black,woman,,,,null,,,,
2222,"<img src=""portrait/BW2.jpg""style=""width:400px;height:400px;""></img>",2,html-button-response,358,2538551,0.0-18.0-16.0,45357,List1B,black,woman,,TRUE,2,,,,,
null,CORRECT,,html-keyboard-response,359,2540070,0.0-18.0-17.0-0.0,45357,List1B,black,woman,,,,null,,,,
2021,"<img src=""portrait/BM2.jpg""style=""width:400px;height:400px;""></img>",5,html-button-response,360,2542111,0.0-18.0-19.0,45357,List1B,black,woman,,TRUE,5,,,,,
null,CORRECT,,html-keyboard-response,361,2543631,0.0-18.0-20.0-0.0,45357,List1B,black,woman,,,,null,,,,
1183,"<img src=""portrait/WW1.jpg""style=""width:400px;height:400px;""></img>",1,html-button-response,362,2544831,0.0-18.0-22.0,45357,List1B,black,woman,,TRUE,1,,,,,
null,CORRECT,,html-keyboard-response,363,2546360,0.0-18.0-23.0-0.0,45357,List1B,black,woman,,,,null,,,,
2658,<p>You got 8 out of 8 right first time. Press Continue.</p>,0,html-button-response,364,2549041,0.0-18.0-25.0,45357,List1B,black,woman,,,,,,,,
null,"<div style=""font-size:60px;"">+</div>",,html-keyboard-response,365,2550582,0.0-19.0-0.0,45357,List1B,black,woman,,,,null,,,,
null,"<img src=""stim_listB/argue4.gif""</stim_listB>",,html-keyboard-response,366,2552600,0.0-19.0-1.0,45357,List1B,black,woman,,,,null,,,,
null,are arguing with each other,,html-keyboard-response,367,2554606,0.0-19.0-2.0,45357,List1B,black,woman,,,,null,,,,
21550,,,survey-text,368,2576168,0.0-19.0-3.0,45357,List1B,black,woman,,,,,"{""Q0"":""luke and jane are arguing with each other""}","<img src=""stim_listB/argue4.gif""</stim_listB>",are arguing with each other,
null,"<div style=""font-size:60px;"">+</div>",,html-keyboard-response,369,2576683,0.0-19.0-0.1,45357,List1B,black,woman,,,,null,,,,
null,"<img src=""stim_listB/hug4.gif""</stim_listB>",,html-keyboard-response,370,2578700,0.0-19.0-1.1,45357,List1B,black,woman,,,,null,,,,
null,are hugging each other,,html-keyboard-response,371,2580700,0.0-19.0-2.1,45357,List1B,black,woman,,,,null,,,,
23984,,,survey-text,372,2604696,0.0-19.0-3.1,45357,List1B,black,woman,,,,,"{""Q0"":""jane and dave are hugging each other""}","<img src=""stim_listB/hug4.gif""</stim_listB>",are hugging each other,
null,"<div style=""font-size:60px;"">+</div>",,html-keyboard-response,373,2605215,0.0-19.0-0.2,45357,List1B,black,woman,,,,null,,,,
null,"<img src=""stim_listB/touch2.gif""</stim_listB>",,html-keyboard-response,374,2607245,0.0-19.0-1.2,45357,List1B,black,woman,,,,null,,,,
null,are touching each other,,html-keyboard-response,375,2609247,0.0-19.0-2.2,45357,List1B,black,woman,,,,null,,,,
23680,,,survey-text,376,2632939,0.0-19.0-3.2,45357,List1B,black,woman,,,,,"{""Q0"":""fred and beth are touching each other""}","<img src=""stim_listB/touch2.gif""</stim_listB>",are touching each other,
null,"<div style=""font-size:60px;"">+</div>",,html-keyboard-response,377,2633463,0.0-19.0-0.3,45357,List1B,black,woman,,,,null,,,,
null,"<img src=""stim_listB/argue1.gif""</stim_listB>",,html-keyboard-response,378,2635489,0.0-19.0-1.3,45357,List1B,black,woman,,,,null,,,,
null,is arguing with,,html-keyboard-response,379,2637494,0.0-19.0-2.3,45357,List1B,black,woman,,,,null,,,,
12870,,,survey-text,380,2650379,0.0-19.0-3.3,45357,List1B,black,woman,,,,,"{""Q0"":""beth is arguing with mike""}","<img src=""stim_listB/argue1.gif""</stim_listB>",is arguing with,
null,"<div style=""font-size:60px;"">+</div>",,html-keyboard-response,381,2650891,0.0-19.0-0.4,45357,List1B,black,woman,,,,null,,,,
null,"<img src=""stim_listB/shout3.gif""</stim_listB>",,html-keyboard-response,382,2652907,0.0-19.0-1.4,45357,List1B,black,woman,,,,null,,,,
null,is shouting at,,html-keyboard-response,383,2654918,0.0-19.0-2.4,45357,List1B,black,woman,,,,null,,,,
11824,,,survey-text,384,2666755,0.0-19.0-3.4,45357,List1B,black,woman,,,,,"{""Q0"":""ruth is shouting at luke""}","<img src=""stim_listB/shout3.gif""</stim_listB>",is shouting at,
null,"<div style=""font-size:60px;"">+</div>",,html-keyboard-response,385,2667289,0.0-19.0-0.5,45357,List1B,black,woman,,,,null,,,,
null,"<img src=""stim_listB/talk4.gif""</stim_listB>",,html-keyboard-response,386,2669306,0.0-19.0-1.5,45357,List1B,black,woman,,,,null,,,,
null,are talking to each other,,html-keyboard-response,387,2671331,0.0-19.0-2.5,45357,List1B,black,woman,,,,null,,,,
27430,,,survey-text,388,2698776,0.0-19.0-3.5,45357,List1B,black,woman,,,,,"{""Q0"":""ruth and dave are talking to each other""}","<img src=""stim_listB/talk4.gif""</stim_listB>",are talking to each other,
null,"<div style=""font-size:60px;"">+</div>",,html-keyboard-response,389,2699296,0.0-19.0-0.6,45357,List1B,black,woman,,,,null,,,,
null,"<img src=""stim_listB/argue6.gif""</stim_listB>",,html-keyboard-response,390,2701316,0.0-19.0-1.6,45357,List1B,black,woman,,,,null,,,,
null,are arguing with each other,,html-keyboard-response,391,2703313,0.0-19.0-2.6,45357,List1B,black,woman,,,,null,,,,
21920,,,survey-text,392,2725244,0.0-19.0-3.6,45357,List1B,black,woman,,,,,"{""Q0"":""fred and luke are arguing with each other""}","<img src=""stim_listB/argue6.gif""</stim_listB>",are arguing with each other,
null,"<div style=""font-size:60px;"">+</div>",,html-keyboard-response,393,2725767,0.0-19.0-0.7,45357,List1B,black,woman,,,,null,,,,
null,"<img src=""stim_listB/talk2.gif""</stim_listB>",,html-keyboard-response,394,2727791,0.0-19.0-1.7,45357,List1B,black,woman,,,,null,,,,
null,are talking to each other,,html-keyboard-response,395,2729797,0.0-19.0-2.7,45357,List1B,black,woman,,,,null,,,,
20868,,,survey-text,396,2750678,0.0-19.0-3.7,45357,List1B,black,woman,,,,,"{""Q0"":""mike and beth are meeting each other""}","<img src=""stim_listB/talk2.gif""</stim_listB>",are talking to each other,
null,"<div style=""font-size:60px;"">+</div>",,html-keyboard-response,397,2751186,0.0-19.0-0.8,45357,List1B,black,woman,,,,null,,,,
null,"<img src=""stim_listB/argue2.gif""</stim_listB>",,html-keyboard-response,398,2753205,0.0-19.0-1.8,45357,List1B,black,woman,,,,null,,,,
null,are arguing with each other,,html-keyboard-response,399,2755229,0.0-19.0-2.8,45357,List1B,black,woman,,,,null,,,,
20965,,,survey-text,400,2776208,0.0-19.0-3.8,45357,List1B,black,woman,,,,,"{""Q0"":""fred and kate are arguing with each other""}","<img src=""stim_listB/argue2.gif""</stim_listB>",are arguing with each other,
null,"<div style=""font-size:60px;"">+</div>",,html-keyboard-response,401,2776717,0.0-19.0-0.9,45357,List1B,black,woman,,,,null,,,,
null,"<img src=""stim_listB/hug7.gif""</stim_listB>",,html-keyboard-response,402,2778744,0.0-19.0-1.9,45357,List1B,black,woman,,,,null,,,,
null,is hugging,,html-keyboard-response,403,2780738,0.0-19.0-2.9,45357,List1B,black,woman,,,,null,,,,
11779,,,survey-text,404,2792528,0.0-19.0-3.9,45357,List1B,black,woman,,,,,"{""Q0"":""ruth is hugging beth""}","<img src=""stim_listB/hug7.gif""</stim_listB>",is hugging,
null,"<div style=""font-size:60px;"">+</div>",,html-keyboard-response,405,2793046,0.0-19.0-0.10,45357,List1B,black,woman,,,,null,,,,
null,"<img src=""stim_listB/dance4.gif""</stim_listB>",,html-keyboard-response,406,2795111,0.0-19.0-1.10,45357,List1B,black,woman,,,,null,,,,
null,are dancing with each other,,html-keyboard-response,407,2797100,0.0-19.0-2.10,45357,List1B,black,woman,,,,null,,,,
22568,,,survey-text,408,2819679,0.0-19.0-3.10,45357,List1B,black,woman,,,,,"{""Q0"":""dave and ruth are dancing with each other""}","<img src=""stim_listB/dance4.gif""</stim_listB>",are dancing with each other,
null,"<div style=""font-size:60px;"">+</div>",,html-keyboard-response,409,2820189,0.0-19.0-0.11,45357,List1B,black,woman,,,,null,,,,
null,"<img src=""stim_listB/marry4.gif""</stim_listB>",,html-keyboard-response,410,2822204,0.0-19.0-1.11,45357,List1B,black,woman,,,,null,,,,
null,are marrying each other,,html-keyboard-response,411,2824204,0.0-19.0-2.11,45357,List1B,black,woman,,,,null,,,,
45066,,,survey-text,412,2869282,0.0-19.0-3.11,45357,List1B,black,woman,,,,,"{""Q0"":""luke and jane are marrying each other""}","<img src=""stim_listB/marry4.gif""</stim_listB>",are marrying each other,
null,"<div style=""font-size:60px;"">+</div>",,html-keyboard-response,413,2869802,0.0-19.0-0.12,45357,List1B,black,woman,,,,null,,,,
null,"<img src=""stim_listB/meet3.gif""</stim_listB>",,html-keyboard-response,414,2871831,0.0-19.0-1.12,45357,List1B,black,woman,,,,null,,,,
null,is meeting,,html-keyboard-response,415,2873812,0.0-19.0-2.12,45357,List1B,black,woman,,,,null,,,,
12191,,,survey-text,416,2886010,0.0-19.0-3.12,45357,List1B,black,woman,,,,,"{""Q0"":""dave is meetiing jane""}","<img src=""stim_listB/meet3.gif""</stim_listB>",is meeting,
null,"<div style=""font-size:60px;"">+</div>",,html-keyboard-response,417,2886519,0.0-19.0-0.13,45357,List1B,black,woman,,,,null,,,,
null,"<img src=""stim_listB/touch8.gif""</stim_listB>",,html-keyboard-response,418,2888544,0.0-19.0-1.13,45357,List1B,black,woman,,,,null,,,,
null,are touching each other,,html-keyboard-response,419,2890546,0.0-19.0-2.13,45357,List1B,black,woman,,,,null,,,,
20222,,,survey-text,420,2910778,0.0-19.0-3.13,45357,List1B,black,woman,,,,,"{""Q0"":""ruth and beth are touching each other""}","<img src=""stim_listB/touch8.gif""</stim_listB>",are touching each other,
null,"<div style=""font-size:60px;"">+</div>",,html-keyboard-response,421,2911291,0.0-19.0-0.14,45357,List1B,black,woman,,,,null,,,,
null,"<img src=""stim_listB/fight3.gif""</stim_listB>",,html-keyboard-response,422,2913318,0.0-19.0-1.14,45357,List1B,black,woman,,,,null,,,,
null,is fighting,,html-keyboard-response,423,2915311,0.0-19.0-2.14,45357,List1B,black,woman,,,,null,,,,
16505,,,survey-text,424,2931830,0.0-19.0-3.14,45357,List1B,black,woman,,,,,"{""Q0"":""dave is fighting jane""}","<img src=""stim_listB/fight3.gif""</stim_listB>",is fighting,
null,"<div style=""font-size:60px;"">+</div>",,html-keyboard-response,425,2932355,0.0-19.0-0.15,45357,List1B,black,woman,,,,null,,,,
null,"<img src=""stim_listB/kiss2.gif""</stim_listB>",,html-keyboard-response,426,2934370,0.0-19.0-1.15,45357,List1B,black,woman,,,,null,,,,
null,are kissing each other,,html-keyboard-response,427,2936399,0.0-19.0-2.15,45357,List1B,black,woman,,,,null,,,,
21167,,,survey-text,428,2957581,0.0-19.0-3.15,45357,List1B,black,woman,,,,,"{""Q0"":""mike and kate are kissing each other""}","<img src=""stim_listB/kiss2.gif""</stim_listB>",are kissing each other,
null,"<div style=""font-size:60px;"">+</div>",,html-keyboard-response,429,2958105,0.0-19.0-0.16,45357,List1B,black,woman,,,,null,,,,
null,"<img src=""stim_listB/dance2.gif""</stim_listB>",,html-keyboard-response,430,2960130,0.0-19.0-1.16,45357,List1B,black,woman,,,,null,,,,
null,are dancing with each other,,html-keyboard-response,431,2962132,0.0-19.0-2.16,45357,List1B,black,woman,,,,null,,,,
26621,,,survey-text,432,2988767,0.0-19.0-3.16,45357,List1B,black,woman,,,,,"{""Q0"":""mike and beth are dancing with each other""}","<img src=""stim_listB/dance2.gif""</stim_listB>",are dancing with each other,
null,"<div style=""font-size:60px;"">+</div>",,html-keyboard-response,433,2989291,0.0-19.0-0.17,45357,List1B,black,woman,,,,null,,,,
null,"<img src=""stim_listB/marry7.gif""</stim_listB>",,html-keyboard-response,434,2991315,0.0-19.0-1.17,45357,List1B,black,woman,,,,null,,,,
null,is marrying,,html-keyboard-response,435,2993318,0.0-19.0-2.17,45357,List1B,black,woman,,,,null,,,,
12984,,,survey-text,436,3006311,0.0-19.0-3.17,45357,List1B,black,woman,,,,,"{""Q0"":""ruth is marrying kate""}","<img src=""stim_listB/marry7.gif""</stim_listB>",is marrying,
null,"<div style=""font-size:60px;"">+</div>",,html-keyboard-response,437,3006835,0.0-19.0-0.18,45357,List1B,black,woman,,,,null,,,,
null,"<img src=""stim_listB/hug8.gif""</stim_listB>",,html-keyboard-response,438,3008860,0.0-19.0-1.18,45357,List1B,black,woman,,,,null,,,,
null,are hugging each other,,html-keyboard-response,439,3010853,0.0-19.0-2.18,45357,List1B,black,woman,,,,null,,,,
19619,,,survey-text,440,3030487,0.0-19.0-3.18,45357,List1B,black,woman,,,,,"{""Q0"":""kate and ruth arehugging each other""}","<img src=""stim_listB/hug8.gif""</stim_listB>",are hugging each other,
null,"<div style=""font-size:60px;"">+</div>",,html-keyboard-response,441,3031009,0.0-19.0-0.19,45357,List1B,black,woman,,,,null,,,,
null,"<img src=""stim_listB/kiss5.gif""</stim_listB>",,html-keyboard-response,442,3033037,0.0-19.0-1.19,45357,List1B,black,woman,,,,null,,,,
null,is kissing,,html-keyboard-response,443,3035042,0.0-19.0-2.19,45357,List1B,black,woman,,,,null,,,,
15666,,,survey-text,444,3050719,0.0-19.0-3.19,45357,List1B,black,woman,,,,,"{""Q0"":""fred is kissing luke""}","<img src=""stim_listB/kiss5.gif""</stim_listB>",is kissing,
3288,<p>Thank you for completing that task.</p><p>The final part of this session is a short questionnaire.</p><p>Press Continue.</p>,0,html-button-response,445,3054016,0.0-20.0,45357,List1B,black,woman,,,,,,,,
46722,,,survey-text,446,3101762,0.0-21.0,45357,List1B,black,woman,,,,,"{""Q0"":""19"",""Q1"":""English"",""Q2"":""English"",""Q3"":""Ireland"",""Q4"":""Black"",""Q5"":""female""}",,,demographics
105440,,,survey-likert,447,3207228,0.0-22.0,45357,List1B,black,woman,,,,,"{""Q0"":6,""Q1"":6,""Q2"":6,""Q3"":6,""Q4"":6,""Q5"":6,""Q6"":6,""Q7"":6,""Q8"":"""",""Q9"":6,""Q10"":6,""Q11"":5,""Q12"":5,""Q13"":5}",,,likert_race
86821,,,survey-likert,448,3294070,0.0-23.0,45357,List1B,black,woman,,,,,"{""Q0"":6,""Q1"":5,""Q2"":5,""Q3"":5,""Q4"":5,""Q5"":5,""Q6"":5,""Q7"":"""",""Q8"":5,""Q9"":5,""Q10"":5,""Q11"":5,""Q12"":5,""Q13"":5}",,,likert_gender
24118,,,survey-text,449,3318208,0.0-24.0,45357,List1B,black,woman,,,,,"{""Q0"":""ccc""}",,,worker_id
6003,,,external-html,450,3324311,0.0-25.0,45357,List1B,black,woman,debrief.html,,,,,,,
