rt,stimulus,button_pressed,trial_type,trial_index,time_elapsed,internal_node_id,subject,list,ppt_race,ppt_gender,url,first_guess,correct,key_press,responses,image_type,phrase_type,test_part
2535,Welcome to the experiment. Press Continue to begin.,0,html-button-response,0,2547,0.0-0.0,47234,List2B,black,man,,,,,,,,
17696,,,external-html,1,21479,0.0-1.0,47234,List2B,black,man,consent.html,,,,,,,
15676,"<p>On the next page, you will see portraits of 8 people and their names.</p><p>Your first task is to take a few minutes to memorise the names of these people.</p><p>You will have to recall their names during the rest of the experiment, so it is</p><p>essential that you try to memorise these people and their names as best as you can.</p><br><p><strong>You will then be tested on your memory of these names and portraits.</strong></p><br><p>The experiment will start after you have completed this memory test.</p><br><p>Ready?</p>",0,html-button-response,2,37159,0.0-2.0,47234,List2B,black,man,,,,,,,,
117731,"<img src='img/portrait_matrix_list2.JPG' style='width:900px;height:500px;''></img><p>If you have memorised all the portraits and names and are ready to start, press Continue.</p><p><strong>Please note: Your memory of these faces will be tested 4 times during this experiment.</strong></p>",0,html-button-response,3,155893,0.0-3.0-0.0,47234,List2B,black,man,,,,,,,,
8916,"<img src=""portrait/BW1.jpg""style=""width:400px;height:400px;""></img>",0,html-button-response,4,165813,0.0-3.0-1.0,47234,List2B,black,man,,TRUE,0,,,,,
null,CORRECT,,html-keyboard-response,5,167324,0.0-3.0-2.0-0.0,47234,List2B,black,man,,,,null,,,,
4007,"<img src=""portrait/BW2.jpg""style=""width:400px;height:400px;""></img>",2,html-button-response,6,171333,0.0-3.0-4.0,47234,List2B,black,man,,TRUE,2,,,,,
null,CORRECT,,html-keyboard-response,7,172837,0.0-3.0-5.0-0.0,47234,List2B,black,man,,,,null,,,,
5230,"<img src=""portrait/WM2.jpg""style=""width:400px;height:400px;""></img>",7,html-button-response,8,178069,0.0-3.0-7.0,47234,List2B,black,man,,TRUE,7,,,,,
null,CORRECT,,html-keyboard-response,9,179572,0.0-3.0-8.0-0.0,47234,List2B,black,man,,,,null,,,,
6902,"<img src=""portrait/BM1.jpg""style=""width:400px;height:400px;""></img>",4,html-button-response,10,186477,0.0-3.0-10.0,47234,List2B,black,man,,TRUE,4,,,,,
null,CORRECT,,html-keyboard-response,11,187979,0.0-3.0-11.0-0.0,47234,List2B,black,man,,,,null,,,,
4023,"<img src=""portrait/BM2.jpg""style=""width:400px;height:400px;""></img>",5,html-button-response,12,192004,0.0-3.0-13.0,47234,List2B,black,man,,TRUE,5,,,,,
null,CORRECT,,html-keyboard-response,13,193507,0.0-3.0-14.0-0.0,47234,List2B,black,man,,,,null,,,,
4695,"<img src=""portrait/WW2.jpg""style=""width:400px;height:400px;""></img>",3,html-button-response,14,198205,0.0-3.0-16.0,47234,List2B,black,man,,TRUE,3,,,,,
null,CORRECT,,html-keyboard-response,15,199708,0.0-3.0-17.0-0.0,47234,List2B,black,man,,,,null,,,,
3837,"<img src=""portrait/WM1.jpg""style=""width:400px;height:400px;""></img>",6,html-button-response,16,203548,0.0-3.0-19.0,47234,List2B,black,man,,TRUE,6,,,,,
null,CORRECT,,html-keyboard-response,17,205051,0.0-3.0-20.0-0.0,47234,List2B,black,man,,,,null,,,,
2582,"<img src=""portrait/WW1.jpg""style=""width:400px;height:400px;""></img>",3,html-button-response,18,207636,0.0-3.0-22.0,47234,List2B,black,man,,TRUE,1,,,,,
3348,"<img src=""portrait/WW1.jpg""style=""width:400px;height:400px;""></img>",1,html-button-response,19,211988,0.0-3.0-24.0-0.0,47234,List2B,black,man,,FALSE,1,,,,,
null,CORRECT,,html-keyboard-response,20,213491,0.0-3.0-24.0-1.0-0.0,47234,List2B,black,man,,,,null,,,,
2007,<p>You got 7 out of 8 right first time. Press Continue.</p>,0,html-button-response,21,215500,0.0-3.0-25.0,47234,List2B,black,man,,,,,,,,
3076,"As you did not score 100%, the memory game will repeat. Press Continue.",0,html-button-response,22,219583,0.0-3.0-26.0-0.0,47234,List2B,black,man,,,,,,,,
6169,"<img src='img/portrait_matrix_list2.JPG' style='width:900px;height:500px;''></img><p>If you have memorised all the portraits and names and are ready to start, press Continue.</p><p><strong>Please note: Your memory of these faces will be tested 4 times during this experiment.</strong></p>",0,html-button-response,23,226759,0.0-3.1-0.1,47234,List2B,black,man,,,,,,,,
5533,"<img src=""portrait/BW1.jpg""style=""width:400px;height:400px;""></img>",0,html-button-response,24,233295,0.0-3.1-1.1,47234,List2B,black,man,,TRUE,0,,,,,
null,CORRECT,,html-keyboard-response,25,234797,0.0-3.1-2.1-0.1,47234,List2B,black,man,,,,null,,,,
2359,"<img src=""portrait/BW2.jpg""style=""width:400px;height:400px;""></img>",2,html-button-response,26,237160,0.0-3.1-4.1,47234,List2B,black,man,,TRUE,2,,,,,
null,CORRECT,,html-keyboard-response,27,238663,0.0-3.1-5.1-0.1,47234,List2B,black,man,,,,null,,,,
4725,"<img src=""portrait/WM2.jpg""style=""width:400px;height:400px;""></img>",7,html-button-response,28,243391,0.0-3.1-7.1,47234,List2B,black,man,,TRUE,7,,,,,
null,CORRECT,,html-keyboard-response,29,244894,0.0-3.1-8.1-0.1,47234,List2B,black,man,,,,null,,,,
4567,"<img src=""portrait/BM1.jpg""style=""width:400px;height:400px;""></img>",4,html-button-response,30,249463,0.0-3.1-10.1,47234,List2B,black,man,,TRUE,4,,,,,
null,CORRECT,,html-keyboard-response,31,250966,0.0-3.1-11.1-0.1,47234,List2B,black,man,,,,null,,,,
7230,"<img src=""portrait/BM2.jpg""style=""width:400px;height:400px;""></img>",5,html-button-response,32,258199,0.0-3.1-13.1,47234,List2B,black,man,,TRUE,5,,,,,
null,CORRECT,,html-keyboard-response,33,259702,0.0-3.1-14.1-0.1,47234,List2B,black,man,,,,null,,,,
4533,"<img src=""portrait/WW2.jpg""style=""width:400px;height:400px;""></img>",3,html-button-response,34,264239,0.0-3.1-16.1,47234,List2B,black,man,,TRUE,3,,,,,
null,CORRECT,,html-keyboard-response,35,265742,0.0-3.1-17.1-0.1,47234,List2B,black,man,,,,null,,,,
3597,"<img src=""portrait/WM1.jpg""style=""width:400px;height:400px;""></img>",6,html-button-response,36,269343,0.0-3.1-19.1,47234,List2B,black,man,,TRUE,6,,,,,
null,CORRECT,,html-keyboard-response,37,270845,0.0-3.1-20.1-0.1,47234,List2B,black,man,,,,null,,,,
3998,"<img src=""portrait/WW1.jpg""style=""width:400px;height:400px;""></img>",1,html-button-response,38,274847,0.0-3.1-22.1,47234,List2B,black,man,,TRUE,1,,,,,
null,CORRECT,,html-keyboard-response,39,276349,0.0-3.1-23.1-0.1,47234,List2B,black,man,,,,null,,,,
2162,<p>You got 8 out of 8 right first time. Press Continue.</p>,0,html-button-response,40,278514,0.0-3.1-25.1,47234,List2B,black,man,,,,,,,,
84745,"<p>In this experiment, you will view photographs of the people from the memory game interacting.</p><p>By using the <strong>exact</strong> phrase given <i>after</i> the photograph appears and recalling the correct names of the people in the photographs, form a sentence describing the interaction. You do not need to capitalise names.</p><p>Type your answer in the space provided. Please complete every sentence before moving onto the next trial.</p><p>You will only have a few seconds to memorise each given photograph and phrase before you can respond, so try your best to focus.</p><p>An example is given below. Press 'Continue' when you are ready.</p><img src='img/speaking_example_v2.jpg' style='width:800px;height:460px;''></img>",0,html-button-response,41,364263,0.0-4.0,47234,List2B,black,man,,,,,,,,
2565,"<p>Before the experiment starts, you will watch two example trials. Press 'Continue'.</p>",0,html-button-response,42,367833,0.0-5.0,47234,List2B,black,man,,,,,,,,
null,<img src='img/speaking_WW.gif'></img>,,html-keyboard-response,43,370836,0.0-6.0,47234,List2B,black,man,,,,null,,,,
null,<p>is speaking to</p>,,html-keyboard-response,44,372838,0.0-7.0,47234,List2B,black,man,,,,null,,,,
13525,<p><b>Answer:</b> jane is speaking to ruth</p>,0,html-button-response,45,386366,0.0-8.0,47234,List2B,black,man,,,,,,,,
null,<img src='img/pointing_BM.gif'></img>,,html-keyboard-response,46,389369,0.0-9.0,47234,List2B,black,man,,,,null,,,,
null,<p>are pointing at each other</p>,,html-keyboard-response,47,391371,0.0-10.0,47234,List2B,black,man,,,,null,,,,
3328,<p><b>Answer:</b> fred and mike are pointing at each other</p>,0,html-button-response,48,394701,0.0-11.0,47234,List2B,black,man,,,,,,,,
11516,"<p>Ready to start the experiment?</p><br><p><strong>Remember to describe the picture using a full sentence,</strong></p><p><strong>that combines the names of the people with the given phrase.</strong></p><p><strong>If you do not do this correctly you will not be paid.</strong></p><p><strong> You do not need to capitalise names or use punctuation.</strong></p><br><p>Press 'Continue' to begin.</p>",0,html-button-response,49,407220,0.0-12.0,47234,List2B,black,man,,,,,,,,
null,"<div style=""font-size:60px;"">+</div>",,html-keyboard-response,50,408723,0.0-13.0-0.0,47234,List2B,black,man,,,,null,,,,
null,"<img src=""stim_listB/fight2.gif""</stim_listB>",,html-keyboard-response,51,410727,0.0-13.0-1.0,47234,List2B,black,man,,,,null,,,,
null,are fighting each other,,html-keyboard-response,52,412729,0.0-13.0-2.0,47234,List2B,black,man,,,,null,,,,
14549,,,survey-text,53,427281,0.0-13.0-3.0,47234,List2B,black,man,,,,,"{""Q0"":""dave and ruth are fighting each other""}","<img src=""stim_listB/fight2.gif""</stim_listB>",are fighting each other,
null,"<div style=""font-size:60px;"">+</div>",,html-keyboard-response,54,427785,0.0-13.0-0.1,47234,List2B,black,man,,,,null,,,,
null,"<img src=""stim_listB/talk8.gif""</stim_listB>",,html-keyboard-response,55,429787,0.0-13.0-1.1,47234,List2B,black,man,,,,null,,,,
null,are talking to each other,,html-keyboard-response,56,431789,0.0-13.0-2.1,47234,List2B,black,man,,,,null,,,,
13713,,,survey-text,57,445504,0.0-13.0-3.1,47234,List2B,black,man,,,,,"{""Q0"":""beth and jane are talking to each other""}","<img src=""stim_listB/talk8.gif""</stim_listB>",are talking to each other,
null,"<div style=""font-size:60px;"">+</div>",,html-keyboard-response,58,446006,0.0-13.0-0.2,47234,List2B,black,man,,,,null,,,,
null,"<img src=""stim_listB/hug7.gif""</stim_listB>",,html-keyboard-response,59,448016,0.0-13.0-1.2,47234,List2B,black,man,,,,null,,,,
null,is hugging,,html-keyboard-response,60,450019,0.0-13.0-2.2,47234,List2B,black,man,,,,null,,,,
11675,,,survey-text,61,461696,0.0-13.0-3.2,47234,List2B,black,man,,,,,"{""Q0"":""ruth is hugging beth""}","<img src=""stim_listB/hug7.gif""</stim_listB>",is hugging,
null,"<div style=""font-size:60px;"">+</div>",,html-keyboard-response,62,462199,0.0-13.0-0.3,47234,List2B,black,man,,,,null,,,,
null,"<img src=""stim_listB/hug3.gif""</stim_listB>",,html-keyboard-response,63,464202,0.0-13.0-1.3,47234,List2B,black,man,,,,null,,,,
null,is hugging,,html-keyboard-response,64,466204,0.0-13.0-2.3,47234,List2B,black,man,,,,null,,,,
12042,,,survey-text,65,478247,0.0-13.0-3.3,47234,List2B,black,man,,,,,"{""Q0"":""fred is hugging beth""}","<img src=""stim_listB/hug3.gif""</stim_listB>",is hugging,
null,"<div style=""font-size:60px;"">+</div>",,html-keyboard-response,66,478750,0.0-13.0-0.4,47234,List2B,black,man,,,,null,,,,
null,"<img src=""stim_listB/dance3.gif""</stim_listB>",,html-keyboard-response,67,480753,0.0-13.0-1.4,47234,List2B,black,man,,,,null,,,,
null,is dancing with,,html-keyboard-response,68,482755,0.0-13.0-2.4,47234,List2B,black,man,,,,null,,,,
19341,,,survey-text,69,502098,0.0-13.0-3.4,47234,List2B,black,man,,,,,"{""Q0"":""fred is dancing with kate""}","<img src=""stim_listB/dance3.gif""</stim_listB>",is dancing with,
null,"<div style=""font-size:60px;"">+</div>",,html-keyboard-response,70,502600,0.0-13.0-0.5,47234,List2B,black,man,,,,null,,,,
null,"<img src=""stim_listB/meet3.gif""</stim_listB>",,html-keyboard-response,71,504603,0.0-13.0-1.5,47234,List2B,black,man,,,,null,,,,
null,is meeting,,html-keyboard-response,72,506605,0.0-13.0-2.5,47234,List2B,black,man,,,,null,,,,
7882,,,survey-text,73,514490,0.0-13.0-3.5,47234,List2B,black,man,,,,,"{""Q0"":""mike is meeting kate""}","<img src=""stim_listB/meet3.gif""</stim_listB>",is meeting,
null,"<div style=""font-size:60px;"">+</div>",,html-keyboard-response,74,514992,0.0-13.0-0.6,47234,List2B,black,man,,,,null,,,,
null,"<img src=""stim_listB/touch1.gif""</stim_listB>",,html-keyboard-response,75,516995,0.0-13.0-1.6,47234,List2B,black,man,,,,null,,,,
null,is touching,,html-keyboard-response,76,518997,0.0-13.0-2.6,47234,List2B,black,man,,,,null,,,,
9035,,,survey-text,77,528034,0.0-13.0-3.6,47234,List2B,black,man,,,,,"{""Q0"":""jane is touching dave""}","<img src=""stim_listB/touch1.gif""</stim_listB>",is touching,
null,"<div style=""font-size:60px;"">+</div>",,html-keyboard-response,78,528536,0.0-13.0-0.7,47234,List2B,black,man,,,,null,,,,
null,"<img src=""stim_listB/argue4.gif""</stim_listB>",,html-keyboard-response,79,530539,0.0-13.0-1.7,47234,List2B,black,man,,,,null,,,,
null,are arguing with each other,,html-keyboard-response,80,532541,0.0-13.0-2.7,47234,List2B,black,man,,,,null,,,,
17359,,,survey-text,81,549902,0.0-13.0-3.7,47234,List2B,black,man,,,,,"{""Q0"":""fred and kate are arguing with each other""}","<img src=""stim_listB/argue4.gif""</stim_listB>",are arguing with each other,
null,"<div style=""font-size:60px;"">+</div>",,html-keyboard-response,82,550403,0.0-13.0-0.8,47234,List2B,black,man,,,,null,,,,
null,"<img src=""stim_listB/talk2.gif""</stim_listB>",,html-keyboard-response,83,552406,0.0-13.0-1.8,47234,List2B,black,man,,,,null,,,,
null,are talking to each other,,html-keyboard-response,84,554407,0.0-13.0-2.8,47234,List2B,black,man,,,,null,,,,
13460,,,survey-text,85,567869,0.0-13.0-3.8,47234,List2B,black,man,,,,,"{""Q0"":""ruth and dave are talking to each other""}","<img src=""stim_listB/talk2.gif""</stim_listB>",are talking to each other,
null,"<div style=""font-size:60px;"">+</div>",,html-keyboard-response,86,568371,0.0-13.0-0.9,47234,List2B,black,man,,,,null,,,,
null,"<img src=""stim_listB/meet7.gif""</stim_listB>",,html-keyboard-response,87,570374,0.0-13.0-1.9,47234,List2B,black,man,,,,null,,,,
null,is meeting,,html-keyboard-response,88,572376,0.0-13.0-2.9,47234,List2B,black,man,,,,null,,,,
10987,,,survey-text,89,583365,0.0-13.0-3.9,47234,List2B,black,man,,,,,"{""Q0"":""kate is meeting jane""}","<img src=""stim_listB/meet7.gif""</stim_listB>",is meeting,
null,"<div style=""font-size:60px;"">+</div>",,html-keyboard-response,90,583867,0.0-13.0-0.10,47234,List2B,black,man,,,,null,,,,
null,"<img src=""stim_listB/dance5.gif""</stim_listB>",,html-keyboard-response,91,585869,0.0-13.0-1.10,47234,List2B,black,man,,,,null,,,,
null,is dancing with,,html-keyboard-response,92,587871,0.0-13.0-2.10,47234,List2B,black,man,,,,null,,,,
9188,,,survey-text,93,597061,0.0-13.0-3.10,47234,List2B,black,man,,,,,"{""Q0"":""luke is dancing with mike""}","<img src=""stim_listB/dance5.gif""</stim_listB>",is dancing with,
null,"<div style=""font-size:60px;"">+</div>",,html-keyboard-response,94,597562,0.0-13.0-0.11,47234,List2B,black,man,,,,null,,,,
null,"<img src=""stim_listB/argue7.gif""</stim_listB>",,html-keyboard-response,95,599565,0.0-13.0-1.11,47234,List2B,black,man,,,,null,,,,
null,is arguing with,,html-keyboard-response,96,601566,0.0-13.0-2.11,47234,List2B,black,man,,,,null,,,,
17688,,,survey-text,97,619264,0.0-13.0-3.11,47234,List2B,black,man,,,,,"{""Q0"":""beth is arguing with jane""}","<img src=""stim_listB/argue7.gif""</stim_listB>",is arguing with,
null,"<div style=""font-size:60px;"">+</div>",,html-keyboard-response,98,619767,0.0-13.0-0.12,47234,List2B,black,man,,,,null,,,,
null,"<img src=""stim_listB/touch6.gif""</stim_listB>",,html-keyboard-response,99,621770,0.0-13.0-1.12,47234,List2B,black,man,,,,null,,,,
null,are touching each other,,html-keyboard-response,100,623772,0.0-13.0-2.12,47234,List2B,black,man,,,,null,,,,
17658,,,survey-text,101,641432,0.0-13.0-3.12,47234,List2B,black,man,,,,,"{""Q0"":""fred and luke are touching each other""}","<img src=""stim_listB/touch6.gif""</stim_listB>",are touching each other,
null,"<div style=""font-size:60px;"">+</div>",,html-keyboard-response,102,641933,0.0-13.0-0.13,47234,List2B,black,man,,,,null,,,,
null,"<img src=""stim_listB/meet1.gif""</stim_listB>",,html-keyboard-response,103,643936,0.0-13.0-1.13,47234,List2B,black,man,,,,null,,,,
null,is meeting,,html-keyboard-response,104,645938,0.0-13.0-2.13,47234,List2B,black,man,,,,null,,,,
8012,,,survey-text,105,653951,0.0-13.0-3.13,47234,List2B,black,man,,,,,"{""Q0"":""jane is meeting dave""}","<img src=""stim_listB/meet1.gif""</stim_listB>",is meeting,
null,"<div style=""font-size:60px;"">+</div>",,html-keyboard-response,106,654454,0.0-13.0-0.14,47234,List2B,black,man,,,,null,,,,
null,"<img src=""stim_listB/touch2.gif""</stim_listB>",,html-keyboard-response,107,656456,0.0-13.0-1.14,47234,List2B,black,man,,,,null,,,,
null,are touching each other,,html-keyboard-response,108,658459,0.0-13.0-2.14,47234,List2B,black,man,,,,null,,,,
14262,,,survey-text,109,672723,0.0-13.0-3.14,47234,List2B,black,man,,,,,"{""Q0"":""luke and ruth are touching each other""}","<img src=""stim_listB/touch2.gif""</stim_listB>",are touching each other,
null,"<div style=""font-size:60px;"">+</div>",,html-keyboard-response,110,673225,0.0-13.0-0.15,47234,List2B,black,man,,,,null,,,,
null,"<img src=""stim_listB/fight3.gif""</stim_listB>",,html-keyboard-response,111,675228,0.0-13.0-1.15,47234,List2B,black,man,,,,null,,,,
null,is fighting,,html-keyboard-response,112,677230,0.0-13.0-2.15,47234,List2B,black,man,,,,null,,,,
10819,,,survey-text,113,688051,0.0-13.0-3.15,47234,List2B,black,man,,,,,"{""Q0"":""mike is fighting kate""}","<img src=""stim_listB/fight3.gif""</stim_listB>",is fighting,
null,"<div style=""font-size:60px;"">+</div>",,html-keyboard-response,114,688552,0.0-13.0-0.16,47234,List2B,black,man,,,,null,,,,
null,"<img src=""stim_listB/fight7.gif""</stim_listB>",,html-keyboard-response,115,690556,0.0-13.0-1.16,47234,List2B,black,man,,,,null,,,,
null,is fighting,,html-keyboard-response,116,692557,0.0-13.0-2.16,47234,List2B,black,man,,,,null,,,,
9436,,,survey-text,117,701995,0.0-13.0-3.16,47234,List2B,black,man,,,,,"{""Q0"":""kate is fighting jane""}","<img src=""stim_listB/fight7.gif""</stim_listB>",is fighting,
null,"<div style=""font-size:60px;"">+</div>",,html-keyboard-response,118,702497,0.0-13.0-0.17,47234,List2B,black,man,,,,null,,,,
null,"<img src=""stim_listB/talk7.gif""</stim_listB>",,html-keyboard-response,119,704500,0.0-13.0-1.17,47234,List2B,black,man,,,,null,,,,
null,is talking to,,html-keyboard-response,120,706502,0.0-13.0-2.17,47234,List2B,black,man,,,,null,,,,
12650,,,survey-text,121,719154,0.0-13.0-3.17,47234,List2B,black,man,,,,,"{""Q0"":""ruth is talking to kate""}","<img src=""stim_listB/talk7.gif""</stim_listB>",is talking to,
null,"<div style=""font-size:60px;"">+</div>",,html-keyboard-response,122,719657,0.0-13.0-0.18,47234,List2B,black,man,,,,null,,,,
null,"<img src=""stim_listB/fight8.gif""</stim_listB>",,html-keyboard-response,123,721660,0.0-13.0-1.18,47234,List2B,black,man,,,,null,,,,
null,are fighting each other,,html-keyboard-response,124,723662,0.0-13.0-2.18,47234,List2B,black,man,,,,null,,,,
12703,,,survey-text,125,736367,0.0-13.0-3.18,47234,List2B,black,man,,,,,"{""Q0"":""ruth and beth are fighting each other""}","<img src=""stim_listB/fight8.gif""</stim_listB>",are fighting each other,
null,"<div style=""font-size:60px;"">+</div>",,html-keyboard-response,126,736869,0.0-13.0-0.19,47234,List2B,black,man,,,,null,,,,
null,"<img src=""stim_listB/meet2.gif""</stim_listB>",,html-keyboard-response,127,738872,0.0-13.0-1.19,47234,List2B,black,man,,,,null,,,,
null,are meeting each other,,html-keyboard-response,128,740874,0.0-13.0-2.19,47234,List2B,black,man,,,,null,,,,
11720,,,survey-text,129,752596,0.0-13.0-3.19,47234,List2B,black,man,,,,,"{""Q0"":""luke and ruth are meeting each other""}","<img src=""stim_listB/meet2.gif""</stim_listB>",are meeting each other,
17791,"<img src='img/portrait_matrix_list2.JPG' style='width:900px;height:500px;''></img><p>If you have memorised all the portraits and names and are ready to start, press Continue.</p><p><strong>Please note: Your memory of these faces will be tested 4 times during this experiment.</strong></p>",0,html-button-response,130,770390,0.0-14.0-0.0,47234,List2B,black,man,,,,,,,,
6140,"<img src=""portrait/WW2.jpg""style=""width:400px;height:400px;""></img>",3,html-button-response,131,777535,0.0-14.0-1.0,47234,List2B,black,man,,TRUE,3,,,,,
null,CORRECT,,html-keyboard-response,132,779038,0.0-14.0-2.0-0.0,47234,List2B,black,man,,,,null,,,,
3517,"<img src=""portrait/WM2.jpg""style=""width:400px;height:400px;""></img>",7,html-button-response,133,782559,0.0-14.0-4.0,47234,List2B,black,man,,TRUE,7,,,,,
null,CORRECT,,html-keyboard-response,134,784063,0.0-14.0-5.0-0.0,47234,List2B,black,man,,,,null,,,,
3909,"<img src=""portrait/BM2.jpg""style=""width:400px;height:400px;""></img>",5,html-button-response,135,787974,0.0-14.0-7.0,47234,List2B,black,man,,TRUE,5,,,,,
null,CORRECT,,html-keyboard-response,136,789477,0.0-14.0-8.0-0.0,47234,List2B,black,man,,,,null,,,,
3895,"<img src=""portrait/WM1.jpg""style=""width:400px;height:400px;""></img>",6,html-button-response,137,793374,0.0-14.0-10.0,47234,List2B,black,man,,TRUE,6,,,,,
null,CORRECT,,html-keyboard-response,138,794877,0.0-14.0-11.0-0.0,47234,List2B,black,man,,,,null,,,,
5149,"<img src=""portrait/WW1.jpg""style=""width:400px;height:400px;""></img>",1,html-button-response,139,800029,0.0-14.0-13.0,47234,List2B,black,man,,TRUE,1,,,,,
null,CORRECT,,html-keyboard-response,140,801533,0.0-14.0-14.0-0.0,47234,List2B,black,man,,,,null,,,,
4654,"<img src=""portrait/BW2.jpg""style=""width:400px;height:400px;""></img>",2,html-button-response,141,806189,0.0-14.0-16.0,47234,List2B,black,man,,TRUE,2,,,,,
null,CORRECT,,html-keyboard-response,142,807693,0.0-14.0-17.0-0.0,47234,List2B,black,man,,,,null,,,,
4526,"<img src=""portrait/BM1.jpg""style=""width:400px;height:400px;""></img>",4,html-button-response,143,812221,0.0-14.0-19.0,47234,List2B,black,man,,TRUE,4,,,,,
null,CORRECT,,html-keyboard-response,144,813725,0.0-14.0-20.0-0.0,47234,List2B,black,man,,,,null,,,,
5685,"<img src=""portrait/BW1.jpg""style=""width:400px;height:400px;""></img>",0,html-button-response,145,819414,0.0-14.0-22.0,47234,List2B,black,man,,TRUE,0,,,,,
null,CORRECT,,html-keyboard-response,146,820916,0.0-14.0-23.0-0.0,47234,List2B,black,man,,,,null,,,,
1334,<p>You got 8 out of 8 right first time. Press Continue.</p>,0,html-button-response,147,822253,0.0-14.0-25.0,47234,List2B,black,man,,,,,,,,
null,"<div style=""font-size:60px;"">+</div>",,html-keyboard-response,148,823757,0.0-15.0-0.0,47234,List2B,black,man,,,,null,,,,
null,"<img src=""stim_listB/argue6.gif""</stim_listB>",,html-keyboard-response,149,825760,0.0-15.0-1.0,47234,List2B,black,man,,,,null,,,,
null,are arguing with each other,,html-keyboard-response,150,827762,0.0-15.0-2.0,47234,List2B,black,man,,,,null,,,,
13761,,,survey-text,151,841525,0.0-15.0-3.0,47234,List2B,black,man,,,,,"{""Q0"":""luke and mike are arguing""}","<img src=""stim_listB/argue6.gif""</stim_listB>",are arguing with each other,
null,"<div style=""font-size:60px;"">+</div>",,html-keyboard-response,152,842027,0.0-15.0-0.1,47234,List2B,black,man,,,,null,,,,
null,"<img src=""stim_listB/kiss6.gif""</stim_listB>",,html-keyboard-response,153,844030,0.0-15.0-1.1,47234,List2B,black,man,,,,null,,,,
null,are kissing each other,,html-keyboard-response,154,846024,0.0-15.0-2.1,47234,List2B,black,man,,,,null,,,,
10890,,,survey-text,155,856916,0.0-15.0-3.1,47234,List2B,black,man,,,,,"{""Q0"":""mike and dave are kissing ""}","<img src=""stim_listB/kiss6.gif""</stim_listB>",are kissing each other,
null,"<div style=""font-size:60px;"">+</div>",,html-keyboard-response,156,857417,0.0-15.0-0.2,47234,List2B,black,man,,,,null,,,,
null,"<img src=""stim_listB/meet4.gif""</stim_listB>",,html-keyboard-response,157,859420,0.0-15.0-1.2,47234,List2B,black,man,,,,null,,,,
null,are meeting each other,,html-keyboard-response,158,861422,0.0-15.0-2.2,47234,List2B,black,man,,,,null,,,,
13188,,,survey-text,159,874612,0.0-15.0-3.2,47234,List2B,black,man,,,,,"{""Q0"":""fred and beth are meeting each other""}","<img src=""stim_listB/meet4.gif""</stim_listB>",are meeting each other,
null,"<div style=""font-size:60px;"">+</div>",,html-keyboard-response,160,875114,0.0-15.0-0.3,47234,List2B,black,man,,,,null,,,,
null,"<img src=""stim_listB/touch7.gif""</stim_listB>",,html-keyboard-response,161,877117,0.0-15.0-1.3,47234,List2B,black,man,,,,null,,,,
null,is touching,,html-keyboard-response,162,879118,0.0-15.0-2.3,47234,List2B,black,man,,,,null,,,,
10546,,,survey-text,163,889667,0.0-15.0-3.3,47234,List2B,black,man,,,,,"{""Q0"":""kate is touching jane""}","<img src=""stim_listB/touch7.gif""</stim_listB>",is touching,
null,"<div style=""font-size:60px;"">+</div>",,html-keyboard-response,164,890170,0.0-15.0-0.4,47234,List2B,black,man,,,,null,,,,
null,"<img src=""stim_listB/dance2.gif""</stim_listB>",,html-keyboard-response,165,892173,0.0-15.0-1.4,47234,List2B,black,man,,,,null,,,,
null,are dancing with each other,,html-keyboard-response,166,894175,0.0-15.0-2.4,47234,List2B,black,man,,,,null,,,,
9986,,,survey-text,167,904163,0.0-15.0-3.4,47234,List2B,black,man,,,,,"{""Q0"":""dave and ruth are dancing""}","<img src=""stim_listB/dance2.gif""</stim_listB>",are dancing with each other,
null,"<div style=""font-size:60px;"">+</div>",,html-keyboard-response,168,904665,0.0-15.0-0.5,47234,List2B,black,man,,,,null,,,,
null,"<img src=""stim_listB/dance1.gif""</stim_listB>",,html-keyboard-response,169,906660,0.0-15.0-1.5,47234,List2B,black,man,,,,null,,,,
null,is dancing with,,html-keyboard-response,170,908662,0.0-15.0-2.5,47234,List2B,black,man,,,,null,,,,
10875,,,survey-text,171,919539,0.0-15.0-3.5,47234,List2B,black,man,,,,,"{""Q0"":""luke is dancing with jane""}","<img src=""stim_listB/dance1.gif""</stim_listB>",is dancing with,
null,"<div style=""font-size:60px;"">+</div>",,html-keyboard-response,172,920042,0.0-15.0-0.6,47234,List2B,black,man,,,,null,,,,
null,"<img src=""stim_listB/shout8.gif""</stim_listB>",,html-keyboard-response,173,922045,0.0-15.0-1.6,47234,List2B,black,man,,,,null,,,,
null,are shouting at each other,,html-keyboard-response,174,924047,0.0-15.0-2.6,47234,List2B,black,man,,,,null,,,,
22976,,,survey-text,175,947026,0.0-15.0-3.6,47234,List2B,black,man,,,,,"{""Q0"":""kate and jane are shouting at each other""}","<img src=""stim_listB/shout8.gif""</stim_listB>",are shouting at each other,
null,"<div style=""font-size:60px;"">+</div>",,html-keyboard-response,176,947529,0.0-15.0-0.7,47234,List2B,black,man,,,,null,,,,
null,"<img src=""stim_listB/dance6.gif""</stim_listB>",,html-keyboard-response,177,949532,0.0-15.0-1.7,47234,List2B,black,man,,,,null,,,,
null,are dancing with each other,,html-keyboard-response,178,951534,0.0-15.0-2.7,47234,List2B,black,man,,,,null,,,,
12715,,,survey-text,179,964251,0.0-15.0-3.7,47234,List2B,black,man,,,,,"{""Q0"":""dave and fred are dancing with each other""}","<img src=""stim_listB/dance6.gif""</stim_listB>",are dancing with each other,
null,"<div style=""font-size:60px;"">+</div>",,html-keyboard-response,180,964753,0.0-15.0-0.8,47234,List2B,black,man,,,,null,,,,
null,"<img src=""stim_listB/touch5.gif""</stim_listB>",,html-keyboard-response,181,966748,0.0-15.0-1.8,47234,List2B,black,man,,,,null,,,,
null,is touching,,html-keyboard-response,182,968749,0.0-15.0-2.8,47234,List2B,black,man,,,,null,,,,
6194,,,survey-text,183,974945,0.0-15.0-3.8,47234,List2B,black,man,,,,,"{""Q0"":""dave is touching mike""}","<img src=""stim_listB/touch5.gif""</stim_listB>",is touching,
null,"<div style=""font-size:60px;"">+</div>",,html-keyboard-response,184,975448,0.0-15.0-0.9,47234,List2B,black,man,,,,null,,,,
null,"<img src=""stim_listB/hug4.gif""</stim_listB>",,html-keyboard-response,185,977451,0.0-15.0-1.9,47234,List2B,black,man,,,,null,,,,
null,are hugging each other,,html-keyboard-response,186,979453,0.0-15.0-2.9,47234,List2B,black,man,,,,null,,,,
9506,,,survey-text,187,988961,0.0-15.0-3.9,47234,List2B,black,man,,,,,"{""Q0"":""mike and kate are hugging each other""}","<img src=""stim_listB/hug4.gif""</stim_listB>",are hugging each other,
null,"<div style=""font-size:60px;"">+</div>",,html-keyboard-response,188,989463,0.0-15.0-0.10,47234,List2B,black,man,,,,null,,,,
null,"<img src=""stim_listB/kiss3.gif""</stim_listB>",,html-keyboard-response,189,991467,0.0-15.0-1.10,47234,List2B,black,man,,,,null,,,,
null,is kissing,,html-keyboard-response,190,993469,0.0-15.0-2.10,47234,List2B,black,man,,,,null,,,,
6962,,,survey-text,191,1000432,0.0-15.0-3.10,47234,List2B,black,man,,,,,"{""Q0"":""beth is kissing fred""}","<img src=""stim_listB/kiss3.gif""</stim_listB>",is kissing,
null,"<div style=""font-size:60px;"">+</div>",,html-keyboard-response,192,1000934,0.0-15.0-0.11,47234,List2B,black,man,,,,null,,,,
null,"<img src=""stim_listB/kiss8.gif""</stim_listB>",,html-keyboard-response,193,1002937,0.0-15.0-1.11,47234,List2B,black,man,,,,null,,,,
null,are kissing each other,,html-keyboard-response,194,1004939,0.0-15.0-2.11,47234,List2B,black,man,,,,null,,,,
8771,,,survey-text,195,1013712,0.0-15.0-3.11,47234,List2B,black,man,,,,,"{""Q0"":""beth and jane are kissing each other""}","<img src=""stim_listB/kiss8.gif""</stim_listB>",are kissing each other,
null,"<div style=""font-size:60px;"">+</div>",,html-keyboard-response,196,1014214,0.0-15.0-0.12,47234,List2B,black,man,,,,null,,,,
null,"<img src=""stim_listB/fight1.gif""</stim_listB>",,html-keyboard-response,197,1016217,0.0-15.0-1.12,47234,List2B,black,man,,,,null,,,,
null,is fighting,,html-keyboard-response,198,1018219,0.0-15.0-2.12,47234,List2B,black,man,,,,null,,,,
6251,,,survey-text,199,1024472,0.0-15.0-3.12,47234,List2B,black,man,,,,,"{""Q0"":""dave is fighting jane""}","<img src=""stim_listB/fight1.gif""</stim_listB>",is fighting,
null,"<div style=""font-size:60px;"">+</div>",,html-keyboard-response,200,1024973,0.0-15.0-0.13,47234,List2B,black,man,,,,null,,,,
null,"<img src=""stim_listB/shout7.gif""</stim_listB>",,html-keyboard-response,201,1026972,0.0-15.0-1.13,47234,List2B,black,man,,,,null,,,,
null,is shouting at,,html-keyboard-response,202,1028974,0.0-15.0-2.13,47234,List2B,black,man,,,,null,,,,
8763,,,survey-text,203,1037739,0.0-15.0-3.13,47234,List2B,black,man,,,,,"{""Q0"":""beth is shouting at ruth""}","<img src=""stim_listB/shout7.gif""</stim_listB>",is shouting at,
null,"<div style=""font-size:60px;"">+</div>",,html-keyboard-response,204,1038241,0.0-15.0-0.14,47234,List2B,black,man,,,,null,,,,
null,"<img src=""stim_listB/touch4.gif""</stim_listB>",,html-keyboard-response,205,1040245,0.0-15.0-1.14,47234,List2B,black,man,,,,null,,,,
null,are touching each other,,html-keyboard-response,206,1042247,0.0-15.0-2.14,47234,List2B,black,man,,,,null,,,,
10774,,,survey-text,207,1053027,0.0-15.0-3.14,47234,List2B,black,man,,,,,"{""Q0"":""fred and beth are touching each other""}","<img src=""stim_listB/touch4.gif""</stim_listB>",are touching each other,
null,"<div style=""font-size:60px;"">+</div>",,html-keyboard-response,208,1053529,0.0-15.0-0.15,47234,List2B,black,man,,,,null,,,,
null,"<img src=""stim_listB/shout5.gif""</stim_listB>",,html-keyboard-response,209,1055532,0.0-15.0-1.15,47234,List2B,black,man,,,,null,,,,
null,is shouting at,,html-keyboard-response,210,1057534,0.0-15.0-2.15,47234,List2B,black,man,,,,null,,,,
7726,,,survey-text,211,1065261,0.0-15.0-3.15,47234,List2B,black,man,,,,,"{""Q0"":""luke is shouting at fred""}","<img src=""stim_listB/shout5.gif""</stim_listB>",is shouting at,
null,"<div style=""font-size:60px;"">+</div>",,html-keyboard-response,212,1065764,0.0-15.0-0.16,47234,List2B,black,man,,,,null,,,,
null,"<img src=""stim_listB/argue2.gif""</stim_listB>",,html-keyboard-response,213,1067767,0.0-15.0-1.16,47234,List2B,black,man,,,,null,,,,
null,are arguing with each other,,html-keyboard-response,214,1069769,0.0-15.0-2.16,47234,List2B,black,man,,,,null,,,,
16015,,,survey-text,215,1085786,0.0-15.0-3.16,47234,List2B,black,man,,,,,"{""Q0"":""luke and jane are arguing with each other""}","<img src=""stim_listB/argue2.gif""</stim_listB>",are arguing with each other,
null,"<div style=""font-size:60px;"">+</div>",,html-keyboard-response,216,1086286,0.0-15.0-0.17,47234,List2B,black,man,,,,null,,,,
null,"<img src=""stim_listB/dance7.gif""</stim_listB>",,html-keyboard-response,217,1088289,0.0-15.0-1.17,47234,List2B,black,man,,,,null,,,,
null,is dancing with,,html-keyboard-response,218,1090291,0.0-15.0-2.17,47234,List2B,black,man,,,,null,,,,
9954,,,survey-text,219,1100247,0.0-15.0-3.17,47234,List2B,black,man,,,,,"{""Q0"":""kate is dancing with ruth""}","<img src=""stim_listB/dance7.gif""</stim_listB>",is dancing with,
null,"<div style=""font-size:60px;"">+</div>",,html-keyboard-response,220,1100749,0.0-15.0-0.18,47234,List2B,black,man,,,,null,,,,
null,"<img src=""stim_listB/marry3.gif""</stim_listB>",,html-keyboard-response,221,1102753,0.0-15.0-1.18,47234,List2B,black,man,,,,null,,,,
null,is marrying,,html-keyboard-response,222,1104754,0.0-15.0-2.18,47234,List2B,black,man,,,,null,,,,
7563,,,survey-text,223,1112319,0.0-15.0-3.18,47234,List2B,black,man,,,,,"{""Q0"":""mike is marrying beth""}","<img src=""stim_listB/marry3.gif""</stim_listB>",is marrying,
null,"<div style=""font-size:60px;"">+</div>",,html-keyboard-response,224,1112822,0.0-15.0-0.19,47234,List2B,black,man,,,,null,,,,
null,"<img src=""stim_listB/fight5.gif""</stim_listB>",,html-keyboard-response,225,1114825,0.0-15.0-1.19,47234,List2B,black,man,,,,null,,,,
null,is fighting,,html-keyboard-response,226,1116827,0.0-15.0-2.19,47234,List2B,black,man,,,,null,,,,
6274,,,survey-text,227,1123103,0.0-15.0-3.19,47234,List2B,black,man,,,,,"{""Q0"":""mike is fighting dave""}","<img src=""stim_listB/fight5.gif""</stim_listB>",is fighting,
20638,"<img src='img/portrait_matrix_list2.JPG' style='width:900px;height:500px;''></img><p>If you have memorised all the portraits and names and are ready to start, press Continue.</p><p><strong>Please note: Your memory of these faces will be tested 4 times during this experiment.</strong></p>",0,html-button-response,228,1143742,0.0-16.0-0.0,47234,List2B,black,man,,,,,,,,
2978,"<img src=""portrait/BM2.jpg""style=""width:400px;height:400px;""></img>",5,html-button-response,229,1147725,0.0-16.0-1.0,47234,List2B,black,man,,TRUE,5,,,,,
null,CORRECT,,html-keyboard-response,230,1149229,0.0-16.0-2.0-0.0,47234,List2B,black,man,,,,null,,,,
4821,"<img src=""portrait/BW2.jpg""style=""width:400px;height:400px;""></img>",2,html-button-response,231,1154053,0.0-16.0-4.0,47234,List2B,black,man,,TRUE,2,,,,,
null,CORRECT,,html-keyboard-response,232,1155556,0.0-16.0-5.0-0.0,47234,List2B,black,man,,,,null,,,,
2574,"<img src=""portrait/WW2.jpg""style=""width:400px;height:400px;""></img>",3,html-button-response,233,1158133,0.0-16.0-7.0,47234,List2B,black,man,,TRUE,3,,,,,
null,CORRECT,,html-keyboard-response,234,1159637,0.0-16.0-8.0-0.0,47234,List2B,black,man,,,,null,,,,
2525,"<img src=""portrait/BM1.jpg""style=""width:400px;height:400px;""></img>",4,html-button-response,235,1162165,0.0-16.0-10.0,47234,List2B,black,man,,TRUE,4,,,,,
null,CORRECT,,html-keyboard-response,236,1163668,0.0-16.0-11.0-0.0,47234,List2B,black,man,,,,null,,,,
4166,"<img src=""portrait/WW1.jpg""style=""width:400px;height:400px;""></img>",1,html-button-response,237,1167837,0.0-16.0-13.0,47234,List2B,black,man,,TRUE,1,,,,,
null,CORRECT,,html-keyboard-response,238,1169341,0.0-16.0-14.0-0.0,47234,List2B,black,man,,,,null,,,,
1934,"<img src=""portrait/BW1.jpg""style=""width:400px;height:400px;""></img>",0,html-button-response,239,1171277,0.0-16.0-16.0,47234,List2B,black,man,,TRUE,0,,,,,
null,CORRECT,,html-keyboard-response,240,1172779,0.0-16.0-17.0-0.0,47234,List2B,black,man,,,,null,,,,
2150,"<img src=""portrait/WM1.jpg""style=""width:400px;height:400px;""></img>",6,html-button-response,241,1174933,0.0-16.0-19.0,47234,List2B,black,man,,TRUE,6,,,,,
null,CORRECT,,html-keyboard-response,242,1176435,0.0-16.0-20.0-0.0,47234,List2B,black,man,,,,null,,,,
2879,"<img src=""portrait/WM2.jpg""style=""width:400px;height:400px;""></img>",7,html-button-response,243,1179317,0.0-16.0-22.0,47234,List2B,black,man,,TRUE,7,,,,,
null,CORRECT,,html-keyboard-response,244,1180819,0.0-16.0-23.0-0.0,47234,List2B,black,man,,,,null,,,,
1238,<p>You got 8 out of 8 right first time. Press Continue.</p>,0,html-button-response,245,1182060,0.0-16.0-25.0,47234,List2B,black,man,,,,,,,,
null,"<div style=""font-size:60px;"">+</div>",,html-keyboard-response,246,1183564,0.0-17.0-0.0,47234,List2B,black,man,,,,null,,,,
null,"<img src=""stim_listB/argue5.gif""</stim_listB>",,html-keyboard-response,247,1185567,0.0-17.0-1.0,47234,List2B,black,man,,,,null,,,,
null,is arguing with,,html-keyboard-response,248,1187569,0.0-17.0-2.0,47234,List2B,black,man,,,,null,,,,
6813,,,survey-text,249,1194385,0.0-17.0-3.0,47234,List2B,black,man,,,,,"{""Q0"":""dave is arguing with fred""}","<img src=""stim_listB/argue5.gif""</stim_listB>",is arguing with,
null,"<div style=""font-size:60px;"">+</div>",,html-keyboard-response,250,1194888,0.0-17.0-0.1,47234,List2B,black,man,,,,null,,,,
null,"<img src=""stim_listB/marry8.gif""</stim_listB>",,html-keyboard-response,251,1196891,0.0-17.0-1.1,47234,List2B,black,man,,,,null,,,,
null,are marrying each other,,html-keyboard-response,252,1198892,0.0-17.0-2.1,47234,List2B,black,man,,,,null,,,,
13499,,,survey-text,253,1212392,0.0-17.0-3.1,47234,List2B,black,man,,,,,"{""Q0"":""kate and ruth are marrying each other""}","<img src=""stim_listB/marry8.gif""</stim_listB>",are marrying each other,
null,"<div style=""font-size:60px;"">+</div>",,html-keyboard-response,254,1212896,0.0-17.0-0.2,47234,List2B,black,man,,,,null,,,,
null,"<img src=""stim_listB/hug2.gif""</stim_listB>",,html-keyboard-response,255,1214897,0.0-17.0-1.2,47234,List2B,black,man,,,,null,,,,
null,are hugging each other,,html-keyboard-response,256,1216900,0.0-17.0-2.2,47234,List2B,black,man,,,,null,,,,
8882,,,survey-text,257,1225783,0.0-17.0-3.2,47234,List2B,black,man,,,,,"{""Q0"":""dave and jane are hugging each other""}","<img src=""stim_listB/hug2.gif""</stim_listB>",are hugging each other,
null,"<div style=""font-size:60px;"">+</div>",,html-keyboard-response,258,1226292,0.0-17.0-0.3,47234,List2B,black,man,,,,null,,,,
null,"<img src=""stim_listB/fight6.gif""</stim_listB>",,html-keyboard-response,259,1228294,0.0-17.0-1.3,47234,List2B,black,man,,,,null,,,,
null,are fighting each other,,html-keyboard-response,260,1230296,0.0-17.0-2.3,47234,List2B,black,man,,,,null,,,,
12998,,,survey-text,261,1243296,0.0-17.0-3.3,47234,List2B,black,man,,,,,"{""Q0"":""luke and fred are fighting each other""}","<img src=""stim_listB/fight6.gif""</stim_listB>",are fighting each other,
null,"<div style=""font-size:60px;"">+</div>",,html-keyboard-response,262,1243798,0.0-17.0-0.4,47234,List2B,black,man,,,,null,,,,
null,"<img src=""stim_listB/kiss2.gif""</stim_listB>",,html-keyboard-response,263,1245800,0.0-17.0-1.4,47234,List2B,black,man,,,,null,,,,
null,are kissing each other,,html-keyboard-response,264,1247802,0.0-17.0-2.4,47234,List2B,black,man,,,,null,,,,
9212,,,survey-text,265,1257016,0.0-17.0-3.4,47234,List2B,black,man,,,,,"{""Q0"":""dave and jane are kissing each other""}","<img src=""stim_listB/kiss2.gif""</stim_listB>",are kissing each other,
null,"<div style=""font-size:60px;"">+</div>",,html-keyboard-response,266,1257518,0.0-17.0-0.5,47234,List2B,black,man,,,,null,,,,
null,"<img src=""stim_listB/hug8.gif""</stim_listB>",,html-keyboard-response,267,1259521,0.0-17.0-1.5,47234,List2B,black,man,,,,null,,,,
null,are hugging each other,,html-keyboard-response,268,1261523,0.0-17.0-2.5,47234,List2B,black,man,,,,null,,,,
8297,,,survey-text,269,1269822,0.0-17.0-3.5,47234,List2B,black,man,,,,,"{""Q0"":""jane and kate are hugging""}","<img src=""stim_listB/hug8.gif""</stim_listB>",are hugging each other,
null,"<div style=""font-size:60px;"">+</div>",,html-keyboard-response,270,1270323,0.0-17.0-0.6,47234,List2B,black,man,,,,null,,,,
null,"<img src=""stim_listB/shout2.gif""</stim_listB>",,html-keyboard-response,271,1272327,0.0-17.0-1.6,47234,List2B,black,man,,,,null,,,,
null,are shouting at each other,,html-keyboard-response,272,1274329,0.0-17.0-2.6,47234,List2B,black,man,,,,null,,,,
9867,,,survey-text,273,1284197,0.0-17.0-3.6,47234,List2B,black,man,,,,,"{""Q0"":""dave and jane are shouting at each other""}","<img src=""stim_listB/shout2.gif""</stim_listB>",are shouting at each other,
null,"<div style=""font-size:60px;"">+</div>",,html-keyboard-response,274,1284699,0.0-17.0-0.7,47234,List2B,black,man,,,,null,,,,
null,"<img src=""stim_listB/marry6.gif""</stim_listB>",,html-keyboard-response,275,1286702,0.0-17.0-1.7,47234,List2B,black,man,,,,null,,,,
null,are marrying each other,,html-keyboard-response,276,1288704,0.0-17.0-2.7,47234,List2B,black,man,,,,null,,,,
8251,,,survey-text,277,1296957,0.0-17.0-3.7,47234,List2B,black,man,,,,,"{""Q0"":""luke and mike are marrying each other""}","<img src=""stim_listB/marry6.gif""</stim_listB>",are marrying each other,
null,"<div style=""font-size:60px;"">+</div>",,html-keyboard-response,278,1297460,0.0-17.0-0.8,47234,List2B,black,man,,,,null,,,,
null,"<img src=""stim_listB/hug6.gif""</stim_listB>",,html-keyboard-response,279,1299462,0.0-17.0-1.8,47234,List2B,black,man,,,,null,,,,
null,are hugging each other,,html-keyboard-response,280,1301465,0.0-17.0-2.8,47234,List2B,black,man,,,,null,,,,
9114,,,survey-text,281,1310581,0.0-17.0-3.8,47234,List2B,black,man,,,,,"{""Q0"":""mike and dave are hugging each other""}","<img src=""stim_listB/hug6.gif""</stim_listB>",are hugging each other,
null,"<div style=""font-size:60px;"">+</div>",,html-keyboard-response,282,1311083,0.0-17.0-0.9,47234,List2B,black,man,,,,null,,,,
null,"<img src=""stim_listB/meet5.gif""</stim_listB>",,html-keyboard-response,283,1313086,0.0-17.0-1.9,47234,List2B,black,man,,,,null,,,,
null,is meeting,,html-keyboard-response,284,1315088,0.0-17.0-2.9,47234,List2B,black,man,,,,null,,,,
4859,,,survey-text,285,1319949,0.0-17.0-3.9,47234,List2B,black,man,,,,,"{""Q0"":""dave is meeting mike""}","<img src=""stim_listB/meet5.gif""</stim_listB>",is meeting,
null,"<div style=""font-size:60px;"">+</div>",,html-keyboard-response,286,1320450,0.0-17.0-0.10,47234,List2B,black,man,,,,null,,,,
null,"<img src=""stim_listB/marry2.gif""</stim_listB>",,html-keyboard-response,287,1322453,0.0-17.0-1.10,47234,List2B,black,man,,,,null,,,,
null,are marrying each other,,html-keyboard-response,288,1324456,0.0-17.0-2.10,47234,List2B,black,man,,,,null,,,,
10320,,,survey-text,289,1334777,0.0-17.0-3.10,47234,List2B,black,man,,,,,"{""Q0"":""luke and jane are marrying each other""}","<img src=""stim_listB/marry2.gif""</stim_listB>",are marrying each other,
null,"<div style=""font-size:60px;"">+</div>",,html-keyboard-response,290,1335279,0.0-17.0-0.11,47234,List2B,black,man,,,,null,,,,
null,"<img src=""stim_listB/talk1.gif""</stim_listB>",,html-keyboard-response,291,1337282,0.0-17.0-1.11,47234,List2B,black,man,,,,null,,,,
null,is talking to,,html-keyboard-response,292,1339284,0.0-17.0-2.11,47234,List2B,black,man,,,,null,,,,
5628,,,survey-text,293,1344914,0.0-17.0-3.11,47234,List2B,black,man,,,,,"{""Q0"":""luke is talking to jane""}","<img src=""stim_listB/talk1.gif""</stim_listB>",is talking to,
null,"<div style=""font-size:60px;"">+</div>",,html-keyboard-response,294,1345415,0.0-17.0-0.12,47234,List2B,black,man,,,,null,,,,
null,"<img src=""stim_listB/fight4.gif""</stim_listB>",,html-keyboard-response,295,1347419,0.0-17.0-1.12,47234,List2B,black,man,,,,null,,,,
null,are fighting each other,,html-keyboard-response,296,1349421,0.0-17.0-2.12,47234,List2B,black,man,,,,null,,,,
10914,,,survey-text,297,1360337,0.0-17.0-3.12,47234,List2B,black,man,,,,,"{""Q0"":""beth and fred are fighting each other""}","<img src=""stim_listB/fight4.gif""</stim_listB>",are fighting each other,
null,"<div style=""font-size:60px;"">+</div>",,html-keyboard-response,298,1360841,0.0-17.0-0.13,47234,List2B,black,man,,,,null,,,,
null,"<img src=""stim_listB/dance4.gif""</stim_listB>",,html-keyboard-response,299,1362844,0.0-17.0-1.13,47234,List2B,black,man,,,,null,,,,
null,are dancing with each other,,html-keyboard-response,300,1364846,0.0-17.0-2.13,47234,List2B,black,man,,,,null,,,,
7689,,,survey-text,301,1372537,0.0-17.0-3.13,47234,List2B,black,man,,,,,"{""Q0"":""beth and mike are dancing with each other""}","<img src=""stim_listB/dance4.gif""</stim_listB>",are dancing with each other,
null,"<div style=""font-size:60px;"">+</div>",,html-keyboard-response,302,1373042,0.0-17.0-0.14,47234,List2B,black,man,,,,null,,,,
null,"<img src=""stim_listB/touch3.gif""</stim_listB>",,html-keyboard-response,303,1375046,0.0-17.0-1.14,47234,List2B,black,man,,,,null,,,,
null,is touching,,html-keyboard-response,304,1377047,0.0-17.0-2.14,47234,List2B,black,man,,,,null,,,,
8055,,,survey-text,305,1385105,0.0-17.0-3.14,47234,List2B,black,man,,,,,"{""Q0"":""mike is touching kate""}","<img src=""stim_listB/touch3.gif""</stim_listB>",is touching,
null,"<div style=""font-size:60px;"">+</div>",,html-keyboard-response,306,1385607,0.0-17.0-0.15,47234,List2B,black,man,,,,null,,,,
null,"<img src=""stim_listB/marry1.gif""</stim_listB>",,html-keyboard-response,307,1387609,0.0-17.0-1.15,47234,List2B,black,man,,,,null,,,,
null,is marrying,,html-keyboard-response,308,1389611,0.0-17.0-2.15,47234,List2B,black,man,,,,null,,,,
6738,,,survey-text,309,1396351,0.0-17.0-3.15,47234,List2B,black,man,,,,,"{""Q0"":""dave is marrying ruth""}","<img src=""stim_listB/marry1.gif""</stim_listB>",is marrying,
null,"<div style=""font-size:60px;"">+</div>",,html-keyboard-response,310,1396853,0.0-17.0-0.16,47234,List2B,black,man,,,,null,,,,
null,"<img src=""stim_listB/kiss7.gif""</stim_listB>",,html-keyboard-response,311,1398856,0.0-17.0-1.16,47234,List2B,black,man,,,,null,,,,
null,is kissing,,html-keyboard-response,312,1400858,0.0-17.0-2.16,47234,List2B,black,man,,,,null,,,,
5210,,,survey-text,313,1406070,0.0-17.0-3.16,47234,List2B,black,man,,,,,"{""Q0"":""beth is kissing ruth""}","<img src=""stim_listB/kiss7.gif""</stim_listB>",is kissing,
null,"<div style=""font-size:60px;"">+</div>",,html-keyboard-response,314,1406572,0.0-17.0-0.17,47234,List2B,black,man,,,,null,,,,
null,"<img src=""stim_listB/touch8.gif""</stim_listB>",,html-keyboard-response,315,1408575,0.0-17.0-1.17,47234,List2B,black,man,,,,null,,,,
null,are touching each other,,html-keyboard-response,316,1410577,0.0-17.0-2.17,47234,List2B,black,man,,,,null,,,,
9147,,,survey-text,317,1419726,0.0-17.0-3.17,47234,List2B,black,man,,,,,"{""Q0"":""beth and ruth are touching each other""}","<img src=""stim_listB/touch8.gif""</stim_listB>",are touching each other,
null,"<div style=""font-size:60px;"">+</div>",,html-keyboard-response,318,1420228,0.0-17.0-0.18,47234,List2B,black,man,,,,null,,,,
null,"<img src=""stim_listB/argue8.gif""</stim_listB>",,html-keyboard-response,319,1422231,0.0-17.0-1.18,47234,List2B,black,man,,,,null,,,,
null,are arguing with each other,,html-keyboard-response,320,1424233,0.0-17.0-2.18,47234,List2B,black,man,,,,null,,,,
19291,,,survey-text,321,1443525,0.0-17.0-3.18,47234,List2B,black,man,,,,,"{""Q0"":""kate and ruth are arguing with each other""}","<img src=""stim_listB/argue8.gif""</stim_listB>",are arguing with each other,
null,"<div style=""font-size:60px;"">+</div>",,html-keyboard-response,322,1444027,0.0-17.0-0.19,47234,List2B,black,man,,,,null,,,,
null,"<img src=""stim_listB/talk6.gif""</stim_listB>",,html-keyboard-response,323,1446030,0.0-17.0-1.19,47234,List2B,black,man,,,,null,,,,
null,are talking to each other,,html-keyboard-response,324,1448030,0.0-17.0-2.19,47234,List2B,black,man,,,,null,,,,
8844,,,survey-text,325,1456875,0.0-17.0-3.19,47234,List2B,black,man,,,,,"{""Q0"":""dave and fred are talking with each other""}","<img src=""stim_listB/talk6.gif""</stim_listB>",are talking to each other,
3661,"<img src='img/portrait_matrix_list2.JPG' style='width:900px;height:500px;''></img><p>If you have memorised all the portraits and names and are ready to start, press Continue.</p><p><strong>Please note: Your memory of these faces will be tested 4 times during this experiment.</strong></p>",0,html-button-response,326,1460539,0.0-18.0-0.0,47234,List2B,black,man,,,,,,,,
1637,"<img src=""portrait/BW1.jpg""style=""width:400px;height:400px;""></img>",0,html-button-response,327,1463179,0.0-18.0-1.0,47234,List2B,black,man,,TRUE,0,,,,,
null,CORRECT,,html-keyboard-response,328,1464683,0.0-18.0-2.0-0.0,47234,List2B,black,man,,,,null,,,,
2181,"<img src=""portrait/BM1.jpg""style=""width:400px;height:400px;""></img>",4,html-button-response,329,1466867,0.0-18.0-4.0,47234,List2B,black,man,,TRUE,4,,,,,
null,CORRECT,,html-keyboard-response,330,1468371,0.0-18.0-5.0-0.0,47234,List2B,black,man,,,,null,,,,
2197,"<img src=""portrait/BW2.jpg""style=""width:400px;height:400px;""></img>",2,html-button-response,331,1470571,0.0-18.0-7.0,47234,List2B,black,man,,TRUE,2,,,,,
null,CORRECT,,html-keyboard-response,332,1472075,0.0-18.0-8.0-0.0,47234,List2B,black,man,,,,null,,,,
2149,"<img src=""portrait/WM1.jpg""style=""width:400px;height:400px;""></img>",6,html-button-response,333,1474228,0.0-18.0-10.0,47234,List2B,black,man,,TRUE,6,,,,,
null,CORRECT,,html-keyboard-response,334,1475731,0.0-18.0-11.0-0.0,47234,List2B,black,man,,,,null,,,,
2478,"<img src=""portrait/WM2.jpg""style=""width:400px;height:400px;""></img>",7,html-button-response,335,1478212,0.0-18.0-13.0,47234,List2B,black,man,,TRUE,7,,,,,
null,CORRECT,,html-keyboard-response,336,1479715,0.0-18.0-14.0-0.0,47234,List2B,black,man,,,,null,,,,
1742,"<img src=""portrait/BM2.jpg""style=""width:400px;height:400px;""></img>",5,html-button-response,337,1481459,0.0-18.0-16.0,47234,List2B,black,man,,TRUE,5,,,,,
null,CORRECT,,html-keyboard-response,338,1482963,0.0-18.0-17.0-0.0,47234,List2B,black,man,,,,null,,,,
3543,"<img src=""portrait/WW1.jpg""style=""width:400px;height:400px;""></img>",1,html-button-response,339,1486508,0.0-18.0-19.0,47234,List2B,black,man,,TRUE,1,,,,,
null,CORRECT,,html-keyboard-response,340,1488011,0.0-18.0-20.0-0.0,47234,List2B,black,man,,,,null,,,,
4805,"<img src=""portrait/WW2.jpg""style=""width:400px;height:400px;""></img>",3,html-button-response,341,1492819,0.0-18.0-22.0,47234,List2B,black,man,,TRUE,3,,,,,
null,CORRECT,,html-keyboard-response,342,1494322,0.0-18.0-23.0-0.0,47234,List2B,black,man,,,,null,,,,
1214,<p>You got 8 out of 8 right first time. Press Continue.</p>,0,html-button-response,343,1495539,0.0-18.0-25.0,47234,List2B,black,man,,,,,,,,
null,"<div style=""font-size:60px;"">+</div>",,html-keyboard-response,344,1497042,0.0-19.0-0.0,47234,List2B,black,man,,,,null,,,,
null,"<img src=""stim_listB/meet6.gif""</stim_listB>",,html-keyboard-response,345,1499045,0.0-19.0-1.0,47234,List2B,black,man,,,,null,,,,
null,are meeting each other,,html-keyboard-response,346,1501047,0.0-19.0-2.0,47234,List2B,black,man,,,,null,,,,
7727,,,survey-text,347,1508776,0.0-19.0-3.0,47234,List2B,black,man,,,,,"{""Q0"":""luke and fred are meeting each other""}","<img src=""stim_listB/meet6.gif""</stim_listB>",are meeting each other,
null,"<div style=""font-size:60px;"">+</div>",,html-keyboard-response,348,1509278,0.0-19.0-0.1,47234,List2B,black,man,,,,null,,,,
null,"<img src=""stim_listB/talk5.gif""</stim_listB>",,html-keyboard-response,349,1511281,0.0-19.0-1.1,47234,List2B,black,man,,,,null,,,,
null,is talking to,,html-keyboard-response,350,1513283,0.0-19.0-2.1,47234,List2B,black,man,,,,null,,,,
5291,,,survey-text,351,1518576,0.0-19.0-3.1,47234,List2B,black,man,,,,,"{""Q0"":""mike is talking to luke""}","<img src=""stim_listB/talk5.gif""</stim_listB>",is talking to,
null,"<div style=""font-size:60px;"">+</div>",,html-keyboard-response,352,1519078,0.0-19.0-0.2,47234,List2B,black,man,,,,null,,,,
null,"<img src=""stim_listB/meet8.gif""</stim_listB>",,html-keyboard-response,353,1521081,0.0-19.0-1.2,47234,List2B,black,man,,,,null,,,,
null,are meeting each other,,html-keyboard-response,354,1523083,0.0-19.0-2.2,47234,List2B,black,man,,,,null,,,,
9443,,,survey-text,355,1532528,0.0-19.0-3.2,47234,List2B,black,man,,,,,"{""Q0"":""beth and ruth are meeting each other""}","<img src=""stim_listB/meet8.gif""</stim_listB>",are meeting each other,
null,"<div style=""font-size:60px;"">+</div>",,html-keyboard-response,356,1533029,0.0-19.0-0.3,47234,List2B,black,man,,,,null,,,,
null,"<img src=""stim_listB/talk3.gif""</stim_listB>",,html-keyboard-response,357,1535032,0.0-19.0-1.3,47234,List2B,black,man,,,,null,,,,
null,is talking to,,html-keyboard-response,358,1537034,0.0-19.0-2.3,47234,List2B,black,man,,,,null,,,,
7595,,,survey-text,359,1544631,0.0-19.0-3.3,47234,List2B,black,man,,,,,"{""Q0"":""kate is talking to fred""}","<img src=""stim_listB/talk3.gif""</stim_listB>",is talking to,
null,"<div style=""font-size:60px;"">+</div>",,html-keyboard-response,360,1545134,0.0-19.0-0.4,47234,List2B,black,man,,,,null,,,,
null,"<img src=""stim_listB/dance8.gif""</stim_listB>",,html-keyboard-response,361,1547137,0.0-19.0-1.4,47234,List2B,black,man,,,,null,,,,
null,are dancing with each other,,html-keyboard-response,362,1549139,0.0-19.0-2.4,47234,List2B,black,man,,,,null,,,,
23583,,,survey-text,363,1572725,0.0-19.0-3.4,47234,List2B,black,man,,,,,"{""Q0"":""jane and beth are dancing with each other""}","<img src=""stim_listB/dance8.gif""</stim_listB>",are dancing with each other,
null,"<div style=""font-size:60px;"">+</div>",,html-keyboard-response,364,1573226,0.0-19.0-0.5,47234,List2B,black,man,,,,null,,,,
null,"<img src=""stim_listB/shout6.gif""</stim_listB>",,html-keyboard-response,365,1575230,0.0-19.0-1.5,47234,List2B,black,man,,,,null,,,,
null,are shouting at each other,,html-keyboard-response,366,1577232,0.0-19.0-2.5,47234,List2B,black,man,,,,null,,,,
7797,,,survey-text,367,1585032,0.0-19.0-3.5,47234,List2B,black,man,,,,,"{""Q0"":""dave and mike are shouting at each other""}","<img src=""stim_listB/shout6.gif""</stim_listB>",are shouting at each other,
null,"<div style=""font-size:60px;"">+</div>",,html-keyboard-response,368,1585534,0.0-19.0-0.6,47234,List2B,black,man,,,,null,,,,
null,"<img src=""stim_listB/marry4.gif""</stim_listB>",,html-keyboard-response,369,1587539,0.0-19.0-1.6,47234,List2B,black,man,,,,null,,,,
null,are marrying each other,,html-keyboard-response,370,1589540,0.0-19.0-2.6,47234,List2B,black,man,,,,null,,,,
9598,,,survey-text,371,1599140,0.0-19.0-3.6,47234,List2B,black,man,,,,,"{""Q0"":""fred and kate are marrying each other""}","<img src=""stim_listB/marry4.gif""</stim_listB>",are marrying each other,
null,"<div style=""font-size:60px;"">+</div>",,html-keyboard-response,372,1599643,0.0-19.0-0.7,47234,List2B,black,man,,,,null,,,,
null,"<img src=""stim_listB/hug1.gif""</stim_listB>",,html-keyboard-response,373,1601646,0.0-19.0-1.7,47234,List2B,black,man,,,,null,,,,
null,is hugging,,html-keyboard-response,374,1603648,0.0-19.0-2.7,47234,List2B,black,man,,,,null,,,,
7634,,,survey-text,375,1611285,0.0-19.0-3.7,47234,List2B,black,man,,,,,"{""Q0"":""luke is hugging ruth""}","<img src=""stim_listB/hug1.gif""</stim_listB>",is hugging,
null,"<div style=""font-size:60px;"">+</div>",,html-keyboard-response,376,1611787,0.0-19.0-0.8,47234,List2B,black,man,,,,null,,,,
null,"<img src=""stim_listB/marry7.gif""</stim_listB>",,html-keyboard-response,377,1613790,0.0-19.0-1.8,47234,List2B,black,man,,,,null,,,,
null,is marrying,,html-keyboard-response,378,1615792,0.0-19.0-2.8,47234,List2B,black,man,,,,null,,,,
6882,,,survey-text,379,1622676,0.0-19.0-3.8,47234,List2B,black,man,,,,,"{""Q0"":""beth is marrying jane""}","<img src=""stim_listB/marry7.gif""</stim_listB>",is marrying,
null,"<div style=""font-size:60px;"">+</div>",,html-keyboard-response,380,1623177,0.0-19.0-0.9,47234,List2B,black,man,,,,null,,,,
null,"<img src=""stim_listB/marry5.gif""</stim_listB>",,html-keyboard-response,381,1625181,0.0-19.0-1.9,47234,List2B,black,man,,,,null,,,,
null,is marrying,,html-keyboard-response,382,1627182,0.0-19.0-2.9,47234,List2B,black,man,,,,null,,,,
6396,,,survey-text,383,1633581,0.0-19.0-3.9,47234,List2B,black,man,,,,,"{""Q0"":""fred is marrying dave""}","<img src=""stim_listB/marry5.gif""</stim_listB>",is marrying,
null,"<div style=""font-size:60px;"">+</div>",,html-keyboard-response,384,1634083,0.0-19.0-0.10,47234,List2B,black,man,,,,null,,,,
null,"<img src=""stim_listB/argue3.gif""</stim_listB>",,html-keyboard-response,385,1636090,0.0-19.0-1.10,47234,List2B,black,man,,,,null,,,,
null,is arguing with,,html-keyboard-response,386,1638092,0.0-19.0-2.10,47234,List2B,black,man,,,,null,,,,
9209,,,survey-text,387,1647303,0.0-19.0-3.10,47234,List2B,black,man,,,,,"{""Q0"":""mike is arguing with beth""}","<img src=""stim_listB/argue3.gif""</stim_listB>",is arguing with,
null,"<div style=""font-size:60px;"">+</div>",,html-keyboard-response,388,1647806,0.0-19.0-0.11,47234,List2B,black,man,,,,null,,,,
null,"<img src=""stim_listB/shout1.gif""</stim_listB>",,html-keyboard-response,389,1649809,0.0-19.0-1.11,47234,List2B,black,man,,,,null,,,,
null,is shouting at,,html-keyboard-response,390,1651811,0.0-19.0-2.11,47234,List2B,black,man,,,,null,,,,
7000,,,survey-text,391,1658813,0.0-19.0-3.11,47234,List2B,black,man,,,,,"{""Q0"":""luke is shouting at ruth""}","<img src=""stim_listB/shout1.gif""</stim_listB>",is shouting at,
null,"<div style=""font-size:60px;"">+</div>",,html-keyboard-response,392,1659316,0.0-19.0-0.12,47234,List2B,black,man,,,,null,,,,
null,"<img src=""stim_listB/hug5.gif""</stim_listB>",,html-keyboard-response,393,1661320,0.0-19.0-1.12,47234,List2B,black,man,,,,null,,,,
null,is hugging,,html-keyboard-response,394,1663321,0.0-19.0-2.12,47234,List2B,black,man,,,,null,,,,
5601,,,survey-text,395,1668924,0.0-19.0-3.12,47234,List2B,black,man,,,,,"{""Q0"":""luke is hugging fred""}","<img src=""stim_listB/hug5.gif""</stim_listB>",is hugging,
null,"<div style=""font-size:60px;"">+</div>",,html-keyboard-response,396,1669427,0.0-19.0-0.13,47234,List2B,black,man,,,,null,,,,
null,"<img src=""stim_listB/shout4.gif""</stim_listB>",,html-keyboard-response,397,1671430,0.0-19.0-1.13,47234,List2B,black,man,,,,null,,,,
null,are shouting at each other,,html-keyboard-response,398,1673432,0.0-19.0-2.13,47234,List2B,black,man,,,,null,,,,
9218,,,survey-text,399,1682652,0.0-19.0-3.13,47234,List2B,black,man,,,,,"{""Q0"":""mike and kate are shouting at each other""}","<img src=""stim_listB/shout4.gif""</stim_listB>",are shouting at each other,
null,"<div style=""font-size:60px;"">+</div>",,html-keyboard-response,400,1683155,0.0-19.0-0.14,47234,List2B,black,man,,,,null,,,,
null,"<img src=""stim_listB/kiss5.gif""</stim_listB>",,html-keyboard-response,401,1685157,0.0-19.0-1.14,47234,List2B,black,man,,,,null,,,,
null,is kissing,,html-keyboard-response,402,1687159,0.0-19.0-2.14,47234,List2B,black,man,,,,null,,,,
7942,,,survey-text,403,1695103,0.0-19.0-3.14,47234,List2B,black,man,,,,,"{""Q0"":""luke is kissing fred""}","<img src=""stim_listB/kiss5.gif""</stim_listB>",is kissing,
null,"<div style=""font-size:60px;"">+</div>",,html-keyboard-response,404,1695605,0.0-19.0-0.15,47234,List2B,black,man,,,,null,,,,
null,"<img src=""stim_listB/shout3.gif""</stim_listB>",,html-keyboard-response,405,1697608,0.0-19.0-1.15,47234,List2B,black,man,,,,null,,,,
null,is shouting at,,html-keyboard-response,406,1699610,0.0-19.0-2.15,47234,List2B,black,man,,,,null,,,,
5763,,,survey-text,407,1705375,0.0-19.0-3.15,47234,List2B,black,man,,,,,"{""Q0"":""beth is shouting at fred""}","<img src=""stim_listB/shout3.gif""</stim_listB>",is shouting at,
null,"<div style=""font-size:60px;"">+</div>",,html-keyboard-response,408,1705878,0.0-19.0-0.16,47234,List2B,black,man,,,,null,,,,
null,"<img src=""stim_listB/kiss1.gif""</stim_listB>",,html-keyboard-response,409,1707881,0.0-19.0-1.16,47234,List2B,black,man,,,,null,,,,
null,is kissing,,html-keyboard-response,410,1709883,0.0-19.0-2.16,47234,List2B,black,man,,,,null,,,,
5762,,,survey-text,411,1715646,0.0-19.0-3.16,47234,List2B,black,man,,,,,"{""Q0"":""luke is kissing ruth""}","<img src=""stim_listB/kiss1.gif""</stim_listB>",is kissing,
null,"<div style=""font-size:60px;"">+</div>",,html-keyboard-response,412,1716148,0.0-19.0-0.17,47234,List2B,black,man,,,,null,,,,
null,"<img src=""stim_listB/argue1.gif""</stim_listB>",,html-keyboard-response,413,1718153,0.0-19.0-1.17,47234,List2B,black,man,,,,null,,,,
null,is arguing with,,html-keyboard-response,414,1720154,0.0-19.0-2.17,47234,List2B,black,man,,,,null,,,,
13505,,,survey-text,415,1733662,0.0-19.0-3.17,47234,List2B,black,man,,,,,"{""Q0"":""ruth is arguing with dave""}","<img src=""stim_listB/argue1.gif""</stim_listB>",is arguing with,
null,"<div style=""font-size:60px;"">+</div>",,html-keyboard-response,416,1734164,0.0-19.0-0.18,47234,List2B,black,man,,,,null,,,,
null,"<img src=""stim_listB/kiss4.gif""</stim_listB>",,html-keyboard-response,417,1736169,0.0-19.0-1.18,47234,List2B,black,man,,,,null,,,,
null,are kissing each other,,html-keyboard-response,418,1738170,0.0-19.0-2.18,47234,List2B,black,man,,,,null,,,,
9698,,,survey-text,419,1747870,0.0-19.0-3.18,47234,List2B,black,man,,,,,"{""Q0"":""mike and kate are kissing each other""}","<img src=""stim_listB/kiss4.gif""</stim_listB>",are kissing each other,
null,"<div style=""font-size:60px;"">+</div>",,html-keyboard-response,420,1748373,0.0-19.0-0.19,47234,List2B,black,man,,,,null,,,,
null,"<img src=""stim_listB/talk4.gif""</stim_listB>",,html-keyboard-response,421,1750381,0.0-19.0-1.19,47234,List2B,black,man,,,,null,,,,
null,are talking to each other,,html-keyboard-response,422,1752383,0.0-19.0-2.19,47234,List2B,black,man,,,,null,,,,
7497,,,survey-text,423,1759882,0.0-19.0-3.19,47234,List2B,black,man,,,,,"{""Q0"":""miek and beth are talking to each other""}","<img src=""stim_listB/talk4.gif""</stim_listB>",are talking to each other,
2398,<p>Thank you for completing that task.</p><p>The final part of this session is a short questionnaire.</p><p>Press Continue.</p>,0,html-button-response,424,1762282,0.0-20.0,47234,List2B,black,man,,,,,,,,
36412,,,survey-text,425,1799698,0.0-21.0,47234,List2B,black,man,,,,,"{""Q0"":""29"",""Q1"":""English"",""Q2"":""English"",""Q3"":""UK"",""Q4"":""Black - Afircan"",""Q5"":""Male""}",,,demographics
54239,,,survey-likert,426,1853950,0.0-22.0,47234,List2B,black,man,,,,,"{""Q0"":5,""Q1"":"""",""Q2"":4,""Q3"":5,""Q4"":5,""Q5"":5,""Q6"":5,""Q7"":2,""Q8"":4,""Q9"":4,""Q10"":3,""Q11"":3,""Q12"":3,""Q13"":3}",,,likert_race
48460,,,survey-likert,427,1902424,0.0-23.0,47234,List2B,black,man,,,,,"{""Q0"":5,""Q1"":5,""Q2"":5,""Q3"":5,""Q4"":3,""Q5"":4,""Q6"":4,""Q7"":2,""Q8"":4,""Q9"":4,""Q10"":3,""Q11"":3,""Q12"":3,""Q13"":3}",,,likert_gender
8171,,,survey-text,428,1910599,0.0-24.0,47234,List2B,black,man,,,,,"{""Q0"":""ccc""}",,,worker_id
37205,,,external-html,429,1947852,0.0-25.0,47234,List2B,black,man,debrief.html,,,,,,,
