rt,stimulus,button_pressed,trial_type,trial_index,time_elapsed,internal_node_id,subject,list,ppt_race,ppt_gender,url,first_guess,correct,key_press,responses,image_type,phrase_type,test_part
46632,Welcome to the experiment. Press Continue to begin.,0,html-button-response,0,46637,0.0-0.0,52256,List2B,black,man,,,,,,,,
69663,,,external-html,1,117406,0.0-1.0,52256,List2B,black,man,consent.html,,,,,,,
25321,"<p>On the next page, you will see portraits of 8 people and their names.</p><p>Your first task is to take a few minutes to memorise the names of these people.</p><p>You will have to recall their names during the rest of the experiment, so it is</p><p>essential that you try to memorise these people and their names as best as you can.</p><br><p><strong>You will then be tested on your memory of these names and portraits.</strong></p><br><p>The experiment will start after you have completed this memory test.</p><br><p>Ready?</p>",0,html-button-response,2,142729,0.0-2.0,52256,List2B,black,man,,,,,,,,
57962,"<img src='img/portrait_matrix_list2.JPG' style='width:900px;height:500px;''></img><p>If you have memorised all the portraits and names and are ready to start, press Continue.</p><p><strong>Please note: Your memory of these faces will be tested 4 times during this experiment.</strong></p>",0,html-button-response,3,201694,0.0-3.0-0.0,52256,List2B,black,man,,,,,,,,
4004,"<img src=""portrait/WM1.jpg""style=""width:400px;height:400px;""></img>",6,html-button-response,4,206705,0.0-3.0-1.0,52256,List2B,black,man,,TRUE,6,,,,,
null,CORRECT,,html-keyboard-response,5,208210,0.0-3.0-2.0-0.0,52256,List2B,black,man,,,,null,,,,
4856,"<img src=""portrait/WW1.jpg""style=""width:400px;height:400px;""></img>",1,html-button-response,6,213068,0.0-3.0-4.0,52256,List2B,black,man,,TRUE,1,,,,,
null,CORRECT,,html-keyboard-response,7,214571,0.0-3.0-5.0-0.0,52256,List2B,black,man,,,,null,,,,
6114,"<img src=""portrait/WW2.jpg""style=""width:400px;height:400px;""></img>",3,html-button-response,8,220688,0.0-3.0-7.0,52256,List2B,black,man,,TRUE,3,,,,,
null,CORRECT,,html-keyboard-response,9,222191,0.0-3.0-8.0-0.0,52256,List2B,black,man,,,,null,,,,
5070,"<img src=""portrait/WM2.jpg""style=""width:400px;height:400px;""></img>",7,html-button-response,10,227263,0.0-3.0-10.0,52256,List2B,black,man,,TRUE,7,,,,,
null,CORRECT,,html-keyboard-response,11,228765,0.0-3.0-11.0-0.0,52256,List2B,black,man,,,,null,,,,
3688,"<img src=""portrait/BM2.jpg""style=""width:400px;height:400px;""></img>",5,html-button-response,12,232455,0.0-3.0-13.0,52256,List2B,black,man,,TRUE,5,,,,,
null,CORRECT,,html-keyboard-response,13,233957,0.0-3.0-14.0-0.0,52256,List2B,black,man,,,,null,,,,
3444,"<img src=""portrait/BM1.jpg""style=""width:400px;height:400px;""></img>",4,html-button-response,14,237403,0.0-3.0-16.0,52256,List2B,black,man,,TRUE,4,,,,,
null,CORRECT,,html-keyboard-response,15,238906,0.0-3.0-17.0-0.0,52256,List2B,black,man,,,,null,,,,
7623,"<img src=""portrait/BW2.jpg""style=""width:400px;height:400px;""></img>",2,html-button-response,16,246531,0.0-3.0-19.0,52256,List2B,black,man,,TRUE,2,,,,,
null,CORRECT,,html-keyboard-response,17,248034,0.0-3.0-20.0-0.0,52256,List2B,black,man,,,,null,,,,
5895,"<img src=""portrait/BW1.jpg""style=""width:400px;height:400px;""></img>",0,html-button-response,18,253931,0.0-3.0-22.0,52256,List2B,black,man,,TRUE,0,,,,,
null,CORRECT,,html-keyboard-response,19,255434,0.0-3.0-23.0-0.0,52256,List2B,black,man,,,,null,,,,
7671,<p>You got 8 out of 8 right first time. Press Continue.</p>,0,html-button-response,20,263107,0.0-3.0-25.0,52256,List2B,black,man,,,,,,,,
107702,"<p>In this experiment, you will view photographs of the people from the memory game interacting.</p><p>By using the <strong>exact</strong> phrase given <i>after</i> the photograph appears and recalling the correct names of the people in the photographs, form a sentence describing the interaction. You do not need to capitalise names.</p><p>Type your answer in the space provided. Please complete every sentence before moving onto the next trial.</p><p>You will only have a few seconds to memorise each given photograph and phrase before you can respond, so try your best to focus.</p><p>An example is given below. Press 'Continue' when you are ready.</p><img src='img/speaking_example_v2.jpg' style='width:800px;height:460px;''></img>",0,html-button-response,21,371813,0.0-4.0,52256,List2B,black,man,,,,,,,,
6102,"<p>Before the experiment starts, you will watch two example trials. Press 'Continue'.</p>",0,html-button-response,22,378920,0.0-5.0,52256,List2B,black,man,,,,,,,,
null,<img src='img/speaking_WW.gif'></img>,,html-keyboard-response,23,381924,0.0-6.0,52256,List2B,black,man,,,,null,,,,
null,<p>is speaking to</p>,,html-keyboard-response,24,383925,0.0-7.0,52256,List2B,black,man,,,,null,,,,
5879,<p><b>Answer:</b> jane is speaking to ruth</p>,0,html-button-response,25,389805,0.0-8.0,52256,List2B,black,man,,,,,,,,
null,<img src='img/pointing_BM.gif'></img>,,html-keyboard-response,26,392809,0.0-9.0,52256,List2B,black,man,,,,null,,,,
null,<p>are pointing at each other</p>,,html-keyboard-response,27,394811,0.0-10.0,52256,List2B,black,man,,,,null,,,,
50401,<p><b>Answer:</b> fred and mike are pointing at each other</p>,0,html-button-response,28,445215,0.0-11.0,52256,List2B,black,man,,,,,,,,
19797,"<p>Ready to start the experiment?</p><br><p><strong>Remember to describe the picture using a full sentence,</strong></p><p><strong>that combines the names of the people with the given phrase.</strong></p><p><strong>If you do not do this correctly you will not be paid.</strong></p><p><strong> You do not need to capitalise names or use punctuation.</strong></p><br><p>Press 'Continue' to begin.</p>",0,html-button-response,29,466015,0.0-12.0,52256,List2B,black,man,,,,,,,,
null,"<div style=""font-size:60px;"">+</div>",,html-keyboard-response,30,467518,0.0-13.0-0.0,52256,List2B,black,man,,,,null,,,,
null,"<img src=""stim_listB/argue2.gif""</stim_listB>",,html-keyboard-response,31,469522,0.0-13.0-1.0,52256,List2B,black,man,,,,null,,,,
null,are arguing with each other,,html-keyboard-response,32,471524,0.0-13.0-2.0,52256,List2B,black,man,,,,null,,,,
12414,,,survey-text,33,483941,0.0-13.0-3.0,52256,List2B,black,man,,,,,"{""Q0"":""luke and jane are arguing with each other""}","<img src=""stim_listB/argue2.gif""</stim_listB>",are arguing with each other,
null,"<div style=""font-size:60px;"">+</div>",,html-keyboard-response,34,484444,0.0-13.0-0.1,52256,List2B,black,man,,,,null,,,,
null,"<img src=""stim_listB/argue8.gif""</stim_listB>",,html-keyboard-response,35,486446,0.0-13.0-1.1,52256,List2B,black,man,,,,null,,,,
null,are arguing with each other,,html-keyboard-response,36,488449,0.0-13.0-2.1,52256,List2B,black,man,,,,null,,,,
12671,,,survey-text,37,501122,0.0-13.0-3.1,52256,List2B,black,man,,,,,"{""Q0"":""jane and kate are arguing with each other""}","<img src=""stim_listB/argue8.gif""</stim_listB>",are arguing with each other,
null,"<div style=""font-size:60px;"">+</div>",,html-keyboard-response,38,501624,0.0-13.0-0.2,52256,List2B,black,man,,,,null,,,,
null,"<img src=""stim_listB/argue4.gif""</stim_listB>",,html-keyboard-response,39,503627,0.0-13.0-1.2,52256,List2B,black,man,,,,null,,,,
null,are arguing with each other,,html-keyboard-response,40,505629,0.0-13.0-2.2,52256,List2B,black,man,,,,null,,,,
14762,,,survey-text,41,520392,0.0-13.0-3.2,52256,List2B,black,man,,,,,"{""Q0"":""fred and kate are arguing with each other""}","<img src=""stim_listB/argue4.gif""</stim_listB>",are arguing with each other,
null,"<div style=""font-size:60px;"">+</div>",,html-keyboard-response,42,520895,0.0-13.0-0.3,52256,List2B,black,man,,,,null,,,,
null,"<img src=""stim_listB/marry4.gif""</stim_listB>",,html-keyboard-response,43,522896,0.0-13.0-1.3,52256,List2B,black,man,,,,null,,,,
null,are marrying each other,,html-keyboard-response,44,524899,0.0-13.0-2.3,52256,List2B,black,man,,,,null,,,,
14489,,,survey-text,45,539390,0.0-13.0-3.3,52256,List2B,black,man,,,,,"{""Q0"":""fred and kate are marrying each other""}","<img src=""stim_listB/marry4.gif""</stim_listB>",are marrying each other,
null,"<div style=""font-size:60px;"">+</div>",,html-keyboard-response,46,539892,0.0-13.0-0.4,52256,List2B,black,man,,,,null,,,,
null,"<img src=""stim_listB/meet5.gif""</stim_listB>",,html-keyboard-response,47,541894,0.0-13.0-1.4,52256,List2B,black,man,,,,null,,,,
null,is meeting,,html-keyboard-response,48,543896,0.0-13.0-2.4,52256,List2B,black,man,,,,null,,,,
13614,,,survey-text,49,557511,0.0-13.0-3.4,52256,List2B,black,man,,,,,"{""Q0"":""dave is meeting mike""}","<img src=""stim_listB/meet5.gif""</stim_listB>",is meeting,
null,"<div style=""font-size:60px;"">+</div>",,html-keyboard-response,50,558013,0.0-13.0-0.5,52256,List2B,black,man,,,,null,,,,
null,"<img src=""stim_listB/marry1.gif""</stim_listB>",,html-keyboard-response,51,560016,0.0-13.0-1.5,52256,List2B,black,man,,,,null,,,,
null,is marrying,,html-keyboard-response,52,562019,0.0-13.0-2.5,52256,List2B,black,man,,,,null,,,,
12238,,,survey-text,53,574258,0.0-13.0-3.5,52256,List2B,black,man,,,,,"{""Q0"":""dave is marrying jane""}","<img src=""stim_listB/marry1.gif""</stim_listB>",is marrying,
null,"<div style=""font-size:60px;"">+</div>",,html-keyboard-response,54,574761,0.0-13.0-0.6,52256,List2B,black,man,,,,null,,,,
null,"<img src=""stim_listB/touch4.gif""</stim_listB>",,html-keyboard-response,55,576763,0.0-13.0-1.6,52256,List2B,black,man,,,,null,,,,
null,are touching each other,,html-keyboard-response,56,578765,0.0-13.0-2.6,52256,List2B,black,man,,,,null,,,,
21350,,,survey-text,57,600117,0.0-13.0-3.6,52256,List2B,black,man,,,,,"{""Q0"":""beth and fred are touching each other""}","<img src=""stim_listB/touch4.gif""</stim_listB>",are touching each other,
null,"<div style=""font-size:60px;"">+</div>",,html-keyboard-response,58,600619,0.0-13.0-0.7,52256,List2B,black,man,,,,null,,,,
null,"<img src=""stim_listB/dance1.gif""</stim_listB>",,html-keyboard-response,59,602621,0.0-13.0-1.7,52256,List2B,black,man,,,,null,,,,
null,is dancing with,,html-keyboard-response,60,604623,0.0-13.0-2.7,52256,List2B,black,man,,,,null,,,,
13187,,,survey-text,61,617811,0.0-13.0-3.7,52256,List2B,black,man,,,,,"{""Q0"":""luke is dancing with jane""}","<img src=""stim_listB/dance1.gif""</stim_listB>",is dancing with,
null,"<div style=""font-size:60px;"">+</div>",,html-keyboard-response,62,618312,0.0-13.0-0.8,52256,List2B,black,man,,,,null,,,,
null,"<img src=""stim_listB/dance8.gif""</stim_listB>",,html-keyboard-response,63,620315,0.0-13.0-1.8,52256,List2B,black,man,,,,null,,,,
null,are dancing with each other,,html-keyboard-response,64,622317,0.0-13.0-2.8,52256,List2B,black,man,,,,null,,,,
13562,,,survey-text,65,635880,0.0-13.0-3.8,52256,List2B,black,man,,,,,"{""Q0"":""beth and jane are dancing with each other""}","<img src=""stim_listB/dance8.gif""</stim_listB>",are dancing with each other,
null,"<div style=""font-size:60px;"">+</div>",,html-keyboard-response,66,636381,0.0-13.0-0.9,52256,List2B,black,man,,,,null,,,,
null,"<img src=""stim_listB/touch8.gif""</stim_listB>",,html-keyboard-response,67,638384,0.0-13.0-1.9,52256,List2B,black,man,,,,null,,,,
null,are touching each other,,html-keyboard-response,68,640386,0.0-13.0-2.9,52256,List2B,black,man,,,,null,,,,
12374,,,survey-text,69,652762,0.0-13.0-3.9,52256,List2B,black,man,,,,,"{""Q0"":""beth and ruth are touching each other""}","<img src=""stim_listB/touch8.gif""</stim_listB>",are touching each other,
null,"<div style=""font-size:60px;"">+</div>",,html-keyboard-response,70,653264,0.0-13.0-0.10,52256,List2B,black,man,,,,null,,,,
null,"<img src=""stim_listB/marry7.gif""</stim_listB>",,html-keyboard-response,71,655267,0.0-13.0-1.10,52256,List2B,black,man,,,,null,,,,
null,is marrying,,html-keyboard-response,72,657268,0.0-13.0-2.10,52256,List2B,black,man,,,,null,,,,
8350,,,survey-text,73,665620,0.0-13.0-3.10,52256,List2B,black,man,,,,,"{""Q0"":""beth is marrying jane""}","<img src=""stim_listB/marry7.gif""</stim_listB>",is marrying,
null,"<div style=""font-size:60px;"">+</div>",,html-keyboard-response,74,666121,0.0-13.0-0.11,52256,List2B,black,man,,,,null,,,,
null,"<img src=""stim_listB/hug8.gif""</stim_listB>",,html-keyboard-response,75,668124,0.0-13.0-1.11,52256,List2B,black,man,,,,null,,,,
null,are hugging each other,,html-keyboard-response,76,670126,0.0-13.0-2.11,52256,List2B,black,man,,,,null,,,,
12091,,,survey-text,77,682219,0.0-13.0-3.11,52256,List2B,black,man,,,,,"{""Q0"":""kate and jane are hugging each other""}","<img src=""stim_listB/hug8.gif""</stim_listB>",are hugging each other,
null,"<div style=""font-size:60px;"">+</div>",,html-keyboard-response,78,682720,0.0-13.0-0.12,52256,List2B,black,man,,,,null,,,,
null,"<img src=""stim_listB/fight6.gif""</stim_listB>",,html-keyboard-response,79,684722,0.0-13.0-1.12,52256,List2B,black,man,,,,null,,,,
null,are fighting each other,,html-keyboard-response,80,686725,0.0-13.0-2.12,52256,List2B,black,man,,,,null,,,,
11459,,,survey-text,81,698184,0.0-13.0-3.12,52256,List2B,black,man,,,,,"{""Q0"":""luke and fred are fighting each other""}","<img src=""stim_listB/fight6.gif""</stim_listB>",are fighting each other,
null,"<div style=""font-size:60px;"">+</div>",,html-keyboard-response,82,698686,0.0-13.0-0.13,52256,List2B,black,man,,,,null,,,,
null,"<img src=""stim_listB/hug2.gif""</stim_listB>",,html-keyboard-response,83,700689,0.0-13.0-1.13,52256,List2B,black,man,,,,null,,,,
null,are hugging each other,,html-keyboard-response,84,702691,0.0-13.0-2.13,52256,List2B,black,man,,,,null,,,,
10603,,,survey-text,85,713296,0.0-13.0-3.13,52256,List2B,black,man,,,,,"{""Q0"":""jane and dave are hugging each other""}","<img src=""stim_listB/hug2.gif""</stim_listB>",are hugging each other,
null,"<div style=""font-size:60px;"">+</div>",,html-keyboard-response,86,713798,0.0-13.0-0.14,52256,List2B,black,man,,,,null,,,,
null,"<img src=""stim_listB/fight1.gif""</stim_listB>",,html-keyboard-response,87,715800,0.0-13.0-1.14,52256,List2B,black,man,,,,null,,,,
null,is fighting,,html-keyboard-response,88,717802,0.0-13.0-2.14,52256,List2B,black,man,,,,null,,,,
8165,,,survey-text,89,725969,0.0-13.0-3.14,52256,List2B,black,man,,,,,"{""Q0"":""jane is fighting dave""}","<img src=""stim_listB/fight1.gif""</stim_listB>",is fighting,
null,"<div style=""font-size:60px;"">+</div>",,html-keyboard-response,90,726470,0.0-13.0-0.15,52256,List2B,black,man,,,,null,,,,
null,"<img src=""stim_listB/hug5.gif""</stim_listB>",,html-keyboard-response,91,728473,0.0-13.0-1.15,52256,List2B,black,man,,,,null,,,,
null,is hugging,,html-keyboard-response,92,730475,0.0-13.0-2.15,52256,List2B,black,man,,,,null,,,,
8008,,,survey-text,93,738486,0.0-13.0-3.15,52256,List2B,black,man,,,,,"{""Q0"":""fred is hugging luke""}","<img src=""stim_listB/hug5.gif""</stim_listB>",is hugging,
null,"<div style=""font-size:60px;"">+</div>",,html-keyboard-response,94,738988,0.0-13.0-0.16,52256,List2B,black,man,,,,null,,,,
null,"<img src=""stim_listB/marry5.gif""</stim_listB>",,html-keyboard-response,95,740990,0.0-13.0-1.16,52256,List2B,black,man,,,,null,,,,
null,is marrying,,html-keyboard-response,96,742992,0.0-13.0-2.16,52256,List2B,black,man,,,,null,,,,
7094,,,survey-text,97,750087,0.0-13.0-3.16,52256,List2B,black,man,,,,,"{""Q0"":""fred is marrying dave""}","<img src=""stim_listB/marry5.gif""</stim_listB>",is marrying,
null,"<div style=""font-size:60px;"">+</div>",,html-keyboard-response,98,750589,0.0-13.0-0.17,52256,List2B,black,man,,,,null,,,,
null,"<img src=""stim_listB/shout7.gif""</stim_listB>",,html-keyboard-response,99,752592,0.0-13.0-1.17,52256,List2B,black,man,,,,null,,,,
null,is shouting at,,html-keyboard-response,100,754594,0.0-13.0-2.17,52256,List2B,black,man,,,,null,,,,
10246,,,survey-text,101,764841,0.0-13.0-3.17,52256,List2B,black,man,,,,,"{""Q0"":""beth is shouting at ruth""}","<img src=""stim_listB/shout7.gif""</stim_listB>",is shouting at,
null,"<div style=""font-size:60px;"">+</div>",,html-keyboard-response,102,765342,0.0-13.0-0.18,52256,List2B,black,man,,,,null,,,,
null,"<img src=""stim_listB/talk7.gif""</stim_listB>",,html-keyboard-response,103,767345,0.0-13.0-1.18,52256,List2B,black,man,,,,null,,,,
null,is talking to,,html-keyboard-response,104,769349,0.0-13.0-2.18,52256,List2B,black,man,,,,null,,,,
11068,,,survey-text,105,780418,0.0-13.0-3.18,52256,List2B,black,man,,,,,"{""Q0"":""kate is talking to ruth""}","<img src=""stim_listB/talk7.gif""</stim_listB>",is talking to,
null,"<div style=""font-size:60px;"">+</div>",,html-keyboard-response,106,780921,0.0-13.0-0.19,52256,List2B,black,man,,,,null,,,,
null,"<img src=""stim_listB/argue5.gif""</stim_listB>",,html-keyboard-response,107,782925,0.0-13.0-1.19,52256,List2B,black,man,,,,null,,,,
null,is arguing with,,html-keyboard-response,108,784928,0.0-13.0-2.19,52256,List2B,black,man,,,,null,,,,
11655,,,survey-text,109,796584,0.0-13.0-3.19,52256,List2B,black,man,,,,,"{""Q0"":""fred is arguing with dave""}","<img src=""stim_listB/argue5.gif""</stim_listB>",is arguing with,
19741,"<img src='img/portrait_matrix_list2.JPG' style='width:900px;height:500px;''></img><p>If you have memorised all the portraits and names and are ready to start, press Continue.</p><p><strong>Please note: Your memory of these faces will be tested 4 times during this experiment.</strong></p>",0,html-button-response,110,816327,0.0-14.0-0.0,52256,List2B,black,man,,,,,,,,
3431,"<img src=""portrait/BM1.jpg""style=""width:400px;height:400px;""></img>",4,html-button-response,111,820761,0.0-14.0-1.0,52256,List2B,black,man,,TRUE,4,,,,,
null,CORRECT,,html-keyboard-response,112,822264,0.0-14.0-2.0-0.0,52256,List2B,black,man,,,,null,,,,
3089,"<img src=""portrait/BW2.jpg""style=""width:400px;height:400px;""></img>",2,html-button-response,113,825355,0.0-14.0-4.0,52256,List2B,black,man,,TRUE,2,,,,,
null,CORRECT,,html-keyboard-response,114,826856,0.0-14.0-5.0-0.0,52256,List2B,black,man,,,,null,,,,
3978,"<img src=""portrait/WW2.jpg""style=""width:400px;height:400px;""></img>",3,html-button-response,115,830836,0.0-14.0-7.0,52256,List2B,black,man,,TRUE,3,,,,,
null,CORRECT,,html-keyboard-response,116,832340,0.0-14.0-8.0-0.0,52256,List2B,black,man,,,,null,,,,
5008,"<img src=""portrait/BW1.jpg""style=""width:400px;height:400px;""></img>",0,html-button-response,117,837350,0.0-14.0-10.0,52256,List2B,black,man,,TRUE,0,,,,,
null,CORRECT,,html-keyboard-response,118,838852,0.0-14.0-11.0-0.0,52256,List2B,black,man,,,,null,,,,
4506,"<img src=""portrait/WM1.jpg""style=""width:400px;height:400px;""></img>",6,html-button-response,119,843360,0.0-14.0-13.0,52256,List2B,black,man,,TRUE,6,,,,,
null,CORRECT,,html-keyboard-response,120,844863,0.0-14.0-14.0-0.0,52256,List2B,black,man,,,,null,,,,
1371,"<img src=""portrait/WM2.jpg""style=""width:400px;height:400px;""></img>",7,html-button-response,121,846237,0.0-14.0-16.0,52256,List2B,black,man,,TRUE,7,,,,,
null,CORRECT,,html-keyboard-response,122,847738,0.0-14.0-17.0-0.0,52256,List2B,black,man,,,,null,,,,
2630,"<img src=""portrait/BM2.jpg""style=""width:400px;height:400px;""></img>",5,html-button-response,123,850370,0.0-14.0-19.0,52256,List2B,black,man,,TRUE,5,,,,,
null,CORRECT,,html-keyboard-response,124,851873,0.0-14.0-20.0-0.0,52256,List2B,black,man,,,,null,,,,
3172,"<img src=""portrait/WW1.jpg""style=""width:400px;height:400px;""></img>",1,html-button-response,125,855048,0.0-14.0-22.0,52256,List2B,black,man,,TRUE,1,,,,,
null,CORRECT,,html-keyboard-response,126,856551,0.0-14.0-23.0-0.0,52256,List2B,black,man,,,,null,,,,
1742,<p>You got 8 out of 8 right first time. Press Continue.</p>,0,html-button-response,127,858294,0.0-14.0-25.0,52256,List2B,black,man,,,,,,,,
null,"<div style=""font-size:60px;"">+</div>",,html-keyboard-response,128,859798,0.0-15.0-0.0,52256,List2B,black,man,,,,null,,,,
null,"<img src=""stim_listB/kiss2.gif""</stim_listB>",,html-keyboard-response,129,861800,0.0-15.0-1.0,52256,List2B,black,man,,,,null,,,,
null,are kissing each other,,html-keyboard-response,130,863802,0.0-15.0-2.0,52256,List2B,black,man,,,,null,,,,
13930,,,survey-text,131,877734,0.0-15.0-3.0,52256,List2B,black,man,,,,,"{""Q0"":""dave and jane are kissing each other""}","<img src=""stim_listB/kiss2.gif""</stim_listB>",are kissing each other,
null,"<div style=""font-size:60px;"">+</div>",,html-keyboard-response,132,878236,0.0-15.0-0.1,52256,List2B,black,man,,,,null,,,,
null,"<img src=""stim_listB/shout5.gif""</stim_listB>",,html-keyboard-response,133,880239,0.0-15.0-1.1,52256,List2B,black,man,,,,null,,,,
null,is shouting at,,html-keyboard-response,134,882241,0.0-15.0-2.1,52256,List2B,black,man,,,,null,,,,
9856,,,survey-text,135,892099,0.0-15.0-3.1,52256,List2B,black,man,,,,,"{""Q0"":""luke is shouting at fred""}","<img src=""stim_listB/shout5.gif""</stim_listB>",is shouting at,
null,"<div style=""font-size:60px;"">+</div>",,html-keyboard-response,136,892601,0.0-15.0-0.2,52256,List2B,black,man,,,,null,,,,
null,"<img src=""stim_listB/dance2.gif""</stim_listB>",,html-keyboard-response,137,894603,0.0-15.0-1.2,52256,List2B,black,man,,,,null,,,,
null,are dancing with each other,,html-keyboard-response,138,896605,0.0-15.0-2.2,52256,List2B,black,man,,,,null,,,,
11744,,,survey-text,139,908351,0.0-15.0-3.2,52256,List2B,black,man,,,,,"{""Q0"":""ruth and dave are dancing with each other""}","<img src=""stim_listB/dance2.gif""</stim_listB>",are dancing with each other,
null,"<div style=""font-size:60px;"">+</div>",,html-keyboard-response,140,908853,0.0-15.0-0.3,52256,List2B,black,man,,,,null,,,,
null,"<img src=""stim_listB/marry6.gif""</stim_listB>",,html-keyboard-response,141,910855,0.0-15.0-1.3,52256,List2B,black,man,,,,null,,,,
null,are marrying each other,,html-keyboard-response,142,912857,0.0-15.0-2.3,52256,List2B,black,man,,,,null,,,,
10623,,,survey-text,143,923481,0.0-15.0-3.3,52256,List2B,black,man,,,,,"{""Q0"":""mike and luke are marrying each other""}","<img src=""stim_listB/marry6.gif""</stim_listB>",are marrying each other,
null,"<div style=""font-size:60px;"">+</div>",,html-keyboard-response,144,923983,0.0-15.0-0.4,52256,List2B,black,man,,,,null,,,,
null,"<img src=""stim_listB/hug4.gif""</stim_listB>",,html-keyboard-response,145,925986,0.0-15.0-1.4,52256,List2B,black,man,,,,null,,,,
null,are hugging each other,,html-keyboard-response,146,927988,0.0-15.0-2.4,52256,List2B,black,man,,,,null,,,,
11825,,,survey-text,147,939815,0.0-15.0-3.4,52256,List2B,black,man,,,,,"{""Q0"":""mike and beth are hugging each other""}","<img src=""stim_listB/hug4.gif""</stim_listB>",are hugging each other,
null,"<div style=""font-size:60px;"">+</div>",,html-keyboard-response,148,940317,0.0-15.0-0.5,52256,List2B,black,man,,,,null,,,,
null,"<img src=""stim_listB/argue6.gif""</stim_listB>",,html-keyboard-response,149,942319,0.0-15.0-1.5,52256,List2B,black,man,,,,null,,,,
null,are arguing with each other,,html-keyboard-response,150,944321,0.0-15.0-2.5,52256,List2B,black,man,,,,null,,,,
13399,,,survey-text,151,957722,0.0-15.0-3.5,52256,List2B,black,man,,,,,"{""Q0"":""fred and luke are arguing with each other""}","<img src=""stim_listB/argue6.gif""</stim_listB>",are arguing with each other,
null,"<div style=""font-size:60px;"">+</div>",,html-keyboard-response,152,958225,0.0-15.0-0.6,52256,List2B,black,man,,,,null,,,,
null,"<img src=""stim_listB/shout6.gif""</stim_listB>",,html-keyboard-response,153,960227,0.0-15.0-1.6,52256,List2B,black,man,,,,null,,,,
null,are shouting at each other,,html-keyboard-response,154,962229,0.0-15.0-2.6,52256,List2B,black,man,,,,null,,,,
11252,,,survey-text,155,973487,0.0-15.0-3.6,52256,List2B,black,man,,,,,"{""Q0"":""mike and dave are shouting at each other""}","<img src=""stim_listB/shout6.gif""</stim_listB>",are shouting at each other,
null,"<div style=""font-size:60px;"">+</div>",,html-keyboard-response,156,973990,0.0-15.0-0.7,52256,List2B,black,man,,,,null,,,,
null,"<img src=""stim_listB/marry2.gif""</stim_listB>",,html-keyboard-response,157,975992,0.0-15.0-1.7,52256,List2B,black,man,,,,null,,,,
null,are marrying each other,,html-keyboard-response,158,977994,0.0-15.0-2.7,52256,List2B,black,man,,,,null,,,,
10261,,,survey-text,159,988256,0.0-15.0-3.7,52256,List2B,black,man,,,,,"{""Q0"":""luke and jane are marrying each other""}","<img src=""stim_listB/marry2.gif""</stim_listB>",are marrying each other,
null,"<div style=""font-size:60px;"">+</div>",,html-keyboard-response,160,988759,0.0-15.0-0.8,52256,List2B,black,man,,,,null,,,,
null,"<img src=""stim_listB/talk8.gif""</stim_listB>",,html-keyboard-response,161,990761,0.0-15.0-1.8,52256,List2B,black,man,,,,null,,,,
null,are talking to each other,,html-keyboard-response,162,992762,0.0-15.0-2.8,52256,List2B,black,man,,,,null,,,,
13380,,,survey-text,163,1006144,0.0-15.0-3.8,52256,List2B,black,man,,,,,"{""Q0"":""beth and jane are talking to each other""}","<img src=""stim_listB/talk8.gif""</stim_listB>",are talking to each other,
null,"<div style=""font-size:60px;"">+</div>",,html-keyboard-response,164,1006646,0.0-15.0-0.9,52256,List2B,black,man,,,,null,,,,
null,"<img src=""stim_listB/touch2.gif""</stim_listB>",,html-keyboard-response,165,1008648,0.0-15.0-1.9,52256,List2B,black,man,,,,null,,,,
null,are touching each other,,html-keyboard-response,166,1010651,0.0-15.0-2.9,52256,List2B,black,man,,,,null,,,,
15660,,,survey-text,167,1026311,0.0-15.0-3.9,52256,List2B,black,man,,,,,"{""Q0"":""ruth and luke are touching each other""}","<img src=""stim_listB/touch2.gif""</stim_listB>",are touching each other,
null,"<div style=""font-size:60px;"">+</div>",,html-keyboard-response,168,1026814,0.0-15.0-0.10,52256,List2B,black,man,,,,null,,,,
null,"<img src=""stim_listB/kiss6.gif""</stim_listB>",,html-keyboard-response,169,1028816,0.0-15.0-1.10,52256,List2B,black,man,,,,null,,,,
null,are kissing each other,,html-keyboard-response,170,1030819,0.0-15.0-2.10,52256,List2B,black,man,,,,null,,,,
15027,,,survey-text,171,1045847,0.0-15.0-3.10,52256,List2B,black,man,,,,,"{""Q0"":""mike and dave are kissing each other""}","<img src=""stim_listB/kiss6.gif""</stim_listB>",are kissing each other,
null,"<div style=""font-size:60px;"">+</div>",,html-keyboard-response,172,1046349,0.0-15.0-0.11,52256,List2B,black,man,,,,null,,,,
null,"<img src=""stim_listB/kiss5.gif""</stim_listB>",,html-keyboard-response,173,1048351,0.0-15.0-1.11,52256,List2B,black,man,,,,null,,,,
null,is kissing,,html-keyboard-response,174,1050352,0.0-15.0-2.11,52256,List2B,black,man,,,,null,,,,
7806,,,survey-text,175,1058159,0.0-15.0-3.11,52256,List2B,black,man,,,,,"{""Q0"":""luke is kissing fred""}","<img src=""stim_listB/kiss5.gif""</stim_listB>",is kissing,
null,"<div style=""font-size:60px;"">+</div>",,html-keyboard-response,176,1058661,0.0-15.0-0.12,52256,List2B,black,man,,,,null,,,,
null,"<img src=""stim_listB/meet1.gif""</stim_listB>",,html-keyboard-response,177,1060663,0.0-15.0-1.12,52256,List2B,black,man,,,,null,,,,
null,is meeting,,html-keyboard-response,178,1062666,0.0-15.0-2.12,52256,List2B,black,man,,,,null,,,,
10444,,,survey-text,179,1073111,0.0-15.0-3.12,52256,List2B,black,man,,,,,"{""Q0"":""jane is meeting dave""}","<img src=""stim_listB/meet1.gif""</stim_listB>",is meeting,
null,"<div style=""font-size:60px;"">+</div>",,html-keyboard-response,180,1073613,0.0-15.0-0.13,52256,List2B,black,man,,,,null,,,,
null,"<img src=""stim_listB/dance7.gif""</stim_listB>",,html-keyboard-response,181,1075615,0.0-15.0-1.13,52256,List2B,black,man,,,,null,,,,
null,is dancing with,,html-keyboard-response,182,1077617,0.0-15.0-2.13,52256,List2B,black,man,,,,null,,,,
7232,,,survey-text,183,1084853,0.0-15.0-3.13,52256,List2B,black,man,,,,,"{""Q0"":""kate is dancing with ruth""}","<img src=""stim_listB/dance7.gif""</stim_listB>",is dancing with,
null,"<div style=""font-size:60px;"">+</div>",,html-keyboard-response,184,1085356,0.0-15.0-0.14,52256,List2B,black,man,,,,null,,,,
null,"<img src=""stim_listB/meet4.gif""</stim_listB>",,html-keyboard-response,185,1087359,0.0-15.0-1.14,52256,List2B,black,man,,,,null,,,,
null,are meeting each other,,html-keyboard-response,186,1089361,0.0-15.0-2.14,52256,List2B,black,man,,,,null,,,,
10982,,,survey-text,187,1100345,0.0-15.0-3.14,52256,List2B,black,man,,,,,"{""Q0"":""beth and fred are meeting each other""}","<img src=""stim_listB/meet4.gif""</stim_listB>",are meeting each other,
null,"<div style=""font-size:60px;"">+</div>",,html-keyboard-response,188,1100847,0.0-15.0-0.15,52256,List2B,black,man,,,,null,,,,
null,"<img src=""stim_listB/fight5.gif""</stim_listB>",,html-keyboard-response,189,1102849,0.0-15.0-1.15,52256,List2B,black,man,,,,null,,,,
null,is fighting,,html-keyboard-response,190,1104852,0.0-15.0-2.15,52256,List2B,black,man,,,,null,,,,
12125,,,survey-text,191,1116978,0.0-15.0-3.15,52256,List2B,black,man,,,,,"{""Q0"":""mike is fight dave""}","<img src=""stim_listB/fight5.gif""</stim_listB>",is fighting,
null,"<div style=""font-size:60px;"">+</div>",,html-keyboard-response,192,1117480,0.0-15.0-0.16,52256,List2B,black,man,,,,null,,,,
null,"<img src=""stim_listB/meet2.gif""</stim_listB>",,html-keyboard-response,193,1119483,0.0-15.0-1.16,52256,List2B,black,man,,,,null,,,,
null,are meeting each other,,html-keyboard-response,194,1121485,0.0-15.0-2.16,52256,List2B,black,man,,,,null,,,,
10146,,,survey-text,195,1131633,0.0-15.0-3.16,52256,List2B,black,man,,,,,"{""Q0"":""luke and ruth are meeting each other""}","<img src=""stim_listB/meet2.gif""</stim_listB>",are meeting each other,
null,"<div style=""font-size:60px;"">+</div>",,html-keyboard-response,196,1132135,0.0-15.0-0.17,52256,List2B,black,man,,,,null,,,,
null,"<img src=""stim_listB/dance5.gif""</stim_listB>",,html-keyboard-response,197,1134137,0.0-15.0-1.17,52256,List2B,black,man,,,,null,,,,
null,is dancing with,,html-keyboard-response,198,1136139,0.0-15.0-2.17,52256,List2B,black,man,,,,null,,,,
6886,,,survey-text,199,1143028,0.0-15.0-3.17,52256,List2B,black,man,,,,,"{""Q0"":""luke is dancing with mike""}","<img src=""stim_listB/dance5.gif""</stim_listB>",is dancing with,
null,"<div style=""font-size:60px;"">+</div>",,html-keyboard-response,200,1143531,0.0-15.0-0.18,52256,List2B,black,man,,,,null,,,,
null,"<img src=""stim_listB/kiss3.gif""</stim_listB>",,html-keyboard-response,201,1145533,0.0-15.0-1.18,52256,List2B,black,man,,,,null,,,,
null,is kissing,,html-keyboard-response,202,1147535,0.0-15.0-2.18,52256,List2B,black,man,,,,null,,,,
5951,,,survey-text,203,1153487,0.0-15.0-3.18,52256,List2B,black,man,,,,,"{""Q0"":""beth is kissing fred""}","<img src=""stim_listB/kiss3.gif""</stim_listB>",is kissing,
null,"<div style=""font-size:60px;"">+</div>",,html-keyboard-response,204,1153990,0.0-15.0-0.19,52256,List2B,black,man,,,,null,,,,
null,"<img src=""stim_listB/talk4.gif""</stim_listB>",,html-keyboard-response,205,1155992,0.0-15.0-1.19,52256,List2B,black,man,,,,null,,,,
null,are talking to each other,,html-keyboard-response,206,1157994,0.0-15.0-2.19,52256,List2B,black,man,,,,null,,,,
12364,,,survey-text,207,1170360,0.0-15.0-3.19,52256,List2B,black,man,,,,,"{""Q0"":""mike and beth are talking to each other""}","<img src=""stim_listB/talk4.gif""</stim_listB>",are talking to each other,
12467,"<img src='img/portrait_matrix_list2.JPG' style='width:900px;height:500px;''></img><p>If you have memorised all the portraits and names and are ready to start, press Continue.</p><p><strong>Please note: Your memory of these faces will be tested 4 times during this experiment.</strong></p>",0,html-button-response,208,1182832,0.0-16.0-0.0,52256,List2B,black,man,,,,,,,,
5175,"<img src=""portrait/WW1.jpg""style=""width:400px;height:400px;""></img>",1,html-button-response,209,1189010,0.0-16.0-1.0,52256,List2B,black,man,,TRUE,1,,,,,
null,CORRECT,,html-keyboard-response,210,1190513,0.0-16.0-2.0-0.0,52256,List2B,black,man,,,,null,,,,
1814,"<img src=""portrait/BM2.jpg""style=""width:400px;height:400px;""></img>",5,html-button-response,211,1192328,0.0-16.0-4.0,52256,List2B,black,man,,TRUE,5,,,,,
null,CORRECT,,html-keyboard-response,212,1193832,0.0-16.0-5.0-0.0,52256,List2B,black,man,,,,null,,,,
1534,"<img src=""portrait/WM2.jpg""style=""width:400px;height:400px;""></img>",7,html-button-response,213,1195367,0.0-16.0-7.0,52256,List2B,black,man,,TRUE,7,,,,,
null,CORRECT,,html-keyboard-response,214,1196870,0.0-16.0-8.0-0.0,52256,List2B,black,man,,,,null,,,,
2627,"<img src=""portrait/WW2.jpg""style=""width:400px;height:400px;""></img>",3,html-button-response,215,1199500,0.0-16.0-10.0,52256,List2B,black,man,,TRUE,3,,,,,
null,CORRECT,,html-keyboard-response,216,1201003,0.0-16.0-11.0-0.0,52256,List2B,black,man,,,,null,,,,
2066,"<img src=""portrait/BW2.jpg""style=""width:400px;height:400px;""></img>",2,html-button-response,217,1203071,0.0-16.0-13.0,52256,List2B,black,man,,TRUE,2,,,,,
null,CORRECT,,html-keyboard-response,218,1204574,0.0-16.0-14.0-0.0,52256,List2B,black,man,,,,null,,,,
2175,"<img src=""portrait/WM1.jpg""style=""width:400px;height:400px;""></img>",6,html-button-response,219,1206751,0.0-16.0-16.0,52256,List2B,black,man,,TRUE,6,,,,,
null,CORRECT,,html-keyboard-response,220,1208254,0.0-16.0-17.0-0.0,52256,List2B,black,man,,,,null,,,,
2440,"<img src=""portrait/BM1.jpg""style=""width:400px;height:400px;""></img>",4,html-button-response,221,1210696,0.0-16.0-19.0,52256,List2B,black,man,,TRUE,4,,,,,
null,CORRECT,,html-keyboard-response,222,1212199,0.0-16.0-20.0-0.0,52256,List2B,black,man,,,,null,,,,
2045,"<img src=""portrait/BW1.jpg""style=""width:400px;height:400px;""></img>",0,html-button-response,223,1214249,0.0-16.0-22.0,52256,List2B,black,man,,TRUE,0,,,,,
null,CORRECT,,html-keyboard-response,224,1215752,0.0-16.0-23.0-0.0,52256,List2B,black,man,,,,null,,,,
2136,<p>You got 8 out of 8 right first time. Press Continue.</p>,0,html-button-response,225,1217889,0.0-16.0-25.0,52256,List2B,black,man,,,,,,,,
null,"<div style=""font-size:60px;"">+</div>",,html-keyboard-response,226,1219393,0.0-17.0-0.0,52256,List2B,black,man,,,,null,,,,
null,"<img src=""stim_listB/meet7.gif""</stim_listB>",,html-keyboard-response,227,1221396,0.0-17.0-1.0,52256,List2B,black,man,,,,null,,,,
null,is meeting,,html-keyboard-response,228,1223397,0.0-17.0-2.0,52256,List2B,black,man,,,,null,,,,
7348,,,survey-text,229,1230747,0.0-17.0-3.0,52256,List2B,black,man,,,,,"{""Q0"":""kate is meeting jane""}","<img src=""stim_listB/meet7.gif""</stim_listB>",is meeting,
null,"<div style=""font-size:60px;"">+</div>",,html-keyboard-response,230,1231248,0.0-17.0-0.1,52256,List2B,black,man,,,,null,,,,
null,"<img src=""stim_listB/argue1.gif""</stim_listB>",,html-keyboard-response,231,1233251,0.0-17.0-1.1,52256,List2B,black,man,,,,null,,,,
null,is arguing with,,html-keyboard-response,232,1235253,0.0-17.0-2.1,52256,List2B,black,man,,,,null,,,,
7854,,,survey-text,233,1243109,0.0-17.0-3.1,52256,List2B,black,man,,,,,"{""Q0"":""ruth is arguing with dave""}","<img src=""stim_listB/argue1.gif""</stim_listB>",is arguing with,
null,"<div style=""font-size:60px;"">+</div>",,html-keyboard-response,234,1243611,0.0-17.0-0.2,52256,List2B,black,man,,,,null,,,,
null,"<img src=""stim_listB/marry8.gif""</stim_listB>",,html-keyboard-response,235,1245614,0.0-17.0-1.2,52256,List2B,black,man,,,,null,,,,
null,are marrying each other,,html-keyboard-response,236,1247615,0.0-17.0-2.2,52256,List2B,black,man,,,,null,,,,
11496,,,survey-text,237,1259112,0.0-17.0-3.2,52256,List2B,black,man,,,,,"{""Q0"":""ruth and kate are marrying each other""}","<img src=""stim_listB/marry8.gif""</stim_listB>",are marrying each other,
null,"<div style=""font-size:60px;"">+</div>",,html-keyboard-response,238,1259614,0.0-17.0-0.3,52256,List2B,black,man,,,,null,,,,
null,"<img src=""stim_listB/touch1.gif""</stim_listB>",,html-keyboard-response,239,1261617,0.0-17.0-1.3,52256,List2B,black,man,,,,null,,,,
null,is touching,,html-keyboard-response,240,1263619,0.0-17.0-2.3,52256,List2B,black,man,,,,null,,,,
6949,,,survey-text,241,1270570,0.0-17.0-3.3,52256,List2B,black,man,,,,,"{""Q0"":""jane is touching dave""}","<img src=""stim_listB/touch1.gif""</stim_listB>",is touching,
null,"<div style=""font-size:60px;"">+</div>",,html-keyboard-response,242,1271072,0.0-17.0-0.4,52256,List2B,black,man,,,,null,,,,
null,"<img src=""stim_listB/argue7.gif""</stim_listB>",,html-keyboard-response,243,1273075,0.0-17.0-1.4,52256,List2B,black,man,,,,null,,,,
null,is arguing with,,html-keyboard-response,244,1275077,0.0-17.0-2.4,52256,List2B,black,man,,,,null,,,,
11049,,,survey-text,245,1286127,0.0-17.0-3.4,52256,List2B,black,man,,,,,"{""Q0"":""beth is arguing with jane""}","<img src=""stim_listB/argue7.gif""</stim_listB>",is arguing with,
null,"<div style=""font-size:60px;"">+</div>",,html-keyboard-response,246,1286629,0.0-17.0-0.5,52256,List2B,black,man,,,,null,,,,
null,"<img src=""stim_listB/kiss8.gif""</stim_listB>",,html-keyboard-response,247,1288632,0.0-17.0-1.5,52256,List2B,black,man,,,,null,,,,
null,are kissing each other,,html-keyboard-response,248,1290634,0.0-17.0-2.5,52256,List2B,black,man,,,,null,,,,
11269,,,survey-text,249,1301905,0.0-17.0-3.5,52256,List2B,black,man,,,,,"{""Q0"":""jane and kate are kissing each other""}","<img src=""stim_listB/kiss8.gif""</stim_listB>",are kissing each other,
null,"<div style=""font-size:60px;"">+</div>",,html-keyboard-response,250,1302407,0.0-17.0-0.6,52256,List2B,black,man,,,,null,,,,
null,"<img src=""stim_listB/shout8.gif""</stim_listB>",,html-keyboard-response,251,1304409,0.0-17.0-1.6,52256,List2B,black,man,,,,null,,,,
null,are shouting at each other,,html-keyboard-response,252,1306412,0.0-17.0-2.6,52256,List2B,black,man,,,,null,,,,
18440,,,survey-text,253,1324853,0.0-17.0-3.6,52256,List2B,black,man,,,,,"{""Q0"":""jane and kate are arguing with each other""}","<img src=""stim_listB/shout8.gif""</stim_listB>",are shouting at each other,
null,"<div style=""font-size:60px;"">+</div>",,html-keyboard-response,254,1325356,0.0-17.0-0.7,52256,List2B,black,man,,,,null,,,,
null,"<img src=""stim_listB/dance6.gif""</stim_listB>",,html-keyboard-response,255,1327358,0.0-17.0-1.7,52256,List2B,black,man,,,,null,,,,
null,are dancing with each other,,html-keyboard-response,256,1329360,0.0-17.0-2.7,52256,List2B,black,man,,,,null,,,,
14237,,,survey-text,257,1343599,0.0-17.0-3.7,52256,List2B,black,man,,,,,"{""Q0"":""fredd and dave are dancing with each other""}","<img src=""stim_listB/dance6.gif""</stim_listB>",are dancing with each other,
null,"<div style=""font-size:60px;"">+</div>",,html-keyboard-response,258,1344101,0.0-17.0-0.8,52256,List2B,black,man,,,,null,,,,
null,"<img src=""stim_listB/shout4.gif""</stim_listB>",,html-keyboard-response,259,1346103,0.0-17.0-1.8,52256,List2B,black,man,,,,null,,,,
null,are shouting at each other,,html-keyboard-response,260,1348105,0.0-17.0-2.8,52256,List2B,black,man,,,,null,,,,
10446,,,survey-text,261,1358553,0.0-17.0-3.8,52256,List2B,black,man,,,,,"{""Q0"":""mike and kate are shouting at each other""}","<img src=""stim_listB/shout4.gif""</stim_listB>",are shouting at each other,
null,"<div style=""font-size:60px;"">+</div>",,html-keyboard-response,262,1359055,0.0-17.0-0.9,52256,List2B,black,man,,,,null,,,,
null,"<img src=""stim_listB/fight2.gif""</stim_listB>",,html-keyboard-response,263,1361057,0.0-17.0-1.9,52256,List2B,black,man,,,,null,,,,
null,are fighting each other,,html-keyboard-response,264,1363060,0.0-17.0-2.9,52256,List2B,black,man,,,,null,,,,
15250,,,survey-text,265,1378314,0.0-17.0-3.9,52256,List2B,black,man,,,,,"{""Q0"":""luke and ruth are fighting each other""}","<img src=""stim_listB/fight2.gif""</stim_listB>",are fighting each other,
null,"<div style=""font-size:60px;"">+</div>",,html-keyboard-response,266,1378817,0.0-17.0-0.10,52256,List2B,black,man,,,,null,,,,
null,"<img src=""stim_listB/marry3.gif""</stim_listB>",,html-keyboard-response,267,1380820,0.0-17.0-1.10,52256,List2B,black,man,,,,null,,,,
null,is marrying,,html-keyboard-response,268,1382822,0.0-17.0-2.10,52256,List2B,black,man,,,,null,,,,
6666,,,survey-text,269,1389490,0.0-17.0-3.10,52256,List2B,black,man,,,,,"{""Q0"":""beth is marrying mike""}","<img src=""stim_listB/marry3.gif""</stim_listB>",is marrying,
null,"<div style=""font-size:60px;"">+</div>",,html-keyboard-response,270,1389991,0.0-17.0-0.11,52256,List2B,black,man,,,,null,,,,
null,"<img src=""stim_listB/shout1.gif""</stim_listB>",,html-keyboard-response,271,1391994,0.0-17.0-1.11,52256,List2B,black,man,,,,null,,,,
null,is shouting at,,html-keyboard-response,272,1393996,0.0-17.0-2.11,52256,List2B,black,man,,,,null,,,,
8119,,,survey-text,273,1402119,0.0-17.0-3.11,52256,List2B,black,man,,,,,"{""Q0"":""ruth is shouting at luke""}","<img src=""stim_listB/shout1.gif""</stim_listB>",is shouting at,
null,"<div style=""font-size:60px;"">+</div>",,html-keyboard-response,274,1402621,0.0-17.0-0.12,52256,List2B,black,man,,,,null,,,,
null,"<img src=""stim_listB/kiss7.gif""</stim_listB>",,html-keyboard-response,275,1404624,0.0-17.0-1.12,52256,List2B,black,man,,,,null,,,,
null,is kissing,,html-keyboard-response,276,1406626,0.0-17.0-2.12,52256,List2B,black,man,,,,null,,,,
7428,,,survey-text,277,1414055,0.0-17.0-3.12,52256,List2B,black,man,,,,,"{""Q0"":""beth is kissing ruth""}","<img src=""stim_listB/kiss7.gif""</stim_listB>",is kissing,
null,"<div style=""font-size:60px;"">+</div>",,html-keyboard-response,278,1414557,0.0-17.0-0.13,52256,List2B,black,man,,,,null,,,,
null,"<img src=""stim_listB/talk1.gif""</stim_listB>",,html-keyboard-response,279,1416560,0.0-17.0-1.13,52256,List2B,black,man,,,,null,,,,
null,is talking to,,html-keyboard-response,280,1418562,0.0-17.0-2.13,52256,List2B,black,man,,,,null,,,,
7157,,,survey-text,281,1425720,0.0-17.0-3.13,52256,List2B,black,man,,,,,"{""Q0"":""jane is talking to luke""}","<img src=""stim_listB/talk1.gif""</stim_listB>",is talking to,
null,"<div style=""font-size:60px;"">+</div>",,html-keyboard-response,282,1426223,0.0-17.0-0.14,52256,List2B,black,man,,,,null,,,,
null,"<img src=""stim_listB/argue3.gif""</stim_listB>",,html-keyboard-response,283,1428225,0.0-17.0-1.14,52256,List2B,black,man,,,,null,,,,
null,is arguing with,,html-keyboard-response,284,1430227,0.0-17.0-2.14,52256,List2B,black,man,,,,null,,,,
10859,,,survey-text,285,1441088,0.0-17.0-3.14,52256,List2B,black,man,,,,,"{""Q0"":""beth is arguing with mike""}","<img src=""stim_listB/argue3.gif""</stim_listB>",is arguing with,
null,"<div style=""font-size:60px;"">+</div>",,html-keyboard-response,286,1441589,0.0-17.0-0.15,52256,List2B,black,man,,,,null,,,,
null,"<img src=""stim_listB/fight7.gif""</stim_listB>",,html-keyboard-response,287,1443592,0.0-17.0-1.15,52256,List2B,black,man,,,,null,,,,
null,is fighting,,html-keyboard-response,288,1445594,0.0-17.0-2.15,52256,List2B,black,man,,,,null,,,,
16753,,,survey-text,289,1462349,0.0-17.0-3.15,52256,List2B,black,man,,,,,"{""Q0"":""kate is fighting jane""}","<img src=""stim_listB/fight7.gif""</stim_listB>",is fighting,
null,"<div style=""font-size:60px;"">+</div>",,html-keyboard-response,290,1462851,0.0-17.0-0.16,52256,List2B,black,man,,,,null,,,,
null,"<img src=""stim_listB/fight3.gif""</stim_listB>",,html-keyboard-response,291,1464853,0.0-17.0-1.16,52256,List2B,black,man,,,,null,,,,
null,is fighting,,html-keyboard-response,292,1466856,0.0-17.0-2.16,52256,List2B,black,man,,,,null,,,,
9392,,,survey-text,293,1476249,0.0-17.0-3.16,52256,List2B,black,man,,,,,"{""Q0"":""kate is fighting mike""}","<img src=""stim_listB/fight3.gif""</stim_listB>",is fighting,
null,"<div style=""font-size:60px;"">+</div>",,html-keyboard-response,294,1476751,0.0-17.0-0.17,52256,List2B,black,man,,,,null,,,,
null,"<img src=""stim_listB/dance3.gif""</stim_listB>",,html-keyboard-response,295,1478753,0.0-17.0-1.17,52256,List2B,black,man,,,,null,,,,
null,is dancing with,,html-keyboard-response,296,1480755,0.0-17.0-2.17,52256,List2B,black,man,,,,null,,,,
7043,,,survey-text,297,1487799,0.0-17.0-3.17,52256,List2B,black,man,,,,,"{""Q0"":""kate is dancing with fred""}","<img src=""stim_listB/dance3.gif""</stim_listB>",is dancing with,
null,"<div style=""font-size:60px;"">+</div>",,html-keyboard-response,298,1488301,0.0-17.0-0.18,52256,List2B,black,man,,,,null,,,,
null,"<img src=""stim_listB/kiss1.gif""</stim_listB>",,html-keyboard-response,299,1490304,0.0-17.0-1.18,52256,List2B,black,man,,,,null,,,,
null,is kissing,,html-keyboard-response,300,1492306,0.0-17.0-2.18,52256,List2B,black,man,,,,null,,,,
7870,,,survey-text,301,1500177,0.0-17.0-3.18,52256,List2B,black,man,,,,,"{""Q0"":""luke is kissing ruth""}","<img src=""stim_listB/kiss1.gif""</stim_listB>",is kissing,
null,"<div style=""font-size:60px;"">+</div>",,html-keyboard-response,302,1500679,0.0-17.0-0.19,52256,List2B,black,man,,,,null,,,,
null,"<img src=""stim_listB/touch7.gif""</stim_listB>",,html-keyboard-response,303,1502682,0.0-17.0-1.19,52256,List2B,black,man,,,,null,,,,
null,is touching,,html-keyboard-response,304,1504684,0.0-17.0-2.19,52256,List2B,black,man,,,,null,,,,
8397,,,survey-text,305,1513082,0.0-17.0-3.19,52256,List2B,black,man,,,,,"{""Q0"":""kate is touching jane""}","<img src=""stim_listB/touch7.gif""</stim_listB>",is touching,
2443,"<img src='img/portrait_matrix_list2.JPG' style='width:900px;height:500px;''></img><p>If you have memorised all the portraits and names and are ready to start, press Continue.</p><p><strong>Please note: Your memory of these faces will be tested 4 times during this experiment.</strong></p>",0,html-button-response,306,1515527,0.0-18.0-0.0,52256,List2B,black,man,,,,,,,,
1262,"<img src=""portrait/WW2.jpg""style=""width:400px;height:400px;""></img>",3,html-button-response,307,1517792,0.0-18.0-1.0,52256,List2B,black,man,,TRUE,3,,,,,
null,CORRECT,,html-keyboard-response,308,1519295,0.0-18.0-2.0-0.0,52256,List2B,black,man,,,,null,,,,
1831,"<img src=""portrait/WW1.jpg""style=""width:400px;height:400px;""></img>",1,html-button-response,309,1521132,0.0-18.0-4.0,52256,List2B,black,man,,TRUE,1,,,,,
null,CORRECT,,html-keyboard-response,310,1522635,0.0-18.0-5.0-0.0,52256,List2B,black,man,,,,null,,,,
1570,"<img src=""portrait/BM1.jpg""style=""width:400px;height:400px;""></img>",4,html-button-response,311,1524207,0.0-18.0-7.0,52256,List2B,black,man,,TRUE,4,,,,,
null,CORRECT,,html-keyboard-response,312,1525710,0.0-18.0-8.0-0.0,52256,List2B,black,man,,,,null,,,,
2556,"<img src=""portrait/WM2.jpg""style=""width:400px;height:400px;""></img>",7,html-button-response,313,1528267,0.0-18.0-10.0,52256,List2B,black,man,,TRUE,7,,,,,
null,CORRECT,,html-keyboard-response,314,1529771,0.0-18.0-11.0-0.0,52256,List2B,black,man,,,,null,,,,
1105,"<img src=""portrait/WM1.jpg""style=""width:400px;height:400px;""></img>",6,html-button-response,315,1530877,0.0-18.0-13.0,52256,List2B,black,man,,TRUE,6,,,,,
null,CORRECT,,html-keyboard-response,316,1532379,0.0-18.0-14.0-0.0,52256,List2B,black,man,,,,null,,,,
1807,"<img src=""portrait/BW2.jpg""style=""width:400px;height:400px;""></img>",2,html-button-response,317,1534189,0.0-18.0-16.0,52256,List2B,black,man,,TRUE,2,,,,,
null,CORRECT,,html-keyboard-response,318,1535691,0.0-18.0-17.0-0.0,52256,List2B,black,man,,,,null,,,,
1764,"<img src=""portrait/BM2.jpg""style=""width:400px;height:400px;""></img>",5,html-button-response,319,1537458,0.0-18.0-19.0,52256,List2B,black,man,,TRUE,5,,,,,
null,CORRECT,,html-keyboard-response,320,1538961,0.0-18.0-20.0-0.0,52256,List2B,black,man,,,,null,,,,
1581,"<img src=""portrait/BW1.jpg""style=""width:400px;height:400px;""></img>",0,html-button-response,321,1540543,0.0-18.0-22.0,52256,List2B,black,man,,TRUE,0,,,,,
null,CORRECT,,html-keyboard-response,322,1542047,0.0-18.0-23.0-0.0,52256,List2B,black,man,,,,null,,,,
2026,<p>You got 8 out of 8 right first time. Press Continue.</p>,0,html-button-response,323,1544074,0.0-18.0-25.0,52256,List2B,black,man,,,,,,,,
null,"<div style=""font-size:60px;"">+</div>",,html-keyboard-response,324,1545577,0.0-19.0-0.0,52256,List2B,black,man,,,,null,,,,
null,"<img src=""stim_listB/shout2.gif""</stim_listB>",,html-keyboard-response,325,1547580,0.0-19.0-1.0,52256,List2B,black,man,,,,null,,,,
null,are shouting at each other,,html-keyboard-response,326,1549582,0.0-19.0-2.0,52256,List2B,black,man,,,,null,,,,
11357,,,survey-text,327,1560940,0.0-19.0-3.0,52256,List2B,black,man,,,,,"{""Q0"":""dave and jane are shouting at each other""}","<img src=""stim_listB/shout2.gif""</stim_listB>",are shouting at each other,
null,"<div style=""font-size:60px;"">+</div>",,html-keyboard-response,328,1561442,0.0-19.0-0.1,52256,List2B,black,man,,,,null,,,,
null,"<img src=""stim_listB/hug7.gif""</stim_listB>",,html-keyboard-response,329,1563445,0.0-19.0-1.1,52256,List2B,black,man,,,,null,,,,
null,is hugging,,html-keyboard-response,330,1565447,0.0-19.0-2.1,52256,List2B,black,man,,,,null,,,,
5673,,,survey-text,331,1571122,0.0-19.0-3.1,52256,List2B,black,man,,,,,"{""Q0"":""beth is hugging ruth""}","<img src=""stim_listB/hug7.gif""</stim_listB>",is hugging,
null,"<div style=""font-size:60px;"">+</div>",,html-keyboard-response,332,1571627,0.0-19.0-0.2,52256,List2B,black,man,,,,null,,,,
null,"<img src=""stim_listB/talk6.gif""</stim_listB>",,html-keyboard-response,333,1573630,0.0-19.0-1.2,52256,List2B,black,man,,,,null,,,,
null,are talking to each other,,html-keyboard-response,334,1575632,0.0-19.0-2.2,52256,List2B,black,man,,,,null,,,,
9391,,,survey-text,335,1585024,0.0-19.0-3.2,52256,List2B,black,man,,,,,"{""Q0"":""dave and fred are talking to each other""}","<img src=""stim_listB/talk6.gif""</stim_listB>",are talking to each other,
null,"<div style=""font-size:60px;"">+</div>",,html-keyboard-response,336,1585526,0.0-19.0-0.3,52256,List2B,black,man,,,,null,,,,
null,"<img src=""stim_listB/hug6.gif""</stim_listB>",,html-keyboard-response,337,1587529,0.0-19.0-1.3,52256,List2B,black,man,,,,null,,,,
null,are hugging each other,,html-keyboard-response,338,1589531,0.0-19.0-2.3,52256,List2B,black,man,,,,null,,,,
14960,,,survey-text,339,1604493,0.0-19.0-3.3,52256,List2B,black,man,,,,,"{""Q0"":""mike and dave are hugging each other""}","<img src=""stim_listB/hug6.gif""</stim_listB>",are hugging each other,
null,"<div style=""font-size:60px;"">+</div>",,html-keyboard-response,340,1604995,0.0-19.0-0.4,52256,List2B,black,man,,,,null,,,,
null,"<img src=""stim_listB/meet8.gif""</stim_listB>",,html-keyboard-response,341,1606998,0.0-19.0-1.4,52256,List2B,black,man,,,,null,,,,
null,are meeting each other,,html-keyboard-response,342,1609000,0.0-19.0-2.4,52256,List2B,black,man,,,,null,,,,
11819,,,survey-text,343,1620820,0.0-19.0-3.4,52256,List2B,black,man,,,,,"{""Q0"":""ruth and beth are meeting each other""}","<img src=""stim_listB/meet8.gif""</stim_listB>",are meeting each other,
null,"<div style=""font-size:60px;"">+</div>",,html-keyboard-response,344,1621322,0.0-19.0-0.5,52256,List2B,black,man,,,,null,,,,
null,"<img src=""stim_listB/dance4.gif""</stim_listB>",,html-keyboard-response,345,1623324,0.0-19.0-1.5,52256,List2B,black,man,,,,null,,,,
null,are dancing with each other,,html-keyboard-response,346,1625326,0.0-19.0-2.5,52256,List2B,black,man,,,,null,,,,
12100,,,survey-text,347,1637427,0.0-19.0-3.5,52256,List2B,black,man,,,,,"{""Q0"":""mike and beth are dancing with each other""}","<img src=""stim_listB/dance4.gif""</stim_listB>",are dancing with each other,
null,"<div style=""font-size:60px;"">+</div>",,html-keyboard-response,348,1637930,0.0-19.0-0.6,52256,List2B,black,man,,,,null,,,,
null,"<img src=""stim_listB/touch6.gif""</stim_listB>",,html-keyboard-response,349,1639932,0.0-19.0-1.6,52256,List2B,black,man,,,,null,,,,
null,are touching each other,,html-keyboard-response,350,1641934,0.0-19.0-2.6,52256,List2B,black,man,,,,null,,,,
10100,,,survey-text,351,1652035,0.0-19.0-3.6,52256,List2B,black,man,,,,,"{""Q0"":""luke and fred are touching each other""}","<img src=""stim_listB/touch6.gif""</stim_listB>",are touching each other,
null,"<div style=""font-size:60px;"">+</div>",,html-keyboard-response,352,1652537,0.0-19.0-0.7,52256,List2B,black,man,,,,null,,,,
null,"<img src=""stim_listB/meet6.gif""</stim_listB>",,html-keyboard-response,353,1654540,0.0-19.0-1.7,52256,List2B,black,man,,,,null,,,,
null,are meeting each other,,html-keyboard-response,354,1656542,0.0-19.0-2.7,52256,List2B,black,man,,,,null,,,,
8423,,,survey-text,355,1664967,0.0-19.0-3.7,52256,List2B,black,man,,,,,"{""Q0"":""uke and fred are meeting each other""}","<img src=""stim_listB/meet6.gif""</stim_listB>",are meeting each other,
null,"<div style=""font-size:60px;"">+</div>",,html-keyboard-response,356,1665469,0.0-19.0-0.8,52256,List2B,black,man,,,,null,,,,
null,"<img src=""stim_listB/fight8.gif""</stim_listB>",,html-keyboard-response,357,1667472,0.0-19.0-1.8,52256,List2B,black,man,,,,null,,,,
null,are fighting each other,,html-keyboard-response,358,1669474,0.0-19.0-2.8,52256,List2B,black,man,,,,null,,,,
10556,,,survey-text,359,1680031,0.0-19.0-3.8,52256,List2B,black,man,,,,,"{""Q0"":""beth and ruth are fighting each other""}","<img src=""stim_listB/fight8.gif""</stim_listB>",are fighting each other,
null,"<div style=""font-size:60px;"">+</div>",,html-keyboard-response,360,1680533,0.0-19.0-0.9,52256,List2B,black,man,,,,null,,,,
null,"<img src=""stim_listB/talk5.gif""</stim_listB>",,html-keyboard-response,361,1682535,0.0-19.0-1.9,52256,List2B,black,man,,,,null,,,,
null,is talking to,,html-keyboard-response,362,1684537,0.0-19.0-2.9,52256,List2B,black,man,,,,null,,,,
9492,,,survey-text,363,1694030,0.0-19.0-3.9,52256,List2B,black,man,,,,,"{""Q0"":""mike is talking to luke""}","<img src=""stim_listB/talk5.gif""</stim_listB>",is talking to,
null,"<div style=""font-size:60px;"">+</div>",,html-keyboard-response,364,1694532,0.0-19.0-0.10,52256,List2B,black,man,,,,null,,,,
null,"<img src=""stim_listB/hug1.gif""</stim_listB>",,html-keyboard-response,365,1696538,0.0-19.0-1.10,52256,List2B,black,man,,,,null,,,,
null,is hugging,,html-keyboard-response,366,1698539,0.0-19.0-2.10,52256,List2B,black,man,,,,null,,,,
8777,,,survey-text,367,1707318,0.0-19.0-3.10,52256,List2B,black,man,,,,,"{""Q0"":""luke is hugging ruth""}","<img src=""stim_listB/hug1.gif""</stim_listB>",is hugging,
null,"<div style=""font-size:60px;"">+</div>",,html-keyboard-response,368,1707820,0.0-19.0-0.11,52256,List2B,black,man,,,,null,,,,
null,"<img src=""stim_listB/kiss4.gif""</stim_listB>",,html-keyboard-response,369,1709822,0.0-19.0-1.11,52256,List2B,black,man,,,,null,,,,
null,are kissing each other,,html-keyboard-response,370,1711825,0.0-19.0-2.11,52256,List2B,black,man,,,,null,,,,
9651,,,survey-text,371,1721477,0.0-19.0-3.11,52256,List2B,black,man,,,,,"{""Q0"":""mike and kate are kissing each other""}","<img src=""stim_listB/kiss4.gif""</stim_listB>",are kissing each other,
null,"<div style=""font-size:60px;"">+</div>",,html-keyboard-response,372,1721979,0.0-19.0-0.12,52256,List2B,black,man,,,,null,,,,
null,"<img src=""stim_listB/shout3.gif""</stim_listB>",,html-keyboard-response,373,1723981,0.0-19.0-1.12,52256,List2B,black,man,,,,null,,,,
null,is shouting at,,html-keyboard-response,374,1725983,0.0-19.0-2.12,52256,List2B,black,man,,,,null,,,,
7502,,,survey-text,375,1733487,0.0-19.0-3.12,52256,List2B,black,man,,,,,"{""Q0"":""fred is shouting at beth""}","<img src=""stim_listB/shout3.gif""</stim_listB>",is shouting at,
null,"<div style=""font-size:60px;"">+</div>",,html-keyboard-response,376,1733989,0.0-19.0-0.13,52256,List2B,black,man,,,,null,,,,
null,"<img src=""stim_listB/hug3.gif""</stim_listB>",,html-keyboard-response,377,1735995,0.0-19.0-1.13,52256,List2B,black,man,,,,null,,,,
null,is hugging,,html-keyboard-response,378,1737998,0.0-19.0-2.13,52256,List2B,black,man,,,,null,,,,
9113,,,survey-text,379,1747112,0.0-19.0-3.13,52256,List2B,black,man,,,,,"{""Q0"":""fred is hugging beth""}","<img src=""stim_listB/hug3.gif""</stim_listB>",is hugging,
null,"<div style=""font-size:60px;"">+</div>",,html-keyboard-response,380,1747614,0.0-19.0-0.14,52256,List2B,black,man,,,,null,,,,
null,"<img src=""stim_listB/touch5.gif""</stim_listB>",,html-keyboard-response,381,1749617,0.0-19.0-1.14,52256,List2B,black,man,,,,null,,,,
null,is touching,,html-keyboard-response,382,1751619,0.0-19.0-2.14,52256,List2B,black,man,,,,null,,,,
6637,,,survey-text,383,1758257,0.0-19.0-3.14,52256,List2B,black,man,,,,,"{""Q0"":""mike is touching dave""}","<img src=""stim_listB/touch5.gif""</stim_listB>",is touching,
null,"<div style=""font-size:60px;"">+</div>",,html-keyboard-response,384,1758759,0.0-19.0-0.15,52256,List2B,black,man,,,,null,,,,
null,"<img src=""stim_listB/touch3.gif""</stim_listB>",,html-keyboard-response,385,1760761,0.0-19.0-1.15,52256,List2B,black,man,,,,null,,,,
null,is touching,,html-keyboard-response,386,1762763,0.0-19.0-2.15,52256,List2B,black,man,,,,null,,,,
6398,,,survey-text,387,1769163,0.0-19.0-3.15,52256,List2B,black,man,,,,,"{""Q0"":""kate is touching mike""}","<img src=""stim_listB/touch3.gif""</stim_listB>",is touching,
null,"<div style=""font-size:60px;"">+</div>",,html-keyboard-response,388,1769664,0.0-19.0-0.16,52256,List2B,black,man,,,,null,,,,
null,"<img src=""stim_listB/talk3.gif""</stim_listB>",,html-keyboard-response,389,1771667,0.0-19.0-1.16,52256,List2B,black,man,,,,null,,,,
null,is talking to,,html-keyboard-response,390,1773669,0.0-19.0-2.16,52256,List2B,black,man,,,,null,,,,
7266,,,survey-text,391,1780937,0.0-19.0-3.16,52256,List2B,black,man,,,,,"{""Q0"":""fred is talking to kate""}","<img src=""stim_listB/talk3.gif""</stim_listB>",is talking to,
null,"<div style=""font-size:60px;"">+</div>",,html-keyboard-response,392,1781439,0.0-19.0-0.17,52256,List2B,black,man,,,,null,,,,
null,"<img src=""stim_listB/fight4.gif""</stim_listB>",,html-keyboard-response,393,1783441,0.0-19.0-1.17,52256,List2B,black,man,,,,null,,,,
null,are fighting each other,,html-keyboard-response,394,1785444,0.0-19.0-2.17,52256,List2B,black,man,,,,null,,,,
11982,,,survey-text,395,1797427,0.0-19.0-3.17,52256,List2B,black,man,,,,,"{""Q0"":""fred and beth are fighting each other""}","<img src=""stim_listB/fight4.gif""</stim_listB>",are fighting each other,
null,"<div style=""font-size:60px;"">+</div>",,html-keyboard-response,396,1797929,0.0-19.0-0.18,52256,List2B,black,man,,,,null,,,,
null,"<img src=""stim_listB/meet3.gif""</stim_listB>",,html-keyboard-response,397,1799932,0.0-19.0-1.18,52256,List2B,black,man,,,,null,,,,
null,is meeting,,html-keyboard-response,398,1801934,0.0-19.0-2.18,52256,List2B,black,man,,,,null,,,,
6235,,,survey-text,399,1808171,0.0-19.0-3.18,52256,List2B,black,man,,,,,"{""Q0"":""kate is meeting mike""}","<img src=""stim_listB/meet3.gif""</stim_listB>",is meeting,
null,"<div style=""font-size:60px;"">+</div>",,html-keyboard-response,400,1808673,0.0-19.0-0.19,52256,List2B,black,man,,,,null,,,,
null,"<img src=""stim_listB/talk2.gif""</stim_listB>",,html-keyboard-response,401,1810675,0.0-19.0-1.19,52256,List2B,black,man,,,,null,,,,
null,are talking to each other,,html-keyboard-response,402,1812676,0.0-19.0-2.19,52256,List2B,black,man,,,,null,,,,
13813,,,survey-text,403,1826491,0.0-19.0-3.19,52256,List2B,black,man,,,,,"{""Q0"":""dave and ruth are talking to each other""}","<img src=""stim_listB/talk2.gif""</stim_listB>",are talking to each other,
3650,<p>Thank you for completing that task.</p><p>The final part of this session is a short questionnaire.</p><p>Press Continue.</p>,0,html-button-response,404,1830142,0.0-20.0,52256,List2B,black,man,,,,,,,,
37157,,,survey-text,405,1868303,0.0-21.0,52256,List2B,black,man,,,,,"{""Q0"":""32"",""Q1"":""English"",""Q2"":""`English"",""Q3"":""United Kingdom"",""Q4"":""Black"",""Q5"":""Male""}",,,demographics
71454,,,survey-likert,406,1939764,0.0-22.0,52256,List2B,black,man,,,,,"{""Q0"":5,""Q1"":5,""Q2"":5,""Q3"":6,""Q4"":6,""Q5"":3,""Q6"":6,""Q7"":3,""Q8"":6,""Q9"":6,""Q10"":5,""Q11"":5,""Q12"":6,""Q13"":6}",,,likert_race
60087,,,survey-likert,407,1999857,0.0-23.0,52256,List2B,black,man,,,,,"{""Q0"":3,""Q1"":3,""Q2"":5,""Q3"":6,""Q4"":6,""Q5"":5,""Q6"":6,""Q7"":3,""Q8"":6,""Q9"":6,""Q10"":5,""Q11"":5,""Q12"":6,""Q13"":3}",,,likert_gender
12027,,,survey-text,408,2011888,0.0-24.0,52256,List2B,black,man,,,,,"{""Q0"":""ccc""}",,,worker_id
28156,,,external-html,409,2040136,0.0-25.0,52256,List2B,black,man,debrief.html,,,,,,,
