rt,stimulus,button_pressed,trial_type,trial_index,time_elapsed,internal_node_id,subject,list,ppt_race,ppt_gender,url,first_guess,correct,key_press,responses,image_type,phrase_type,test_part
1655,Welcome to the experiment. Press Continue to begin.,0,html-button-response,0,1658,0.0-0.0,52547,List2B,white,woman,,,,,,,,
26496,,,external-html,1,29208,0.0-1.0,52547,List2B,white,woman,consent.html,,,,,,,
2891,"<p>On the next page, you will see portraits of 8 people and their names.</p><p>Your first task is to take a few minutes to memorise the names of these people.</p><p>You will have to recall their names during the rest of the experiment, so it is</p><p>essential that you try to memorise these people and their names as best as you can.</p><br><p><strong>You will then be tested on your memory of these names and portraits.</strong></p><br><p>The experiment will start after you have completed this memory test.</p><br><p>Ready?</p>",0,html-button-response,2,32100,0.0-2.0,52547,List2B,white,woman,,,,,,,,
71075,"<img src='img/portrait_matrix_list2.JPG' style='width:900px;height:500px;''></img><p>If you have memorised all the portraits and names and are ready to start, press Continue.</p><p><strong>Please note: Your memory of these faces will be tested 4 times during this experiment.</strong></p>",0,html-button-response,3,104178,0.0-3.0-0.0,52547,List2B,white,woman,,,,,,,,
2872,"<img src=""portrait/BM2.jpg""style=""width:400px;height:400px;""></img>",5,html-button-response,4,108054,0.0-3.0-1.0,52547,List2B,white,woman,,TRUE,5,,,,,
null,CORRECT,,html-keyboard-response,5,109558,0.0-3.0-2.0-0.0,52547,List2B,white,woman,,,,null,,,,
4900,"<img src=""portrait/BW2.jpg""style=""width:400px;height:400px;""></img>",2,html-button-response,6,114461,0.0-3.0-4.0,52547,List2B,white,woman,,TRUE,2,,,,,
null,CORRECT,,html-keyboard-response,7,115964,0.0-3.0-5.0-0.0,52547,List2B,white,woman,,,,null,,,,
2860,"<img src=""portrait/WM1.jpg""style=""width:400px;height:400px;""></img>",6,html-button-response,8,118825,0.0-3.0-7.0,52547,List2B,white,woman,,TRUE,6,,,,,
null,CORRECT,,html-keyboard-response,9,120328,0.0-3.0-8.0-0.0,52547,List2B,white,woman,,,,null,,,,
3974,"<img src=""portrait/WM2.jpg""style=""width:400px;height:400px;""></img>",7,html-button-response,10,124305,0.0-3.0-10.0,52547,List2B,white,woman,,TRUE,7,,,,,
null,CORRECT,,html-keyboard-response,11,125808,0.0-3.0-11.0-0.0,52547,List2B,white,woman,,,,null,,,,
4250,"<img src=""portrait/WW1.jpg""style=""width:400px;height:400px;""></img>",1,html-button-response,12,130059,0.0-3.0-13.0,52547,List2B,white,woman,,TRUE,1,,,,,
null,CORRECT,,html-keyboard-response,13,131561,0.0-3.0-14.0-0.0,52547,List2B,white,woman,,,,null,,,,
1847,"<img src=""portrait/WW2.jpg""style=""width:400px;height:400px;""></img>",3,html-button-response,14,133409,0.0-3.0-16.0,52547,List2B,white,woman,,TRUE,3,,,,,
null,CORRECT,,html-keyboard-response,15,134912,0.0-3.0-17.0-0.0,52547,List2B,white,woman,,,,null,,,,
1909,"<img src=""portrait/BW1.jpg""style=""width:400px;height:400px;""></img>",0,html-button-response,16,136823,0.0-3.0-19.0,52547,List2B,white,woman,,TRUE,0,,,,,
null,CORRECT,,html-keyboard-response,17,138326,0.0-3.0-20.0-0.0,52547,List2B,white,woman,,,,null,,,,
4244,"<img src=""portrait/BM1.jpg""style=""width:400px;height:400px;""></img>",5,html-button-response,18,142573,0.0-3.0-22.0,52547,List2B,white,woman,,TRUE,4,,,,,
2872,"<img src=""portrait/BM1.jpg""style=""width:400px;height:400px;""></img>",4,html-button-response,19,146448,0.0-3.0-24.0-0.0,52547,List2B,white,woman,,FALSE,4,,,,,
null,CORRECT,,html-keyboard-response,20,147951,0.0-3.0-24.0-1.0-0.0,52547,List2B,white,woman,,,,null,,,,
1717,<p>You got 7 out of 8 right first time. Press Continue.</p>,0,html-button-response,21,149669,0.0-3.0-25.0,52547,List2B,white,woman,,,,,,,,
2132,"As you did not score 100%, the memory game will repeat. Press Continue.",0,html-button-response,22,152803,0.0-3.0-26.0-0.0,52547,List2B,white,woman,,,,,,,,
1806,"<img src='img/portrait_matrix_list2.JPG' style='width:900px;height:500px;''></img><p>If you have memorised all the portraits and names and are ready to start, press Continue.</p><p><strong>Please note: Your memory of these faces will be tested 4 times during this experiment.</strong></p>",0,html-button-response,23,155613,0.0-3.1-0.1,52547,List2B,white,woman,,,,,,,,
1767,"<img src=""portrait/BM2.jpg""style=""width:400px;height:400px;""></img>",5,html-button-response,24,158383,0.0-3.1-1.1,52547,List2B,white,woman,,TRUE,5,,,,,
null,CORRECT,,html-keyboard-response,25,159886,0.0-3.1-2.1-0.1,52547,List2B,white,woman,,,,null,,,,
2827,"<img src=""portrait/BW2.jpg""style=""width:400px;height:400px;""></img>",2,html-button-response,26,162714,0.0-3.1-4.1,52547,List2B,white,woman,,TRUE,2,,,,,
null,CORRECT,,html-keyboard-response,27,164217,0.0-3.1-5.1-0.1,52547,List2B,white,woman,,,,null,,,,
2179,"<img src=""portrait/WM1.jpg""style=""width:400px;height:400px;""></img>",6,html-button-response,28,166398,0.0-3.1-7.1,52547,List2B,white,woman,,TRUE,6,,,,,
null,CORRECT,,html-keyboard-response,29,167901,0.0-3.1-8.1-0.1,52547,List2B,white,woman,,,,null,,,,
1903,"<img src=""portrait/WM2.jpg""style=""width:400px;height:400px;""></img>",7,html-button-response,30,169805,0.0-3.1-10.1,52547,List2B,white,woman,,TRUE,7,,,,,
null,CORRECT,,html-keyboard-response,31,171308,0.0-3.1-11.1-0.1,52547,List2B,white,woman,,,,null,,,,
3439,"<img src=""portrait/WW1.jpg""style=""width:400px;height:400px;""></img>",1,html-button-response,32,174748,0.0-3.1-13.1,52547,List2B,white,woman,,TRUE,1,,,,,
null,CORRECT,,html-keyboard-response,33,176252,0.0-3.1-14.1-0.1,52547,List2B,white,woman,,,,null,,,,
1618,"<img src=""portrait/WW2.jpg""style=""width:400px;height:400px;""></img>",3,html-button-response,34,177871,0.0-3.1-16.1,52547,List2B,white,woman,,TRUE,3,,,,,
null,CORRECT,,html-keyboard-response,35,179374,0.0-3.1-17.1-0.1,52547,List2B,white,woman,,,,null,,,,
1296,"<img src=""portrait/BW1.jpg""style=""width:400px;height:400px;""></img>",0,html-button-response,36,180672,0.0-3.1-19.1,52547,List2B,white,woman,,TRUE,0,,,,,
null,CORRECT,,html-keyboard-response,37,182176,0.0-3.1-20.1-0.1,52547,List2B,white,woman,,,,null,,,,
1690,"<img src=""portrait/BM1.jpg""style=""width:400px;height:400px;""></img>",4,html-button-response,38,183866,0.0-3.1-22.1,52547,List2B,white,woman,,TRUE,4,,,,,
null,CORRECT,,html-keyboard-response,39,185370,0.0-3.1-23.1-0.1,52547,List2B,white,woman,,,,null,,,,
2611,<p>You got 8 out of 8 right first time. Press Continue.</p>,0,html-button-response,40,187982,0.0-3.1-25.1,52547,List2B,white,woman,,,,,,,,
16679,"<p>In this experiment, you will view photographs of the people from the memory game interacting.</p><p>By using the <strong>exact</strong> phrase given <i>after</i> the photograph appears and recalling the correct names of the people in the photographs, form a sentence describing the interaction. You do not need to capitalise names.</p><p>Type your answer in the space provided. Please complete every sentence before moving onto the next trial.</p><p>You will only have a few seconds to memorise each given photograph and phrase before you can respond, so try your best to focus.</p><p>An example is given below. Press 'Continue' when you are ready.</p><img src='img/speaking_example_v2.jpg' style='width:800px;height:460px;''></img>",0,html-button-response,41,205665,0.0-4.0,52547,List2B,white,woman,,,,,,,,
1744,"<p>Before the experiment starts, you will watch two example trials. Press 'Continue'.</p>",0,html-button-response,42,208409,0.0-5.0,52547,List2B,white,woman,,,,,,,,
null,<img src='img/speaking_WW.gif'></img>,,html-keyboard-response,43,211412,0.0-6.0,52547,List2B,white,woman,,,,null,,,,
null,<p>is speaking to</p>,,html-keyboard-response,44,213414,0.0-7.0,52547,List2B,white,woman,,,,null,,,,
2002,<p><b>Answer:</b> jane is speaking to ruth</p>,0,html-button-response,45,215416,0.0-8.0,52547,List2B,white,woman,,,,,,,,
null,<img src='img/pointing_BM.gif'></img>,,html-keyboard-response,46,218420,0.0-9.0,52547,List2B,white,woman,,,,null,,,,
null,<p>are pointing at each other</p>,,html-keyboard-response,47,220422,0.0-10.0,52547,List2B,white,woman,,,,null,,,,
2109,<p><b>Answer:</b> fred and mike are pointing at each other</p>,0,html-button-response,48,222531,0.0-11.0,52547,List2B,white,woman,,,,,,,,
1734,"<p>Ready to start the experiment?</p><br><p><strong>Remember to describe the picture using a full sentence,</strong></p><p><strong>that combines the names of the people with the given phrase.</strong></p><p><strong>If you do not do this correctly you will not be paid.</strong></p><p><strong> You do not need to capitalise names or use punctuation.</strong></p><br><p>Press 'Continue' to begin.</p>",0,html-button-response,49,225268,0.0-12.0,52547,List2B,white,woman,,,,,,,,
null,"<div style=""font-size:60px;"">+</div>",,html-keyboard-response,50,226771,0.0-13.0-0.0,52547,List2B,white,woman,,,,null,,,,
null,"<img src=""stim_listB/dance7.gif""</stim_listB>",,html-keyboard-response,51,228774,0.0-13.0-1.0,52547,List2B,white,woman,,,,null,,,,
null,is dancing with,,html-keyboard-response,52,230776,0.0-13.0-2.0,52547,List2B,white,woman,,,,null,,,,
14188,,,survey-text,53,244966,0.0-13.0-3.0,52547,List2B,white,woman,,,,,"{""Q0"":""ruth and kate are dancing with each other""}","<img src=""stim_listB/dance7.gif""</stim_listB>",is dancing with,
null,"<div style=""font-size:60px;"">+</div>",,html-keyboard-response,54,245468,0.0-13.0-0.1,52547,List2B,white,woman,,,,null,,,,
null,"<img src=""stim_listB/marry1.gif""</stim_listB>",,html-keyboard-response,55,247471,0.0-13.0-1.1,52547,List2B,white,woman,,,,null,,,,
null,is marrying,,html-keyboard-response,56,249473,0.0-13.0-2.1,52547,List2B,white,woman,,,,null,,,,
44944,,,survey-text,57,294418,0.0-13.0-3.1,52547,List2B,white,woman,,,,,"{""Q0"":""Kate is marrying with Fred""}","<img src=""stim_listB/marry1.gif""</stim_listB>",is marrying,
null,"<div style=""font-size:60px;"">+</div>",,html-keyboard-response,58,294921,0.0-13.0-0.2,52547,List2B,white,woman,,,,null,,,,
null,"<img src=""stim_listB/talk8.gif""</stim_listB>",,html-keyboard-response,59,296924,0.0-13.0-1.2,52547,List2B,white,woman,,,,null,,,,
null,are talking to each other,,html-keyboard-response,60,298926,0.0-13.0-2.2,52547,List2B,white,woman,,,,null,,,,
11955,,,survey-text,61,310883,0.0-13.0-3.2,52547,List2B,white,woman,,,,,"{""Q0"":""Jane and ruth are talking to each other""}","<img src=""stim_listB/talk8.gif""</stim_listB>",are talking to each other,
null,"<div style=""font-size:60px;"">+</div>",,html-keyboard-response,62,311385,0.0-13.0-0.3,52547,List2B,white,woman,,,,null,,,,
null,"<img src=""stim_listB/touch3.gif""</stim_listB>",,html-keyboard-response,63,313386,0.0-13.0-1.3,52547,List2B,white,woman,,,,null,,,,
null,is touching,,html-keyboard-response,64,315389,0.0-13.0-2.3,52547,List2B,white,woman,,,,null,,,,
8907,,,survey-text,65,324297,0.0-13.0-3.3,52547,List2B,white,woman,,,,,"{""Q0"":""ruth and mike is touching""}","<img src=""stim_listB/touch3.gif""</stim_listB>",is touching,
null,"<div style=""font-size:60px;"">+</div>",,html-keyboard-response,66,324799,0.0-13.0-0.4,52547,List2B,white,woman,,,,null,,,,
null,"<img src=""stim_listB/meet8.gif""</stim_listB>",,html-keyboard-response,67,326801,0.0-13.0-1.4,52547,List2B,white,woman,,,,null,,,,
null,are meeting each other,,html-keyboard-response,68,328804,0.0-13.0-2.4,52547,List2B,white,woman,,,,null,,,,
17871,,,survey-text,69,346676,0.0-13.0-3.4,52547,List2B,white,woman,,,,,"{""Q0"":""ruth and kate is meeting each other""}","<img src=""stim_listB/meet8.gif""</stim_listB>",are meeting each other,
null,"<div style=""font-size:60px;"">+</div>",,html-keyboard-response,70,347178,0.0-13.0-0.5,52547,List2B,white,woman,,,,null,,,,
null,"<img src=""stim_listB/shout8.gif""</stim_listB>",,html-keyboard-response,71,349180,0.0-13.0-1.5,52547,List2B,white,woman,,,,null,,,,
null,are shouting at each other,,html-keyboard-response,72,351182,0.0-13.0-2.5,52547,List2B,white,woman,,,,null,,,,
8516,,,survey-text,73,359700,0.0-13.0-3.5,52547,List2B,white,woman,,,,,"{""Q0"":""jane and kate are shouting at each other""}","<img src=""stim_listB/shout8.gif""</stim_listB>",are shouting at each other,
null,"<div style=""font-size:60px;"">+</div>",,html-keyboard-response,74,360202,0.0-13.0-0.6,52547,List2B,white,woman,,,,null,,,,
null,"<img src=""stim_listB/meet1.gif""</stim_listB>",,html-keyboard-response,75,362204,0.0-13.0-1.6,52547,List2B,white,woman,,,,null,,,,
null,is meeting,,html-keyboard-response,76,364207,0.0-13.0-2.6,52547,List2B,white,woman,,,,null,,,,
23644,,,survey-text,77,387851,0.0-13.0-3.6,52547,List2B,white,woman,,,,,"{""Q0"":""jane and fred is meeting""}","<img src=""stim_listB/meet1.gif""</stim_listB>",is meeting,
null,"<div style=""font-size:60px;"">+</div>",,html-keyboard-response,78,388353,0.0-13.0-0.7,52547,List2B,white,woman,,,,null,,,,
null,"<img src=""stim_listB/fight3.gif""</stim_listB>",,html-keyboard-response,79,390356,0.0-13.0-1.7,52547,List2B,white,woman,,,,null,,,,
null,is fighting,,html-keyboard-response,80,392358,0.0-13.0-2.7,52547,List2B,white,woman,,,,null,,,,
9205,,,survey-text,81,401564,0.0-13.0-3.7,52547,List2B,white,woman,,,,,"{""Q0"":""kate and mike is fighting""}","<img src=""stim_listB/fight3.gif""</stim_listB>",is fighting,
null,"<div style=""font-size:60px;"">+</div>",,html-keyboard-response,82,402066,0.0-13.0-0.8,52547,List2B,white,woman,,,,null,,,,
null,"<img src=""stim_listB/argue8.gif""</stim_listB>",,html-keyboard-response,83,404069,0.0-13.0-1.8,52547,List2B,white,woman,,,,null,,,,
null,are arguing with each other,,html-keyboard-response,84,406071,0.0-13.0-2.8,52547,List2B,white,woman,,,,null,,,,
10394,,,survey-text,85,416466,0.0-13.0-3.8,52547,List2B,white,woman,,,,,"{""Q0"":""kate and ruth are arguing with each other""}","<img src=""stim_listB/argue8.gif""</stim_listB>",are arguing with each other,
null,"<div style=""font-size:60px;"">+</div>",,html-keyboard-response,86,416968,0.0-13.0-0.9,52547,List2B,white,woman,,,,null,,,,
null,"<img src=""stim_listB/touch7.gif""</stim_listB>",,html-keyboard-response,87,418971,0.0-13.0-1.9,52547,List2B,white,woman,,,,null,,,,
null,is touching,,html-keyboard-response,88,420973,0.0-13.0-2.9,52547,List2B,white,woman,,,,null,,,,
7296,,,survey-text,89,428271,0.0-13.0-3.9,52547,List2B,white,woman,,,,,"{""Q0"":""kate and jane is touching""}","<img src=""stim_listB/touch7.gif""</stim_listB>",is touching,
null,"<div style=""font-size:60px;"">+</div>",,html-keyboard-response,90,428773,0.0-13.0-0.10,52547,List2B,white,woman,,,,null,,,,
null,"<img src=""stim_listB/kiss3.gif""</stim_listB>",,html-keyboard-response,91,430775,0.0-13.0-1.10,52547,List2B,white,woman,,,,null,,,,
null,is kissing,,html-keyboard-response,92,432777,0.0-13.0-2.10,52547,List2B,white,woman,,,,null,,,,
5635,,,survey-text,93,438414,0.0-13.0-3.10,52547,List2B,white,woman,,,,,"{""Q0"":""fred and beth is kissing""}","<img src=""stim_listB/kiss3.gif""</stim_listB>",is kissing,
null,"<div style=""font-size:60px;"">+</div>",,html-keyboard-response,94,438916,0.0-13.0-0.11,52547,List2B,white,woman,,,,null,,,,
null,"<img src=""stim_listB/talk7.gif""</stim_listB>",,html-keyboard-response,95,440918,0.0-13.0-1.11,52547,List2B,white,woman,,,,null,,,,
null,is talking to,,html-keyboard-response,96,442921,0.0-13.0-2.11,52547,List2B,white,woman,,,,null,,,,
9548,,,survey-text,97,452469,0.0-13.0-3.11,52547,List2B,white,woman,,,,,"{""Q0"":""kate and ruth is talking to""}","<img src=""stim_listB/talk7.gif""</stim_listB>",is talking to,
null,"<div style=""font-size:60px;"">+</div>",,html-keyboard-response,98,452972,0.0-13.0-0.12,52547,List2B,white,woman,,,,null,,,,
null,"<img src=""stim_listB/kiss8.gif""</stim_listB>",,html-keyboard-response,99,454974,0.0-13.0-1.12,52547,List2B,white,woman,,,,null,,,,
null,are kissing each other,,html-keyboard-response,100,456976,0.0-13.0-2.12,52547,List2B,white,woman,,,,null,,,,
10646,,,survey-text,101,467623,0.0-13.0-3.12,52547,List2B,white,woman,,,,,"{""Q0"":""jane and kate are kissing each other""}","<img src=""stim_listB/kiss8.gif""</stim_listB>",are kissing each other,
null,"<div style=""font-size:60px;"">+</div>",,html-keyboard-response,102,468125,0.0-13.0-0.13,52547,List2B,white,woman,,,,null,,,,
null,"<img src=""stim_listB/dance6.gif""</stim_listB>",,html-keyboard-response,103,470128,0.0-13.0-1.13,52547,List2B,white,woman,,,,null,,,,
null,are dancing with each other,,html-keyboard-response,104,472130,0.0-13.0-2.13,52547,List2B,white,woman,,,,null,,,,
15291,,,survey-text,105,487422,0.0-13.0-3.13,52547,List2B,white,woman,,,,,"{""Q0"":""fred and mike are dancing together""}","<img src=""stim_listB/dance6.gif""</stim_listB>",are dancing with each other,
null,"<div style=""font-size:60px;"">+</div>",,html-keyboard-response,106,487924,0.0-13.0-0.14,52547,List2B,white,woman,,,,null,,,,
null,"<img src=""stim_listB/dance3.gif""</stim_listB>",,html-keyboard-response,107,489927,0.0-13.0-1.14,52547,List2B,white,woman,,,,null,,,,
null,is dancing with,,html-keyboard-response,108,491929,0.0-13.0-2.14,52547,List2B,white,woman,,,,null,,,,
13833,,,survey-text,109,505764,0.0-13.0-3.14,52547,List2B,white,woman,,,,,"{""Q0"":""fred is dancing with beth""}","<img src=""stim_listB/dance3.gif""</stim_listB>",is dancing with,
null,"<div style=""font-size:60px;"">+</div>",,html-keyboard-response,110,506266,0.0-13.0-0.15,52547,List2B,white,woman,,,,null,,,,
null,"<img src=""stim_listB/shout2.gif""</stim_listB>",,html-keyboard-response,111,508268,0.0-13.0-1.15,52547,List2B,white,woman,,,,null,,,,
null,are shouting at each other,,html-keyboard-response,112,510271,0.0-13.0-2.15,52547,List2B,white,woman,,,,null,,,,
7151,,,survey-text,113,517423,0.0-13.0-3.15,52547,List2B,white,woman,,,,,"{""Q0"":""jane and fred are shouting at each other""}","<img src=""stim_listB/shout2.gif""</stim_listB>",are shouting at each other,
null,"<div style=""font-size:60px;"">+</div>",,html-keyboard-response,114,517925,0.0-13.0-0.16,52547,List2B,white,woman,,,,null,,,,
null,"<img src=""stim_listB/talk4.gif""</stim_listB>",,html-keyboard-response,115,519927,0.0-13.0-1.16,52547,List2B,white,woman,,,,null,,,,
null,are talking to each other,,html-keyboard-response,116,521930,0.0-13.0-2.16,52547,List2B,white,woman,,,,null,,,,
7063,,,survey-text,117,528993,0.0-13.0-3.16,52547,List2B,white,woman,,,,,"{""Q0"":""mike and beth are talking to each other""}","<img src=""stim_listB/talk4.gif""</stim_listB>",are talking to each other,
null,"<div style=""font-size:60px;"">+</div>",,html-keyboard-response,118,529495,0.0-13.0-0.17,52547,List2B,white,woman,,,,null,,,,
null,"<img src=""stim_listB/touch5.gif""</stim_listB>",,html-keyboard-response,119,531498,0.0-13.0-1.17,52547,List2B,white,woman,,,,null,,,,
null,is touching,,html-keyboard-response,120,533500,0.0-13.0-2.17,52547,List2B,white,woman,,,,null,,,,
5478,,,survey-text,121,538980,0.0-13.0-3.17,52547,List2B,white,woman,,,,,"{""Q0"":""mike and fred is touching""}","<img src=""stim_listB/touch5.gif""</stim_listB>",is touching,
null,"<div style=""font-size:60px;"">+</div>",,html-keyboard-response,122,539482,0.0-13.0-0.18,52547,List2B,white,woman,,,,null,,,,
null,"<img src=""stim_listB/talk2.gif""</stim_listB>",,html-keyboard-response,123,541484,0.0-13.0-1.18,52547,List2B,white,woman,,,,null,,,,
null,are talking to each other,,html-keyboard-response,124,543487,0.0-13.0-2.18,52547,List2B,white,woman,,,,null,,,,
12733,,,survey-text,125,556221,0.0-13.0-3.18,52547,List2B,white,woman,,,,,"{""Q0"":""fred and ruth are talking together""}","<img src=""stim_listB/talk2.gif""</stim_listB>",are talking to each other,
null,"<div style=""font-size:60px;"">+</div>",,html-keyboard-response,126,556723,0.0-13.0-0.19,52547,List2B,white,woman,,,,null,,,,
null,"<img src=""stim_listB/meet2.gif""</stim_listB>",,html-keyboard-response,127,558726,0.0-13.0-1.19,52547,List2B,white,woman,,,,null,,,,
null,are meeting each other,,html-keyboard-response,128,560727,0.0-13.0-2.19,52547,List2B,white,woman,,,,null,,,,
6329,,,survey-text,129,567059,0.0-13.0-3.19,52547,List2B,white,woman,,,,,"{""Q0"":""ruth and fred are meeting ""}","<img src=""stim_listB/meet2.gif""</stim_listB>",are meeting each other,
54649,"<img src='img/portrait_matrix_list2.JPG' style='width:900px;height:500px;''></img><p>If you have memorised all the portraits and names and are ready to start, press Continue.</p><p><strong>Please note: Your memory of these faces will be tested 4 times during this experiment.</strong></p>",0,html-button-response,130,621710,0.0-14.0-0.0,52547,List2B,white,woman,,,,,,,,
4107,"<img src=""portrait/BW1.jpg""style=""width:400px;height:400px;""></img>",0,html-button-response,131,626820,0.0-14.0-1.0,52547,List2B,white,woman,,TRUE,0,,,,,
null,CORRECT,,html-keyboard-response,132,628321,0.0-14.0-2.0-0.0,52547,List2B,white,woman,,,,null,,,,
2581,"<img src=""portrait/WW1.jpg""style=""width:400px;height:400px;""></img>",1,html-button-response,133,630903,0.0-14.0-4.0,52547,List2B,white,woman,,TRUE,1,,,,,
null,CORRECT,,html-keyboard-response,134,632406,0.0-14.0-5.0-0.0,52547,List2B,white,woman,,,,null,,,,
2255,"<img src=""portrait/BW2.jpg""style=""width:400px;height:400px;""></img>",2,html-button-response,135,634664,0.0-14.0-7.0,52547,List2B,white,woman,,TRUE,2,,,,,
null,CORRECT,,html-keyboard-response,136,636167,0.0-14.0-8.0-0.0,52547,List2B,white,woman,,,,null,,,,
5026,"<img src=""portrait/WM2.jpg""style=""width:400px;height:400px;""></img>",7,html-button-response,137,641194,0.0-14.0-10.0,52547,List2B,white,woman,,TRUE,7,,,,,
null,CORRECT,,html-keyboard-response,138,642697,0.0-14.0-11.0-0.0,52547,List2B,white,woman,,,,null,,,,
1609,"<img src=""portrait/WW2.jpg""style=""width:400px;height:400px;""></img>",3,html-button-response,139,644308,0.0-14.0-13.0,52547,List2B,white,woman,,TRUE,3,,,,,
null,CORRECT,,html-keyboard-response,140,645812,0.0-14.0-14.0-0.0,52547,List2B,white,woman,,,,null,,,,
1429,"<img src=""portrait/BM2.jpg""style=""width:400px;height:400px;""></img>",5,html-button-response,141,647242,0.0-14.0-16.0,52547,List2B,white,woman,,TRUE,5,,,,,
null,CORRECT,,html-keyboard-response,142,648745,0.0-14.0-17.0-0.0,52547,List2B,white,woman,,,,null,,,,
1779,"<img src=""portrait/BM1.jpg""style=""width:400px;height:400px;""></img>",4,html-button-response,143,650527,0.0-14.0-19.0,52547,List2B,white,woman,,TRUE,4,,,,,
null,CORRECT,,html-keyboard-response,144,652030,0.0-14.0-20.0-0.0,52547,List2B,white,woman,,,,null,,,,
2838,"<img src=""portrait/WM1.jpg""style=""width:400px;height:400px;""></img>",6,html-button-response,145,654870,0.0-14.0-22.0,52547,List2B,white,woman,,TRUE,6,,,,,
null,CORRECT,,html-keyboard-response,146,656373,0.0-14.0-23.0-0.0,52547,List2B,white,woman,,,,null,,,,
1453,<p>You got 8 out of 8 right first time. Press Continue.</p>,0,html-button-response,147,657827,0.0-14.0-25.0,52547,List2B,white,woman,,,,,,,,
null,"<div style=""font-size:60px;"">+</div>",,html-keyboard-response,148,659331,0.0-15.0-0.0,52547,List2B,white,woman,,,,null,,,,
null,"<img src=""stim_listB/shout3.gif""</stim_listB>",,html-keyboard-response,149,661334,0.0-15.0-1.0,52547,List2B,white,woman,,,,null,,,,
null,is shouting at,,html-keyboard-response,150,663336,0.0-15.0-2.0,52547,List2B,white,woman,,,,null,,,,
18592,,,survey-text,151,681929,0.0-15.0-3.0,52547,List2B,white,woman,,,,,"{""Q0"":""beth is shouting at fred""}","<img src=""stim_listB/shout3.gif""</stim_listB>",is shouting at,
null,"<div style=""font-size:60px;"">+</div>",,html-keyboard-response,152,682431,0.0-15.0-0.1,52547,List2B,white,woman,,,,null,,,,
null,"<img src=""stim_listB/argue4.gif""</stim_listB>",,html-keyboard-response,153,684434,0.0-15.0-1.1,52547,List2B,white,woman,,,,null,,,,
null,are arguing with each other,,html-keyboard-response,154,686436,0.0-15.0-2.1,52547,List2B,white,woman,,,,null,,,,
10213,,,survey-text,155,696650,0.0-15.0-3.1,52547,List2B,white,woman,,,,,"{""Q0"":""fred and kate are arguing with each other""}","<img src=""stim_listB/argue4.gif""</stim_listB>",are arguing with each other,
null,"<div style=""font-size:60px;"">+</div>",,html-keyboard-response,156,697152,0.0-15.0-0.2,52547,List2B,white,woman,,,,null,,,,
null,"<img src=""stim_listB/shout1.gif""</stim_listB>",,html-keyboard-response,157,699155,0.0-15.0-1.2,52547,List2B,white,woman,,,,null,,,,
null,is shouting at,,html-keyboard-response,158,701157,0.0-15.0-2.2,52547,List2B,white,woman,,,,null,,,,
19042,,,survey-text,159,720200,0.0-15.0-3.2,52547,List2B,white,woman,,,,,"{""Q0"":""dave and ruth are arguing with each other""}","<img src=""stim_listB/shout1.gif""</stim_listB>",is shouting at,
null,"<div style=""font-size:60px;"">+</div>",,html-keyboard-response,160,720702,0.0-15.0-0.3,52547,List2B,white,woman,,,,null,,,,
null,"<img src=""stim_listB/hug6.gif""</stim_listB>",,html-keyboard-response,161,722705,0.0-15.0-1.3,52547,List2B,white,woman,,,,null,,,,
null,are hugging each other,,html-keyboard-response,162,724707,0.0-15.0-2.3,52547,List2B,white,woman,,,,null,,,,
15304,,,survey-text,163,740012,0.0-15.0-3.3,52547,List2B,white,woman,,,,,"{""Q0"":""luke and mike are dancing together""}","<img src=""stim_listB/hug6.gif""</stim_listB>",are hugging each other,
null,"<div style=""font-size:60px;"">+</div>",,html-keyboard-response,164,740515,0.0-15.0-0.4,52547,List2B,white,woman,,,,null,,,,
null,"<img src=""stim_listB/meet5.gif""</stim_listB>",,html-keyboard-response,165,742517,0.0-15.0-1.4,52547,List2B,white,woman,,,,null,,,,
null,is meeting,,html-keyboard-response,166,744520,0.0-15.0-2.4,52547,List2B,white,woman,,,,null,,,,
9502,,,survey-text,167,754022,0.0-15.0-3.4,52547,List2B,white,woman,,,,,"{""Q0"":""mike is meeting luke""}","<img src=""stim_listB/meet5.gif""</stim_listB>",is meeting,
null,"<div style=""font-size:60px;"">+</div>",,html-keyboard-response,168,754524,0.0-15.0-0.5,52547,List2B,white,woman,,,,null,,,,
null,"<img src=""stim_listB/argue1.gif""</stim_listB>",,html-keyboard-response,169,756526,0.0-15.0-1.5,52547,List2B,white,woman,,,,null,,,,
null,is arguing with,,html-keyboard-response,170,758529,0.0-15.0-2.5,52547,List2B,white,woman,,,,null,,,,
12874,,,survey-text,171,771404,0.0-15.0-3.5,52547,List2B,white,woman,,,,,"{""Q0"":""ruth is arguing with luke""}","<img src=""stim_listB/argue1.gif""</stim_listB>",is arguing with,
null,"<div style=""font-size:60px;"">+</div>",,html-keyboard-response,172,771906,0.0-15.0-0.6,52547,List2B,white,woman,,,,null,,,,
null,"<img src=""stim_listB/talk6.gif""</stim_listB>",,html-keyboard-response,173,773910,0.0-15.0-1.6,52547,List2B,white,woman,,,,null,,,,
null,are talking to each other,,html-keyboard-response,174,775912,0.0-15.0-2.6,52547,List2B,white,woman,,,,null,,,,
7168,,,survey-text,175,783081,0.0-15.0-3.6,52547,List2B,white,woman,,,,,"{""Q0"":""luke and fred are talking to each other""}","<img src=""stim_listB/talk6.gif""</stim_listB>",are talking to each other,
null,"<div style=""font-size:60px;"">+</div>",,html-keyboard-response,176,783584,0.0-15.0-0.7,52547,List2B,white,woman,,,,null,,,,
null,"<img src=""stim_listB/touch2.gif""</stim_listB>",,html-keyboard-response,177,785586,0.0-15.0-1.7,52547,List2B,white,woman,,,,null,,,,
null,are touching each other,,html-keyboard-response,178,787589,0.0-15.0-2.7,52547,List2B,white,woman,,,,null,,,,
14770,,,survey-text,179,802359,0.0-15.0-3.7,52547,List2B,white,woman,,,,,"{""Q0"":""ruth and dave are talking together""}","<img src=""stim_listB/touch2.gif""</stim_listB>",are touching each other,
null,"<div style=""font-size:60px;"">+</div>",,html-keyboard-response,180,802861,0.0-15.0-0.8,52547,List2B,white,woman,,,,null,,,,
null,"<img src=""stim_listB/marry5.gif""</stim_listB>",,html-keyboard-response,181,804864,0.0-15.0-1.8,52547,List2B,white,woman,,,,null,,,,
null,is marrying,,html-keyboard-response,182,806866,0.0-15.0-2.8,52547,List2B,white,woman,,,,null,,,,
8622,,,survey-text,183,815490,0.0-15.0-3.8,52547,List2B,white,woman,,,,,"{""Q0"":""fred and dave are marrying""}","<img src=""stim_listB/marry5.gif""</stim_listB>",is marrying,
null,"<div style=""font-size:60px;"">+</div>",,html-keyboard-response,184,815992,0.0-15.0-0.9,52547,List2B,white,woman,,,,null,,,,
null,"<img src=""stim_listB/dance4.gif""</stim_listB>",,html-keyboard-response,185,817994,0.0-15.0-1.9,52547,List2B,white,woman,,,,null,,,,
null,are dancing with each other,,html-keyboard-response,186,819996,0.0-15.0-2.9,52547,List2B,white,woman,,,,null,,,,
13535,,,survey-text,187,833533,0.0-15.0-3.9,52547,List2B,white,woman,,,,,"{""Q0"":""beth and fred are dancing with each other ""}","<img src=""stim_listB/dance4.gif""</stim_listB>",are dancing with each other,
null,"<div style=""font-size:60px;"">+</div>",,html-keyboard-response,188,834034,0.0-15.0-0.10,52547,List2B,white,woman,,,,null,,,,
null,"<img src=""stim_listB/fight5.gif""</stim_listB>",,html-keyboard-response,189,836037,0.0-15.0-1.10,52547,List2B,white,woman,,,,null,,,,
null,is fighting,,html-keyboard-response,190,838039,0.0-15.0-2.10,52547,List2B,white,woman,,,,null,,,,
10148,,,survey-text,191,848189,0.0-15.0-3.10,52547,List2B,white,woman,,,,,"{""Q0"":""mike is fighting luke""}","<img src=""stim_listB/fight5.gif""</stim_listB>",is fighting,
null,"<div style=""font-size:60px;"">+</div>",,html-keyboard-response,192,848691,0.0-15.0-0.11,52547,List2B,white,woman,,,,null,,,,
null,"<img src=""stim_listB/touch1.gif""</stim_listB>",,html-keyboard-response,193,850693,0.0-15.0-1.11,52547,List2B,white,woman,,,,null,,,,
null,is touching,,html-keyboard-response,194,852694,0.0-15.0-2.11,52547,List2B,white,woman,,,,null,,,,
9381,,,survey-text,195,862077,0.0-15.0-3.11,52547,List2B,white,woman,,,,,"{""Q0"":""dave and jane is touching""}","<img src=""stim_listB/touch1.gif""</stim_listB>",is touching,
null,"<div style=""font-size:60px;"">+</div>",,html-keyboard-response,196,862578,0.0-15.0-0.12,52547,List2B,white,woman,,,,null,,,,
null,"<img src=""stim_listB/touch6.gif""</stim_listB>",,html-keyboard-response,197,864580,0.0-15.0-1.12,52547,List2B,white,woman,,,,null,,,,
null,are touching each other,,html-keyboard-response,198,866582,0.0-15.0-2.12,52547,List2B,white,woman,,,,null,,,,
13163,,,survey-text,199,879746,0.0-15.0-3.12,52547,List2B,white,woman,,,,,"{""Q0"":""luke and fred is touching each other""}","<img src=""stim_listB/touch6.gif""</stim_listB>",are touching each other,
null,"<div style=""font-size:60px;"">+</div>",,html-keyboard-response,200,880248,0.0-15.0-0.13,52547,List2B,white,woman,,,,null,,,,
null,"<img src=""stim_listB/hug3.gif""</stim_listB>",,html-keyboard-response,201,882251,0.0-15.0-1.13,52547,List2B,white,woman,,,,null,,,,
null,is hugging,,html-keyboard-response,202,884253,0.0-15.0-2.13,52547,List2B,white,woman,,,,null,,,,
6256,,,survey-text,203,890510,0.0-15.0-3.13,52547,List2B,white,woman,,,,,"{""Q0"":""fred and beth is hugging""}","<img src=""stim_listB/hug3.gif""</stim_listB>",is hugging,
null,"<div style=""font-size:60px;"">+</div>",,html-keyboard-response,204,891013,0.0-15.0-0.14,52547,List2B,white,woman,,,,null,,,,
null,"<img src=""stim_listB/argue6.gif""</stim_listB>",,html-keyboard-response,205,893015,0.0-15.0-1.14,52547,List2B,white,woman,,,,null,,,,
null,are arguing with each other,,html-keyboard-response,206,895017,0.0-15.0-2.14,52547,List2B,white,woman,,,,null,,,,
15054,,,survey-text,207,910073,0.0-15.0-3.14,52547,List2B,white,woman,,,,,"{""Q0"":""luke and mike is arguing with each other""}","<img src=""stim_listB/argue6.gif""</stim_listB>",are arguing with each other,
null,"<div style=""font-size:60px;"">+</div>",,html-keyboard-response,208,910575,0.0-15.0-0.15,52547,List2B,white,woman,,,,null,,,,
null,"<img src=""stim_listB/meet3.gif""</stim_listB>",,html-keyboard-response,209,912577,0.0-15.0-1.15,52547,List2B,white,woman,,,,null,,,,
null,is meeting,,html-keyboard-response,210,914579,0.0-15.0-2.15,52547,List2B,white,woman,,,,null,,,,
7904,,,survey-text,211,922483,0.0-15.0-3.15,52547,List2B,white,woman,,,,,"{""Q0"":""Kate and fred is meeting""}","<img src=""stim_listB/meet3.gif""</stim_listB>",is meeting,
null,"<div style=""font-size:60px;"">+</div>",,html-keyboard-response,212,922985,0.0-15.0-0.16,52547,List2B,white,woman,,,,null,,,,
null,"<img src=""stim_listB/shout5.gif""</stim_listB>",,html-keyboard-response,213,924988,0.0-15.0-1.16,52547,List2B,white,woman,,,,null,,,,
null,is shouting at,,html-keyboard-response,214,926990,0.0-15.0-2.16,52547,List2B,white,woman,,,,null,,,,
13571,,,survey-text,215,940562,0.0-15.0-3.16,52547,List2B,white,woman,,,,,"{""Q0"":""luke is shouting at mike""}","<img src=""stim_listB/shout5.gif""</stim_listB>",is shouting at,
null,"<div style=""font-size:60px;"">+</div>",,html-keyboard-response,216,941065,0.0-15.0-0.17,52547,List2B,white,woman,,,,null,,,,
null,"<img src=""stim_listB/fight6.gif""</stim_listB>",,html-keyboard-response,217,943067,0.0-15.0-1.17,52547,List2B,white,woman,,,,null,,,,
null,are fighting each other,,html-keyboard-response,218,945069,0.0-15.0-2.17,52547,List2B,white,woman,,,,null,,,,
6154,,,survey-text,219,951224,0.0-15.0-3.17,52547,List2B,white,woman,,,,,"{""Q0"":""fred and luke are fighting""}","<img src=""stim_listB/fight6.gif""</stim_listB>",are fighting each other,
null,"<div style=""font-size:60px;"">+</div>",,html-keyboard-response,220,951726,0.0-15.0-0.18,52547,List2B,white,woman,,,,null,,,,
null,"<img src=""stim_listB/fight4.gif""</stim_listB>",,html-keyboard-response,221,953729,0.0-15.0-1.18,52547,List2B,white,woman,,,,null,,,,
null,are fighting each other,,html-keyboard-response,222,955731,0.0-15.0-2.18,52547,List2B,white,woman,,,,null,,,,
8219,,,survey-text,223,963951,0.0-15.0-3.18,52547,List2B,white,woman,,,,,"{""Q0"":""beth and fred are fighting each other""}","<img src=""stim_listB/fight4.gif""</stim_listB>",are fighting each other,
null,"<div style=""font-size:60px;"">+</div>",,html-keyboard-response,224,964454,0.0-15.0-0.19,52547,List2B,white,woman,,,,null,,,,
null,"<img src=""stim_listB/kiss1.gif""</stim_listB>",,html-keyboard-response,225,966456,0.0-15.0-1.19,52547,List2B,white,woman,,,,null,,,,
null,is kissing,,html-keyboard-response,226,968458,0.0-15.0-2.19,52547,List2B,white,woman,,,,null,,,,
8601,,,survey-text,227,977060,0.0-15.0-3.19,52547,List2B,white,woman,,,,,"{""Q0"":""beth and dave are kissing""}","<img src=""stim_listB/kiss1.gif""</stim_listB>",is kissing,
3443,"<img src='img/portrait_matrix_list2.JPG' style='width:900px;height:500px;''></img><p>If you have memorised all the portraits and names and are ready to start, press Continue.</p><p><strong>Please note: Your memory of these faces will be tested 4 times during this experiment.</strong></p>",0,html-button-response,228,980505,0.0-16.0-0.0,52547,List2B,white,woman,,,,,,,,
3845,"<img src=""portrait/WM2.jpg""style=""width:400px;height:400px;""></img>",7,html-button-response,229,985353,0.0-16.0-1.0,52547,List2B,white,woman,,TRUE,7,,,,,
null,CORRECT,,html-keyboard-response,230,986856,0.0-16.0-2.0-0.0,52547,List2B,white,woman,,,,null,,,,
1585,"<img src=""portrait/BM1.jpg""style=""width:400px;height:400px;""></img>",4,html-button-response,231,988442,0.0-16.0-4.0,52547,List2B,white,woman,,TRUE,4,,,,,
null,CORRECT,,html-keyboard-response,232,989945,0.0-16.0-5.0-0.0,52547,List2B,white,woman,,,,null,,,,
2441,"<img src=""portrait/BM2.jpg""style=""width:400px;height:400px;""></img>",5,html-button-response,233,992388,0.0-16.0-7.0,52547,List2B,white,woman,,TRUE,5,,,,,
null,CORRECT,,html-keyboard-response,234,993891,0.0-16.0-8.0-0.0,52547,List2B,white,woman,,,,null,,,,
2477,"<img src=""portrait/WW1.jpg""style=""width:400px;height:400px;""></img>",1,html-button-response,235,996371,0.0-16.0-10.0,52547,List2B,white,woman,,TRUE,1,,,,,
null,CORRECT,,html-keyboard-response,236,997874,0.0-16.0-11.0-0.0,52547,List2B,white,woman,,,,null,,,,
1620,"<img src=""portrait/BW1.jpg""style=""width:400px;height:400px;""></img>",0,html-button-response,237,999497,0.0-16.0-13.0,52547,List2B,white,woman,,TRUE,0,,,,,
null,CORRECT,,html-keyboard-response,238,1001000,0.0-16.0-14.0-0.0,52547,List2B,white,woman,,,,null,,,,
2709,"<img src=""portrait/WM1.jpg""style=""width:400px;height:400px;""></img>",6,html-button-response,239,1003712,0.0-16.0-16.0,52547,List2B,white,woman,,TRUE,6,,,,,
null,CORRECT,,html-keyboard-response,240,1005215,0.0-16.0-17.0-0.0,52547,List2B,white,woman,,,,null,,,,
2710,"<img src=""portrait/BW2.jpg""style=""width:400px;height:400px;""></img>",2,html-button-response,241,1007927,0.0-16.0-19.0,52547,List2B,white,woman,,TRUE,2,,,,,
null,CORRECT,,html-keyboard-response,242,1009431,0.0-16.0-20.0-0.0,52547,List2B,white,woman,,,,null,,,,
1805,"<img src=""portrait/WW2.jpg""style=""width:400px;height:400px;""></img>",3,html-button-response,243,1011238,0.0-16.0-22.0,52547,List2B,white,woman,,TRUE,3,,,,,
null,CORRECT,,html-keyboard-response,244,1012740,0.0-16.0-23.0-0.0,52547,List2B,white,woman,,,,null,,,,
1876,<p>You got 8 out of 8 right first time. Press Continue.</p>,0,html-button-response,245,1014617,0.0-16.0-25.0,52547,List2B,white,woman,,,,,,,,
null,"<div style=""font-size:60px;"">+</div>",,html-keyboard-response,246,1016121,0.0-17.0-0.0,52547,List2B,white,woman,,,,null,,,,
null,"<img src=""stim_listB/hug8.gif""</stim_listB>",,html-keyboard-response,247,1018124,0.0-17.0-1.0,52547,List2B,white,woman,,,,null,,,,
null,are hugging each other,,html-keyboard-response,248,1020126,0.0-17.0-2.0,52547,List2B,white,woman,,,,null,,,,
7522,,,survey-text,249,1027649,0.0-17.0-3.0,52547,List2B,white,woman,,,,,"{""Q0"":""kate and jane are hugging each other""}","<img src=""stim_listB/hug8.gif""</stim_listB>",are hugging each other,
null,"<div style=""font-size:60px;"">+</div>",,html-keyboard-response,250,1028151,0.0-17.0-0.1,52547,List2B,white,woman,,,,null,,,,
null,"<img src=""stim_listB/fight2.gif""</stim_listB>",,html-keyboard-response,251,1030154,0.0-17.0-1.1,52547,List2B,white,woman,,,,null,,,,
null,are fighting each other,,html-keyboard-response,252,1032156,0.0-17.0-2.1,52547,List2B,white,woman,,,,null,,,,
6981,,,survey-text,253,1039138,0.0-17.0-3.1,52547,List2B,white,woman,,,,,"{""Q0"":""luke and ruth are fighting each other""}","<img src=""stim_listB/fight2.gif""</stim_listB>",are fighting each other,
null,"<div style=""font-size:60px;"">+</div>",,html-keyboard-response,254,1039640,0.0-17.0-0.2,52547,List2B,white,woman,,,,null,,,,
null,"<img src=""stim_listB/touch8.gif""</stim_listB>",,html-keyboard-response,255,1041643,0.0-17.0-1.2,52547,List2B,white,woman,,,,null,,,,
null,are touching each other,,html-keyboard-response,256,1043645,0.0-17.0-2.2,52547,List2B,white,woman,,,,null,,,,
7438,,,survey-text,257,1051084,0.0-17.0-3.2,52547,List2B,white,woman,,,,,"{""Q0"":""beth and ruth are touching each other""}","<img src=""stim_listB/touch8.gif""</stim_listB>",are touching each other,
null,"<div style=""font-size:60px;"">+</div>",,html-keyboard-response,258,1051587,0.0-17.0-0.3,52547,List2B,white,woman,,,,null,,,,
null,"<img src=""stim_listB/marry2.gif""</stim_listB>",,html-keyboard-response,259,1053588,0.0-17.0-1.3,52547,List2B,white,woman,,,,null,,,,
null,are marrying each other,,html-keyboard-response,260,1055591,0.0-17.0-2.3,52547,List2B,white,woman,,,,null,,,,
6908,,,survey-text,261,1062499,0.0-17.0-3.3,52547,List2B,white,woman,,,,,"{""Q0"":""luke and jane are marrying each other""}","<img src=""stim_listB/marry2.gif""</stim_listB>",are marrying each other,
null,"<div style=""font-size:60px;"">+</div>",,html-keyboard-response,262,1063001,0.0-17.0-0.4,52547,List2B,white,woman,,,,null,,,,
null,"<img src=""stim_listB/hug7.gif""</stim_listB>",,html-keyboard-response,263,1065003,0.0-17.0-1.4,52547,List2B,white,woman,,,,null,,,,
null,is hugging,,html-keyboard-response,264,1067005,0.0-17.0-2.4,52547,List2B,white,woman,,,,null,,,,
4716,,,survey-text,265,1071723,0.0-17.0-3.4,52547,List2B,white,woman,,,,,"{""Q0"":""beth is hugging ruth""}","<img src=""stim_listB/hug7.gif""</stim_listB>",is hugging,
null,"<div style=""font-size:60px;"">+</div>",,html-keyboard-response,266,1072225,0.0-17.0-0.5,52547,List2B,white,woman,,,,null,,,,
null,"<img src=""stim_listB/fight1.gif""</stim_listB>",,html-keyboard-response,267,1074227,0.0-17.0-1.5,52547,List2B,white,woman,,,,null,,,,
null,is fighting,,html-keyboard-response,268,1076228,0.0-17.0-2.5,52547,List2B,white,woman,,,,null,,,,
6467,,,survey-text,269,1082696,0.0-17.0-3.5,52547,List2B,white,woman,,,,,"{""Q0"":""jane is fighting dave""}","<img src=""stim_listB/fight1.gif""</stim_listB>",is fighting,
null,"<div style=""font-size:60px;"">+</div>",,html-keyboard-response,270,1083198,0.0-17.0-0.6,52547,List2B,white,woman,,,,null,,,,
null,"<img src=""stim_listB/kiss6.gif""</stim_listB>",,html-keyboard-response,271,1085201,0.0-17.0-1.6,52547,List2B,white,woman,,,,null,,,,
null,are kissing each other,,html-keyboard-response,272,1087203,0.0-17.0-2.6,52547,List2B,white,woman,,,,null,,,,
9036,,,survey-text,273,1096240,0.0-17.0-3.6,52547,List2B,white,woman,,,,,"{""Q0"":""mike and dave are kissing each other""}","<img src=""stim_listB/kiss6.gif""</stim_listB>",are kissing each other,
null,"<div style=""font-size:60px;"">+</div>",,html-keyboard-response,274,1096742,0.0-17.0-0.7,52547,List2B,white,woman,,,,null,,,,
null,"<img src=""stim_listB/dance1.gif""</stim_listB>",,html-keyboard-response,275,1098745,0.0-17.0-1.7,52547,List2B,white,woman,,,,null,,,,
null,is dancing with,,html-keyboard-response,276,1100747,0.0-17.0-2.7,52547,List2B,white,woman,,,,null,,,,
8075,,,survey-text,277,1108824,0.0-17.0-3.7,52547,List2B,white,woman,,,,,"{""Q0"":""jane is dancing with luke""}","<img src=""stim_listB/dance1.gif""</stim_listB>",is dancing with,
null,"<div style=""font-size:60px;"">+</div>",,html-keyboard-response,278,1109326,0.0-17.0-0.8,52547,List2B,white,woman,,,,null,,,,
null,"<img src=""stim_listB/hug2.gif""</stim_listB>",,html-keyboard-response,279,1111329,0.0-17.0-1.8,52547,List2B,white,woman,,,,null,,,,
null,are hugging each other,,html-keyboard-response,280,1113330,0.0-17.0-2.8,52547,List2B,white,woman,,,,null,,,,
8535,,,survey-text,281,1121867,0.0-17.0-3.8,52547,List2B,white,woman,,,,,"{""Q0"":""jane is dancing with dave""}","<img src=""stim_listB/hug2.gif""</stim_listB>",are hugging each other,
null,"<div style=""font-size:60px;"">+</div>",,html-keyboard-response,282,1122369,0.0-17.0-0.9,52547,List2B,white,woman,,,,null,,,,
null,"<img src=""stim_listB/argue2.gif""</stim_listB>",,html-keyboard-response,283,1124371,0.0-17.0-1.9,52547,List2B,white,woman,,,,null,,,,
null,are arguing with each other,,html-keyboard-response,284,1126373,0.0-17.0-2.9,52547,List2B,white,woman,,,,null,,,,
9181,,,survey-text,285,1135556,0.0-17.0-3.9,52547,List2B,white,woman,,,,,"{""Q0"":""jane and luke are arguing with each other""}","<img src=""stim_listB/argue2.gif""</stim_listB>",are arguing with each other,
null,"<div style=""font-size:60px;"">+</div>",,html-keyboard-response,286,1136058,0.0-17.0-0.10,52547,List2B,white,woman,,,,null,,,,
null,"<img src=""stim_listB/shout7.gif""</stim_listB>",,html-keyboard-response,287,1138061,0.0-17.0-1.10,52547,List2B,white,woman,,,,null,,,,
null,is shouting at,,html-keyboard-response,288,1140063,0.0-17.0-2.10,52547,List2B,white,woman,,,,null,,,,
8034,,,survey-text,289,1148098,0.0-17.0-3.10,52547,List2B,white,woman,,,,,"{""Q0"":""ruth is shouting at beth""}","<img src=""stim_listB/shout7.gif""</stim_listB>",is shouting at,
null,"<div style=""font-size:60px;"">+</div>",,html-keyboard-response,290,1148600,0.0-17.0-0.11,52547,List2B,white,woman,,,,null,,,,
null,"<img src=""stim_listB/hug4.gif""</stim_listB>",,html-keyboard-response,291,1150603,0.0-17.0-1.11,52547,List2B,white,woman,,,,null,,,,
null,are hugging each other,,html-keyboard-response,292,1152605,0.0-17.0-2.11,52547,List2B,white,woman,,,,null,,,,
9687,,,survey-text,293,1162293,0.0-17.0-3.11,52547,List2B,white,woman,,,,,"{""Q0"":""kate and mike are hugging each other""}","<img src=""stim_listB/hug4.gif""</stim_listB>",are hugging each other,
null,"<div style=""font-size:60px;"">+</div>",,html-keyboard-response,294,1162796,0.0-17.0-0.12,52547,List2B,white,woman,,,,null,,,,
null,"<img src=""stim_listB/marry3.gif""</stim_listB>",,html-keyboard-response,295,1164798,0.0-17.0-1.12,52547,List2B,white,woman,,,,null,,,,
null,is marrying,,html-keyboard-response,296,1166800,0.0-17.0-2.12,52547,List2B,white,woman,,,,null,,,,
5140,,,survey-text,297,1171941,0.0-17.0-3.12,52547,List2B,white,woman,,,,,"{""Q0"":""mike is marrying kate""}","<img src=""stim_listB/marry3.gif""</stim_listB>",is marrying,
null,"<div style=""font-size:60px;"">+</div>",,html-keyboard-response,298,1172443,0.0-17.0-0.13,52547,List2B,white,woman,,,,null,,,,
null,"<img src=""stim_listB/kiss7.gif""</stim_listB>",,html-keyboard-response,299,1174446,0.0-17.0-1.13,52547,List2B,white,woman,,,,null,,,,
null,is kissing,,html-keyboard-response,300,1176448,0.0-17.0-2.13,52547,List2B,white,woman,,,,null,,,,
10014,,,survey-text,301,1186463,0.0-17.0-3.13,52547,List2B,white,woman,,,,,"{""Q0"":""beth is kissing ruth""}","<img src=""stim_listB/kiss7.gif""</stim_listB>",is kissing,
null,"<div style=""font-size:60px;"">+</div>",,html-keyboard-response,302,1186965,0.0-17.0-0.14,52547,List2B,white,woman,,,,null,,,,
null,"<img src=""stim_listB/marry7.gif""</stim_listB>",,html-keyboard-response,303,1188968,0.0-17.0-1.14,52547,List2B,white,woman,,,,null,,,,
null,is marrying,,html-keyboard-response,304,1190970,0.0-17.0-2.14,52547,List2B,white,woman,,,,null,,,,
4411,,,survey-text,305,1195382,0.0-17.0-3.14,52547,List2B,white,woman,,,,,"{""Q0"":""jane is marrying beth""}","<img src=""stim_listB/marry7.gif""</stim_listB>",is marrying,
null,"<div style=""font-size:60px;"">+</div>",,html-keyboard-response,306,1195884,0.0-17.0-0.15,52547,List2B,white,woman,,,,null,,,,
null,"<img src=""stim_listB/fight7.gif""</stim_listB>",,html-keyboard-response,307,1197887,0.0-17.0-1.15,52547,List2B,white,woman,,,,null,,,,
null,is fighting,,html-keyboard-response,308,1199889,0.0-17.0-2.15,52547,List2B,white,woman,,,,null,,,,
5022,,,survey-text,309,1204912,0.0-17.0-3.15,52547,List2B,white,woman,,,,,"{""Q0"":""jane is fighting kate""}","<img src=""stim_listB/fight7.gif""</stim_listB>",is fighting,
null,"<div style=""font-size:60px;"">+</div>",,html-keyboard-response,310,1205414,0.0-17.0-0.16,52547,List2B,white,woman,,,,null,,,,
null,"<img src=""stim_listB/marry8.gif""</stim_listB>",,html-keyboard-response,311,1207416,0.0-17.0-1.16,52547,List2B,white,woman,,,,null,,,,
null,are marrying each other,,html-keyboard-response,312,1209418,0.0-17.0-2.16,52547,List2B,white,woman,,,,null,,,,
12554,,,survey-text,313,1221973,0.0-17.0-3.16,52547,List2B,white,woman,,,,,"{""Q0"":""kate and ruth are marrying each other ""}","<img src=""stim_listB/marry8.gif""</stim_listB>",are marrying each other,
null,"<div style=""font-size:60px;"">+</div>",,html-keyboard-response,314,1222474,0.0-17.0-0.17,52547,List2B,white,woman,,,,null,,,,
null,"<img src=""stim_listB/kiss5.gif""</stim_listB>",,html-keyboard-response,315,1224476,0.0-17.0-1.17,52547,List2B,white,woman,,,,null,,,,
null,is kissing,,html-keyboard-response,316,1226479,0.0-17.0-2.17,52547,List2B,white,woman,,,,null,,,,
8939,,,survey-text,317,1235418,0.0-17.0-3.17,52547,List2B,white,woman,,,,,"{""Q0"":""fred and luke are kissing each other""}","<img src=""stim_listB/kiss5.gif""</stim_listB>",is kissing,
null,"<div style=""font-size:60px;"">+</div>",,html-keyboard-response,318,1235919,0.0-17.0-0.18,52547,List2B,white,woman,,,,null,,,,
null,"<img src=""stim_listB/argue7.gif""</stim_listB>",,html-keyboard-response,319,1237922,0.0-17.0-1.18,52547,List2B,white,woman,,,,null,,,,
null,is arguing with,,html-keyboard-response,320,1239924,0.0-17.0-2.18,52547,List2B,white,woman,,,,null,,,,
7920,,,survey-text,321,1247845,0.0-17.0-3.18,52547,List2B,white,woman,,,,,"{""Q0"":""jane is arguing with beth""}","<img src=""stim_listB/argue7.gif""</stim_listB>",is arguing with,
null,"<div style=""font-size:60px;"">+</div>",,html-keyboard-response,322,1248348,0.0-17.0-0.19,52547,List2B,white,woman,,,,null,,,,
null,"<img src=""stim_listB/touch4.gif""</stim_listB>",,html-keyboard-response,323,1250350,0.0-17.0-1.19,52547,List2B,white,woman,,,,null,,,,
null,are touching each other,,html-keyboard-response,324,1252352,0.0-17.0-2.19,52547,List2B,white,woman,,,,null,,,,
8549,,,survey-text,325,1260902,0.0-17.0-3.19,52547,List2B,white,woman,,,,,"{""Q0"":""beth and fred are touching each other""}","<img src=""stim_listB/touch4.gif""</stim_listB>",are touching each other,
2174,"<img src='img/portrait_matrix_list2.JPG' style='width:900px;height:500px;''></img><p>If you have memorised all the portraits and names and are ready to start, press Continue.</p><p><strong>Please note: Your memory of these faces will be tested 4 times during this experiment.</strong></p>",0,html-button-response,326,1263078,0.0-18.0-0.0,52547,List2B,white,woman,,,,,,,,
2639,"<img src=""portrait/BM1.jpg""style=""width:400px;height:400px;""></img>",4,html-button-response,327,1266719,0.0-18.0-1.0,52547,List2B,white,woman,,TRUE,4,,,,,
null,CORRECT,,html-keyboard-response,328,1268221,0.0-18.0-2.0-0.0,52547,List2B,white,woman,,,,null,,,,
2222,"<img src=""portrait/WW1.jpg""style=""width:400px;height:400px;""></img>",1,html-button-response,329,1270445,0.0-18.0-4.0,52547,List2B,white,woman,,TRUE,1,,,,,
null,CORRECT,,html-keyboard-response,330,1271948,0.0-18.0-5.0-0.0,52547,List2B,white,woman,,,,null,,,,
2738,"<img src=""portrait/WM2.jpg""style=""width:400px;height:400px;""></img>",7,html-button-response,331,1274688,0.0-18.0-7.0,52547,List2B,white,woman,,TRUE,7,,,,,
null,CORRECT,,html-keyboard-response,332,1276191,0.0-18.0-8.0-0.0,52547,List2B,white,woman,,,,null,,,,
2297,"<img src=""portrait/BW2.jpg""style=""width:400px;height:400px;""></img>",2,html-button-response,333,1278490,0.0-18.0-10.0,52547,List2B,white,woman,,TRUE,2,,,,,
null,CORRECT,,html-keyboard-response,334,1279993,0.0-18.0-11.0-0.0,52547,List2B,white,woman,,,,null,,,,
2561,"<img src=""portrait/WM1.jpg""style=""width:400px;height:400px;""></img>",6,html-button-response,335,1282556,0.0-18.0-13.0,52547,List2B,white,woman,,TRUE,6,,,,,
null,CORRECT,,html-keyboard-response,336,1284059,0.0-18.0-14.0-0.0,52547,List2B,white,woman,,,,null,,,,
1444,"<img src=""portrait/BM2.jpg""style=""width:400px;height:400px;""></img>",5,html-button-response,337,1285504,0.0-18.0-16.0,52547,List2B,white,woman,,TRUE,5,,,,,
null,CORRECT,,html-keyboard-response,338,1287008,0.0-18.0-17.0-0.0,52547,List2B,white,woman,,,,null,,,,
6336,"<img src=""portrait/BW1.jpg""style=""width:400px;height:400px;""></img>",0,html-button-response,339,1293345,0.0-18.0-19.0,52547,List2B,white,woman,,TRUE,0,,,,,
null,CORRECT,,html-keyboard-response,340,1294849,0.0-18.0-20.0-0.0,52547,List2B,white,woman,,,,null,,,,
1745,"<img src=""portrait/WW2.jpg""style=""width:400px;height:400px;""></img>",3,html-button-response,341,1296595,0.0-18.0-22.0,52547,List2B,white,woman,,TRUE,3,,,,,
null,CORRECT,,html-keyboard-response,342,1298097,0.0-18.0-23.0-0.0,52547,List2B,white,woman,,,,null,,,,
2066,<p>You got 8 out of 8 right first time. Press Continue.</p>,0,html-button-response,343,1300165,0.0-18.0-25.0,52547,List2B,white,woman,,,,,,,,
null,"<div style=""font-size:60px;"">+</div>",,html-keyboard-response,344,1301669,0.0-19.0-0.0,52547,List2B,white,woman,,,,null,,,,
null,"<img src=""stim_listB/hug5.gif""</stim_listB>",,html-keyboard-response,345,1303671,0.0-19.0-1.0,52547,List2B,white,woman,,,,null,,,,
null,is hugging,,html-keyboard-response,346,1305673,0.0-19.0-2.0,52547,List2B,white,woman,,,,null,,,,
5260,,,survey-text,347,1310934,0.0-19.0-3.0,52547,List2B,white,woman,,,,,"{""Q0"":""luke is huging fred""}","<img src=""stim_listB/hug5.gif""</stim_listB>",is hugging,
null,"<div style=""font-size:60px;"">+</div>",,html-keyboard-response,348,1311436,0.0-19.0-0.1,52547,List2B,white,woman,,,,null,,,,
null,"<img src=""stim_listB/dance8.gif""</stim_listB>",,html-keyboard-response,349,1313439,0.0-19.0-1.1,52547,List2B,white,woman,,,,null,,,,
null,are dancing with each other,,html-keyboard-response,350,1315441,0.0-19.0-2.1,52547,List2B,white,woman,,,,null,,,,
7643,,,survey-text,351,1323086,0.0-19.0-3.1,52547,List2B,white,woman,,,,,"{""Q0"":""jane and beth are dancing with each other""}","<img src=""stim_listB/dance8.gif""</stim_listB>",are dancing with each other,
null,"<div style=""font-size:60px;"">+</div>",,html-keyboard-response,352,1323588,0.0-19.0-0.2,52547,List2B,white,woman,,,,null,,,,
null,"<img src=""stim_listB/dance2.gif""</stim_listB>",,html-keyboard-response,353,1325591,0.0-19.0-1.2,52547,List2B,white,woman,,,,null,,,,
null,are dancing with each other,,html-keyboard-response,354,1327592,0.0-19.0-2.2,52547,List2B,white,woman,,,,null,,,,
15689,,,survey-text,355,1343283,0.0-19.0-3.2,52547,List2B,white,woman,,,,,"{""Q0"":""dave and ruth are dancing with each other""}","<img src=""stim_listB/dance2.gif""</stim_listB>",are dancing with each other,
null,"<div style=""font-size:60px;"">+</div>",,html-keyboard-response,356,1343785,0.0-19.0-0.3,52547,List2B,white,woman,,,,null,,,,
null,"<img src=""stim_listB/marry4.gif""</stim_listB>",,html-keyboard-response,357,1345787,0.0-19.0-1.3,52547,List2B,white,woman,,,,null,,,,
null,are marrying each other,,html-keyboard-response,358,1347789,0.0-19.0-2.3,52547,List2B,white,woman,,,,null,,,,
7437,,,survey-text,359,1355228,0.0-19.0-3.3,52547,List2B,white,woman,,,,,"{""Q0"":""kate and fred are marrying each other""}","<img src=""stim_listB/marry4.gif""</stim_listB>",are marrying each other,
null,"<div style=""font-size:60px;"">+</div>",,html-keyboard-response,360,1355729,0.0-19.0-0.4,52547,List2B,white,woman,,,,null,,,,
null,"<img src=""stim_listB/shout4.gif""</stim_listB>",,html-keyboard-response,361,1357732,0.0-19.0-1.4,52547,List2B,white,woman,,,,null,,,,
null,are shouting at each other,,html-keyboard-response,362,1359734,0.0-19.0-2.4,52547,List2B,white,woman,,,,null,,,,
13914,,,survey-text,363,1373649,0.0-19.0-3.4,52547,List2B,white,woman,,,,,"{""Q0"":""kate and mike are shouting at each other""}","<img src=""stim_listB/shout4.gif""</stim_listB>",are shouting at each other,
null,"<div style=""font-size:60px;"">+</div>",,html-keyboard-response,364,1374151,0.0-19.0-0.5,52547,List2B,white,woman,,,,null,,,,
null,"<img src=""stim_listB/kiss4.gif""</stim_listB>",,html-keyboard-response,365,1376154,0.0-19.0-1.5,52547,List2B,white,woman,,,,null,,,,
null,are kissing each other,,html-keyboard-response,366,1378156,0.0-19.0-2.5,52547,List2B,white,woman,,,,null,,,,
8807,,,survey-text,367,1386964,0.0-19.0-3.5,52547,List2B,white,woman,,,,,"{""Q0"":""kate and mike are kissing each other""}","<img src=""stim_listB/kiss4.gif""</stim_listB>",are kissing each other,
null,"<div style=""font-size:60px;"">+</div>",,html-keyboard-response,368,1387466,0.0-19.0-0.6,52547,List2B,white,woman,,,,null,,,,
null,"<img src=""stim_listB/meet7.gif""</stim_listB>",,html-keyboard-response,369,1389469,0.0-19.0-1.6,52547,List2B,white,woman,,,,null,,,,
null,is meeting,,html-keyboard-response,370,1391471,0.0-19.0-2.6,52547,List2B,white,woman,,,,null,,,,
4570,,,survey-text,371,1396042,0.0-19.0-3.6,52547,List2B,white,woman,,,,,"{""Q0"":""kate is meeting jane""}","<img src=""stim_listB/meet7.gif""</stim_listB>",is meeting,
null,"<div style=""font-size:60px;"">+</div>",,html-keyboard-response,372,1396544,0.0-19.0-0.7,52547,List2B,white,woman,,,,null,,,,
null,"<img src=""stim_listB/kiss2.gif""</stim_listB>",,html-keyboard-response,373,1398547,0.0-19.0-1.7,52547,List2B,white,woman,,,,null,,,,
null,are kissing each other,,html-keyboard-response,374,1400549,0.0-19.0-2.7,52547,List2B,white,woman,,,,null,,,,
8628,,,survey-text,375,1409178,0.0-19.0-3.7,52547,List2B,white,woman,,,,,"{""Q0"":""jane and dave is meeting each other""}","<img src=""stim_listB/kiss2.gif""</stim_listB>",are kissing each other,
null,"<div style=""font-size:60px;"">+</div>",,html-keyboard-response,376,1409680,0.0-19.0-0.8,52547,List2B,white,woman,,,,null,,,,
null,"<img src=""stim_listB/talk5.gif""</stim_listB>",,html-keyboard-response,377,1411681,0.0-19.0-1.8,52547,List2B,white,woman,,,,null,,,,
null,is talking to,,html-keyboard-response,378,1413683,0.0-19.0-2.8,52547,List2B,white,woman,,,,null,,,,
5993,,,survey-text,379,1419676,0.0-19.0-3.8,52547,List2B,white,woman,,,,,"{""Q0"":""mike is talking to luke""}","<img src=""stim_listB/talk5.gif""</stim_listB>",is talking to,
null,"<div style=""font-size:60px;"">+</div>",,html-keyboard-response,380,1420178,0.0-19.0-0.9,52547,List2B,white,woman,,,,null,,,,
null,"<img src=""stim_listB/dance5.gif""</stim_listB>",,html-keyboard-response,381,1422181,0.0-19.0-1.9,52547,List2B,white,woman,,,,null,,,,
null,is dancing with,,html-keyboard-response,382,1424183,0.0-19.0-2.9,52547,List2B,white,woman,,,,null,,,,
5730,,,survey-text,383,1429914,0.0-19.0-3.9,52547,List2B,white,woman,,,,,"{""Q0"":""mike is dancing with luke""}","<img src=""stim_listB/dance5.gif""</stim_listB>",is dancing with,
null,"<div style=""font-size:60px;"">+</div>",,html-keyboard-response,384,1430416,0.0-19.0-0.10,52547,List2B,white,woman,,,,null,,,,
null,"<img src=""stim_listB/talk3.gif""</stim_listB>",,html-keyboard-response,385,1432419,0.0-19.0-1.10,52547,List2B,white,woman,,,,null,,,,
null,is talking to,,html-keyboard-response,386,1434421,0.0-19.0-2.10,52547,List2B,white,woman,,,,null,,,,
10823,,,survey-text,387,1445246,0.0-19.0-3.10,52547,List2B,white,woman,,,,,"{""Q0"":""kate is talking to fred""}","<img src=""stim_listB/talk3.gif""</stim_listB>",is talking to,
null,"<div style=""font-size:60px;"">+</div>",,html-keyboard-response,388,1445748,0.0-19.0-0.11,52547,List2B,white,woman,,,,null,,,,
null,"<img src=""stim_listB/hug1.gif""</stim_listB>",,html-keyboard-response,389,1447751,0.0-19.0-1.11,52547,List2B,white,woman,,,,null,,,,
null,is hugging,,html-keyboard-response,390,1449753,0.0-19.0-2.11,52547,List2B,white,woman,,,,null,,,,
8327,,,survey-text,391,1458081,0.0-19.0-3.11,52547,List2B,white,woman,,,,,"{""Q0"":""luke is hugging ruth""}","<img src=""stim_listB/hug1.gif""</stim_listB>",is hugging,
null,"<div style=""font-size:60px;"">+</div>",,html-keyboard-response,392,1458584,0.0-19.0-0.12,52547,List2B,white,woman,,,,null,,,,
null,"<img src=""stim_listB/argue3.gif""</stim_listB>",,html-keyboard-response,393,1460586,0.0-19.0-1.12,52547,List2B,white,woman,,,,null,,,,
null,is arguing with,,html-keyboard-response,394,1462588,0.0-19.0-2.12,52547,List2B,white,woman,,,,null,,,,
8989,,,survey-text,395,1471578,0.0-19.0-3.12,52547,List2B,white,woman,,,,,"{""Q0"":""beth is arguing with mike""}","<img src=""stim_listB/argue3.gif""</stim_listB>",is arguing with,
null,"<div style=""font-size:60px;"">+</div>",,html-keyboard-response,396,1472080,0.0-19.0-0.13,52547,List2B,white,woman,,,,null,,,,
null,"<img src=""stim_listB/meet4.gif""</stim_listB>",,html-keyboard-response,397,1474083,0.0-19.0-1.13,52547,List2B,white,woman,,,,null,,,,
null,are meeting each other,,html-keyboard-response,398,1476085,0.0-19.0-2.13,52547,List2B,white,woman,,,,null,,,,
7043,,,survey-text,399,1483130,0.0-19.0-3.13,52547,List2B,white,woman,,,,,"{""Q0"":""beth and fred are meeting each other""}","<img src=""stim_listB/meet4.gif""</stim_listB>",are meeting each other,
null,"<div style=""font-size:60px;"">+</div>",,html-keyboard-response,400,1483632,0.0-19.0-0.14,52547,List2B,white,woman,,,,null,,,,
null,"<img src=""stim_listB/talk1.gif""</stim_listB>",,html-keyboard-response,401,1485635,0.0-19.0-1.14,52547,List2B,white,woman,,,,null,,,,
null,is talking to,,html-keyboard-response,402,1487637,0.0-19.0-2.14,52547,List2B,white,woman,,,,null,,,,
4970,,,survey-text,403,1492609,0.0-19.0-3.14,52547,List2B,white,woman,,,,,"{""Q0"":""jane is talking with luke""}","<img src=""stim_listB/talk1.gif""</stim_listB>",is talking to,
null,"<div style=""font-size:60px;"">+</div>",,html-keyboard-response,404,1493111,0.0-19.0-0.15,52547,List2B,white,woman,,,,null,,,,
null,"<img src=""stim_listB/argue5.gif""</stim_listB>",,html-keyboard-response,405,1495113,0.0-19.0-1.15,52547,List2B,white,woman,,,,null,,,,
null,is arguing with,,html-keyboard-response,406,1497115,0.0-19.0-2.15,52547,List2B,white,woman,,,,null,,,,
8028,,,survey-text,407,1505145,0.0-19.0-3.15,52547,List2B,white,woman,,,,,"{""Q0"":""dave is arguing with fred""}","<img src=""stim_listB/argue5.gif""</stim_listB>",is arguing with,
null,"<div style=""font-size:60px;"">+</div>",,html-keyboard-response,408,1505647,0.0-19.0-0.16,52547,List2B,white,woman,,,,null,,,,
null,"<img src=""stim_listB/meet6.gif""</stim_listB>",,html-keyboard-response,409,1507649,0.0-19.0-1.16,52547,List2B,white,woman,,,,null,,,,
null,are meeting each other,,html-keyboard-response,410,1509652,0.0-19.0-2.16,52547,List2B,white,woman,,,,null,,,,
7959,,,survey-text,411,1517613,0.0-19.0-3.16,52547,List2B,white,woman,,,,,"{""Q0"":""fred and luke are meeting each other""}","<img src=""stim_listB/meet6.gif""</stim_listB>",are meeting each other,
null,"<div style=""font-size:60px;"">+</div>",,html-keyboard-response,412,1518115,0.0-19.0-0.17,52547,List2B,white,woman,,,,null,,,,
null,"<img src=""stim_listB/marry6.gif""</stim_listB>",,html-keyboard-response,413,1520117,0.0-19.0-1.17,52547,List2B,white,woman,,,,null,,,,
null,are marrying each other,,html-keyboard-response,414,1522120,0.0-19.0-2.17,52547,List2B,white,woman,,,,null,,,,
7516,,,survey-text,415,1529637,0.0-19.0-3.17,52547,List2B,white,woman,,,,,"{""Q0"":""luke and mike are marrying each other""}","<img src=""stim_listB/marry6.gif""</stim_listB>",are marrying each other,
null,"<div style=""font-size:60px;"">+</div>",,html-keyboard-response,416,1530139,0.0-19.0-0.18,52547,List2B,white,woman,,,,null,,,,
null,"<img src=""stim_listB/shout6.gif""</stim_listB>",,html-keyboard-response,417,1532141,0.0-19.0-1.18,52547,List2B,white,woman,,,,null,,,,
null,are shouting at each other,,html-keyboard-response,418,1534143,0.0-19.0-2.18,52547,List2B,white,woman,,,,null,,,,
7970,,,survey-text,419,1542114,0.0-19.0-3.18,52547,List2B,white,woman,,,,,"{""Q0"":""luke and mike are shouting at each other""}","<img src=""stim_listB/shout6.gif""</stim_listB>",are shouting at each other,
null,"<div style=""font-size:60px;"">+</div>",,html-keyboard-response,420,1542616,0.0-19.0-0.19,52547,List2B,white,woman,,,,null,,,,
null,"<img src=""stim_listB/fight8.gif""</stim_listB>",,html-keyboard-response,421,1544619,0.0-19.0-1.19,52547,List2B,white,woman,,,,null,,,,
null,are fighting each other,,html-keyboard-response,422,1546621,0.0-19.0-2.19,52547,List2B,white,woman,,,,null,,,,
7961,,,survey-text,423,1554584,0.0-19.0-3.19,52547,List2B,white,woman,,,,,"{""Q0"":""beth and ruth are fighting each other""}","<img src=""stim_listB/fight8.gif""</stim_listB>",are fighting each other,
2847,<p>Thank you for completing that task.</p><p>The final part of this session is a short questionnaire.</p><p>Press Continue.</p>,0,html-button-response,424,1557431,0.0-20.0,52547,List2B,white,woman,,,,,,,,
20515,,,survey-text,425,1578947,0.0-21.0,52547,List2B,white,woman,,,,,"{""Q0"":""25"",""Q1"":""English"",""Q2"":""English"",""Q3"":""UK"",""Q4"":""White"",""Q5"":""female""}",,,demographics
79021,,,survey-likert,426,1657975,0.0-22.0,52547,List2B,white,woman,,,,,"{""Q0"":3,""Q1"":3,""Q2"":3,""Q3"":3,""Q4"":0,""Q5"":3,""Q6"":3,""Q7"":1,""Q8"":1,""Q9"":1,""Q10"":2,""Q11"":2,""Q12"":0,""Q13"":0}",,,likert_race
74818,,,survey-likert,427,1732798,0.0-23.0,52547,List2B,white,woman,,,,,"{""Q0"":4,""Q1"":2,""Q2"":6,""Q3"":0,""Q4"":5,""Q5"":0,""Q6"":1,""Q7"":2,""Q8"":4,""Q9"":2,""Q10"":2,""Q11"":2,""Q12"":0,""Q13"":0}",,,likert_gender
10050,,,survey-text,428,1742849,0.0-24.0,52547,List2B,white,woman,,,,,"{""Q0"":""ccc""}",,,worker_id
28651,,,external-html,429,1771590,0.0-25.0,52547,List2B,white,woman,debrief.html,,,,,,,
