rt,stimulus,button_pressed,trial_type,trial_index,time_elapsed,internal_node_id,subject,list,ppt_race,ppt_gender,url,first_guess,correct,key_press,responses,image_type,phrase_type,test_part
2754,Welcome to the experiment. Press Continue to begin.,0,html-button-response,0,2756,0.0-0.0,53467,List1B,white,man,,,,,,,,
19154,,,external-html,1,22938,0.0-1.0,53467,List1B,white,man,consent.html,,,,,,,
21152,"<p>On the next page, you will see portraits of 8 people and their names.</p><p>Your first task is to take a few minutes to memorise the names of these people.</p><p>You will have to recall their names during the rest of the experiment, so it is</p><p>essential that you try to memorise these people and their names as best as you can.</p><br><p><strong>You will then be tested on your memory of these names and portraits.</strong></p><br><p>The experiment will start after you have completed this memory test.</p><br><p>Ready?</p>",0,html-button-response,2,44091,0.0-2.0,53467,List1B,white,man,,,,,,,,
139354,"<img src='img/portrait_matrix_list1.JPG' style='width:900px;height:500px;''></img><p>If you have memorised all the portraits and names and are ready to start, press Continue.</p><p><strong>Please note: Your memory of these faces will be tested 4 times during this experiment.</strong></p>",0,html-button-response,3,184447,0.0-3.0-0.0,53467,List1B,white,man,,,,,,,,
3998,"<img src=""portrait/BW2.jpg""style=""width:400px;height:400px;""></img>",2,html-button-response,4,189447,0.0-3.0-1.0,53467,List1B,white,man,,TRUE,2,,,,,
null,CORRECT,,html-keyboard-response,5,190952,0.0-3.0-2.0-0.0,53467,List1B,white,man,,,,null,,,,
3757,"<img src=""portrait/WW1.jpg""style=""width:400px;height:400px;""></img>",1,html-button-response,6,194710,0.0-3.0-4.0,53467,List1B,white,man,,TRUE,1,,,,,
null,CORRECT,,html-keyboard-response,7,196216,0.0-3.0-5.0-0.0,53467,List1B,white,man,,,,null,,,,
4285,"<img src=""portrait/WW2.jpg""style=""width:400px;height:400px;""></img>",3,html-button-response,8,200502,0.0-3.0-7.0,53467,List1B,white,man,,TRUE,3,,,,,
null,CORRECT,,html-keyboard-response,9,202007,0.0-3.0-8.0-0.0,53467,List1B,white,man,,,,null,,,,
12186,"<img src=""portrait/WM1.jpg""style=""width:400px;height:400px;""></img>",6,html-button-response,10,214194,0.0-3.0-10.0,53467,List1B,white,man,,TRUE,6,,,,,
null,CORRECT,,html-keyboard-response,11,215698,0.0-3.0-11.0-0.0,53467,List1B,white,man,,,,null,,,,
3208,"<img src=""portrait/BM1.jpg""style=""width:400px;height:400px;""></img>",4,html-button-response,12,218908,0.0-3.0-13.0,53467,List1B,white,man,,TRUE,4,,,,,
null,CORRECT,,html-keyboard-response,13,220413,0.0-3.0-14.0-0.0,53467,List1B,white,man,,,,null,,,,
2324,"<img src=""portrait/BM2.jpg""style=""width:400px;height:400px;""></img>",5,html-button-response,14,222738,0.0-3.0-16.0,53467,List1B,white,man,,TRUE,5,,,,,
null,CORRECT,,html-keyboard-response,15,224240,0.0-3.0-17.0-0.0,53467,List1B,white,man,,,,null,,,,
3117,"<img src=""portrait/WM2.jpg""style=""width:400px;height:400px;""></img>",7,html-button-response,16,227358,0.0-3.0-19.0,53467,List1B,white,man,,TRUE,7,,,,,
null,CORRECT,,html-keyboard-response,17,228860,0.0-3.0-20.0-0.0,53467,List1B,white,man,,,,null,,,,
9213,"<img src=""portrait/BW1.jpg""style=""width:400px;height:400px;""></img>",0,html-button-response,18,238074,0.0-3.0-22.0,53467,List1B,white,man,,TRUE,0,,,,,
null,CORRECT,,html-keyboard-response,19,239576,0.0-3.0-23.0-0.0,53467,List1B,white,man,,,,null,,,,
1690,<p>You got 8 out of 8 right first time. Press Continue.</p>,0,html-button-response,20,241268,0.0-3.0-25.0,53467,List1B,white,man,,,,,,,,
78876,"<p>In this experiment, you will view photographs of the people from the memory game interacting.</p><p>By using the <strong>exact</strong> phrase given <i>after</i> the photograph appears and recalling the correct names of the people in the photographs, form a sentence describing the interaction. You do not need to capitalise names.</p><p>Type your answer in the space provided. Please complete every sentence before moving onto the next trial.</p><p>You will only have a few seconds to memorise each given photograph and phrase before you can respond, so try your best to focus.</p><p>An example is given below. Press 'Continue' when you are ready.</p><img src='img/speaking_example_v2.jpg' style='width:800px;height:460px;''></img>",0,html-button-response,21,321148,0.0-4.0,53467,List1B,white,man,,,,,,,,
4041,"<p>Before the experiment starts, you will watch two example trials. Press 'Continue'.</p>",0,html-button-response,22,326190,0.0-5.0,53467,List1B,white,man,,,,,,,,
null,<img src='img/speaking_WW.gif'></img>,,html-keyboard-response,23,329194,0.0-6.0,53467,List1B,white,man,,,,null,,,,
null,<p>is speaking to</p>,,html-keyboard-response,24,331195,0.0-7.0,53467,List1B,white,man,,,,null,,,,
7428,<p><b>Answer:</b> kate is speaking to beth</p>,0,html-button-response,25,338624,0.0-8.0,53467,List1B,white,man,,,,,,,,
null,<img src='img/pointing_BM.gif'></img>,,html-keyboard-response,26,341627,0.0-9.0,53467,List1B,white,man,,,,null,,,,
null,<p>are pointing at each other</p>,,html-keyboard-response,27,343630,0.0-10.0,53467,List1B,white,man,,,,null,,,,
4746,<p><b>Answer:</b> luke and dave are pointing at each other</p>,0,html-button-response,28,348377,0.0-11.0,53467,List1B,white,man,,,,,,,,
27798,"<p>Ready to start the experiment?</p><br><p><strong>Remember to describe the picture using a full sentence,</strong></p><p><strong>that combines the names of the people with the given phrase.</strong></p><p><strong>If you do not do this correctly you will not be paid.</strong></p><p><strong> You do not need to capitalise names or use punctuation.</strong></p><br><p>Press 'Continue' to begin.</p>",0,html-button-response,29,377176,0.0-12.0,53467,List1B,white,man,,,,,,,,
null,"<div style=""font-size:60px;"">+</div>",,html-keyboard-response,30,378680,0.0-13.0-0.0,53467,List1B,white,man,,,,null,,,,
null,"<img src=""stim_listB/argue1.gif""</stim_listB>",,html-keyboard-response,31,380684,0.0-13.0-1.0,53467,List1B,white,man,,,,null,,,,
null,is arguing with,,html-keyboard-response,32,382685,0.0-13.0-2.0,53467,List1B,white,man,,,,null,,,,
37867,,,survey-text,33,420554,0.0-13.0-3.0,53467,List1B,white,man,,,,,"{""Q0"":""Mike is arguing with Beth""}","<img src=""stim_listB/argue1.gif""</stim_listB>",is arguing with,
null,"<div style=""font-size:60px;"">+</div>",,html-keyboard-response,34,421057,0.0-13.0-0.1,53467,List1B,white,man,,,,null,,,,
null,"<img src=""stim_listB/fight3.gif""</stim_listB>",,html-keyboard-response,35,423059,0.0-13.0-1.1,53467,List1B,white,man,,,,null,,,,
null,is fighting,,html-keyboard-response,36,425060,0.0-13.0-2.1,53467,List1B,white,man,,,,null,,,,
27820,,,survey-text,37,452881,0.0-13.0-3.1,53467,List1B,white,man,,,,,"{""Q0"":""Dave is fighting with Jane""}","<img src=""stim_listB/fight3.gif""</stim_listB>",is fighting,
null,"<div style=""font-size:60px;"">+</div>",,html-keyboard-response,38,453382,0.0-13.0-0.2,53467,List1B,white,man,,,,null,,,,
null,"<img src=""stim_listB/argue4.gif""</stim_listB>",,html-keyboard-response,39,455385,0.0-13.0-1.2,53467,List1B,white,man,,,,null,,,,
null,are arguing with each other,,html-keyboard-response,40,457386,0.0-13.0-2.2,53467,List1B,white,man,,,,null,,,,
32380,,,survey-text,41,489767,0.0-13.0-3.2,53467,List1B,white,man,,,,,"{""Q0"":""Jane and Luke are arguing with each other.""}","<img src=""stim_listB/argue4.gif""</stim_listB>",are arguing with each other,
null,"<div style=""font-size:60px;"">+</div>",,html-keyboard-response,42,490268,0.0-13.0-0.3,53467,List1B,white,man,,,,null,,,,
null,"<img src=""stim_listB/kiss5.gif""</stim_listB>",,html-keyboard-response,43,492271,0.0-13.0-1.3,53467,List1B,white,man,,,,null,,,,
null,is kissing,,html-keyboard-response,44,494274,0.0-13.0-2.3,53467,List1B,white,man,,,,null,,,,
27862,,,survey-text,45,522137,0.0-13.0-3.3,53467,List1B,white,man,,,,,"{""Q0"":""Fred is kissing Luke.""}","<img src=""stim_listB/kiss5.gif""</stim_listB>",is kissing,
null,"<div style=""font-size:60px;"">+</div>",,html-keyboard-response,46,522639,0.0-13.0-0.4,53467,List1B,white,man,,,,null,,,,
null,"<img src=""stim_listB/kiss8.gif""</stim_listB>",,html-keyboard-response,47,524641,0.0-13.0-1.4,53467,List1B,white,man,,,,null,,,,
null,are kissing each other,,html-keyboard-response,48,526643,0.0-13.0-2.4,53467,List1B,white,man,,,,null,,,,
29675,,,survey-text,49,556319,0.0-13.0-3.4,53467,List1B,white,man,,,,,"{""Q0"":""Jane and Kate are kissing each other.""}","<img src=""stim_listB/kiss8.gif""</stim_listB>",are kissing each other,
null,"<div style=""font-size:60px;"">+</div>",,html-keyboard-response,50,556821,0.0-13.0-0.5,53467,List1B,white,man,,,,null,,,,
null,"<img src=""stim_listB/talk6.gif""</stim_listB>",,html-keyboard-response,51,558824,0.0-13.0-1.5,53467,List1B,white,man,,,,null,,,,
null,are talking to each other,,html-keyboard-response,52,560827,0.0-13.0-2.5,53467,List1B,white,man,,,,null,,,,
41842,,,survey-text,53,602671,0.0-13.0-3.5,53467,List1B,white,man,,,,,"{""Q0"":""Mike and Luke are talking to each other.""}","<img src=""stim_listB/talk6.gif""</stim_listB>",are talking to each other,
null,"<div style=""font-size:60px;"">+</div>",,html-keyboard-response,54,603171,0.0-13.0-0.6,53467,List1B,white,man,,,,null,,,,
null,"<img src=""stim_listB/meet3.gif""</stim_listB>",,html-keyboard-response,55,605174,0.0-13.0-1.6,53467,List1B,white,man,,,,null,,,,
null,is meeting,,html-keyboard-response,56,607177,0.0-13.0-2.6,53467,List1B,white,man,,,,null,,,,
24454,,,survey-text,57,631632,0.0-13.0-3.6,53467,List1B,white,man,,,,,"{""Q0"":""Dave is meeting Jane. ""}","<img src=""stim_listB/meet3.gif""</stim_listB>",is meeting,
null,"<div style=""font-size:60px;"">+</div>",,html-keyboard-response,58,632133,0.0-13.0-0.7,53467,List1B,white,man,,,,null,,,,
null,"<img src=""stim_listB/fight4.gif""</stim_listB>",,html-keyboard-response,59,634135,0.0-13.0-1.7,53467,List1B,white,man,,,,null,,,,
null,are fighting each other,,html-keyboard-response,60,636136,0.0-13.0-2.7,53467,List1B,white,man,,,,null,,,,
46229,,,survey-text,61,682366,0.0-13.0-3.7,53467,List1B,white,man,,,,,"{""Q0"":""Ruth and Luke are fighting each other.""}","<img src=""stim_listB/fight4.gif""</stim_listB>",are fighting each other,
null,"<div style=""font-size:60px;"">+</div>",,html-keyboard-response,62,682869,0.0-13.0-0.8,53467,List1B,white,man,,,,null,,,,
null,"<img src=""stim_listB/touch1.gif""</stim_listB>",,html-keyboard-response,63,684872,0.0-13.0-1.8,53467,List1B,white,man,,,,null,,,,
null,is touching,,html-keyboard-response,64,686874,0.0-13.0-2.8,53467,List1B,white,man,,,,null,,,,
16740,,,survey-text,65,703616,0.0-13.0-3.8,53467,List1B,white,man,,,,,"{""Q0"":""Mike is touching Kate.""}","<img src=""stim_listB/touch1.gif""</stim_listB>",is touching,
null,"<div style=""font-size:60px;"">+</div>",,html-keyboard-response,66,704119,0.0-13.0-0.9,53467,List1B,white,man,,,,null,,,,
null,"<img src=""stim_listB/kiss3.gif""</stim_listB>",,html-keyboard-response,67,706122,0.0-13.0-1.9,53467,List1B,white,man,,,,null,,,,
null,is kissing,,html-keyboard-response,68,708125,0.0-13.0-2.9,53467,List1B,white,man,,,,null,,,,
23483,,,survey-text,69,731609,0.0-13.0-3.9,53467,List1B,white,man,,,,,"{""Q0"":""Luke is kissing Ruth.""}","<img src=""stim_listB/kiss3.gif""</stim_listB>",is kissing,
null,"<div style=""font-size:60px;"">+</div>",,html-keyboard-response,70,732111,0.0-13.0-0.10,53467,List1B,white,man,,,,null,,,,
null,"<img src=""stim_listB/meet2.gif""</stim_listB>",,html-keyboard-response,71,734114,0.0-13.0-1.10,53467,List1B,white,man,,,,null,,,,
null,are meeting each other,,html-keyboard-response,72,736116,0.0-13.0-2.10,53467,List1B,white,man,,,,null,,,,
16358,,,survey-text,73,752475,0.0-13.0-3.10,53467,List1B,white,man,,,,,"{""Q0"":""Beth and Fred are meeting each other. ""}","<img src=""stim_listB/meet2.gif""</stim_listB>",are meeting each other,
null,"<div style=""font-size:60px;"">+</div>",,html-keyboard-response,74,752977,0.0-13.0-0.11,53467,List1B,white,man,,,,null,,,,
null,"<img src=""stim_listB/kiss1.gif""</stim_listB>",,html-keyboard-response,75,754978,0.0-13.0-1.11,53467,List1B,white,man,,,,null,,,,
null,is kissing,,html-keyboard-response,76,756979,0.0-13.0-2.11,53467,List1B,white,man,,,,null,,,,
15784,,,survey-text,77,772764,0.0-13.0-3.11,53467,List1B,white,man,,,,,"{""Q0"":""Fred is kissing Beth. ""}","<img src=""stim_listB/kiss1.gif""</stim_listB>",is kissing,
null,"<div style=""font-size:60px;"">+</div>",,html-keyboard-response,78,773265,0.0-13.0-0.12,53467,List1B,white,man,,,,null,,,,
null,"<img src=""stim_listB/talk4.gif""</stim_listB>",,html-keyboard-response,79,775267,0.0-13.0-1.12,53467,List1B,white,man,,,,null,,,,
null,are talking to each other,,html-keyboard-response,80,777268,0.0-13.0-2.12,53467,List1B,white,man,,,,null,,,,
14656,,,survey-text,81,791925,0.0-13.0-3.12,53467,List1B,white,man,,,,,"{""Q0"":""Ruth and Dave are talking to each other. ""}","<img src=""stim_listB/talk4.gif""</stim_listB>",are talking to each other,
null,"<div style=""font-size:60px;"">+</div>",,html-keyboard-response,82,792427,0.0-13.0-0.13,53467,List1B,white,man,,,,null,,,,
null,"<img src=""stim_listB/shout1.gif""</stim_listB>",,html-keyboard-response,83,794431,0.0-13.0-1.13,53467,List1B,white,man,,,,null,,,,
null,is shouting at,,html-keyboard-response,84,796432,0.0-13.0-2.13,53467,List1B,white,man,,,,null,,,,
9619,,,survey-text,85,806052,0.0-13.0-3.13,53467,List1B,white,man,,,,,"{""Q0"":""Fred is shouting at Beth. ""}","<img src=""stim_listB/shout1.gif""</stim_listB>",is shouting at,
null,"<div style=""font-size:60px;"">+</div>",,html-keyboard-response,86,806554,0.0-13.0-0.14,53467,List1B,white,man,,,,null,,,,
null,"<img src=""stim_listB/marry1.gif""</stim_listB>",,html-keyboard-response,87,808558,0.0-13.0-1.14,53467,List1B,white,man,,,,null,,,,
null,is marrying,,html-keyboard-response,88,810559,0.0-13.0-2.14,53467,List1B,white,man,,,,null,,,,
9026,,,survey-text,89,819586,0.0-13.0-3.14,53467,List1B,white,man,,,,,"{""Q0"":""Beth is marrying Mike. ""}","<img src=""stim_listB/marry1.gif""</stim_listB>",is marrying,
null,"<div style=""font-size:60px;"">+</div>",,html-keyboard-response,90,820088,0.0-13.0-0.15,53467,List1B,white,man,,,,null,,,,
null,"<img src=""stim_listB/marry6.gif""</stim_listB>",,html-keyboard-response,91,822092,0.0-13.0-1.15,53467,List1B,white,man,,,,null,,,,
null,are marrying each other,,html-keyboard-response,92,824093,0.0-13.0-2.15,53467,List1B,white,man,,,,null,,,,
10921,,,survey-text,93,835015,0.0-13.0-3.15,53467,List1B,white,man,,,,,"{""Q0"":""Dave and Fred are marrying each other. ""}","<img src=""stim_listB/marry6.gif""</stim_listB>",are marrying each other,
null,"<div style=""font-size:60px;"">+</div>",,html-keyboard-response,94,835517,0.0-13.0-0.16,53467,List1B,white,man,,,,null,,,,
null,"<img src=""stim_listB/fight2.gif""</stim_listB>",,html-keyboard-response,95,837520,0.0-13.0-1.16,53467,List1B,white,man,,,,null,,,,
null,are fighting each other,,html-keyboard-response,96,839522,0.0-13.0-2.16,53467,List1B,white,man,,,,null,,,,
19883,,,survey-text,97,859406,0.0-13.0-3.16,53467,List1B,white,man,,,,,"{""Q0"":""Fred and Beth are fighting each other. ""}","<img src=""stim_listB/fight2.gif""</stim_listB>",are fighting each other,
null,"<div style=""font-size:60px;"">+</div>",,html-keyboard-response,98,859907,0.0-13.0-0.17,53467,List1B,white,man,,,,null,,,,
null,"<img src=""stim_listB/hug3.gif""</stim_listB>",,html-keyboard-response,99,861909,0.0-13.0-1.17,53467,List1B,white,man,,,,null,,,,
null,is hugging,,html-keyboard-response,100,863911,0.0-13.0-2.17,53467,List1B,white,man,,,,null,,,,
14564,,,survey-text,101,878475,0.0-13.0-3.17,53467,List1B,white,man,,,,,"{""Q0"":""Ruth is hugging Luke.""}","<img src=""stim_listB/hug3.gif""</stim_listB>",is hugging,
null,"<div style=""font-size:60px;"">+</div>",,html-keyboard-response,102,878977,0.0-13.0-0.18,53467,List1B,white,man,,,,null,,,,
null,"<img src=""stim_listB/marry3.gif""</stim_listB>",,html-keyboard-response,103,880980,0.0-13.0-1.18,53467,List1B,white,man,,,,null,,,,
null,is marrying,,html-keyboard-response,104,882982,0.0-13.0-2.18,53467,List1B,white,man,,,,null,,,,
22891,,,survey-text,105,905875,0.0-13.0-3.18,53467,List1B,white,man,,,,,"{""Q0"":""Dave is marrying Ruth. ""}","<img src=""stim_listB/marry3.gif""</stim_listB>",is marrying,
null,"<div style=""font-size:60px;"">+</div>",,html-keyboard-response,106,906376,0.0-13.0-0.19,53467,List1B,white,man,,,,null,,,,
null,"<img src=""stim_listB/meet1.gif""</stim_listB>",,html-keyboard-response,107,908380,0.0-13.0-1.19,53467,List1B,white,man,,,,null,,,,
null,is meeting,,html-keyboard-response,108,910382,0.0-13.0-2.19,53467,List1B,white,man,,,,null,,,,
17951,,,survey-text,109,928337,0.0-13.0-3.19,53467,List1B,white,man,,,,,"{""Q0"":""Kate is meeting Fred.""}","<img src=""stim_listB/meet1.gif""</stim_listB>",is meeting,
31085,"<img src='img/portrait_matrix_list1.JPG' style='width:900px;height:500px;''></img><p>If you have memorised all the portraits and names and are ready to start, press Continue.</p><p><strong>Please note: Your memory of these faces will be tested 4 times during this experiment.</strong></p>",0,html-button-response,110,959423,0.0-14.0-0.0,53467,List1B,white,man,,,,,,,,
3327,"<img src=""portrait/WW1.jpg""style=""width:400px;height:400px;""></img>",2,html-button-response,111,963753,0.0-14.0-1.0,53467,List1B,white,man,,TRUE,1,,,,,
10357,"<img src=""portrait/WW1.jpg""style=""width:400px;height:400px;""></img>",1,html-button-response,112,975112,0.0-14.0-3.0-0.0,53467,List1B,white,man,,FALSE,1,,,,,
null,CORRECT,,html-keyboard-response,113,976616,0.0-14.0-3.0-1.0-0.0,53467,List1B,white,man,,,,null,,,,
4537,"<img src=""portrait/WM1.jpg""style=""width:400px;height:400px;""></img>",6,html-button-response,114,981155,0.0-14.0-4.0,53467,List1B,white,man,,TRUE,6,,,,,
null,CORRECT,,html-keyboard-response,115,982659,0.0-14.0-5.0-0.0,53467,List1B,white,man,,,,null,,,,
4091,"<img src=""portrait/BW2.jpg""style=""width:400px;height:400px;""></img>",2,html-button-response,116,986752,0.0-14.0-7.0,53467,List1B,white,man,,TRUE,2,,,,,
null,CORRECT,,html-keyboard-response,117,988254,0.0-14.0-8.0-0.0,53467,List1B,white,man,,,,null,,,,
1995,"<img src=""portrait/WW2.jpg""style=""width:400px;height:400px;""></img>",3,html-button-response,118,990250,0.0-14.0-10.0,53467,List1B,white,man,,TRUE,3,,,,,
null,CORRECT,,html-keyboard-response,119,991754,0.0-14.0-11.0-0.0,53467,List1B,white,man,,,,null,,,,
2520,"<img src=""portrait/WM2.jpg""style=""width:400px;height:400px;""></img>",7,html-button-response,120,994276,0.0-14.0-13.0,53467,List1B,white,man,,TRUE,7,,,,,
null,CORRECT,,html-keyboard-response,121,995778,0.0-14.0-14.0-0.0,53467,List1B,white,man,,,,null,,,,
2818,"<img src=""portrait/BM1.jpg""style=""width:400px;height:400px;""></img>",4,html-button-response,122,998597,0.0-14.0-16.0,53467,List1B,white,man,,TRUE,4,,,,,
null,CORRECT,,html-keyboard-response,123,1000101,0.0-14.0-17.0-0.0,53467,List1B,white,man,,,,null,,,,
9425,"<img src=""portrait/BW1.jpg""style=""width:400px;height:400px;""></img>",0,html-button-response,124,1009527,0.0-14.0-19.0,53467,List1B,white,man,,TRUE,0,,,,,
null,CORRECT,,html-keyboard-response,125,1011031,0.0-14.0-20.0-0.0,53467,List1B,white,man,,,,null,,,,
5144,"<img src=""portrait/BM2.jpg""style=""width:400px;height:400px;""></img>",5,html-button-response,126,1016177,0.0-14.0-22.0,53467,List1B,white,man,,TRUE,5,,,,,
null,CORRECT,,html-keyboard-response,127,1017680,0.0-14.0-23.0-0.0,53467,List1B,white,man,,,,null,,,,
5493,<p>You got 7 out of 8 right first time. Press Continue.</p>,0,html-button-response,128,1023175,0.0-14.0-25.0,53467,List1B,white,man,,,,,,,,
4318,"As you did not score 100%, the memory game will repeat. Press Continue.",0,html-button-response,129,1028495,0.0-14.0-26.0-0.0,53467,List1B,white,man,,,,,,,,
1721,"<img src='img/portrait_matrix_list1.JPG' style='width:900px;height:500px;''></img><p>If you have memorised all the portraits and names and are ready to start, press Continue.</p><p><strong>Please note: Your memory of these faces will be tested 4 times during this experiment.</strong></p>",0,html-button-response,130,1031221,0.0-14.1-0.1,53467,List1B,white,man,,,,,,,,
2559,"<img src=""portrait/WW1.jpg""style=""width:400px;height:400px;""></img>",1,html-button-response,131,1034783,0.0-14.1-1.1,53467,List1B,white,man,,TRUE,1,,,,,
null,CORRECT,,html-keyboard-response,132,1036285,0.0-14.1-2.1-0.1,53467,List1B,white,man,,,,null,,,,
1628,"<img src=""portrait/WM1.jpg""style=""width:400px;height:400px;""></img>",6,html-button-response,133,1037918,0.0-14.1-4.1,53467,List1B,white,man,,TRUE,6,,,,,
null,CORRECT,,html-keyboard-response,134,1039421,0.0-14.1-5.1-0.1,53467,List1B,white,man,,,,null,,,,
2953,"<img src=""portrait/BW2.jpg""style=""width:400px;height:400px;""></img>",2,html-button-response,135,1042375,0.0-14.1-7.1,53467,List1B,white,man,,TRUE,2,,,,,
null,CORRECT,,html-keyboard-response,136,1043878,0.0-14.1-8.1-0.1,53467,List1B,white,man,,,,null,,,,
1552,"<img src=""portrait/WW2.jpg""style=""width:400px;height:400px;""></img>",3,html-button-response,137,1045432,0.0-14.1-10.1,53467,List1B,white,man,,TRUE,3,,,,,
null,CORRECT,,html-keyboard-response,138,1046935,0.0-14.1-11.1-0.1,53467,List1B,white,man,,,,null,,,,
1501,"<img src=""portrait/WM2.jpg""style=""width:400px;height:400px;""></img>",7,html-button-response,139,1048438,0.0-14.1-13.1,53467,List1B,white,man,,TRUE,7,,,,,
null,CORRECT,,html-keyboard-response,140,1049941,0.0-14.1-14.1-0.1,53467,List1B,white,man,,,,null,,,,
1943,"<img src=""portrait/BM1.jpg""style=""width:400px;height:400px;""></img>",4,html-button-response,141,1051886,0.0-14.1-16.1,53467,List1B,white,man,,TRUE,4,,,,,
null,CORRECT,,html-keyboard-response,142,1053388,0.0-14.1-17.1-0.1,53467,List1B,white,man,,,,null,,,,
3462,"<img src=""portrait/BW1.jpg""style=""width:400px;height:400px;""></img>",0,html-button-response,143,1056852,0.0-14.1-19.1,53467,List1B,white,man,,TRUE,0,,,,,
null,CORRECT,,html-keyboard-response,144,1058355,0.0-14.1-20.1-0.1,53467,List1B,white,man,,,,null,,,,
2451,"<img src=""portrait/BM2.jpg""style=""width:400px;height:400px;""></img>",5,html-button-response,145,1060808,0.0-14.1-22.1,53467,List1B,white,man,,TRUE,5,,,,,
null,CORRECT,,html-keyboard-response,146,1062311,0.0-14.1-23.1-0.1,53467,List1B,white,man,,,,null,,,,
1781,<p>You got 8 out of 8 right first time. Press Continue.</p>,0,html-button-response,147,1064095,0.0-14.1-25.1,53467,List1B,white,man,,,,,,,,
null,"<div style=""font-size:60px;"">+</div>",,html-keyboard-response,148,1065598,0.0-15.0-0.0,53467,List1B,white,man,,,,null,,,,
null,"<img src=""stim_listB/dance6.gif""</stim_listB>",,html-keyboard-response,149,1067601,0.0-15.0-1.0,53467,List1B,white,man,,,,null,,,,
null,are dancing with each other,,html-keyboard-response,150,1069604,0.0-15.0-2.0,53467,List1B,white,man,,,,null,,,,
35872,,,survey-text,151,1105476,0.0-15.0-3.0,53467,List1B,white,man,,,,,"{""Q0"":""Mike and Luke are dancing with each other.""}","<img src=""stim_listB/dance6.gif""</stim_listB>",are dancing with each other,
null,"<div style=""font-size:60px;"">+</div>",,html-keyboard-response,152,1105979,0.0-15.0-0.1,53467,List1B,white,man,,,,null,,,,
null,"<img src=""stim_listB/marry7.gif""</stim_listB>",,html-keyboard-response,153,1107982,0.0-15.0-1.1,53467,List1B,white,man,,,,null,,,,
null,is marrying,,html-keyboard-response,154,1109983,0.0-15.0-2.1,53467,List1B,white,man,,,,null,,,,
8359,,,survey-text,155,1118342,0.0-15.0-3.1,53467,List1B,white,man,,,,,"{""Q0"":""Kate is marrying Ruth.""}","<img src=""stim_listB/marry7.gif""</stim_listB>",is marrying,
null,"<div style=""font-size:60px;"">+</div>",,html-keyboard-response,156,1118845,0.0-15.0-0.2,53467,List1B,white,man,,,,null,,,,
null,"<img src=""stim_listB/hug1.gif""</stim_listB>",,html-keyboard-response,157,1120849,0.0-15.0-1.2,53467,List1B,white,man,,,,null,,,,
null,is hugging,,html-keyboard-response,158,1122850,0.0-15.0-2.2,53467,List1B,white,man,,,,null,,,,
11885,,,survey-text,159,1134737,0.0-15.0-3.2,53467,List1B,white,man,,,,,"{""Q0"":""Fred is hugging Beth""}","<img src=""stim_listB/hug1.gif""</stim_listB>",is hugging,
null,"<div style=""font-size:60px;"">+</div>",,html-keyboard-response,160,1135239,0.0-15.0-0.3,53467,List1B,white,man,,,,null,,,,
null,"<img src=""stim_listB/meet8.gif""</stim_listB>",,html-keyboard-response,161,1137240,0.0-15.0-1.3,53467,List1B,white,man,,,,null,,,,
null,are meeting each other,,html-keyboard-response,162,1139242,0.0-15.0-2.3,53467,List1B,white,man,,,,null,,,,
9049,,,survey-text,163,1148292,0.0-15.0-3.3,53467,List1B,white,man,,,,,"{""Q0"":""Beth and Ruth are meeting each other.""}","<img src=""stim_listB/meet8.gif""</stim_listB>",are meeting each other,
null,"<div style=""font-size:60px;"">+</div>",,html-keyboard-response,164,1148793,0.0-15.0-0.4,53467,List1B,white,man,,,,null,,,,
null,"<img src=""stim_listB/kiss7.gif""</stim_listB>",,html-keyboard-response,165,1150795,0.0-15.0-1.4,53467,List1B,white,man,,,,null,,,,
null,is kissing,,html-keyboard-response,166,1152798,0.0-15.0-2.4,53467,List1B,white,man,,,,null,,,,
10398,,,survey-text,167,1163197,0.0-15.0-3.4,53467,List1B,white,man,,,,,"{""Q0"":""Ruth is kissing Beth.""}","<img src=""stim_listB/kiss7.gif""</stim_listB>",is kissing,
null,"<div style=""font-size:60px;"">+</div>",,html-keyboard-response,168,1163698,0.0-15.0-0.5,53467,List1B,white,man,,,,null,,,,
null,"<img src=""stim_listB/touch6.gif""</stim_listB>",,html-keyboard-response,169,1165701,0.0-15.0-1.5,53467,List1B,white,man,,,,null,,,,
null,are touching each other,,html-keyboard-response,170,1167703,0.0-15.0-2.5,53467,List1B,white,man,,,,null,,,,
15752,,,survey-text,171,1183457,0.0-15.0-3.5,53467,List1B,white,man,,,,,"{""Q0"":""Fred and Luke are touching each other.""}","<img src=""stim_listB/touch6.gif""</stim_listB>",are touching each other,
null,"<div style=""font-size:60px;"">+</div>",,html-keyboard-response,172,1183959,0.0-15.0-0.6,53467,List1B,white,man,,,,null,,,,
null,"<img src=""stim_listB/kiss4.gif""</stim_listB>",,html-keyboard-response,173,1185963,0.0-15.0-1.6,53467,List1B,white,man,,,,null,,,,
null,are kissing each other,,html-keyboard-response,174,1187964,0.0-15.0-2.6,53467,List1B,white,man,,,,null,,,,
9700,,,survey-text,175,1197665,0.0-15.0-3.6,53467,List1B,white,man,,,,,"{""Q0"":""Dave and Jane are kissing each other.""}","<img src=""stim_listB/kiss4.gif""</stim_listB>",are kissing each other,
null,"<div style=""font-size:60px;"">+</div>",,html-keyboard-response,176,1198167,0.0-15.0-0.7,53467,List1B,white,man,,,,null,,,,
null,"<img src=""stim_listB/fight7.gif""</stim_listB>",,html-keyboard-response,177,1200169,0.0-15.0-1.7,53467,List1B,white,man,,,,null,,,,
null,is fighting,,html-keyboard-response,178,1202171,0.0-15.0-2.7,53467,List1B,white,man,,,,null,,,,
13565,,,survey-text,179,1215736,0.0-15.0-3.7,53467,List1B,white,man,,,,,"{""Q0"":""Kate is fighting Jane.""}","<img src=""stim_listB/fight7.gif""</stim_listB>",is fighting,
null,"<div style=""font-size:60px;"">+</div>",,html-keyboard-response,180,1216238,0.0-15.0-0.8,53467,List1B,white,man,,,,null,,,,
null,"<img src=""stim_listB/fight8.gif""</stim_listB>",,html-keyboard-response,181,1218239,0.0-15.0-1.8,53467,List1B,white,man,,,,null,,,,
null,are fighting each other,,html-keyboard-response,182,1220241,0.0-15.0-2.8,53467,List1B,white,man,,,,null,,,,
8406,,,survey-text,183,1228648,0.0-15.0-3.8,53467,List1B,white,man,,,,,"{""Q0"":""Ruth and Beth are fighting each other.""}","<img src=""stim_listB/fight8.gif""</stim_listB>",are fighting each other,
null,"<div style=""font-size:60px;"">+</div>",,html-keyboard-response,184,1229150,0.0-15.0-0.9,53467,List1B,white,man,,,,null,,,,
null,"<img src=""stim_listB/hug6.gif""</stim_listB>",,html-keyboard-response,185,1231153,0.0-15.0-1.9,53467,List1B,white,man,,,,null,,,,
null,are hugging each other,,html-keyboard-response,186,1233155,0.0-15.0-2.9,53467,List1B,white,man,,,,null,,,,
11068,,,survey-text,187,1244223,0.0-15.0-3.9,53467,List1B,white,man,,,,,"{""Q0"":""Dave and Mike are hugging each other.""}","<img src=""stim_listB/hug6.gif""</stim_listB>",are hugging each other,
null,"<div style=""font-size:60px;"">+</div>",,html-keyboard-response,188,1244725,0.0-15.0-0.10,53467,List1B,white,man,,,,null,,,,
null,"<img src=""stim_listB/dance4.gif""</stim_listB>",,html-keyboard-response,189,1246728,0.0-15.0-1.10,53467,List1B,white,man,,,,null,,,,
null,are dancing with each other,,html-keyboard-response,190,1248729,0.0-15.0-2.10,53467,List1B,white,man,,,,null,,,,
11345,,,survey-text,191,1260076,0.0-15.0-3.10,53467,List1B,white,man,,,,,"{""Q0"":""Dave and Ruth are dancing with each other.""}","<img src=""stim_listB/dance4.gif""</stim_listB>",are dancing with each other,
null,"<div style=""font-size:60px;"">+</div>",,html-keyboard-response,192,1260576,0.0-15.0-0.11,53467,List1B,white,man,,,,null,,,,
null,"<img src=""stim_listB/hug2.gif""</stim_listB>",,html-keyboard-response,193,1262578,0.0-15.0-1.11,53467,List1B,white,man,,,,null,,,,
null,are hugging each other,,html-keyboard-response,194,1264580,0.0-15.0-2.11,53467,List1B,white,man,,,,null,,,,
13225,,,survey-text,195,1277806,0.0-15.0-3.11,53467,List1B,white,man,,,,,"{""Q0"":""Mike and Kate are hugging each other.""}","<img src=""stim_listB/hug2.gif""</stim_listB>",are hugging each other,
null,"<div style=""font-size:60px;"">+</div>",,html-keyboard-response,196,1278309,0.0-15.0-0.12,53467,List1B,white,man,,,,null,,,,
null,"<img src=""stim_listB/shout3.gif""</stim_listB>",,html-keyboard-response,197,1280311,0.0-15.0-1.12,53467,List1B,white,man,,,,null,,,,
null,is shouting at,,html-keyboard-response,198,1282314,0.0-15.0-2.12,53467,List1B,white,man,,,,null,,,,
6925,,,survey-text,199,1289241,0.0-15.0-3.12,53467,List1B,white,man,,,,,"{""Q0"":""Ruth is shouting at Luke""}","<img src=""stim_listB/shout3.gif""</stim_listB>",is shouting at,
null,"<div style=""font-size:60px;"">+</div>",,html-keyboard-response,200,1289743,0.0-15.0-0.13,53467,List1B,white,man,,,,null,,,,
null,"<img src=""stim_listB/argue2.gif""</stim_listB>",,html-keyboard-response,201,1291746,0.0-15.0-1.13,53467,List1B,white,man,,,,null,,,,
null,are arguing with each other,,html-keyboard-response,202,1293747,0.0-15.0-2.13,53467,List1B,white,man,,,,null,,,,
10077,,,survey-text,203,1303825,0.0-15.0-3.13,53467,List1B,white,man,,,,,"{""Q0"":""Fred and Kate are arguing with each other.""}","<img src=""stim_listB/argue2.gif""</stim_listB>",are arguing with each other,
null,"<div style=""font-size:60px;"">+</div>",,html-keyboard-response,204,1304326,0.0-15.0-0.14,53467,List1B,white,man,,,,null,,,,
null,"<img src=""stim_listB/hug8.gif""</stim_listB>",,html-keyboard-response,205,1306329,0.0-15.0-1.14,53467,List1B,white,man,,,,null,,,,
null,are hugging each other,,html-keyboard-response,206,1308331,0.0-15.0-2.14,53467,List1B,white,man,,,,null,,,,
9730,,,survey-text,207,1318063,0.0-15.0-3.14,53467,List1B,white,man,,,,,"{""Q0"":""Jane and kate are hugging each other.""}","<img src=""stim_listB/hug8.gif""</stim_listB>",are hugging each other,
null,"<div style=""font-size:60px;"">+</div>",,html-keyboard-response,208,1318563,0.0-15.0-0.15,53467,List1B,white,man,,,,null,,,,
null,"<img src=""stim_listB/dance2.gif""</stim_listB>",,html-keyboard-response,209,1320565,0.0-15.0-1.15,53467,List1B,white,man,,,,null,,,,
null,are dancing with each other,,html-keyboard-response,210,1322567,0.0-15.0-2.15,53467,List1B,white,man,,,,null,,,,
10603,,,survey-text,211,1333171,0.0-15.0-3.15,53467,List1B,white,man,,,,,"{""Q0"":""Mike and Beth are dancing with each other.""}","<img src=""stim_listB/dance2.gif""</stim_listB>",are dancing with each other,
null,"<div style=""font-size:60px;"">+</div>",,html-keyboard-response,212,1333672,0.0-15.0-0.16,53467,List1B,white,man,,,,null,,,,
null,"<img src=""stim_listB/shout5.gif""</stim_listB>",,html-keyboard-response,213,1335675,0.0-15.0-1.16,53467,List1B,white,man,,,,null,,,,
null,is shouting at,,html-keyboard-response,214,1337676,0.0-15.0-2.16,53467,List1B,white,man,,,,null,,,,
6662,,,survey-text,215,1344340,0.0-15.0-3.16,53467,List1B,white,man,,,,,"{""Q0"":""Fred is shouting at Luke.""}","<img src=""stim_listB/shout5.gif""</stim_listB>",is shouting at,
null,"<div style=""font-size:60px;"">+</div>",,html-keyboard-response,216,1344842,0.0-15.0-0.17,53467,List1B,white,man,,,,null,,,,
null,"<img src=""stim_listB/argue8.gif""</stim_listB>",,html-keyboard-response,217,1346845,0.0-15.0-1.17,53467,List1B,white,man,,,,null,,,,
null,are arguing with each other,,html-keyboard-response,218,1348846,0.0-15.0-2.17,53467,List1B,white,man,,,,null,,,,
9543,,,survey-text,219,1358389,0.0-15.0-3.17,53467,List1B,white,man,,,,,"{""Q0"":""Beth and Jane are arguing with each other.""}","<img src=""stim_listB/argue8.gif""</stim_listB>",are arguing with each other,
null,"<div style=""font-size:60px;"">+</div>",,html-keyboard-response,220,1358890,0.0-15.0-0.18,53467,List1B,white,man,,,,null,,,,
null,"<img src=""stim_listB/touch2.gif""</stim_listB>",,html-keyboard-response,221,1360893,0.0-15.0-1.18,53467,List1B,white,man,,,,null,,,,
null,are touching each other,,html-keyboard-response,222,1362894,0.0-15.0-2.18,53467,List1B,white,man,,,,null,,,,
8252,,,survey-text,223,1371149,0.0-15.0-3.18,53467,List1B,white,man,,,,,"{""Q0"":""Fred and Beth are touching each other.""}","<img src=""stim_listB/touch2.gif""</stim_listB>",are touching each other,
null,"<div style=""font-size:60px;"">+</div>",,html-keyboard-response,224,1371651,0.0-15.0-0.19,53467,List1B,white,man,,,,null,,,,
null,"<img src=""stim_listB/marry5.gif""</stim_listB>",,html-keyboard-response,225,1373654,0.0-15.0-1.19,53467,List1B,white,man,,,,null,,,,
null,is marrying,,html-keyboard-response,226,1375656,0.0-15.0-2.19,53467,List1B,white,man,,,,null,,,,
7119,,,survey-text,227,1382776,0.0-15.0-3.19,53467,List1B,white,man,,,,,"{""Q0"":""Luke is marrying Mike.""}","<img src=""stim_listB/marry5.gif""</stim_listB>",is marrying,
7754,"<img src='img/portrait_matrix_list1.JPG' style='width:900px;height:500px;''></img><p>If you have memorised all the portraits and names and are ready to start, press Continue.</p><p><strong>Please note: Your memory of these faces will be tested 4 times during this experiment.</strong></p>",0,html-button-response,228,1390531,0.0-16.0-0.0,53467,List1B,white,man,,,,,,,,
4271,"<img src=""portrait/WM1.jpg""style=""width:400px;height:400px;""></img>",6,html-button-response,229,1395805,0.0-16.0-1.0,53467,List1B,white,man,,TRUE,6,,,,,
null,CORRECT,,html-keyboard-response,230,1397307,0.0-16.0-2.0-0.0,53467,List1B,white,man,,,,null,,,,
2593,"<img src=""portrait/BM1.jpg""style=""width:400px;height:400px;""></img>",4,html-button-response,231,1399902,0.0-16.0-4.0,53467,List1B,white,man,,TRUE,4,,,,,
null,CORRECT,,html-keyboard-response,232,1401405,0.0-16.0-5.0-0.0,53467,List1B,white,man,,,,null,,,,
7050,"<img src=""portrait/WW1.jpg""style=""width:400px;height:400px;""></img>",1,html-button-response,233,1408457,0.0-16.0-7.0,53467,List1B,white,man,,TRUE,1,,,,,
null,CORRECT,,html-keyboard-response,234,1409960,0.0-16.0-8.0-0.0,53467,List1B,white,man,,,,null,,,,
2300,"<img src=""portrait/BM2.jpg""style=""width:400px;height:400px;""></img>",5,html-button-response,235,1412262,0.0-16.0-10.0,53467,List1B,white,man,,TRUE,5,,,,,
null,CORRECT,,html-keyboard-response,236,1413765,0.0-16.0-11.0-0.0,53467,List1B,white,man,,,,null,,,,
2345,"<img src=""portrait/BW2.jpg""style=""width:400px;height:400px;""></img>",2,html-button-response,237,1416112,0.0-16.0-13.0,53467,List1B,white,man,,TRUE,2,,,,,
null,CORRECT,,html-keyboard-response,238,1417614,0.0-16.0-14.0-0.0,53467,List1B,white,man,,,,null,,,,
2325,"<img src=""portrait/WM2.jpg""style=""width:400px;height:400px;""></img>",7,html-button-response,239,1419940,0.0-16.0-16.0,53467,List1B,white,man,,TRUE,7,,,,,
null,CORRECT,,html-keyboard-response,240,1421443,0.0-16.0-17.0-0.0,53467,List1B,white,man,,,,null,,,,
2099,"<img src=""portrait/WW2.jpg""style=""width:400px;height:400px;""></img>",3,html-button-response,241,1423544,0.0-16.0-19.0,53467,List1B,white,man,,TRUE,3,,,,,
null,CORRECT,,html-keyboard-response,242,1425048,0.0-16.0-20.0-0.0,53467,List1B,white,man,,,,null,,,,
4338,"<img src=""portrait/BW1.jpg""style=""width:400px;height:400px;""></img>",0,html-button-response,243,1429386,0.0-16.0-22.0,53467,List1B,white,man,,TRUE,0,,,,,
null,CORRECT,,html-keyboard-response,244,1430890,0.0-16.0-23.0-0.0,53467,List1B,white,man,,,,null,,,,
1409,<p>You got 8 out of 8 right first time. Press Continue.</p>,0,html-button-response,245,1432301,0.0-16.0-25.0,53467,List1B,white,man,,,,,,,,
null,"<div style=""font-size:60px;"">+</div>",,html-keyboard-response,246,1433805,0.0-17.0-0.0,53467,List1B,white,man,,,,null,,,,
null,"<img src=""stim_listB/shout6.gif""</stim_listB>",,html-keyboard-response,247,1435810,0.0-17.0-1.0,53467,List1B,white,man,,,,null,,,,
null,are shouting at each other,,html-keyboard-response,248,1437812,0.0-17.0-2.0,53467,List1B,white,man,,,,null,,,,
10573,,,survey-text,249,1448386,0.0-17.0-3.0,53467,List1B,white,man,,,,,"{""Q0"":""Mike and Dave are shouting at each other.""}","<img src=""stim_listB/shout6.gif""</stim_listB>",are shouting at each other,
null,"<div style=""font-size:60px;"">+</div>",,html-keyboard-response,250,1448888,0.0-17.0-0.1,53467,List1B,white,man,,,,null,,,,
null,"<img src=""stim_listB/talk7.gif""</stim_listB>",,html-keyboard-response,251,1450889,0.0-17.0-1.1,53467,List1B,white,man,,,,null,,,,
null,is talking to,,html-keyboard-response,252,1452892,0.0-17.0-2.1,53467,List1B,white,man,,,,null,,,,
8948,,,survey-text,253,1461840,0.0-17.0-3.1,53467,List1B,white,man,,,,,"{""Q0"":""Jane is talking to Beth.""}","<img src=""stim_listB/talk7.gif""</stim_listB>",is talking to,
null,"<div style=""font-size:60px;"">+</div>",,html-keyboard-response,254,1462341,0.0-17.0-0.2,53467,List1B,white,man,,,,null,,,,
null,"<img src=""stim_listB/talk8.gif""</stim_listB>",,html-keyboard-response,255,1464345,0.0-17.0-1.2,53467,List1B,white,man,,,,null,,,,
null,are talking to each other,,html-keyboard-response,256,1466347,0.0-17.0-2.2,53467,List1B,white,man,,,,null,,,,
30155,,,survey-text,257,1496502,0.0-17.0-3.2,53467,List1B,white,man,,,,,"{""Q0"":""Kate and Ruth are talking to each other.""}","<img src=""stim_listB/talk8.gif""</stim_listB>",are talking to each other,
null,"<div style=""font-size:60px;"">+</div>",,html-keyboard-response,258,1497003,0.0-17.0-0.3,53467,List1B,white,man,,,,null,,,,
null,"<img src=""stim_listB/dance8.gif""</stim_listB>",,html-keyboard-response,259,1499006,0.0-17.0-1.3,53467,List1B,white,man,,,,null,,,,
null,are dancing with each other,,html-keyboard-response,260,1501007,0.0-17.0-2.3,53467,List1B,white,man,,,,null,,,,
10668,,,survey-text,261,1511676,0.0-17.0-3.3,53467,List1B,white,man,,,,,"{""Q0"":""Kate and Ruth are dancing with each other.""}","<img src=""stim_listB/dance8.gif""</stim_listB>",are dancing with each other,
null,"<div style=""font-size:60px;"">+</div>",,html-keyboard-response,262,1512178,0.0-17.0-0.4,53467,List1B,white,man,,,,null,,,,
null,"<img src=""stim_listB/meet7.gif""</stim_listB>",,html-keyboard-response,263,1514182,0.0-17.0-1.4,53467,List1B,white,man,,,,null,,,,
null,is meeting,,html-keyboard-response,264,1516183,0.0-17.0-2.4,53467,List1B,white,man,,,,null,,,,
8189,,,survey-text,265,1524374,0.0-17.0-3.4,53467,List1B,white,man,,,,,"{""Q0"":""Jane is meeting kate.""}","<img src=""stim_listB/meet7.gif""</stim_listB>",is meeting,
null,"<div style=""font-size:60px;"">+</div>",,html-keyboard-response,266,1524875,0.0-17.0-0.5,53467,List1B,white,man,,,,null,,,,
null,"<img src=""stim_listB/fight6.gif""</stim_listB>",,html-keyboard-response,267,1526878,0.0-17.0-1.5,53467,List1B,white,man,,,,null,,,,
null,are fighting each other,,html-keyboard-response,268,1528879,0.0-17.0-2.5,53467,List1B,white,man,,,,null,,,,
10407,,,survey-text,269,1539286,0.0-17.0-3.5,53467,List1B,white,man,,,,,"{""Q0"":""Fred and Luke are fighting each other.""}","<img src=""stim_listB/fight6.gif""</stim_listB>",are fighting each other,
null,"<div style=""font-size:60px;"">+</div>",,html-keyboard-response,270,1539788,0.0-17.0-0.6,53467,List1B,white,man,,,,null,,,,
null,"<img src=""stim_listB/touch7.gif""</stim_listB>",,html-keyboard-response,271,1541791,0.0-17.0-1.6,53467,List1B,white,man,,,,null,,,,
null,is touching,,html-keyboard-response,272,1543792,0.0-17.0-2.6,53467,List1B,white,man,,,,null,,,,
7872,,,survey-text,273,1551665,0.0-17.0-3.6,53467,List1B,white,man,,,,,"{""Q0"":""Jane is touching Kate.""}","<img src=""stim_listB/touch7.gif""</stim_listB>",is touching,
null,"<div style=""font-size:60px;"">+</div>",,html-keyboard-response,274,1552167,0.0-17.0-0.7,53467,List1B,white,man,,,,null,,,,
null,"<img src=""stim_listB/touch4.gif""</stim_listB>",,html-keyboard-response,275,1554171,0.0-17.0-1.7,53467,List1B,white,man,,,,null,,,,
null,are touching each other,,html-keyboard-response,276,1556172,0.0-17.0-2.7,53467,List1B,white,man,,,,null,,,,
17602,,,survey-text,277,1573775,0.0-17.0-3.7,53467,List1B,white,man,,,,,"{""Q0"":""Luke and Ruth are touching each other.""}","<img src=""stim_listB/touch4.gif""</stim_listB>",are touching each other,
null,"<div style=""font-size:60px;"">+</div>",,html-keyboard-response,278,1574276,0.0-17.0-0.8,53467,List1B,white,man,,,,null,,,,
null,"<img src=""stim_listB/touch8.gif""</stim_listB>",,html-keyboard-response,279,1576280,0.0-17.0-1.8,53467,List1B,white,man,,,,null,,,,
null,are touching each other,,html-keyboard-response,280,1578281,0.0-17.0-2.8,53467,List1B,white,man,,,,null,,,,
16675,,,survey-text,281,1594957,0.0-17.0-3.8,53467,List1B,white,man,,,,,"{""Q0"":""Beth and Ruth are touching each other.""}","<img src=""stim_listB/touch8.gif""</stim_listB>",are touching each other,
null,"<div style=""font-size:60px;"">+</div>",,html-keyboard-response,282,1595458,0.0-17.0-0.9,53467,List1B,white,man,,,,null,,,,
null,"<img src=""stim_listB/dance5.gif""</stim_listB>",,html-keyboard-response,283,1597461,0.0-17.0-1.9,53467,List1B,white,man,,,,null,,,,
null,is dancing with,,html-keyboard-response,284,1599462,0.0-17.0-2.9,53467,List1B,white,man,,,,null,,,,
7708,,,survey-text,285,1607172,0.0-17.0-3.9,53467,List1B,white,man,,,,,"{""Q0"":""Fred is dancing with Dave.""}","<img src=""stim_listB/dance5.gif""</stim_listB>",is dancing with,
null,"<div style=""font-size:60px;"">+</div>",,html-keyboard-response,286,1607673,0.0-17.0-0.10,53467,List1B,white,man,,,,null,,,,
null,"<img src=""stim_listB/talk1.gif""</stim_listB>",,html-keyboard-response,287,1609675,0.0-17.0-1.10,53467,List1B,white,man,,,,null,,,,
null,is talking to,,html-keyboard-response,288,1611677,0.0-17.0-2.10,53467,List1B,white,man,,,,null,,,,
6647,,,survey-text,289,1618325,0.0-17.0-3.10,53467,List1B,white,man,,,,,"{""Q0"":""Kate is talking to Fred.""}","<img src=""stim_listB/talk1.gif""</stim_listB>",is talking to,
null,"<div style=""font-size:60px;"">+</div>",,html-keyboard-response,290,1618827,0.0-17.0-0.11,53467,List1B,white,man,,,,null,,,,
null,"<img src=""stim_listB/meet6.gif""</stim_listB>",,html-keyboard-response,291,1620830,0.0-17.0-1.11,53467,List1B,white,man,,,,null,,,,
null,are meeting each other,,html-keyboard-response,292,1622831,0.0-17.0-2.11,53467,List1B,white,man,,,,null,,,,
12904,,,survey-text,293,1635736,0.0-17.0-3.11,53467,List1B,white,man,,,,,"{""Q0"":""Fred and Luke are meeting each other.""}","<img src=""stim_listB/meet6.gif""</stim_listB>",are meeting each other,
null,"<div style=""font-size:60px;"">+</div>",,html-keyboard-response,294,1636239,0.0-17.0-0.12,53467,List1B,white,man,,,,null,,,,
null,"<img src=""stim_listB/kiss6.gif""</stim_listB>",,html-keyboard-response,295,1638240,0.0-17.0-1.12,53467,List1B,white,man,,,,null,,,,
null,are kissing each other,,html-keyboard-response,296,1640242,0.0-17.0-2.12,53467,List1B,white,man,,,,null,,,,
10213,,,survey-text,297,1650456,0.0-17.0-3.12,53467,List1B,white,man,,,,,"{""Q0"":""Mike and Dave are kissing each other.""}","<img src=""stim_listB/kiss6.gif""</stim_listB>",are kissing each other,
null,"<div style=""font-size:60px;"">+</div>",,html-keyboard-response,298,1650958,0.0-17.0-0.13,53467,List1B,white,man,,,,null,,,,
null,"<img src=""stim_listB/shout2.gif""</stim_listB>",,html-keyboard-response,299,1652961,0.0-17.0-1.13,53467,List1B,white,man,,,,null,,,,
null,are shouting at each other,,html-keyboard-response,300,1654963,0.0-17.0-2.13,53467,List1B,white,man,,,,null,,,,
9372,,,survey-text,301,1664336,0.0-17.0-3.13,53467,List1B,white,man,,,,,"{""Q0"":""Mike and Kate are shouting at each other.""}","<img src=""stim_listB/shout2.gif""</stim_listB>",are shouting at each other,
null,"<div style=""font-size:60px;"">+</div>",,html-keyboard-response,302,1664837,0.0-17.0-0.14,53467,List1B,white,man,,,,null,,,,
null,"<img src=""stim_listB/talk5.gif""</stim_listB>",,html-keyboard-response,303,1666841,0.0-17.0-1.14,53467,List1B,white,man,,,,null,,,,
null,is talking to,,html-keyboard-response,304,1668844,0.0-17.0-2.14,53467,List1B,white,man,,,,null,,,,
6088,,,survey-text,305,1674933,0.0-17.0-3.14,53467,List1B,white,man,,,,,"{""Q0"":""Dave is talking to Fred.""}","<img src=""stim_listB/talk5.gif""</stim_listB>",is talking to,
null,"<div style=""font-size:60px;"">+</div>",,html-keyboard-response,306,1675436,0.0-17.0-0.15,53467,List1B,white,man,,,,null,,,,
null,"<img src=""stim_listB/fight1.gif""</stim_listB>",,html-keyboard-response,307,1677439,0.0-17.0-1.15,53467,List1B,white,man,,,,null,,,,
null,is fighting,,html-keyboard-response,308,1679441,0.0-17.0-2.15,53467,List1B,white,man,,,,null,,,,
5797,,,survey-text,309,1685240,0.0-17.0-3.15,53467,List1B,white,man,,,,,"{""Q0"":""Kate is fighting Mike.""}","<img src=""stim_listB/fight1.gif""</stim_listB>",is fighting,
null,"<div style=""font-size:60px;"">+</div>",,html-keyboard-response,310,1685742,0.0-17.0-0.16,53467,List1B,white,man,,,,null,,,,
null,"<img src=""stim_listB/meet4.gif""</stim_listB>",,html-keyboard-response,311,1687746,0.0-17.0-1.16,53467,List1B,white,man,,,,null,,,,
null,are meeting each other,,html-keyboard-response,312,1689747,0.0-17.0-2.16,53467,List1B,white,man,,,,null,,,,
7780,,,survey-text,313,1697528,0.0-17.0-3.16,53467,List1B,white,man,,,,,"{""Q0"":""Ruth and Luke are meeting each other.""}","<img src=""stim_listB/meet4.gif""</stim_listB>",are meeting each other,
null,"<div style=""font-size:60px;"">+</div>",,html-keyboard-response,314,1698030,0.0-17.0-0.17,53467,List1B,white,man,,,,null,,,,
null,"<img src=""stim_listB/kiss2.gif""</stim_listB>",,html-keyboard-response,315,1700031,0.0-17.0-1.17,53467,List1B,white,man,,,,null,,,,
null,are kissing each other,,html-keyboard-response,316,1702033,0.0-17.0-2.17,53467,List1B,white,man,,,,null,,,,
7648,,,survey-text,317,1709682,0.0-17.0-3.17,53467,List1B,white,man,,,,,"{""Q0"":""Kate and Mike are kissing each other.""}","<img src=""stim_listB/kiss2.gif""</stim_listB>",are kissing each other,
null,"<div style=""font-size:60px;"">+</div>",,html-keyboard-response,318,1710184,0.0-17.0-0.18,53467,List1B,white,man,,,,null,,,,
null,"<img src=""stim_listB/meet5.gif""</stim_listB>",,html-keyboard-response,319,1712186,0.0-17.0-1.18,53467,List1B,white,man,,,,null,,,,
null,is meeting,,html-keyboard-response,320,1714189,0.0-17.0-2.18,53467,List1B,white,man,,,,null,,,,
6280,,,survey-text,321,1720469,0.0-17.0-3.18,53467,List1B,white,man,,,,,"{""Q0"":""Dave is meeting Mike.""}","<img src=""stim_listB/meet5.gif""</stim_listB>",is meeting,
null,"<div style=""font-size:60px;"">+</div>",,html-keyboard-response,322,1720971,0.0-17.0-0.19,53467,List1B,white,man,,,,null,,,,
null,"<img src=""stim_listB/shout4.gif""</stim_listB>",,html-keyboard-response,323,1722973,0.0-17.0-1.19,53467,List1B,white,man,,,,null,,,,
null,are shouting at each other,,html-keyboard-response,324,1724975,0.0-17.0-2.19,53467,List1B,white,man,,,,null,,,,
9686,,,survey-text,325,1734662,0.0-17.0-3.19,53467,List1B,white,man,,,,,"{""Q0"":""Dave and Jane are shouting at each other.""}","<img src=""stim_listB/shout4.gif""</stim_listB>",are shouting at each other,
9059,"<img src='img/portrait_matrix_list1.JPG' style='width:900px;height:500px;''></img><p>If you have memorised all the portraits and names and are ready to start, press Continue.</p><p><strong>Please note: Your memory of these faces will be tested 4 times during this experiment.</strong></p>",0,html-button-response,326,1743721,0.0-18.0-0.0,53467,List1B,white,man,,,,,,,,
5673,"<img src=""portrait/BW1.jpg""style=""width:400px;height:400px;""></img>",0,html-button-response,327,1750397,0.0-18.0-1.0,53467,List1B,white,man,,TRUE,0,,,,,
null,CORRECT,,html-keyboard-response,328,1751898,0.0-18.0-2.0-0.0,53467,List1B,white,man,,,,null,,,,
1912,"<img src=""portrait/WW2.jpg""style=""width:400px;height:400px;""></img>",3,html-button-response,329,1753812,0.0-18.0-4.0,53467,List1B,white,man,,TRUE,3,,,,,
null,CORRECT,,html-keyboard-response,330,1755314,0.0-18.0-5.0-0.0,53467,List1B,white,man,,,,null,,,,
1756,"<img src=""portrait/BW2.jpg""style=""width:400px;height:400px;""></img>",2,html-button-response,331,1757071,0.0-18.0-7.0,53467,List1B,white,man,,TRUE,2,,,,,
null,CORRECT,,html-keyboard-response,332,1758574,0.0-18.0-8.0-0.0,53467,List1B,white,man,,,,null,,,,
1528,"<img src=""portrait/WM2.jpg""style=""width:400px;height:400px;""></img>",7,html-button-response,333,1760104,0.0-18.0-10.0,53467,List1B,white,man,,TRUE,7,,,,,
null,CORRECT,,html-keyboard-response,334,1761609,0.0-18.0-11.0-0.0,53467,List1B,white,man,,,,null,,,,
1622,"<img src=""portrait/BM2.jpg""style=""width:400px;height:400px;""></img>",5,html-button-response,335,1763232,0.0-18.0-13.0,53467,List1B,white,man,,TRUE,5,,,,,
null,CORRECT,,html-keyboard-response,336,1764736,0.0-18.0-14.0-0.0,53467,List1B,white,man,,,,null,,,,
5901,"<img src=""portrait/BM1.jpg""style=""width:400px;height:400px;""></img>",4,html-button-response,337,1770638,0.0-18.0-16.0,53467,List1B,white,man,,TRUE,4,,,,,
null,CORRECT,,html-keyboard-response,338,1772142,0.0-18.0-17.0-0.0,53467,List1B,white,man,,,,null,,,,
2785,"<img src=""portrait/WW1.jpg""style=""width:400px;height:400px;""></img>",1,html-button-response,339,1774928,0.0-18.0-19.0,53467,List1B,white,man,,TRUE,1,,,,,
null,CORRECT,,html-keyboard-response,340,1776432,0.0-18.0-20.0-0.0,53467,List1B,white,man,,,,null,,,,
1912,"<img src=""portrait/WM1.jpg""style=""width:400px;height:400px;""></img>",6,html-button-response,341,1778347,0.0-18.0-22.0,53467,List1B,white,man,,TRUE,6,,,,,
null,CORRECT,,html-keyboard-response,342,1779850,0.0-18.0-23.0-0.0,53467,List1B,white,man,,,,null,,,,
1648,<p>You got 8 out of 8 right first time. Press Continue.</p>,0,html-button-response,343,1781499,0.0-18.0-25.0,53467,List1B,white,man,,,,,,,,
null,"<div style=""font-size:60px;"">+</div>",,html-keyboard-response,344,1783003,0.0-19.0-0.0,53467,List1B,white,man,,,,null,,,,
null,"<img src=""stim_listB/hug4.gif""</stim_listB>",,html-keyboard-response,345,1785006,0.0-19.0-1.0,53467,List1B,white,man,,,,null,,,,
null,are hugging each other,,html-keyboard-response,346,1787007,0.0-19.0-2.0,53467,List1B,white,man,,,,null,,,,
9558,,,survey-text,347,1796565,0.0-19.0-3.0,53467,List1B,white,man,,,,,"{""Q0"":""Dave and Jane are hugging each other.""}","<img src=""stim_listB/hug4.gif""</stim_listB>",are hugging each other,
null,"<div style=""font-size:60px;"">+</div>",,html-keyboard-response,348,1797067,0.0-19.0-0.1,53467,List1B,white,man,,,,null,,,,
null,"<img src=""stim_listB/hug7.gif""</stim_listB>",,html-keyboard-response,349,1799070,0.0-19.0-1.1,53467,List1B,white,man,,,,null,,,,
null,is hugging,,html-keyboard-response,350,1801071,0.0-19.0-2.1,53467,List1B,white,man,,,,null,,,,
10465,,,survey-text,351,1811538,0.0-19.0-3.1,53467,List1B,white,man,,,,,"{""Q0"":""Ruth is hugging Beth.""}","<img src=""stim_listB/hug7.gif""</stim_listB>",is hugging,
null,"<div style=""font-size:60px;"">+</div>",,html-keyboard-response,352,1812039,0.0-19.0-0.2,53467,List1B,white,man,,,,null,,,,
null,"<img src=""stim_listB/fight5.gif""</stim_listB>",,html-keyboard-response,353,1814042,0.0-19.0-1.2,53467,List1B,white,man,,,,null,,,,
null,is fighting,,html-keyboard-response,354,1816044,0.0-19.0-2.2,53467,List1B,white,man,,,,null,,,,
9125,,,survey-text,355,1825169,0.0-19.0-3.2,53467,List1B,white,man,,,,,"{""Q0"":""Dave is fighting Mike.""}","<img src=""stim_listB/fight5.gif""</stim_listB>",is fighting,
null,"<div style=""font-size:60px;"">+</div>",,html-keyboard-response,356,1825670,0.0-19.0-0.3,53467,List1B,white,man,,,,null,,,,
null,"<img src=""stim_listB/shout8.gif""</stim_listB>",,html-keyboard-response,357,1827672,0.0-19.0-1.3,53467,List1B,white,man,,,,null,,,,
null,are shouting at each other,,html-keyboard-response,358,1829674,0.0-19.0-2.3,53467,List1B,white,man,,,,null,,,,
8887,,,survey-text,359,1838563,0.0-19.0-3.3,53467,List1B,white,man,,,,,"{""Q0"":""Jane and Kate are shouting at each other.""}","<img src=""stim_listB/shout8.gif""</stim_listB>",are shouting at each other,
null,"<div style=""font-size:60px;"">+</div>",,html-keyboard-response,360,1839064,0.0-19.0-0.4,53467,List1B,white,man,,,,null,,,,
null,"<img src=""stim_listB/shout7.gif""</stim_listB>",,html-keyboard-response,361,1841067,0.0-19.0-1.4,53467,List1B,white,man,,,,null,,,,
null,is shouting at,,html-keyboard-response,362,1843068,0.0-19.0-2.4,53467,List1B,white,man,,,,null,,,,
8543,,,survey-text,363,1851612,0.0-19.0-3.4,53467,List1B,white,man,,,,,"{""Q0"":""Ruth is shouting at Beth.""}","<img src=""stim_listB/shout7.gif""</stim_listB>",is shouting at,
null,"<div style=""font-size:60px;"">+</div>",,html-keyboard-response,364,1852113,0.0-19.0-0.5,53467,List1B,white,man,,,,null,,,,
null,"<img src=""stim_listB/argue3.gif""</stim_listB>",,html-keyboard-response,365,1854116,0.0-19.0-1.5,53467,List1B,white,man,,,,null,,,,
null,is arguing with,,html-keyboard-response,366,1856118,0.0-19.0-2.5,53467,List1B,white,man,,,,null,,,,
8772,,,survey-text,367,1864892,0.0-19.0-3.5,53467,List1B,white,man,,,,,"{""Q0"":""Dave is arguing with Ruth.""}","<img src=""stim_listB/argue3.gif""</stim_listB>",is arguing with,
null,"<div style=""font-size:60px;"">+</div>",,html-keyboard-response,368,1865394,0.0-19.0-0.6,53467,List1B,white,man,,,,null,,,,
null,"<img src=""stim_listB/talk2.gif""</stim_listB>",,html-keyboard-response,369,1867397,0.0-19.0-1.6,53467,List1B,white,man,,,,null,,,,
null,are talking to each other,,html-keyboard-response,370,1869398,0.0-19.0-2.6,53467,List1B,white,man,,,,null,,,,
10027,,,survey-text,371,1879427,0.0-19.0-3.6,53467,List1B,white,man,,,,,"{""Q0"":""Mike and Beth are talking to each other.""}","<img src=""stim_listB/talk2.gif""</stim_listB>",are talking to each other,
null,"<div style=""font-size:60px;"">+</div>",,html-keyboard-response,372,1879930,0.0-19.0-0.7,53467,List1B,white,man,,,,null,,,,
null,"<img src=""stim_listB/marry4.gif""</stim_listB>",,html-keyboard-response,373,1881933,0.0-19.0-1.7,53467,List1B,white,man,,,,null,,,,
null,are marrying each other,,html-keyboard-response,374,1883935,0.0-19.0-2.7,53467,List1B,white,man,,,,null,,,,
8365,,,survey-text,375,1892301,0.0-19.0-3.7,53467,List1B,white,man,,,,,"{""Q0"":""Jane and Luke are marrying each other.""}","<img src=""stim_listB/marry4.gif""</stim_listB>",are marrying each other,
null,"<div style=""font-size:60px;"">+</div>",,html-keyboard-response,376,1892803,0.0-19.0-0.8,53467,List1B,white,man,,,,null,,,,
null,"<img src=""stim_listB/marry8.gif""</stim_listB>",,html-keyboard-response,377,1894806,0.0-19.0-1.8,53467,List1B,white,man,,,,null,,,,
null,are marrying each other,,html-keyboard-response,378,1896809,0.0-19.0-2.8,53467,List1B,white,man,,,,null,,,,
8638,,,survey-text,379,1905449,0.0-19.0-3.8,53467,List1B,white,man,,,,,"{""Q0"":""Jane and Beth are marrying each other.""}","<img src=""stim_listB/marry8.gif""</stim_listB>",are marrying each other,
null,"<div style=""font-size:60px;"">+</div>",,html-keyboard-response,380,1905950,0.0-19.0-0.9,53467,List1B,white,man,,,,null,,,,
null,"<img src=""stim_listB/dance1.gif""</stim_listB>",,html-keyboard-response,381,1907954,0.0-19.0-1.9,53467,List1B,white,man,,,,null,,,,
null,is dancing with,,html-keyboard-response,382,1909956,0.0-19.0-2.9,53467,List1B,white,man,,,,null,,,,
6378,,,survey-text,383,1916335,0.0-19.0-3.9,53467,List1B,white,man,,,,,"{""Q0"":""Kate is dancing with Fred.""}","<img src=""stim_listB/dance1.gif""</stim_listB>",is dancing with,
null,"<div style=""font-size:60px;"">+</div>",,html-keyboard-response,384,1916836,0.0-19.0-0.10,53467,List1B,white,man,,,,null,,,,
null,"<img src=""stim_listB/talk3.gif""</stim_listB>",,html-keyboard-response,385,1918838,0.0-19.0-1.10,53467,List1B,white,man,,,,null,,,,
null,is talking to,,html-keyboard-response,386,1920839,0.0-19.0-2.10,53467,List1B,white,man,,,,null,,,,
7003,,,survey-text,387,1927843,0.0-19.0-3.10,53467,List1B,white,man,,,,,"{""Q0"":""Jane is talking to Luke.""}","<img src=""stim_listB/talk3.gif""</stim_listB>",is talking to,
null,"<div style=""font-size:60px;"">+</div>",,html-keyboard-response,388,1928345,0.0-19.0-0.11,53467,List1B,white,man,,,,null,,,,
null,"<img src=""stim_listB/dance3.gif""</stim_listB>",,html-keyboard-response,389,1930347,0.0-19.0-1.11,53467,List1B,white,man,,,,null,,,,
null,is dancing with,,html-keyboard-response,390,1932350,0.0-19.0-2.11,53467,List1B,white,man,,,,null,,,,
6510,,,survey-text,391,1938860,0.0-19.0-3.11,53467,List1B,white,man,,,,,"{""Q0"":""Jane is dancing with Luke.""}","<img src=""stim_listB/dance3.gif""</stim_listB>",is dancing with,
null,"<div style=""font-size:60px;"">+</div>",,html-keyboard-response,392,1939360,0.0-19.0-0.12,53467,List1B,white,man,,,,null,,,,
null,"<img src=""stim_listB/argue6.gif""</stim_listB>",,html-keyboard-response,393,1941363,0.0-19.0-1.12,53467,List1B,white,man,,,,null,,,,
null,are arguing with each other,,html-keyboard-response,394,1943364,0.0-19.0-2.12,53467,List1B,white,man,,,,null,,,,
10951,,,survey-text,395,1954316,0.0-19.0-3.12,53467,List1B,white,man,,,,,"{""Q0"":""Dave and Fred are arguing with each other.""}","<img src=""stim_listB/argue6.gif""</stim_listB>",are arguing with each other,
null,"<div style=""font-size:60px;"">+</div>",,html-keyboard-response,396,1954818,0.0-19.0-0.13,53467,List1B,white,man,,,,null,,,,
null,"<img src=""stim_listB/marry2.gif""</stim_listB>",,html-keyboard-response,397,1956820,0.0-19.0-1.13,53467,List1B,white,man,,,,null,,,,
null,are marrying each other,,html-keyboard-response,398,1958821,0.0-19.0-2.13,53467,List1B,white,man,,,,null,,,,
8194,,,survey-text,399,1967016,0.0-19.0-3.13,53467,List1B,white,man,,,,,"{""Q0"":""Fred and Kate are marrying each other.""}","<img src=""stim_listB/marry2.gif""</stim_listB>",are marrying each other,
null,"<div style=""font-size:60px;"">+</div>",,html-keyboard-response,400,1967518,0.0-19.0-0.14,53467,List1B,white,man,,,,null,,,,
null,"<img src=""stim_listB/argue5.gif""</stim_listB>",,html-keyboard-response,401,1969521,0.0-19.0-1.14,53467,List1B,white,man,,,,null,,,,
null,is arguing with,,html-keyboard-response,402,1971522,0.0-19.0-2.14,53467,List1B,white,man,,,,null,,,,
7178,,,survey-text,403,1978701,0.0-19.0-3.14,53467,List1B,white,man,,,,,"{""Q0"":""Luke is arguing with Mike.""}","<img src=""stim_listB/argue5.gif""</stim_listB>",is arguing with,
null,"<div style=""font-size:60px;"">+</div>",,html-keyboard-response,404,1979202,0.0-19.0-0.15,53467,List1B,white,man,,,,null,,,,
null,"<img src=""stim_listB/touch5.gif""</stim_listB>",,html-keyboard-response,405,1981204,0.0-19.0-1.15,53467,List1B,white,man,,,,null,,,,
null,is touching,,html-keyboard-response,406,1983207,0.0-19.0-2.15,53467,List1B,white,man,,,,null,,,,
5639,,,survey-text,407,1988847,0.0-19.0-3.15,53467,List1B,white,man,,,,,"{""Q0"":""Dave is touching Mike.""}","<img src=""stim_listB/touch5.gif""</stim_listB>",is touching,
null,"<div style=""font-size:60px;"">+</div>",,html-keyboard-response,408,1989349,0.0-19.0-0.16,53467,List1B,white,man,,,,null,,,,
null,"<img src=""stim_listB/hug5.gif""</stim_listB>",,html-keyboard-response,409,1991352,0.0-19.0-1.16,53467,List1B,white,man,,,,null,,,,
null,is hugging,,html-keyboard-response,410,1993353,0.0-19.0-2.16,53467,List1B,white,man,,,,null,,,,
5472,,,survey-text,411,1998826,0.0-19.0-3.16,53467,List1B,white,man,,,,,"{""Q0"":""Luke is hugging Fred.""}","<img src=""stim_listB/hug5.gif""</stim_listB>",is hugging,
null,"<div style=""font-size:60px;"">+</div>",,html-keyboard-response,412,1999327,0.0-19.0-0.17,53467,List1B,white,man,,,,null,,,,
null,"<img src=""stim_listB/dance7.gif""</stim_listB>",,html-keyboard-response,413,2001330,0.0-19.0-1.17,53467,List1B,white,man,,,,null,,,,
null,is dancing with,,html-keyboard-response,414,2003332,0.0-19.0-2.17,53467,List1B,white,man,,,,null,,,,
6789,,,survey-text,415,2010122,0.0-19.0-3.17,53467,List1B,white,man,,,,,"{""Q0"":""Jane is dancing with Beth.""}","<img src=""stim_listB/dance7.gif""</stim_listB>",is dancing with,
null,"<div style=""font-size:60px;"">+</div>",,html-keyboard-response,416,2010624,0.0-19.0-0.18,53467,List1B,white,man,,,,null,,,,
null,"<img src=""stim_listB/touch3.gif""</stim_listB>",,html-keyboard-response,417,2012628,0.0-19.0-1.18,53467,List1B,white,man,,,,null,,,,
null,is touching,,html-keyboard-response,418,2014632,0.0-19.0-2.18,53467,List1B,white,man,,,,null,,,,
7100,,,survey-text,419,2021732,0.0-19.0-3.18,53467,List1B,white,man,,,,,"{""Q0"":""Jane is touching Dave.""}","<img src=""stim_listB/touch3.gif""</stim_listB>",is touching,
null,"<div style=""font-size:60px;"">+</div>",,html-keyboard-response,420,2022233,0.0-19.0-0.19,53467,List1B,white,man,,,,null,,,,
null,"<img src=""stim_listB/argue7.gif""</stim_listB>",,html-keyboard-response,421,2024236,0.0-19.0-1.19,53467,List1B,white,man,,,,null,,,,
null,is arguing with,,html-keyboard-response,422,2026238,0.0-19.0-2.19,53467,List1B,white,man,,,,null,,,,
5978,,,survey-text,423,2032217,0.0-19.0-3.19,53467,List1B,white,man,,,,,"{""Q0"":""Ruth is arguing with Kate.""}","<img src=""stim_listB/argue7.gif""</stim_listB>",is arguing with,
3219,<p>Thank you for completing that task.</p><p>The final part of this session is a short questionnaire.</p><p>Press Continue.</p>,0,html-button-response,424,2035437,0.0-20.0,53467,List1B,white,man,,,,,,,,
23558,,,survey-text,425,2059999,0.0-21.0,53467,List1B,white,man,,,,,"{""Q0"":""38"",""Q1"":""English"",""Q2"":""English"",""Q3"":""England"",""Q4"":""white"",""Q5"":""male""}",,,demographics
89385,,,survey-likert,426,2149387,0.0-22.0,53467,List1B,white,man,,,,,"{""Q0"":4,""Q1"":4,""Q2"":3,""Q3"":4,""Q4"":3,""Q5"":4,""Q6"":4,""Q7"":1,""Q8"":4,""Q9"":3,""Q10"":3,""Q11"":4,""Q12"":4,""Q13"":4}",,,likert_race
52321,,,survey-likert,427,2201711,0.0-23.0,53467,List1B,white,man,,,,,"{""Q0"":4,""Q1"":4,""Q2"":5,""Q3"":5,""Q4"":3,""Q5"":5,""Q6"":5,""Q7"":4,""Q8"":5,""Q9"":4,""Q10"":4,""Q11"":4,""Q12"":4,""Q13"":3}",,,likert_gender
7468,,,survey-text,428,2209180,0.0-24.0,53467,List1B,white,man,,,,,"{""Q0"":""ccc""}",,,worker_id
35285,,,external-html,429,2244512,0.0-25.0,53467,List1B,white,man,debrief.html,,,,,,,
