rt,stimulus,button_pressed,trial_type,trial_index,time_elapsed,internal_node_id,subject,list,ppt_race,ppt_gender,url,first_guess,correct,key_press,responses,image_type,phrase_type,test_part
2664,Welcome to the experiment. Press Continue to begin.,0,html-button-response,0,2672,0.0-0.0,53588,List2A,black,woman,,,,,,,,
14822,,,external-html,1,18566,0.0-1.0,53588,List2A,black,woman,consent.html,,,,,,,
43774,"<p>On the next page, you will see portraits of 8 people and their names.</p><p>Your first task is to take a few minutes to memorise the names of these people.</p><p>You will have to recall their names during the rest of the experiment, so it is</p><p>essential that you try to memorise these people and their names as best as you can.</p><br><p><strong>You will then be tested on your memory of these names and portraits.</strong></p><br><p>The experiment will start after you have completed this memory test.</p><br><p>Ready?</p>",0,html-button-response,2,62343,0.0-2.0,53588,List2A,black,woman,,,,,,,,
67045,"<img src='img/portrait_matrix_list2.JPG' style='width:900px;height:500px;''></img><p>If you have memorised all the portraits and names and are ready to start, press Continue.</p><p><strong>Please note: Your memory of these faces will be tested 4 times during this experiment.</strong></p>",0,html-button-response,3,130390,0.0-3.0-0.0,53588,List2A,black,woman,,,,,,,,
8332,"<img src=""portrait/BM1.jpg""style=""width:400px;height:400px;""></img>",4,html-button-response,4,139726,0.0-3.0-1.0,53588,List2A,black,woman,,TRUE,4,,,,,
null,CORRECT,,html-keyboard-response,5,141232,0.0-3.0-2.0-0.0,53588,List2A,black,woman,,,,null,,,,
5562,"<img src=""portrait/WW2.jpg""style=""width:400px;height:400px;""></img>",3,html-button-response,6,146797,0.0-3.0-4.0,53588,List2A,black,woman,,TRUE,3,,,,,
null,CORRECT,,html-keyboard-response,7,148303,0.0-3.0-5.0-0.0,53588,List2A,black,woman,,,,null,,,,
4950,"<img src=""portrait/BW1.jpg""style=""width:400px;height:400px;""></img>",0,html-button-response,8,153256,0.0-3.0-7.0,53588,List2A,black,woman,,TRUE,0,,,,,
null,CORRECT,,html-keyboard-response,9,154759,0.0-3.0-8.0-0.0,53588,List2A,black,woman,,,,null,,,,
5000,"<img src=""portrait/WW1.jpg""style=""width:400px;height:400px;""></img>",1,html-button-response,10,159762,0.0-3.0-10.0,53588,List2A,black,woman,,TRUE,1,,,,,
null,CORRECT,,html-keyboard-response,11,161265,0.0-3.0-11.0-0.0,53588,List2A,black,woman,,,,null,,,,
3883,"<img src=""portrait/WM2.jpg""style=""width:400px;height:400px;""></img>",7,html-button-response,12,165150,0.0-3.0-13.0,53588,List2A,black,woman,,TRUE,7,,,,,
null,CORRECT,,html-keyboard-response,13,166653,0.0-3.0-14.0-0.0,53588,List2A,black,woman,,,,null,,,,
4377,"<img src=""portrait/BM2.jpg""style=""width:400px;height:400px;""></img>",5,html-button-response,14,171032,0.0-3.0-16.0,53588,List2A,black,woman,,TRUE,5,,,,,
null,CORRECT,,html-keyboard-response,15,172534,0.0-3.0-17.0-0.0,53588,List2A,black,woman,,,,null,,,,
3939,"<img src=""portrait/BW2.jpg""style=""width:400px;height:400px;""></img>",2,html-button-response,16,176476,0.0-3.0-19.0,53588,List2A,black,woman,,TRUE,2,,,,,
null,CORRECT,,html-keyboard-response,17,177979,0.0-3.0-20.0-0.0,53588,List2A,black,woman,,,,null,,,,
4408,"<img src=""portrait/WM1.jpg""style=""width:400px;height:400px;""></img>",6,html-button-response,18,182389,0.0-3.0-22.0,53588,List2A,black,woman,,TRUE,6,,,,,
null,CORRECT,,html-keyboard-response,19,183893,0.0-3.0-23.0-0.0,53588,List2A,black,woman,,,,null,,,,
2252,<p>You got 8 out of 8 right first time. Press Continue.</p>,0,html-button-response,20,186148,0.0-3.0-25.0,53588,List2A,black,woman,,,,,,,,
31483,"<p>In this experiment, you will view photographs of the people from the memory game interacting.</p><p>By using the <strong>exact</strong> phrase given <i>after</i> the photograph appears and recalling the correct names of the people in the photographs, form a sentence describing the interaction. You do not need to capitalise names.</p><p>Type your answer in the space provided. Please complete every sentence before moving onto the next trial.</p><p>You will only have a few seconds to memorise each given photograph and phrase before you can respond, so try your best to focus.</p><p>An example is given below. Press 'Continue' when you are ready.</p><img src='img/speaking_example_v2.jpg' style='width:800px;height:460px;''></img>",0,html-button-response,21,218635,0.0-4.0,53588,List2A,black,woman,,,,,,,,
4545,"<p>Before the experiment starts, you will watch two example trials. Press 'Continue'.</p>",0,html-button-response,22,224183,0.0-5.0,53588,List2A,black,woman,,,,,,,,
null,<img src='img/speaking_WW.gif'></img>,,html-keyboard-response,23,227186,0.0-6.0,53588,List2A,black,woman,,,,null,,,,
null,<p>is speaking to</p>,,html-keyboard-response,24,229188,0.0-7.0,53588,List2A,black,woman,,,,null,,,,
8414,<p><b>Answer:</b> jane is speaking to ruth</p>,0,html-button-response,25,237604,0.0-8.0,53588,List2A,black,woman,,,,,,,,
null,<img src='img/pointing_BM.gif'></img>,,html-keyboard-response,26,240611,0.0-9.0,53588,List2A,black,woman,,,,null,,,,
null,<p>are pointing at each other</p>,,html-keyboard-response,27,242614,0.0-10.0,53588,List2A,black,woman,,,,null,,,,
3128,<p><b>Answer:</b> fred and mike are pointing at each other</p>,0,html-button-response,28,245744,0.0-11.0,53588,List2A,black,woman,,,,,,,,
24303,"<p>Ready to start the experiment?</p><br><p><strong>Remember to describe the picture using a full sentence,</strong></p><p><strong> that combines the names of the people with the given phrase.</strong></p><p><strong> You do not need to capitalise names or use punctuation.</strong></p><br><p>Press 'Continue' to begin.</p>",0,html-button-response,29,271049,0.0-12.0,53588,List2A,black,woman,,,,,,,,
null,"<div style=""font-size:60px;"">+</div>",,html-keyboard-response,30,272553,0.0-13.0-0.0,53588,List2A,black,woman,,,,null,,,,
null,"<img src=""stim_listA/hug7.gif""</stim_listA>",,html-keyboard-response,31,274569,0.0-13.0-1.0,53588,List2A,black,woman,,,,null,,,,
null,is hugging,,html-keyboard-response,32,276571,0.0-13.0-2.0,53588,List2A,black,woman,,,,null,,,,
26975,,,survey-text,33,303549,0.0-13.0-3.0,53588,List2A,black,woman,,,,,"{""Q0"":""beth is hugging ruth""}","<img src=""stim_listA/hug7.gif""</stim_listA>",is hugging,
null,"<div style=""font-size:60px;"">+</div>",,html-keyboard-response,34,304052,0.0-13.0-0.1,53588,List2A,black,woman,,,,null,,,,
null,"<img src=""stim_listA/argue3.gif""</stim_listA>",,html-keyboard-response,35,306054,0.0-13.0-1.1,53588,List2A,black,woman,,,,null,,,,
null,is arguing with,,html-keyboard-response,36,308055,0.0-13.0-2.1,53588,List2A,black,woman,,,,null,,,,
22039,,,survey-text,37,330096,0.0-13.0-3.1,53588,List2A,black,woman,,,,,"{""Q0"":""mike is arguing with beth""}","<img src=""stim_listA/argue3.gif""</stim_listA>",is arguing with,
null,"<div style=""font-size:60px;"">+</div>",,html-keyboard-response,38,330598,0.0-13.0-0.2,53588,List2A,black,woman,,,,null,,,,
null,"<img src=""stim_listA/talk3.gif""</stim_listA>",,html-keyboard-response,39,332602,0.0-13.0-1.2,53588,List2A,black,woman,,,,null,,,,
null,is talking to,,html-keyboard-response,40,334603,0.0-13.0-2.2,53588,List2A,black,woman,,,,null,,,,
18804,,,survey-text,41,353409,0.0-13.0-3.2,53588,List2A,black,woman,,,,,"{""Q0"":""kate and mike are talking""}","<img src=""stim_listA/talk3.gif""</stim_listA>",is talking to,
null,"<div style=""font-size:60px;"">+</div>",,html-keyboard-response,42,353919,0.0-13.0-0.3,53588,List2A,black,woman,,,,null,,,,
null,"<img src=""stim_listA/fight1.gif""</stim_listA>",,html-keyboard-response,43,355922,0.0-13.0-1.3,53588,List2A,black,woman,,,,null,,,,
null,is fighting,,html-keyboard-response,44,357923,0.0-13.0-2.3,53588,List2A,black,woman,,,,null,,,,
23687,,,survey-text,45,381612,0.0-13.0-3.3,53588,List2A,black,woman,,,,,"{""Q0"":""dave and jane are fighting""}","<img src=""stim_listA/fight1.gif""</stim_listA>",is fighting,
null,"<div style=""font-size:60px;"">+</div>",,html-keyboard-response,46,382114,0.0-13.0-0.4,53588,List2A,black,woman,,,,null,,,,
null,"<img src=""stim_listA/dance1.gif""</stim_listA>",,html-keyboard-response,47,384117,0.0-13.0-1.4,53588,List2A,black,woman,,,,null,,,,
null,is dancing with,,html-keyboard-response,48,386118,0.0-13.0-2.4,53588,List2A,black,woman,,,,null,,,,
21133,,,survey-text,49,407252,0.0-13.0-3.4,53588,List2A,black,woman,,,,,"{""Q0"":""luke is dancing with jane ""}","<img src=""stim_listA/dance1.gif""</stim_listA>",is dancing with,
null,"<div style=""font-size:60px;"">+</div>",,html-keyboard-response,50,407757,0.0-13.0-0.5,53588,List2A,black,woman,,,,null,,,,
null,"<img src=""stim_listA/talk2.gif""</stim_listA>",,html-keyboard-response,51,409763,0.0-13.0-1.5,53588,List2A,black,woman,,,,null,,,,
null,are talking to each other,,html-keyboard-response,52,411765,0.0-13.0-2.5,53588,List2A,black,woman,,,,null,,,,
24276,,,survey-text,53,436042,0.0-13.0-3.5,53588,List2A,black,woman,,,,,"{""Q0"":""luke and ruth are talking to each other""}","<img src=""stim_listA/talk2.gif""</stim_listA>",are talking to each other,
null,"<div style=""font-size:60px;"">+</div>",,html-keyboard-response,54,436546,0.0-13.0-0.6,53588,List2A,black,woman,,,,null,,,,
null,"<img src=""stim_listA/fight2.gif""</stim_listA>",,html-keyboard-response,55,438548,0.0-13.0-1.6,53588,List2A,black,woman,,,,null,,,,
null,are fighting each other,,html-keyboard-response,56,440551,0.0-13.0-2.6,53588,List2A,black,woman,,,,null,,,,
23021,,,survey-text,57,463574,0.0-13.0-3.6,53588,List2A,black,woman,,,,,"{""Q0"":""luke and ruth are fighting each other""}","<img src=""stim_listA/fight2.gif""</stim_listA>",are fighting each other,
null,"<div style=""font-size:60px;"">+</div>",,html-keyboard-response,58,464076,0.0-13.0-0.7,53588,List2A,black,woman,,,,null,,,,
null,"<img src=""stim_listA/talk6.gif""</stim_listA>",,html-keyboard-response,59,466079,0.0-13.0-1.7,53588,List2A,black,woman,,,,null,,,,
null,are talking to each other,,html-keyboard-response,60,468081,0.0-13.0-2.7,53588,List2A,black,woman,,,,null,,,,
27885,,,survey-text,61,495966,0.0-13.0-3.7,53588,List2A,black,woman,,,,,"{""Q0"":""fred and dave are talking to each other""}","<img src=""stim_listA/talk6.gif""</stim_listA>",are talking to each other,
null,"<div style=""font-size:60px;"">+</div>",,html-keyboard-response,62,496468,0.0-13.0-0.8,53588,List2A,black,woman,,,,null,,,,
null,"<img src=""stim_listA/shout2.gif""</stim_listA>",,html-keyboard-response,63,498472,0.0-13.0-1.8,53588,List2A,black,woman,,,,null,,,,
null,are shouting at each other,,html-keyboard-response,64,500473,0.0-13.0-2.8,53588,List2A,black,woman,,,,null,,,,
32363,,,survey-text,65,532837,0.0-13.0-3.8,53588,List2A,black,woman,,,,,"{""Q0"":""dave and jane are shouting at each other""}","<img src=""stim_listA/shout2.gif""</stim_listA>",are shouting at each other,
null,"<div style=""font-size:60px;"">+</div>",,html-keyboard-response,66,533343,0.0-13.0-0.9,53588,List2A,black,woman,,,,null,,,,
null,"<img src=""stim_listA/meet8.gif""</stim_listA>",,html-keyboard-response,67,535346,0.0-13.0-1.9,53588,List2A,black,woman,,,,null,,,,
null,are meeting each other,,html-keyboard-response,68,537348,0.0-13.0-2.9,53588,List2A,black,woman,,,,null,,,,
22964,,,survey-text,69,560313,0.0-13.0-3.9,53588,List2A,black,woman,,,,,"{""Q0"":""beth and ruth are meeting each other""}","<img src=""stim_listA/meet8.gif""</stim_listA>",are meeting each other,
null,"<div style=""font-size:60px;"">+</div>",,html-keyboard-response,70,560824,0.0-13.0-0.10,53588,List2A,black,woman,,,,null,,,,
null,"<img src=""stim_listA/shout1.gif""</stim_listA>",,html-keyboard-response,71,562833,0.0-13.0-1.10,53588,List2A,black,woman,,,,null,,,,
null,is shouting at,,html-keyboard-response,72,564835,0.0-13.0-2.10,53588,List2A,black,woman,,,,null,,,,
17813,,,survey-text,73,582649,0.0-13.0-3.10,53588,List2A,black,woman,,,,,"{""Q0"":""luke is shouting at ruth""}","<img src=""stim_listA/shout1.gif""</stim_listA>",is shouting at,
null,"<div style=""font-size:60px;"">+</div>",,html-keyboard-response,74,583151,0.0-13.0-0.11,53588,List2A,black,woman,,,,null,,,,
null,"<img src=""stim_listA/hug8.gif""</stim_listA>",,html-keyboard-response,75,585155,0.0-13.0-1.11,53588,List2A,black,woman,,,,null,,,,
null,are hugging each other,,html-keyboard-response,76,587157,0.0-13.0-2.11,53588,List2A,black,woman,,,,null,,,,
28321,,,survey-text,77,615479,0.0-13.0-3.11,53588,List2A,black,woman,,,,,"{""Q0"":""kate and jane are hugging each other""}","<img src=""stim_listA/hug8.gif""</stim_listA>",are hugging each other,
null,"<div style=""font-size:60px;"">+</div>",,html-keyboard-response,78,615981,0.0-13.0-0.12,53588,List2A,black,woman,,,,null,,,,
null,"<img src=""stim_listA/marry1.gif""</stim_listA>",,html-keyboard-response,79,617984,0.0-13.0-1.12,53588,List2A,black,woman,,,,null,,,,
null,is marrying,,html-keyboard-response,80,619985,0.0-13.0-2.12,53588,List2A,black,woman,,,,null,,,,
17963,,,survey-text,81,637949,0.0-13.0-3.12,53588,List2A,black,woman,,,,,"{""Q0"":""dave is marrying ruth""}","<img src=""stim_listA/marry1.gif""</stim_listA>",is marrying,
null,"<div style=""font-size:60px;"">+</div>",,html-keyboard-response,82,638451,0.0-13.0-0.13,53588,List2A,black,woman,,,,null,,,,
null,"<img src=""stim_listA/shout7.gif""</stim_listA>",,html-keyboard-response,83,640454,0.0-13.0-1.13,53588,List2A,black,woman,,,,null,,,,
null,is shouting at,,html-keyboard-response,84,642456,0.0-13.0-2.13,53588,List2A,black,woman,,,,null,,,,
18466,,,survey-text,85,660922,0.0-13.0-3.13,53588,List2A,black,woman,,,,,"{""Q0"":""beth is shouting at ruth""}","<img src=""stim_listA/shout7.gif""</stim_listA>",is shouting at,
null,"<div style=""font-size:60px;"">+</div>",,html-keyboard-response,86,661425,0.0-13.0-0.14,53588,List2A,black,woman,,,,null,,,,
null,"<img src=""stim_listA/shout5.gif""</stim_listA>",,html-keyboard-response,87,663427,0.0-13.0-1.14,53588,List2A,black,woman,,,,null,,,,
null,is shouting at,,html-keyboard-response,88,665429,0.0-13.0-2.14,53588,List2A,black,woman,,,,null,,,,
22853,,,survey-text,89,688284,0.0-13.0-3.14,53588,List2A,black,woman,,,,,"{""Q0"":""fred id shouting at luke""}","<img src=""stim_listA/shout5.gif""</stim_listA>",is shouting at,
null,"<div style=""font-size:60px;"">+</div>",,html-keyboard-response,90,688786,0.0-13.0-0.15,53588,List2A,black,woman,,,,null,,,,
null,"<img src=""stim_listA/touch3.gif""</stim_listA>",,html-keyboard-response,91,690788,0.0-13.0-1.15,53588,List2A,black,woman,,,,null,,,,
null,is touching,,html-keyboard-response,92,692789,0.0-13.0-2.15,53588,List2A,black,woman,,,,null,,,,
20746,,,survey-text,93,713536,0.0-13.0-3.15,53588,List2A,black,woman,,,,,"{""Q0"":""mike is touching kate""}","<img src=""stim_listA/touch3.gif""</stim_listA>",is touching,
null,"<div style=""font-size:60px;"">+</div>",,html-keyboard-response,94,714038,0.0-13.0-0.16,53588,List2A,black,woman,,,,null,,,,
null,"<img src=""stim_listA/argue1.gif""</stim_listA>",,html-keyboard-response,95,716041,0.0-13.0-1.16,53588,List2A,black,woman,,,,null,,,,
null,is arguing with,,html-keyboard-response,96,718043,0.0-13.0-2.16,53588,List2A,black,woman,,,,null,,,,
19658,,,survey-text,97,737703,0.0-13.0-3.16,53588,List2A,black,woman,,,,,"{""Q0"":""dave is arguing with ruth""}","<img src=""stim_listA/argue1.gif""</stim_listA>",is arguing with,
null,"<div style=""font-size:60px;"">+</div>",,html-keyboard-response,98,738205,0.0-13.0-0.17,53588,List2A,black,woman,,,,null,,,,
null,"<img src=""stim_listA/argue4.gif""</stim_listA>",,html-keyboard-response,99,740207,0.0-13.0-1.17,53588,List2A,black,woman,,,,null,,,,
null,are arguing with each other,,html-keyboard-response,100,742210,0.0-13.0-2.17,53588,List2A,black,woman,,,,null,,,,
30052,,,survey-text,101,772263,0.0-13.0-3.17,53588,List2A,black,woman,,,,,"{""Q0"":""fred and kate are arguing with eath other""}","<img src=""stim_listA/argue4.gif""</stim_listA>",are arguing with each other,
null,"<div style=""font-size:60px;"">+</div>",,html-keyboard-response,102,772765,0.0-13.0-0.18,53588,List2A,black,woman,,,,null,,,,
null,"<img src=""stim_listA/marry3.gif""</stim_listA>",,html-keyboard-response,103,774770,0.0-13.0-1.18,53588,List2A,black,woman,,,,null,,,,
null,is marrying,,html-keyboard-response,104,776773,0.0-13.0-2.18,53588,List2A,black,woman,,,,null,,,,
22128,,,survey-text,105,798903,0.0-13.0-3.18,53588,List2A,black,woman,,,,,"{""Q0"":""beth is marrying mike""}","<img src=""stim_listA/marry3.gif""</stim_listA>",is marrying,
null,"<div style=""font-size:60px;"">+</div>",,html-keyboard-response,106,799406,0.0-13.0-0.19,53588,List2A,black,woman,,,,null,,,,
null,"<img src=""stim_listA/argue7.gif""</stim_listA>",,html-keyboard-response,107,801408,0.0-13.0-1.19,53588,List2A,black,woman,,,,null,,,,
null,is arguing with,,html-keyboard-response,108,803410,0.0-13.0-2.19,53588,List2A,black,woman,,,,null,,,,
26237,,,survey-text,109,829649,0.0-13.0-3.19,53588,List2A,black,woman,,,,,"{""Q0"":""beth is arguing with jane""}","<img src=""stim_listA/argue7.gif""</stim_listA>",is arguing with,
23785,"<img src='img/portrait_matrix_list2.JPG' style='width:900px;height:500px;''></img><p>If you have memorised all the portraits and names and are ready to start, press Continue.</p><p><strong>Please note: Your memory of these faces will be tested 4 times during this experiment.</strong></p>",0,html-button-response,110,853436,0.0-14.0-0.0,53588,List2A,black,woman,,,,,,,,
8653,"<img src=""portrait/BM1.jpg""style=""width:400px;height:400px;""></img>",4,html-button-response,111,863093,0.0-14.0-1.0,53588,List2A,black,woman,,TRUE,4,,,,,
null,CORRECT,,html-keyboard-response,112,864596,0.0-14.0-2.0-0.0,53588,List2A,black,woman,,,,null,,,,
2675,"<img src=""portrait/BW2.jpg""style=""width:400px;height:400px;""></img>",2,html-button-response,113,867274,0.0-14.0-4.0,53588,List2A,black,woman,,TRUE,2,,,,,
null,CORRECT,,html-keyboard-response,114,868777,0.0-14.0-5.0-0.0,53588,List2A,black,woman,,,,null,,,,
4072,"<img src=""portrait/WM2.jpg""style=""width:400px;height:400px;""></img>",7,html-button-response,115,872851,0.0-14.0-7.0,53588,List2A,black,woman,,TRUE,7,,,,,
null,CORRECT,,html-keyboard-response,116,874355,0.0-14.0-8.0-0.0,53588,List2A,black,woman,,,,null,,,,
2982,"<img src=""portrait/BM2.jpg""style=""width:400px;height:400px;""></img>",5,html-button-response,117,877339,0.0-14.0-10.0,53588,List2A,black,woman,,TRUE,5,,,,,
null,CORRECT,,html-keyboard-response,118,878841,0.0-14.0-11.0-0.0,53588,List2A,black,woman,,,,null,,,,
2665,"<img src=""portrait/WW1.jpg""style=""width:400px;height:400px;""></img>",1,html-button-response,119,881509,0.0-14.0-13.0,53588,List2A,black,woman,,TRUE,1,,,,,
null,CORRECT,,html-keyboard-response,120,883012,0.0-14.0-14.0-0.0,53588,List2A,black,woman,,,,null,,,,
3584,"<img src=""portrait/WM1.jpg""style=""width:400px;height:400px;""></img>",6,html-button-response,121,886599,0.0-14.0-16.0,53588,List2A,black,woman,,TRUE,6,,,,,
null,CORRECT,,html-keyboard-response,122,888102,0.0-14.0-17.0-0.0,53588,List2A,black,woman,,,,null,,,,
6061,"<img src=""portrait/BW1.jpg""style=""width:400px;height:400px;""></img>",0,html-button-response,123,894166,0.0-14.0-19.0,53588,List2A,black,woman,,TRUE,0,,,,,
null,CORRECT,,html-keyboard-response,124,895669,0.0-14.0-20.0-0.0,53588,List2A,black,woman,,,,null,,,,
6577,"<img src=""portrait/WW2.jpg""style=""width:400px;height:400px;""></img>",3,html-button-response,125,902250,0.0-14.0-22.0,53588,List2A,black,woman,,TRUE,3,,,,,
null,CORRECT,,html-keyboard-response,126,903753,0.0-14.0-23.0-0.0,53588,List2A,black,woman,,,,null,,,,
2232,<p>You got 8 out of 8 right first time. Press Continue.</p>,0,html-button-response,127,905990,0.0-14.0-25.0,53588,List2A,black,woman,,,,,,,,
null,"<div style=""font-size:60px;"">+</div>",,html-keyboard-response,128,907494,0.0-15.0-0.0,53588,List2A,black,woman,,,,null,,,,
null,"<img src=""stim_listA/hug4.gif""</stim_listA>",,html-keyboard-response,129,909496,0.0-15.0-1.0,53588,List2A,black,woman,,,,null,,,,
null,are hugging each other,,html-keyboard-response,130,911497,0.0-15.0-2.0,53588,List2A,black,woman,,,,null,,,,
23723,,,survey-text,131,935222,0.0-15.0-3.0,53588,List2A,black,woman,,,,,"{""Q0"":""mike and kate are hugging each other""}","<img src=""stim_listA/hug4.gif""</stim_listA>",are hugging each other,
null,"<div style=""font-size:60px;"">+</div>",,html-keyboard-response,132,935724,0.0-15.0-0.1,53588,List2A,black,woman,,,,null,,,,
null,"<img src=""stim_listA/touch2.gif""</stim_listA>",,html-keyboard-response,133,937728,0.0-15.0-1.1,53588,List2A,black,woman,,,,null,,,,
null,are touching each other,,html-keyboard-response,134,939730,0.0-15.0-2.1,53588,List2A,black,woman,,,,null,,,,
20073,,,survey-text,135,959805,0.0-15.0-3.1,53588,List2A,black,woman,,,,,"{""Q0"":""luke ane ruth are touching each other""}","<img src=""stim_listA/touch2.gif""</stim_listA>",are touching each other,
null,"<div style=""font-size:60px;"">+</div>",,html-keyboard-response,136,960307,0.0-15.0-0.2,53588,List2A,black,woman,,,,null,,,,
null,"<img src=""stim_listA/kiss3.gif""</stim_listA>",,html-keyboard-response,137,962309,0.0-15.0-1.2,53588,List2A,black,woman,,,,null,,,,
null,is kissing,,html-keyboard-response,138,964312,0.0-15.0-2.2,53588,List2A,black,woman,,,,null,,,,
14827,,,survey-text,139,979141,0.0-15.0-3.2,53588,List2A,black,woman,,,,,"{""Q0"":""fred is kissing beth""}","<img src=""stim_listA/kiss3.gif""</stim_listA>",is kissing,
null,"<div style=""font-size:60px;"">+</div>",,html-keyboard-response,140,979642,0.0-15.0-0.3,53588,List2A,black,woman,,,,null,,,,
null,"<img src=""stim_listA/meet7.gif""</stim_listA>",,html-keyboard-response,141,981645,0.0-15.0-1.3,53588,List2A,black,woman,,,,null,,,,
null,is meeting,,html-keyboard-response,142,983648,0.0-15.0-2.3,53588,List2A,black,woman,,,,null,,,,
15787,,,survey-text,143,999437,0.0-15.0-3.3,53588,List2A,black,woman,,,,,"{""Q0"":""kate is meeting jane""}","<img src=""stim_listA/meet7.gif""</stim_listA>",is meeting,
null,"<div style=""font-size:60px;"">+</div>",,html-keyboard-response,144,999939,0.0-15.0-0.4,53588,List2A,black,woman,,,,null,,,,
null,"<img src=""stim_listA/meet2.gif""</stim_listA>",,html-keyboard-response,145,1001941,0.0-15.0-1.4,53588,List2A,black,woman,,,,null,,,,
null,are meeting each other,,html-keyboard-response,146,1003943,0.0-15.0-2.4,53588,List2A,black,woman,,,,null,,,,
18099,,,survey-text,147,1022044,0.0-15.0-3.4,53588,List2A,black,woman,,,,,"{""Q0"":""ruth and luke are meeting each other""}","<img src=""stim_listA/meet2.gif""</stim_listA>",are meeting each other,
null,"<div style=""font-size:60px;"">+</div>",,html-keyboard-response,148,1022556,0.0-15.0-0.5,53588,List2A,black,woman,,,,null,,,,
null,"<img src=""stim_listA/meet1.gif""</stim_listA>",,html-keyboard-response,149,1024558,0.0-15.0-1.5,53588,List2A,black,woman,,,,null,,,,
null,is meeting,,html-keyboard-response,150,1026561,0.0-15.0-2.5,53588,List2A,black,woman,,,,null,,,,
14337,,,survey-text,151,1040900,0.0-15.0-3.5,53588,List2A,black,woman,,,,,"{""Q0"":""dave is meeting jane""}","<img src=""stim_listA/meet1.gif""</stim_listA>",is meeting,
null,"<div style=""font-size:60px;"">+</div>",,html-keyboard-response,152,1041402,0.0-15.0-0.6,53588,List2A,black,woman,,,,null,,,,
null,"<img src=""stim_listA/fight6.gif""</stim_listA>",,html-keyboard-response,153,1043405,0.0-15.0-1.6,53588,List2A,black,woman,,,,null,,,,
null,are fighting each other,,html-keyboard-response,154,1045408,0.0-15.0-2.6,53588,List2A,black,woman,,,,null,,,,
26770,,,survey-text,155,1072179,0.0-15.0-3.6,53588,List2A,black,woman,,,,,"{""Q0"":""fred and mike are fighting each other""}","<img src=""stim_listA/fight6.gif""</stim_listA>",are fighting each other,
null,"<div style=""font-size:60px;"">+</div>",,html-keyboard-response,156,1072680,0.0-15.0-0.7,53588,List2A,black,woman,,,,null,,,,
null,"<img src=""stim_listA/kiss7.gif""</stim_listA>",,html-keyboard-response,157,1074683,0.0-15.0-1.7,53588,List2A,black,woman,,,,null,,,,
null,is kissing,,html-keyboard-response,158,1076685,0.0-15.0-2.7,53588,List2A,black,woman,,,,null,,,,
44884,,,survey-text,159,1121571,0.0-15.0-3.7,53588,List2A,black,woman,,,,,"{""Q0"":""beth is kissing ruth""}","<img src=""stim_listA/kiss7.gif""</stim_listA>",is kissing,
null,"<div style=""font-size:60px;"">+</div>",,html-keyboard-response,160,1122074,0.0-15.0-0.8,53588,List2A,black,woman,,,,null,,,,
null,"<img src=""stim_listA/hug1.gif""</stim_listA>",,html-keyboard-response,161,1124076,0.0-15.0-1.8,53588,List2A,black,woman,,,,null,,,,
null,is hugging,,html-keyboard-response,162,1126078,0.0-15.0-2.8,53588,List2A,black,woman,,,,null,,,,
22626,,,survey-text,163,1148706,0.0-15.0-3.8,53588,List2A,black,woman,,,,,"{""Q0"":""luke is hugging ruth""}","<img src=""stim_listA/hug1.gif""</stim_listA>",is hugging,
null,"<div style=""font-size:60px;"">+</div>",,html-keyboard-response,164,1149208,0.0-15.0-0.9,53588,List2A,black,woman,,,,null,,,,
null,"<img src=""stim_listA/talk7.gif""</stim_listA>",,html-keyboard-response,165,1151211,0.0-15.0-1.9,53588,List2A,black,woman,,,,null,,,,
null,is talking to,,html-keyboard-response,166,1153213,0.0-15.0-2.9,53588,List2A,black,woman,,,,null,,,,
16786,,,survey-text,167,1170001,0.0-15.0-3.9,53588,List2A,black,woman,,,,,"{""Q0"":""kate is talking to ruth""}","<img src=""stim_listA/talk7.gif""</stim_listA>",is talking to,
null,"<div style=""font-size:60px;"">+</div>",,html-keyboard-response,168,1170503,0.0-15.0-0.10,53588,List2A,black,woman,,,,null,,,,
null,"<img src=""stim_listA/kiss4.gif""</stim_listA>",,html-keyboard-response,169,1172505,0.0-15.0-1.10,53588,List2A,black,woman,,,,null,,,,
null,are kissing each other,,html-keyboard-response,170,1174508,0.0-15.0-2.10,53588,List2A,black,woman,,,,null,,,,
19776,,,survey-text,171,1194286,0.0-15.0-3.10,53588,List2A,black,woman,,,,,"{""Q0"":""mike and kate are kissing each other""}","<img src=""stim_listA/kiss4.gif""</stim_listA>",are kissing each other,
null,"<div style=""font-size:60px;"">+</div>",,html-keyboard-response,172,1194788,0.0-15.0-0.11,53588,List2A,black,woman,,,,null,,,,
null,"<img src=""stim_listA/meet5.gif""</stim_listA>",,html-keyboard-response,173,1196792,0.0-15.0-1.11,53588,List2A,black,woman,,,,null,,,,
null,is meeting,,html-keyboard-response,174,1198804,0.0-15.0-2.11,53588,List2A,black,woman,,,,null,,,,
15089,,,survey-text,175,1213894,0.0-15.0-3.11,53588,List2A,black,woman,,,,,"{""Q0"":""mike is meeting dave""}","<img src=""stim_listA/meet5.gif""</stim_listA>",is meeting,
null,"<div style=""font-size:60px;"">+</div>",,html-keyboard-response,176,1214397,0.0-15.0-0.12,53588,List2A,black,woman,,,,null,,,,
null,"<img src=""stim_listA/marry8.gif""</stim_listA>",,html-keyboard-response,177,1216401,0.0-15.0-1.12,53588,List2A,black,woman,,,,null,,,,
null,are marrying each other,,html-keyboard-response,178,1218403,0.0-15.0-2.12,53588,List2A,black,woman,,,,null,,,,
20735,,,survey-text,179,1239140,0.0-15.0-3.12,53588,List2A,black,woman,,,,,"{""Q0"":""kate and ruth are marrying each other""}","<img src=""stim_listA/marry8.gif""</stim_listA>",are marrying each other,
null,"<div style=""font-size:60px;"">+</div>",,html-keyboard-response,180,1239642,0.0-15.0-0.13,53588,List2A,black,woman,,,,null,,,,
null,"<img src=""stim_listA/shout6.gif""</stim_listA>",,html-keyboard-response,181,1241645,0.0-15.0-1.13,53588,List2A,black,woman,,,,null,,,,
null,are shouting at each other,,html-keyboard-response,182,1243646,0.0-15.0-2.13,53588,List2A,black,woman,,,,null,,,,
20643,,,survey-text,183,1264290,0.0-15.0-3.13,53588,List2A,black,woman,,,,,"{""Q0"":""dave and mike are shouting at each other""}","<img src=""stim_listA/shout6.gif""</stim_listA>",are shouting at each other,
null,"<div style=""font-size:60px;"">+</div>",,html-keyboard-response,184,1264792,0.0-15.0-0.14,53588,List2A,black,woman,,,,null,,,,
null,"<img src=""stim_listA/shout3.gif""</stim_listA>",,html-keyboard-response,185,1266795,0.0-15.0-1.14,53588,List2A,black,woman,,,,null,,,,
null,is shouting at,,html-keyboard-response,186,1268796,0.0-15.0-2.14,53588,List2A,black,woman,,,,null,,,,
16873,,,survey-text,187,1285670,0.0-15.0-3.14,53588,List2A,black,woman,,,,,"{""Q0"":""fred is shouting at beth""}","<img src=""stim_listA/shout3.gif""</stim_listA>",is shouting at,
null,"<div style=""font-size:60px;"">+</div>",,html-keyboard-response,188,1286174,0.0-15.0-0.15,53588,List2A,black,woman,,,,null,,,,
null,"<img src=""stim_listA/dance8.gif""</stim_listA>",,html-keyboard-response,189,1288177,0.0-15.0-1.15,53588,List2A,black,woman,,,,null,,,,
null,are dancing with each other,,html-keyboard-response,190,1290180,0.0-15.0-2.15,53588,List2A,black,woman,,,,null,,,,
22312,,,survey-text,191,1312494,0.0-15.0-3.15,53588,List2A,black,woman,,,,,"{""Q0"":""jane and beth are dancing with each other""}","<img src=""stim_listA/dance8.gif""</stim_listA>",are dancing with each other,
null,"<div style=""font-size:60px;"">+</div>",,html-keyboard-response,192,1312995,0.0-15.0-0.16,53588,List2A,black,woman,,,,null,,,,
null,"<img src=""stim_listA/hug3.gif""</stim_listA>",,html-keyboard-response,193,1314998,0.0-15.0-1.16,53588,List2A,black,woman,,,,null,,,,
null,is hugging,,html-keyboard-response,194,1317000,0.0-15.0-2.16,53588,List2A,black,woman,,,,null,,,,
19456,,,survey-text,195,1336458,0.0-15.0-3.16,53588,List2A,black,woman,,,,,"{""Q0"":""fred is hugging beth""}","<img src=""stim_listA/hug3.gif""</stim_listA>",is hugging,
null,"<div style=""font-size:60px;"">+</div>",,html-keyboard-response,196,1336960,0.0-15.0-0.17,53588,List2A,black,woman,,,,null,,,,
null,"<img src=""stim_listA/fight8.gif""</stim_listA>",,html-keyboard-response,197,1338963,0.0-15.0-1.17,53588,List2A,black,woman,,,,null,,,,
null,are fighting each other,,html-keyboard-response,198,1340964,0.0-15.0-2.17,53588,List2A,black,woman,,,,null,,,,
22536,,,survey-text,199,1363502,0.0-15.0-3.17,53588,List2A,black,woman,,,,,"{""Q0"":""ruth and beth are fighting each other""}","<img src=""stim_listA/fight8.gif""</stim_listA>",are fighting each other,
null,"<div style=""font-size:60px;"">+</div>",,html-keyboard-response,200,1364004,0.0-15.0-0.18,53588,List2A,black,woman,,,,null,,,,
null,"<img src=""stim_listA/marry7.gif""</stim_listA>",,html-keyboard-response,201,1366006,0.0-15.0-1.18,53588,List2A,black,woman,,,,null,,,,
null,is marrying,,html-keyboard-response,202,1368009,0.0-15.0-2.18,53588,List2A,black,woman,,,,null,,,,
14705,,,survey-text,203,1382715,0.0-15.0-3.18,53588,List2A,black,woman,,,,,"{""Q0"":""beth is marrying jane""}","<img src=""stim_listA/marry7.gif""</stim_listA>",is marrying,
null,"<div style=""font-size:60px;"">+</div>",,html-keyboard-response,204,1383219,0.0-15.0-0.19,53588,List2A,black,woman,,,,null,,,,
null,"<img src=""stim_listA/argue6.gif""</stim_listA>",,html-keyboard-response,205,1385221,0.0-15.0-1.19,53588,List2A,black,woman,,,,null,,,,
null,are arguing with each other,,html-keyboard-response,206,1387223,0.0-15.0-2.19,53588,List2A,black,woman,,,,null,,,,
21710,,,survey-text,207,1408935,0.0-15.0-3.19,53588,List2A,black,woman,,,,,"{""Q0"":""luke and mike are arguing with each other""}","<img src=""stim_listA/argue6.gif""</stim_listA>",are arguing with each other,
7369,"<img src='img/portrait_matrix_list2.JPG' style='width:900px;height:500px;''></img><p>If you have memorised all the portraits and names and are ready to start, press Continue.</p><p><strong>Please note: Your memory of these faces will be tested 4 times during this experiment.</strong></p>",0,html-button-response,208,1416306,0.0-16.0-0.0,53588,List2A,black,woman,,,,,,,,
5755,"<img src=""portrait/BM2.jpg""style=""width:400px;height:400px;""></img>",5,html-button-response,209,1423065,0.0-16.0-1.0,53588,List2A,black,woman,,TRUE,5,,,,,
null,CORRECT,,html-keyboard-response,210,1424568,0.0-16.0-2.0-0.0,53588,List2A,black,woman,,,,null,,,,
3613,"<img src=""portrait/BM1.jpg""style=""width:400px;height:400px;""></img>",4,html-button-response,211,1428185,0.0-16.0-4.0,53588,List2A,black,woman,,TRUE,4,,,,,
null,CORRECT,,html-keyboard-response,212,1429688,0.0-16.0-5.0-0.0,53588,List2A,black,woman,,,,null,,,,
2150,"<img src=""portrait/BW2.jpg""style=""width:400px;height:400px;""></img>",2,html-button-response,213,1431841,0.0-16.0-7.0,53588,List2A,black,woman,,TRUE,2,,,,,
null,CORRECT,,html-keyboard-response,214,1433343,0.0-16.0-8.0-0.0,53588,List2A,black,woman,,,,null,,,,
2983,"<img src=""portrait/WM2.jpg""style=""width:400px;height:400px;""></img>",7,html-button-response,215,1436330,0.0-16.0-10.0,53588,List2A,black,woman,,TRUE,7,,,,,
null,CORRECT,,html-keyboard-response,216,1437834,0.0-16.0-11.0-0.0,53588,List2A,black,woman,,,,null,,,,
2916,"<img src=""portrait/WW2.jpg""style=""width:400px;height:400px;""></img>",3,html-button-response,217,1440752,0.0-16.0-13.0,53588,List2A,black,woman,,TRUE,3,,,,,
null,CORRECT,,html-keyboard-response,218,1442266,0.0-16.0-14.0-0.0,53588,List2A,black,woman,,,,null,,,,
3211,"<img src=""portrait/WM1.jpg""style=""width:400px;height:400px;""></img>",6,html-button-response,219,1445480,0.0-16.0-16.0,53588,List2A,black,woman,,TRUE,6,,,,,
null,CORRECT,,html-keyboard-response,220,1446982,0.0-16.0-17.0-0.0,53588,List2A,black,woman,,,,null,,,,
3031,"<img src=""portrait/BW1.jpg""style=""width:400px;height:400px;""></img>",0,html-button-response,221,1450016,0.0-16.0-19.0,53588,List2A,black,woman,,TRUE,0,,,,,
null,CORRECT,,html-keyboard-response,222,1451520,0.0-16.0-20.0-0.0,53588,List2A,black,woman,,,,null,,,,
1980,"<img src=""portrait/WW1.jpg""style=""width:400px;height:400px;""></img>",1,html-button-response,223,1453503,0.0-16.0-22.0,53588,List2A,black,woman,,TRUE,1,,,,,
null,CORRECT,,html-keyboard-response,224,1455006,0.0-16.0-23.0-0.0,53588,List2A,black,woman,,,,null,,,,
2290,<p>You got 8 out of 8 right first time. Press Continue.</p>,0,html-button-response,225,1457299,0.0-16.0-25.0,53588,List2A,black,woman,,,,,,,,
null,"<div style=""font-size:60px;"">+</div>",,html-keyboard-response,226,1458802,0.0-17.0-0.0,53588,List2A,black,woman,,,,null,,,,
null,"<img src=""stim_listA/touch7.gif""</stim_listA>",,html-keyboard-response,227,1460806,0.0-17.0-1.0,53588,List2A,black,woman,,,,null,,,,
null,is touching,,html-keyboard-response,228,1462809,0.0-17.0-2.0,53588,List2A,black,woman,,,,null,,,,
16915,,,survey-text,229,1479726,0.0-17.0-3.0,53588,List2A,black,woman,,,,,"{""Q0"":""kate is touching jane""}","<img src=""stim_listA/touch7.gif""</stim_listA>",is touching,
null,"<div style=""font-size:60px;"">+</div>",,html-keyboard-response,230,1480228,0.0-17.0-0.1,53588,List2A,black,woman,,,,null,,,,
null,"<img src=""stim_listA/touch5.gif""</stim_listA>",,html-keyboard-response,231,1482230,0.0-17.0-1.1,53588,List2A,black,woman,,,,null,,,,
null,is touching,,html-keyboard-response,232,1484233,0.0-17.0-2.1,53588,List2A,black,woman,,,,null,,,,
22338,,,survey-text,233,1506572,0.0-17.0-3.1,53588,List2A,black,woman,,,,,"{""Q0"":""mike is touching dave""}","<img src=""stim_listA/touch5.gif""</stim_listA>",is touching,
null,"<div style=""font-size:60px;"">+</div>",,html-keyboard-response,234,1507074,0.0-17.0-0.2,53588,List2A,black,woman,,,,null,,,,
null,"<img src=""stim_listA/talk8.gif""</stim_listA>",,html-keyboard-response,235,1509076,0.0-17.0-1.2,53588,List2A,black,woman,,,,null,,,,
null,are talking to each other,,html-keyboard-response,236,1511078,0.0-17.0-2.2,53588,List2A,black,woman,,,,null,,,,
23053,,,survey-text,237,1534133,0.0-17.0-3.2,53588,List2A,black,woman,,,,,"{""Q0"":""beth and jane are talking to each other""}","<img src=""stim_listA/talk8.gif""</stim_listA>",are talking to each other,
null,"<div style=""font-size:60px;"">+</div>",,html-keyboard-response,238,1534635,0.0-17.0-0.3,53588,List2A,black,woman,,,,null,,,,
null,"<img src=""stim_listA/dance2.gif""</stim_listA>",,html-keyboard-response,239,1536637,0.0-17.0-1.3,53588,List2A,black,woman,,,,null,,,,
null,are dancing with each other,,html-keyboard-response,240,1538639,0.0-17.0-2.3,53588,List2A,black,woman,,,,null,,,,
25334,,,survey-text,241,1563975,0.0-17.0-3.3,53588,List2A,black,woman,,,,,"{""Q0"":""dave and ruth are dancing with each other""}","<img src=""stim_listA/dance2.gif""</stim_listA>",are dancing with each other,
null,"<div style=""font-size:60px;"">+</div>",,html-keyboard-response,242,1564477,0.0-17.0-0.4,53588,List2A,black,woman,,,,null,,,,
null,"<img src=""stim_listA/argue2.gif""</stim_listA>",,html-keyboard-response,243,1566480,0.0-17.0-1.4,53588,List2A,black,woman,,,,null,,,,
null,are arguing with each other,,html-keyboard-response,244,1568483,0.0-17.0-2.4,53588,List2A,black,woman,,,,null,,,,
27472,,,survey-text,245,1595956,0.0-17.0-3.4,53588,List2A,black,woman,,,,,"{""Q0"":""luke and jane are arguing with each other""}","<img src=""stim_listA/argue2.gif""</stim_listA>",are arguing with each other,
null,"<div style=""font-size:60px;"">+</div>",,html-keyboard-response,246,1596459,0.0-17.0-0.5,53588,List2A,black,woman,,,,null,,,,
null,"<img src=""stim_listA/fight3.gif""</stim_listA>",,html-keyboard-response,247,1598468,0.0-17.0-1.5,53588,List2A,black,woman,,,,null,,,,
null,is fighting,,html-keyboard-response,248,1600469,0.0-17.0-2.5,53588,List2A,black,woman,,,,null,,,,
20426,,,survey-text,249,1620897,0.0-17.0-3.5,53588,List2A,black,woman,,,,,"{""Q0"":""mike is fighting with kate""}","<img src=""stim_listA/fight3.gif""</stim_listA>",is fighting,
null,"<div style=""font-size:60px;"">+</div>",,html-keyboard-response,250,1621400,0.0-17.0-0.6,53588,List2A,black,woman,,,,null,,,,
null,"<img src=""stim_listA/shout8.gif""</stim_listA>",,html-keyboard-response,251,1623402,0.0-17.0-1.6,53588,List2A,black,woman,,,,null,,,,
null,are shouting at each other,,html-keyboard-response,252,1625404,0.0-17.0-2.6,53588,List2A,black,woman,,,,null,,,,
22534,,,survey-text,253,1647940,0.0-17.0-3.6,53588,List2A,black,woman,,,,,"{""Q0"":""kate and jane are shouting at each other""}","<img src=""stim_listA/shout8.gif""</stim_listA>",are shouting at each other,
null,"<div style=""font-size:60px;"">+</div>",,html-keyboard-response,254,1648443,0.0-17.0-0.7,53588,List2A,black,woman,,,,null,,,,
null,"<img src=""stim_listA/fight5.gif""</stim_listA>",,html-keyboard-response,255,1650446,0.0-17.0-1.7,53588,List2A,black,woman,,,,null,,,,
null,is fighting,,html-keyboard-response,256,1652447,0.0-17.0-2.7,53588,List2A,black,woman,,,,null,,,,
18881,,,survey-text,257,1671329,0.0-17.0-3.7,53588,List2A,black,woman,,,,,"{""Q0"":""dave is fighting with mike""}","<img src=""stim_listA/fight5.gif""</stim_listA>",is fighting,
null,"<div style=""font-size:60px;"">+</div>",,html-keyboard-response,258,1671831,0.0-17.0-0.8,53588,List2A,black,woman,,,,null,,,,
null,"<img src=""stim_listA/talk5.gif""</stim_listA>",,html-keyboard-response,259,1673849,0.0-17.0-1.8,53588,List2A,black,woman,,,,null,,,,
null,is talking to,,html-keyboard-response,260,1675851,0.0-17.0-2.8,53588,List2A,black,woman,,,,null,,,,
17508,,,survey-text,261,1693361,0.0-17.0-3.8,53588,List2A,black,woman,,,,,"{""Q0"":""luke is talking to mike""}","<img src=""stim_listA/talk5.gif""</stim_listA>",is talking to,
null,"<div style=""font-size:60px;"">+</div>",,html-keyboard-response,262,1693863,0.0-17.0-0.9,53588,List2A,black,woman,,,,null,,,,
null,"<img src=""stim_listA/argue5.gif""</stim_listA>",,html-keyboard-response,263,1695865,0.0-17.0-1.9,53588,List2A,black,woman,,,,null,,,,
null,is arguing with,,html-keyboard-response,264,1697866,0.0-17.0-2.9,53588,List2A,black,woman,,,,null,,,,
20940,,,survey-text,265,1718807,0.0-17.0-3.9,53588,List2A,black,woman,,,,,"{""Q0"":""dave is arguing with fred""}","<img src=""stim_listA/argue5.gif""</stim_listA>",is arguing with,
null,"<div style=""font-size:60px;"">+</div>",,html-keyboard-response,266,1719310,0.0-17.0-0.10,53588,List2A,black,woman,,,,null,,,,
null,"<img src=""stim_listA/hug5.gif""</stim_listA>",,html-keyboard-response,267,1721312,0.0-17.0-1.10,53588,List2A,black,woman,,,,null,,,,
null,is hugging,,html-keyboard-response,268,1723314,0.0-17.0-2.10,53588,List2A,black,woman,,,,null,,,,
18981,,,survey-text,269,1742297,0.0-17.0-3.10,53588,List2A,black,woman,,,,,"{""Q0"":""fred is hugging luke""}","<img src=""stim_listA/hug5.gif""</stim_listA>",is hugging,
null,"<div style=""font-size:60px;"">+</div>",,html-keyboard-response,270,1742812,0.0-17.0-0.11,53588,List2A,black,woman,,,,null,,,,
null,"<img src=""stim_listA/dance4.gif""</stim_listA>",,html-keyboard-response,271,1744827,0.0-17.0-1.11,53588,List2A,black,woman,,,,null,,,,
null,are dancing with each other,,html-keyboard-response,272,1746843,0.0-17.0-2.11,53588,List2A,black,woman,,,,null,,,,
27879,,,survey-text,273,1774725,0.0-17.0-3.11,53588,List2A,black,woman,,,,,"{""Q0"":""beth and mike are dancing with each other""}","<img src=""stim_listA/dance4.gif""</stim_listA>",are dancing with each other,
null,"<div style=""font-size:60px;"">+</div>",,html-keyboard-response,274,1775227,0.0-17.0-0.12,53588,List2A,black,woman,,,,null,,,,
null,"<img src=""stim_listA/touch1.gif""</stim_listA>",,html-keyboard-response,275,1777229,0.0-17.0-1.12,53588,List2A,black,woman,,,,null,,,,
null,is touching,,html-keyboard-response,276,1779231,0.0-17.0-2.12,53588,List2A,black,woman,,,,null,,,,
22659,,,survey-text,277,1801894,0.0-17.0-3.12,53588,List2A,black,woman,,,,,"{""Q0"":""dave is touhing jane""}","<img src=""stim_listA/touch1.gif""</stim_listA>",is touching,
null,"<div style=""font-size:60px;"">+</div>",,html-keyboard-response,278,1802396,0.0-17.0-0.13,53588,List2A,black,woman,,,,null,,,,
null,"<img src=""stim_listA/fight7.gif""</stim_listA>",,html-keyboard-response,279,1804398,0.0-17.0-1.13,53588,List2A,black,woman,,,,null,,,,
null,is fighting,,html-keyboard-response,280,1806400,0.0-17.0-2.13,53588,List2A,black,woman,,,,null,,,,
22226,,,survey-text,281,1828628,0.0-17.0-3.13,53588,List2A,black,woman,,,,,"{""Q0"":""kate is fighting with jane""}","<img src=""stim_listA/fight7.gif""</stim_listA>",is fighting,
null,"<div style=""font-size:60px;"">+</div>",,html-keyboard-response,282,1829130,0.0-17.0-0.14,53588,List2A,black,woman,,,,null,,,,
null,"<img src=""stim_listA/marry2.gif""</stim_listA>",,html-keyboard-response,283,1831132,0.0-17.0-1.14,53588,List2A,black,woman,,,,null,,,,
null,are marrying each other,,html-keyboard-response,284,1833135,0.0-17.0-2.14,53588,List2A,black,woman,,,,null,,,,
27313,,,survey-text,285,1860450,0.0-17.0-3.14,53588,List2A,black,woman,,,,,"{""Q0"":""jane and luke are marrying each other""}","<img src=""stim_listA/marry2.gif""</stim_listA>",are marrying each other,
null,"<div style=""font-size:60px;"">+</div>",,html-keyboard-response,286,1860951,0.0-17.0-0.15,53588,List2A,black,woman,,,,null,,,,
null,"<img src=""stim_listA/shout4.gif""</stim_listA>",,html-keyboard-response,287,1862955,0.0-17.0-1.15,53588,List2A,black,woman,,,,null,,,,
null,are shouting at each other,,html-keyboard-response,288,1864957,0.0-17.0-2.15,53588,List2A,black,woman,,,,null,,,,
37747,,,survey-text,289,1902706,0.0-17.0-3.15,53588,List2A,black,woman,,,,,"{""Q0"":""kate and mike are shouting at each other""}","<img src=""stim_listA/shout4.gif""</stim_listA>",are shouting at each other,
null,"<div style=""font-size:60px;"">+</div>",,html-keyboard-response,290,1903208,0.0-17.0-0.16,53588,List2A,black,woman,,,,null,,,,
null,"<img src=""stim_listA/dance6.gif""</stim_listA>",,html-keyboard-response,291,1905211,0.0-17.0-1.16,53588,List2A,black,woman,,,,null,,,,
null,are dancing with each other,,html-keyboard-response,292,1907214,0.0-17.0-2.16,53588,List2A,black,woman,,,,null,,,,
33381,,,survey-text,293,1940597,0.0-17.0-3.16,53588,List2A,black,woman,,,,,"{""Q0"":""dave and fred are dancing with each other""}","<img src=""stim_listA/dance6.gif""</stim_listA>",are dancing with each other,
null,"<div style=""font-size:60px;"">+</div>",,html-keyboard-response,294,1941099,0.0-17.0-0.17,53588,List2A,black,woman,,,,null,,,,
null,"<img src=""stim_listA/kiss2.gif""</stim_listA>",,html-keyboard-response,295,1943102,0.0-17.0-1.17,53588,List2A,black,woman,,,,null,,,,
null,are kissing each other,,html-keyboard-response,296,1945104,0.0-17.0-2.17,53588,List2A,black,woman,,,,null,,,,
19147,,,survey-text,297,1964251,0.0-17.0-3.17,53588,List2A,black,woman,,,,,"{""Q0"":""dave and jane are kissing each other""}","<img src=""stim_listA/kiss2.gif""</stim_listA>",are kissing each other,
null,"<div style=""font-size:60px;"">+</div>",,html-keyboard-response,298,1964768,0.0-17.0-0.18,53588,List2A,black,woman,,,,null,,,,
null,"<img src=""stim_listA/kiss1.gif""</stim_listA>",,html-keyboard-response,299,1966781,0.0-17.0-1.18,53588,List2A,black,woman,,,,null,,,,
null,is kissing,,html-keyboard-response,300,1968783,0.0-17.0-2.18,53588,List2A,black,woman,,,,null,,,,
17466,,,survey-text,301,1986252,0.0-17.0-3.18,53588,List2A,black,woman,,,,,"{""Q0"":""luke is kissing ruth""}","<img src=""stim_listA/kiss1.gif""</stim_listA>",is kissing,
null,"<div style=""font-size:60px;"">+</div>",,html-keyboard-response,302,1986754,0.0-17.0-0.19,53588,List2A,black,woman,,,,null,,,,
null,"<img src=""stim_listA/touch8.gif""</stim_listA>",,html-keyboard-response,303,1988758,0.0-17.0-1.19,53588,List2A,black,woman,,,,null,,,,
null,are touching each other,,html-keyboard-response,304,1990760,0.0-17.0-2.19,53588,List2A,black,woman,,,,null,,,,
24632,,,survey-text,305,2015394,0.0-17.0-3.19,53588,List2A,black,woman,,,,,"{""Q0"":""beth and ruth are touching each other""}","<img src=""stim_listA/touch8.gif""</stim_listA>",are touching each other,
7132,"<img src='img/portrait_matrix_list2.JPG' style='width:900px;height:500px;''></img><p>If you have memorised all the portraits and names and are ready to start, press Continue.</p><p><strong>Please note: Your memory of these faces will be tested 4 times during this experiment.</strong></p>",0,html-button-response,306,2022529,0.0-18.0-0.0,53588,List2A,black,woman,,,,,,,,
2195,"<img src=""portrait/BW2.jpg""style=""width:400px;height:400px;""></img>",2,html-button-response,307,2025728,0.0-18.0-1.0,53588,List2A,black,woman,,TRUE,2,,,,,
null,CORRECT,,html-keyboard-response,308,2027230,0.0-18.0-2.0-0.0,53588,List2A,black,woman,,,,null,,,,
4462,"<img src=""portrait/WM1.jpg""style=""width:400px;height:400px;""></img>",6,html-button-response,309,2031695,0.0-18.0-4.0,53588,List2A,black,woman,,TRUE,6,,,,,
null,CORRECT,,html-keyboard-response,310,2033199,0.0-18.0-5.0-0.0,53588,List2A,black,woman,,,,null,,,,
7132,"<img src=""portrait/BM1.jpg""style=""width:400px;height:400px;""></img>",4,html-button-response,311,2040334,0.0-18.0-7.0,53588,List2A,black,woman,,TRUE,4,,,,,
null,CORRECT,,html-keyboard-response,312,2041842,0.0-18.0-8.0-0.0,53588,List2A,black,woman,,,,null,,,,
12241,"<img src=""portrait/BW1.jpg""style=""width:400px;height:400px;""></img>",0,html-button-response,313,2054086,0.0-18.0-10.0,53588,List2A,black,woman,,TRUE,0,,,,,
null,CORRECT,,html-keyboard-response,314,2055589,0.0-18.0-11.0-0.0,53588,List2A,black,woman,,,,null,,,,
1902,"<img src=""portrait/WW1.jpg""style=""width:400px;height:400px;""></img>",1,html-button-response,315,2057494,0.0-18.0-13.0,53588,List2A,black,woman,,TRUE,1,,,,,
null,CORRECT,,html-keyboard-response,316,2058998,0.0-18.0-14.0-0.0,53588,List2A,black,woman,,,,null,,,,
2191,"<img src=""portrait/BM2.jpg""style=""width:400px;height:400px;""></img>",5,html-button-response,317,2061191,0.0-18.0-16.0,53588,List2A,black,woman,,TRUE,5,,,,,
null,CORRECT,,html-keyboard-response,318,2062695,0.0-18.0-17.0-0.0,53588,List2A,black,woman,,,,null,,,,
4746,"<img src=""portrait/WW2.jpg""style=""width:400px;height:400px;""></img>",3,html-button-response,319,2067444,0.0-18.0-19.0,53588,List2A,black,woman,,TRUE,3,,,,,
null,CORRECT,,html-keyboard-response,320,2068946,0.0-18.0-20.0-0.0,53588,List2A,black,woman,,,,null,,,,
3562,"<img src=""portrait/WM2.jpg""style=""width:400px;height:400px;""></img>",7,html-button-response,321,2072511,0.0-18.0-22.0,53588,List2A,black,woman,,TRUE,7,,,,,
null,CORRECT,,html-keyboard-response,322,2074013,0.0-18.0-23.0-0.0,53588,List2A,black,woman,,,,null,,,,
2593,<p>You got 8 out of 8 right first time. Press Continue.</p>,0,html-button-response,323,2076609,0.0-18.0-25.0,53588,List2A,black,woman,,,,,,,,
null,"<div style=""font-size:60px;"">+</div>",,html-keyboard-response,324,2078118,0.0-19.0-0.0,53588,List2A,black,woman,,,,null,,,,
null,"<img src=""stim_listA/kiss8.gif""</stim_listA>",,html-keyboard-response,325,2080120,0.0-19.0-1.0,53588,List2A,black,woman,,,,null,,,,
null,are kissing each other,,html-keyboard-response,326,2082121,0.0-19.0-2.0,53588,List2A,black,woman,,,,null,,,,
25985,,,survey-text,327,2108108,0.0-19.0-3.0,53588,List2A,black,woman,,,,,"{""Q0"":""kate and jane are kissing each other""}","<img src=""stim_listA/kiss8.gif""</stim_listA>",are kissing each other,
null,"<div style=""font-size:60px;"">+</div>",,html-keyboard-response,328,2108614,0.0-19.0-0.1,53588,List2A,black,woman,,,,null,,,,
null,"<img src=""stim_listA/dance3.gif""</stim_listA>",,html-keyboard-response,329,2110625,0.0-19.0-1.1,53588,List2A,black,woman,,,,null,,,,
null,is dancing with,,html-keyboard-response,330,2112627,0.0-19.0-2.1,53588,List2A,black,woman,,,,null,,,,
25285,,,survey-text,331,2137914,0.0-19.0-3.1,53588,List2A,black,woman,,,,,"{""Q0"":""kate is dancing with fred""}","<img src=""stim_listA/dance3.gif""</stim_listA>",is dancing with,
null,"<div style=""font-size:60px;"">+</div>",,html-keyboard-response,332,2138416,0.0-19.0-0.2,53588,List2A,black,woman,,,,null,,,,
null,"<img src=""stim_listA/meet3.gif""</stim_listA>",,html-keyboard-response,333,2140419,0.0-19.0-1.2,53588,List2A,black,woman,,,,null,,,,
null,is meeting,,html-keyboard-response,334,2142421,0.0-19.0-2.2,53588,List2A,black,woman,,,,null,,,,
19031,,,survey-text,335,2161454,0.0-19.0-3.2,53588,List2A,black,woman,,,,,"{""Q0"":""kate is meeting mike""}","<img src=""stim_listA/meet3.gif""</stim_listA>",is meeting,
null,"<div style=""font-size:60px;"">+</div>",,html-keyboard-response,336,2161957,0.0-19.0-0.3,53588,List2A,black,woman,,,,null,,,,
null,"<img src=""stim_listA/hug2.gif""</stim_listA>",,html-keyboard-response,337,2163959,0.0-19.0-1.3,53588,List2A,black,woman,,,,null,,,,
null,are hugging each other,,html-keyboard-response,338,2165962,0.0-19.0-2.3,53588,List2A,black,woman,,,,null,,,,
26996,,,survey-text,339,2192960,0.0-19.0-3.3,53588,List2A,black,woman,,,,,"{""Q0"":""jane and dave are hugging each other""}","<img src=""stim_listA/hug2.gif""</stim_listA>",are hugging each other,
null,"<div style=""font-size:60px;"">+</div>",,html-keyboard-response,340,2193462,0.0-19.0-0.4,53588,List2A,black,woman,,,,null,,,,
null,"<img src=""stim_listA/fight4.gif""</stim_listA>",,html-keyboard-response,341,2195465,0.0-19.0-1.4,53588,List2A,black,woman,,,,null,,,,
null,are fighting each other,,html-keyboard-response,342,2197466,0.0-19.0-2.4,53588,List2A,black,woman,,,,null,,,,
45214,,,survey-text,343,2242682,0.0-19.0-3.4,53588,List2A,black,woman,,,,,"{""Q0"":""beth and dave are fighting with each other""}","<img src=""stim_listA/fight4.gif""</stim_listA>",are fighting each other,
null,"<div style=""font-size:60px;"">+</div>",,html-keyboard-response,344,2243184,0.0-19.0-0.5,53588,List2A,black,woman,,,,null,,,,
null,"<img src=""stim_listA/touch6.gif""</stim_listA>",,html-keyboard-response,345,2245186,0.0-19.0-1.5,53588,List2A,black,woman,,,,null,,,,
null,are touching each other,,html-keyboard-response,346,2247189,0.0-19.0-2.5,53588,List2A,black,woman,,,,null,,,,
26375,,,survey-text,347,2273566,0.0-19.0-3.5,53588,List2A,black,woman,,,,,"{""Q0"":""luke and fred are touching each other""}","<img src=""stim_listA/touch6.gif""</stim_listA>",are touching each other,
null,"<div style=""font-size:60px;"">+</div>",,html-keyboard-response,348,2274068,0.0-19.0-0.6,53588,List2A,black,woman,,,,null,,,,
null,"<img src=""stim_listA/touch4.gif""</stim_listA>",,html-keyboard-response,349,2276070,0.0-19.0-1.6,53588,List2A,black,woman,,,,null,,,,
null,are touching each other,,html-keyboard-response,350,2278072,0.0-19.0-2.6,53588,List2A,black,woman,,,,null,,,,
21961,,,survey-text,351,2300034,0.0-19.0-3.6,53588,List2A,black,woman,,,,,"{""Q0"":""beth and fred are touching each other""}","<img src=""stim_listA/touch4.gif""</stim_listA>",are touching each other,
null,"<div style=""font-size:60px;"">+</div>",,html-keyboard-response,352,2300537,0.0-19.0-0.7,53588,List2A,black,woman,,,,null,,,,
null,"<img src=""stim_listA/marry5.gif""</stim_listA>",,html-keyboard-response,353,2302540,0.0-19.0-1.7,53588,List2A,black,woman,,,,null,,,,
null,is marrying,,html-keyboard-response,354,2304541,0.0-19.0-2.7,53588,List2A,black,woman,,,,null,,,,
15890,,,survey-text,355,2320433,0.0-19.0-3.7,53588,List2A,black,woman,,,,,"{""Q0"":""fred is marrying dave""}","<img src=""stim_listA/marry5.gif""</stim_listA>",is marrying,
null,"<div style=""font-size:60px;"">+</div>",,html-keyboard-response,356,2320935,0.0-19.0-0.8,53588,List2A,black,woman,,,,null,,,,
null,"<img src=""stim_listA/talk4.gif""</stim_listA>",,html-keyboard-response,357,2322939,0.0-19.0-1.8,53588,List2A,black,woman,,,,null,,,,
null,are talking to each other,,html-keyboard-response,358,2324941,0.0-19.0-2.8,53588,List2A,black,woman,,,,null,,,,
25891,,,survey-text,359,2350834,0.0-19.0-3.8,53588,List2A,black,woman,,,,,"{""Q0"":""mike and beth are talking to each other""}","<img src=""stim_listA/talk4.gif""</stim_listA>",are talking to each other,
null,"<div style=""font-size:60px;"">+</div>",,html-keyboard-response,360,2351336,0.0-19.0-0.9,53588,List2A,black,woman,,,,null,,,,
null,"<img src=""stim_listA/meet4.gif""</stim_listA>",,html-keyboard-response,361,2353339,0.0-19.0-1.9,53588,List2A,black,woman,,,,null,,,,
null,are meeting each other,,html-keyboard-response,362,2355342,0.0-19.0-2.9,53588,List2A,black,woman,,,,null,,,,
34499,,,survey-text,363,2389843,0.0-19.0-3.9,53588,List2A,black,woman,,,,,"{""Q0"":""fred an beth are meeting with other""}","<img src=""stim_listA/meet4.gif""</stim_listA>",are meeting each other,
null,"<div style=""font-size:60px;"">+</div>",,html-keyboard-response,364,2390346,0.0-19.0-0.10,53588,List2A,black,woman,,,,null,,,,
null,"<img src=""stim_listA/talk1.gif""</stim_listA>",,html-keyboard-response,365,2392349,0.0-19.0-1.10,53588,List2A,black,woman,,,,null,,,,
null,is talking to,,html-keyboard-response,366,2394350,0.0-19.0-2.10,53588,List2A,black,woman,,,,null,,,,
16601,,,survey-text,367,2410952,0.0-19.0-3.10,53588,List2A,black,woman,,,,,"{""Q0"":""jane is talking to luke""}","<img src=""stim_listA/talk1.gif""</stim_listA>",is talking to,
null,"<div style=""font-size:60px;"">+</div>",,html-keyboard-response,368,2411468,0.0-19.0-0.11,53588,List2A,black,woman,,,,null,,,,
null,"<img src=""stim_listA/hug6.gif""</stim_listA>",,html-keyboard-response,369,2413470,0.0-19.0-1.11,53588,List2A,black,woman,,,,null,,,,
null,are hugging each other,,html-keyboard-response,370,2415473,0.0-19.0-2.11,53588,List2A,black,woman,,,,null,,,,
23024,,,survey-text,371,2438499,0.0-19.0-3.11,53588,List2A,black,woman,,,,,"{""Q0"":""mike and dave are hugging each other""}","<img src=""stim_listA/hug6.gif""</stim_listA>",are hugging each other,
null,"<div style=""font-size:60px;"">+</div>",,html-keyboard-response,372,2439003,0.0-19.0-0.12,53588,List2A,black,woman,,,,null,,,,
null,"<img src=""stim_listA/dance5.gif""</stim_listA>",,html-keyboard-response,373,2441005,0.0-19.0-1.12,53588,List2A,black,woman,,,,null,,,,
null,is dancing with,,html-keyboard-response,374,2443008,0.0-19.0-2.12,53588,List2A,black,woman,,,,null,,,,
43971,,,survey-text,375,2486981,0.0-19.0-3.12,53588,List2A,black,woman,,,,,"{""Q0"":""mike is dancing with luke""}","<img src=""stim_listA/dance5.gif""</stim_listA>",is dancing with,
null,"<div style=""font-size:60px;"">+</div>",,html-keyboard-response,376,2487483,0.0-19.0-0.13,53588,List2A,black,woman,,,,null,,,,
null,"<img src=""stim_listA/kiss6.gif""</stim_listA>",,html-keyboard-response,377,2489485,0.0-19.0-1.13,53588,List2A,black,woman,,,,null,,,,
null,are kissing each other,,html-keyboard-response,378,2491486,0.0-19.0-2.13,53588,List2A,black,woman,,,,null,,,,
21674,,,survey-text,379,2513162,0.0-19.0-3.13,53588,List2A,black,woman,,,,,"{""Q0"":""mike and dave are kissing each other""}","<img src=""stim_listA/kiss6.gif""</stim_listA>",are kissing each other,
null,"<div style=""font-size:60px;"">+</div>",,html-keyboard-response,380,2513665,0.0-19.0-0.14,53588,List2A,black,woman,,,,null,,,,
null,"<img src=""stim_listA/argue8.gif""</stim_listA>",,html-keyboard-response,381,2515668,0.0-19.0-1.14,53588,List2A,black,woman,,,,null,,,,
null,are arguing with each other,,html-keyboard-response,382,2517672,0.0-19.0-2.14,53588,List2A,black,woman,,,,null,,,,
24991,,,survey-text,383,2542665,0.0-19.0-3.14,53588,List2A,black,woman,,,,,"{""Q0"":""ruth and kate are arguing with each other""}","<img src=""stim_listA/argue8.gif""</stim_listA>",are arguing with each other,
null,"<div style=""font-size:60px;"">+</div>",,html-keyboard-response,384,2543167,0.0-19.0-0.15,53588,List2A,black,woman,,,,null,,,,
null,"<img src=""stim_listA/marry4.gif""</stim_listA>",,html-keyboard-response,385,2545170,0.0-19.0-1.15,53588,List2A,black,woman,,,,null,,,,
null,are marrying each other,,html-keyboard-response,386,2547172,0.0-19.0-2.15,53588,List2A,black,woman,,,,null,,,,
24577,,,survey-text,387,2571751,0.0-19.0-3.15,53588,List2A,black,woman,,,,,"{""Q0"":""kate and fred are marrying each other""}","<img src=""stim_listA/marry4.gif""</stim_listA>",are marrying each other,
null,"<div style=""font-size:60px;"">+</div>",,html-keyboard-response,388,2572253,0.0-19.0-0.16,53588,List2A,black,woman,,,,null,,,,
null,"<img src=""stim_listA/dance7.gif""</stim_listA>",,html-keyboard-response,389,2574256,0.0-19.0-1.16,53588,List2A,black,woman,,,,null,,,,
null,is dancing with,,html-keyboard-response,390,2576257,0.0-19.0-2.16,53588,List2A,black,woman,,,,null,,,,
18515,,,survey-text,391,2594775,0.0-19.0-3.16,53588,List2A,black,woman,,,,,"{""Q0"":""kate is dancing with ruth""}","<img src=""stim_listA/dance7.gif""</stim_listA>",is dancing with,
null,"<div style=""font-size:60px;"">+</div>",,html-keyboard-response,392,2595276,0.0-19.0-0.17,53588,List2A,black,woman,,,,null,,,,
null,"<img src=""stim_listA/kiss5.gif""</stim_listA>",,html-keyboard-response,393,2597280,0.0-19.0-1.17,53588,List2A,black,woman,,,,null,,,,
null,is kissing,,html-keyboard-response,394,2599282,0.0-19.0-2.17,53588,List2A,black,woman,,,,null,,,,
15589,,,survey-text,395,2614873,0.0-19.0-3.17,53588,List2A,black,woman,,,,,"{""Q0"":""fred is kissing luke""}","<img src=""stim_listA/kiss5.gif""</stim_listA>",is kissing,
null,"<div style=""font-size:60px;"">+</div>",,html-keyboard-response,396,2615376,0.0-19.0-0.18,53588,List2A,black,woman,,,,null,,,,
null,"<img src=""stim_listA/meet6.gif""</stim_listA>",,html-keyboard-response,397,2617378,0.0-19.0-1.18,53588,List2A,black,woman,,,,null,,,,
null,are meeting each other,,html-keyboard-response,398,2619380,0.0-19.0-2.18,53588,List2A,black,woman,,,,null,,,,
23565,,,survey-text,399,2642947,0.0-19.0-3.18,53588,List2A,black,woman,,,,,"{""Q0"":""fred and luke are meeting each other""}","<img src=""stim_listA/meet6.gif""</stim_listA>",are meeting each other,
null,"<div style=""font-size:60px;"">+</div>",,html-keyboard-response,400,2643452,0.0-19.0-0.19,53588,List2A,black,woman,,,,null,,,,
null,"<img src=""stim_listA/marry6.gif""</stim_listA>",,html-keyboard-response,401,2645454,0.0-19.0-1.19,53588,List2A,black,woman,,,,null,,,,
null,are marrying each other,,html-keyboard-response,402,2647456,0.0-19.0-2.19,53588,List2A,black,woman,,,,null,,,,
18865,,,survey-text,403,2666323,0.0-19.0-3.19,53588,List2A,black,woman,,,,,"{""Q0"":""luke and mike are marrying each other""}","<img src=""stim_listA/marry6.gif""</stim_listA>",are marrying each other,
2833,<p>Thank you for completing that task.</p><p>The final part of this session is a short questionnaire.</p><p>Press Continue.</p>,0,html-button-response,404,2669158,0.0-20.0,53588,List2A,black,woman,,,,,,,,
42437,,,survey-text,405,2712601,0.0-21.0,53588,List2A,black,woman,,,,,"{""Q0"":""39"",""Q1"":""english"",""Q2"":""english"",""Q3"":""england"",""Q4"":""black"",""Q5"":""female""}",,,demographics
85643,,,survey-likert,406,2798260,0.0-22.0,53588,List2A,black,woman,,,,,"{""Q0"":5,""Q1"":5,""Q2"":5,""Q3"":6,""Q4"":6,""Q5"":6,""Q6"":5,""Q7"":4,""Q8"":6,""Q9"":5,""Q10"":4,""Q11"":5,""Q12"":5,""Q13"":3}",,,likert_race
136872,,,survey-likert,407,2935146,0.0-23.0,53588,List2A,black,woman,,,,,"{""Q0"":5,""Q1"":5,""Q2"":3,""Q3"":5,""Q4"":5,""Q5"":5,""Q6"":5,""Q7"":5,""Q8"":5,""Q9"":4,""Q10"":4,""Q11"":4,""Q12"":5,""Q13"":5}",,,likert_gender
19289,,,survey-text,408,2954438,0.0-24.0,53588,List2A,black,woman,,,,,"{""Q0"":""ccc""}",,,worker_id
26401,,,external-html,409,2980928,0.0-25.0,53588,List2A,black,woman,debrief.html,,,,,,,
