rt,stimulus,button_pressed,trial_type,trial_index,time_elapsed,internal_node_id,subject,list,ppt_race,ppt_gender,url,first_guess,correct,key_press,responses,image_type,phrase_type,test_part
1775,Welcome to the experiment. Press Continue to begin.,0,html-button-response,0,1792,0.0-0.0,56021,List2A,black,woman,,,,,,,,
26006,,,external-html,1,28847,0.0-1.0,56021,List2A,black,woman,consent.html,,,,,,,
10350,"<p>On the next page, you will see portraits of 8 people and their names.</p><p>Your first task is to take a few minutes to memorise the names of these people.</p><p>You will have to recall their names during the rest of the experiment, so it is</p><p>essential that you try to memorise these people and their names as best as you can.</p><br><p><strong>You will then be tested on your memory of these names and portraits.</strong></p><br><p>The experiment will start after you have completed this memory test.</p><br><p>Ready?</p>",0,html-button-response,2,39198,0.0-2.0,56021,List2A,black,woman,,,,,,,,
118288,"<img src='img/portrait_matrix_list2.JPG' style='width:900px;height:500px;''></img><p>If you have memorised all the portraits and names and are ready to start, press Continue.</p><p><strong>Please note: Your memory of these faces will be tested 4 times during this experiment.</strong></p>",0,html-button-response,3,158493,0.0-3.0-0.0,56021,List2A,black,woman,,,,,,,,
3200,"<img src=""portrait/BM1.jpg""style=""width:400px;height:400px;""></img>",4,html-button-response,4,162695,0.0-3.0-1.0,56021,List2A,black,woman,,TRUE,4,,,,,
null,CORRECT,,html-keyboard-response,5,164203,0.0-3.0-2.0-0.0,56021,List2A,black,woman,,,,null,,,,
2154,"<img src=""portrait/BW2.jpg""style=""width:400px;height:400px;""></img>",2,html-button-response,6,166357,0.0-3.0-4.0,56021,List2A,black,woman,,TRUE,2,,,,,
null,CORRECT,,html-keyboard-response,7,167859,0.0-3.0-5.0-0.0,56021,List2A,black,woman,,,,null,,,,
1846,"<img src=""portrait/WM2.jpg""style=""width:400px;height:400px;""></img>",7,html-button-response,8,169705,0.0-3.0-7.0,56021,List2A,black,woman,,TRUE,7,,,,,
null,CORRECT,,html-keyboard-response,9,171206,0.0-3.0-8.0-0.0,56021,List2A,black,woman,,,,null,,,,
2797,"<img src=""portrait/WW2.jpg""style=""width:400px;height:400px;""></img>",3,html-button-response,10,174003,0.0-3.0-10.0,56021,List2A,black,woman,,TRUE,3,,,,,
null,CORRECT,,html-keyboard-response,11,175511,0.0-3.0-11.0-0.0,56021,List2A,black,woman,,,,null,,,,
4394,"<img src=""portrait/BM2.jpg""style=""width:400px;height:400px;""></img>",6,html-button-response,12,179906,0.0-3.0-13.0,56021,List2A,black,woman,,TRUE,5,,,,,
5102,"<img src=""portrait/BM2.jpg""style=""width:400px;height:400px;""></img>",5,html-button-response,13,186011,0.0-3.0-15.0-0.0,56021,List2A,black,woman,,FALSE,5,,,,,
null,CORRECT,,html-keyboard-response,14,187517,0.0-3.0-15.0-1.0-0.0,56021,List2A,black,woman,,,,null,,,,
3736,"<img src=""portrait/BW1.jpg""style=""width:400px;height:400px;""></img>",0,html-button-response,15,191253,0.0-3.0-16.0,56021,List2A,black,woman,,TRUE,0,,,,,
null,CORRECT,,html-keyboard-response,16,192760,0.0-3.0-17.0-0.0,56021,List2A,black,woman,,,,null,,,,
3616,"<img src=""portrait/WW1.jpg""style=""width:400px;height:400px;""></img>",1,html-button-response,17,196377,0.0-3.0-19.0,56021,List2A,black,woman,,TRUE,1,,,,,
null,CORRECT,,html-keyboard-response,18,197883,0.0-3.0-20.0-0.0,56021,List2A,black,woman,,,,null,,,,
5296,"<img src=""portrait/WM1.jpg""style=""width:400px;height:400px;""></img>",6,html-button-response,19,203181,0.0-3.0-22.0,56021,List2A,black,woman,,TRUE,6,,,,,
null,CORRECT,,html-keyboard-response,20,204686,0.0-3.0-23.0-0.0,56021,List2A,black,woman,,,,null,,,,
4495,<p>You got 7 out of 8 right first time. Press Continue.</p>,0,html-button-response,21,209182,0.0-3.0-25.0,56021,List2A,black,woman,,,,,,,,
2582,"As you did not score 100%, the memory game will repeat. Press Continue.",0,html-button-response,22,212770,0.0-3.0-26.0-0.0,56021,List2A,black,woman,,,,,,,,
18869,"<img src='img/portrait_matrix_list2.JPG' style='width:900px;height:500px;''></img><p>If you have memorised all the portraits and names and are ready to start, press Continue.</p><p><strong>Please note: Your memory of these faces will be tested 4 times during this experiment.</strong></p>",0,html-button-response,23,232642,0.0-3.1-0.1,56021,List2A,black,woman,,,,,,,,
2526,"<img src=""portrait/BM1.jpg""style=""width:400px;height:400px;""></img>",4,html-button-response,24,236169,0.0-3.1-1.1,56021,List2A,black,woman,,TRUE,4,,,,,
null,CORRECT,,html-keyboard-response,25,237680,0.0-3.1-2.1-0.1,56021,List2A,black,woman,,,,null,,,,
1725,"<img src=""portrait/BW2.jpg""style=""width:400px;height:400px;""></img>",2,html-button-response,26,239407,0.0-3.1-4.1,56021,List2A,black,woman,,TRUE,2,,,,,
null,CORRECT,,html-keyboard-response,27,240914,0.0-3.1-5.1-0.1,56021,List2A,black,woman,,,,null,,,,
1824,"<img src=""portrait/WM2.jpg""style=""width:400px;height:400px;""></img>",7,html-button-response,28,242740,0.0-3.1-7.1,56021,List2A,black,woman,,TRUE,7,,,,,
null,CORRECT,,html-keyboard-response,29,244251,0.0-3.1-8.1-0.1,56021,List2A,black,woman,,,,null,,,,
2948,"<img src=""portrait/WW2.jpg""style=""width:400px;height:400px;""></img>",3,html-button-response,30,247200,0.0-3.1-10.1,56021,List2A,black,woman,,TRUE,3,,,,,
null,CORRECT,,html-keyboard-response,31,248711,0.0-3.1-11.1-0.1,56021,List2A,black,woman,,,,null,,,,
3788,"<img src=""portrait/BM2.jpg""style=""width:400px;height:400px;""></img>",5,html-button-response,32,252501,0.0-3.1-13.1,56021,List2A,black,woman,,TRUE,5,,,,,
null,CORRECT,,html-keyboard-response,33,254010,0.0-3.1-14.1-0.1,56021,List2A,black,woman,,,,null,,,,
2682,"<img src=""portrait/BW1.jpg""style=""width:400px;height:400px;""></img>",0,html-button-response,34,256693,0.0-3.1-16.1,56021,List2A,black,woman,,TRUE,0,,,,,
null,CORRECT,,html-keyboard-response,35,258198,0.0-3.1-17.1-0.1,56021,List2A,black,woman,,,,null,,,,
10300,"<img src=""portrait/WW1.jpg""style=""width:400px;height:400px;""></img>",1,html-button-response,36,268499,0.0-3.1-19.1,56021,List2A,black,woman,,TRUE,1,,,,,
null,CORRECT,,html-keyboard-response,37,270008,0.0-3.1-20.1-0.1,56021,List2A,black,woman,,,,null,,,,
1712,"<img src=""portrait/WM1.jpg""style=""width:400px;height:400px;""></img>",6,html-button-response,38,271721,0.0-3.1-22.1,56021,List2A,black,woman,,TRUE,6,,,,,
null,CORRECT,,html-keyboard-response,39,273232,0.0-3.1-23.1-0.1,56021,List2A,black,woman,,,,null,,,,
1342,<p>You got 8 out of 8 right first time. Press Continue.</p>,0,html-button-response,40,274574,0.0-3.1-25.1,56021,List2A,black,woman,,,,,,,,
35191,"<p>In this experiment, you will view photographs of the people from the memory game interacting.</p><p>By using the <strong>exact</strong> phrase given <i>after</i> the photograph appears and recalling the correct names of the people in the photographs, form a sentence describing the interaction. You do not need to capitalise names.</p><p>Type your answer in the space provided. Please complete every sentence before moving onto the next trial.</p><p>You will only have a few seconds to memorise each given photograph and phrase before you can respond, so try your best to focus.</p><p>An example is given below. Press 'Continue' when you are ready.</p><img src='img/speaking_example_v2.jpg' style='width:800px;height:460px;''></img>",0,html-button-response,41,310770,0.0-4.0,56021,List2A,black,woman,,,,,,,,
2241,"<p>Before the experiment starts, you will watch two example trials. Press 'Continue'.</p>",0,html-button-response,42,314013,0.0-5.0,56021,List2A,black,woman,,,,,,,,
null,<img src='img/speaking_WW.gif'></img>,,html-keyboard-response,43,317019,0.0-6.0,56021,List2A,black,woman,,,,null,,,,
null,<p>is speaking to</p>,,html-keyboard-response,44,319020,0.0-7.0,56021,List2A,black,woman,,,,null,,,,
5026,<p><b>Answer:</b> jane is speaking to ruth</p>,0,html-button-response,45,324046,0.0-8.0,56021,List2A,black,woman,,,,,,,,
null,<img src='img/pointing_BM.gif'></img>,,html-keyboard-response,46,327052,0.0-9.0,56021,List2A,black,woman,,,,null,,,,
null,<p>are pointing at each other</p>,,html-keyboard-response,47,329052,0.0-10.0,56021,List2A,black,woman,,,,null,,,,
4935,<p><b>Answer:</b> fred and mike are pointing at each other</p>,0,html-button-response,48,333989,0.0-11.0,56021,List2A,black,woman,,,,,,,,
6326,"<p>Ready to start the experiment?</p><br><p><strong>Remember to describe the picture using a full sentence,</strong></p><p><strong> that combines the names of the people with the given phrase.</strong></p><p><strong> You do not need to capitalise names or use punctuation.</strong></p><br><p>Press 'Continue' to begin.</p>",0,html-button-response,49,341317,0.0-12.0,56021,List2A,black,woman,,,,,,,,
null,"<div style=""font-size:60px;"">+</div>",,html-keyboard-response,50,342822,0.0-13.0-0.0,56021,List2A,black,woman,,,,null,,,,
null,"<img src=""stim_listA/marry4.gif""</stim_listA>",,html-keyboard-response,51,344828,0.0-13.0-1.0,56021,List2A,black,woman,,,,null,,,,
null,are marrying each other,,html-keyboard-response,52,346833,0.0-13.0-2.0,56021,List2A,black,woman,,,,null,,,,
10000,,,survey-text,53,356835,0.0-13.0-3.0,56021,List2A,black,woman,,,,,"{""Q0"":""kate and fred and marrying each other""}","<img src=""stim_listA/marry4.gif""</stim_listA>",are marrying each other,
null,"<div style=""font-size:60px;"">+</div>",,html-keyboard-response,54,357336,0.0-13.0-0.1,56021,List2A,black,woman,,,,null,,,,
null,"<img src=""stim_listA/dance4.gif""</stim_listA>",,html-keyboard-response,55,359342,0.0-13.0-1.1,56021,List2A,black,woman,,,,null,,,,
null,are dancing with each other,,html-keyboard-response,56,361345,0.0-13.0-2.1,56021,List2A,black,woman,,,,null,,,,
10842,,,survey-text,57,372189,0.0-13.0-3.1,56021,List2A,black,woman,,,,,"{""Q0"":""beth and mike are dancing with each other""}","<img src=""stim_listA/dance4.gif""</stim_listA>",are dancing with each other,
null,"<div style=""font-size:60px;"">+</div>",,html-keyboard-response,58,372691,0.0-13.0-0.2,56021,List2A,black,woman,,,,null,,,,
null,"<img src=""stim_listA/kiss4.gif""</stim_listA>",,html-keyboard-response,59,374697,0.0-13.0-1.2,56021,List2A,black,woman,,,,null,,,,
null,are kissing each other,,html-keyboard-response,60,376703,0.0-13.0-2.2,56021,List2A,black,woman,,,,null,,,,
8029,,,survey-text,61,384734,0.0-13.0-3.2,56021,List2A,black,woman,,,,,"{""Q0"":""kate and mike are kissing each other""}","<img src=""stim_listA/kiss4.gif""</stim_listA>",are kissing each other,
null,"<div style=""font-size:60px;"">+</div>",,html-keyboard-response,62,385235,0.0-13.0-0.3,56021,List2A,black,woman,,,,null,,,,
null,"<img src=""stim_listA/fight8.gif""</stim_listA>",,html-keyboard-response,63,387238,0.0-13.0-1.3,56021,List2A,black,woman,,,,null,,,,
null,are fighting each other,,html-keyboard-response,64,389243,0.0-13.0-2.3,56021,List2A,black,woman,,,,null,,,,
11190,,,survey-text,65,400433,0.0-13.0-3.3,56021,List2A,black,woman,,,,,"{""Q0"":""beth and ruth are fighting each other""}","<img src=""stim_listA/fight8.gif""</stim_listA>",are fighting each other,
null,"<div style=""font-size:60px;"">+</div>",,html-keyboard-response,66,400934,0.0-13.0-0.4,56021,List2A,black,woman,,,,null,,,,
null,"<img src=""stim_listA/talk1.gif""</stim_listA>",,html-keyboard-response,67,402934,0.0-13.0-1.4,56021,List2A,black,woman,,,,null,,,,
null,is talking to,,html-keyboard-response,68,404940,0.0-13.0-2.4,56021,List2A,black,woman,,,,null,,,,
10875,,,survey-text,69,415816,0.0-13.0-3.4,56021,List2A,black,woman,,,,,"{""Q0"":""luke and jane are talking to each other""}","<img src=""stim_listA/talk1.gif""</stim_listA>",is talking to,
null,"<div style=""font-size:60px;"">+</div>",,html-keyboard-response,70,416318,0.0-13.0-0.5,56021,List2A,black,woman,,,,null,,,,
null,"<img src=""stim_listA/kiss5.gif""</stim_listA>",,html-keyboard-response,71,418319,0.0-13.0-1.5,56021,List2A,black,woman,,,,null,,,,
null,is kissing,,html-keyboard-response,72,420320,0.0-13.0-2.5,56021,List2A,black,woman,,,,null,,,,
10810,,,survey-text,73,431131,0.0-13.0-3.5,56021,List2A,black,woman,,,,,"{""Q0"":""fred and luke is kissing""}","<img src=""stim_listA/kiss5.gif""</stim_listA>",is kissing,
null,"<div style=""font-size:60px;"">+</div>",,html-keyboard-response,74,431632,0.0-13.0-0.6,56021,List2A,black,woman,,,,null,,,,
null,"<img src=""stim_listA/meet5.gif""</stim_listA>",,html-keyboard-response,75,433637,0.0-13.0-1.6,56021,List2A,black,woman,,,,null,,,,
null,is meeting,,html-keyboard-response,76,435640,0.0-13.0-2.6,56021,List2A,black,woman,,,,null,,,,
10805,,,survey-text,77,446447,0.0-13.0-3.6,56021,List2A,black,woman,,,,,"{""Q0"":""mike and dave is meeting""}","<img src=""stim_listA/meet5.gif""</stim_listA>",is meeting,
null,"<div style=""font-size:60px;"">+</div>",,html-keyboard-response,78,446949,0.0-13.0-0.7,56021,List2A,black,woman,,,,null,,,,
null,"<img src=""stim_listA/fight5.gif""</stim_listA>",,html-keyboard-response,79,448952,0.0-13.0-1.7,56021,List2A,black,woman,,,,null,,,,
null,is fighting,,html-keyboard-response,80,450958,0.0-13.0-2.7,56021,List2A,black,woman,,,,null,,,,
11789,,,survey-text,81,462748,0.0-13.0-3.7,56021,List2A,black,woman,,,,,"{""Q0"":""mike and dave is fighting""}","<img src=""stim_listA/fight5.gif""</stim_listA>",is fighting,
null,"<div style=""font-size:60px;"">+</div>",,html-keyboard-response,82,463250,0.0-13.0-0.8,56021,List2A,black,woman,,,,null,,,,
null,"<img src=""stim_listA/marry2.gif""</stim_listA>",,html-keyboard-response,83,465251,0.0-13.0-1.8,56021,List2A,black,woman,,,,null,,,,
null,are marrying each other,,html-keyboard-response,84,467251,0.0-13.0-2.8,56021,List2A,black,woman,,,,null,,,,
12964,,,survey-text,85,480217,0.0-13.0-3.8,56021,List2A,black,woman,,,,,"{""Q0"":""luke and jane is marrying each other""}","<img src=""stim_listA/marry2.gif""</stim_listA>",are marrying each other,
null,"<div style=""font-size:60px;"">+</div>",,html-keyboard-response,86,480718,0.0-13.0-0.9,56021,List2A,black,woman,,,,null,,,,
null,"<img src=""stim_listA/shout6.gif""</stim_listA>",,html-keyboard-response,87,482719,0.0-13.0-1.9,56021,List2A,black,woman,,,,null,,,,
null,are shouting at each other,,html-keyboard-response,88,484720,0.0-13.0-2.9,56021,List2A,black,woman,,,,null,,,,
15441,,,survey-text,89,500163,0.0-13.0-3.9,56021,List2A,black,woman,,,,,"{""Q0"":""mike and dave are shouting at each other""}","<img src=""stim_listA/shout6.gif""</stim_listA>",are shouting at each other,
null,"<div style=""font-size:60px;"">+</div>",,html-keyboard-response,90,500665,0.0-13.0-0.10,56021,List2A,black,woman,,,,null,,,,
null,"<img src=""stim_listA/meet6.gif""</stim_listA>",,html-keyboard-response,91,502671,0.0-13.0-1.10,56021,List2A,black,woman,,,,null,,,,
null,are meeting each other,,html-keyboard-response,92,504676,0.0-13.0-2.10,56021,List2A,black,woman,,,,null,,,,
10792,,,survey-text,93,515470,0.0-13.0-3.10,56021,List2A,black,woman,,,,,"{""Q0"":""fred and luke are meeting each other""}","<img src=""stim_listA/meet6.gif""</stim_listA>",are meeting each other,
null,"<div style=""font-size:60px;"">+</div>",,html-keyboard-response,94,515971,0.0-13.0-0.11,56021,List2A,black,woman,,,,null,,,,
null,"<img src=""stim_listA/hug1.gif""</stim_listA>",,html-keyboard-response,95,517976,0.0-13.0-1.11,56021,List2A,black,woman,,,,null,,,,
null,is hugging,,html-keyboard-response,96,519978,0.0-13.0-2.11,56021,List2A,black,woman,,,,null,,,,
8736,,,survey-text,97,528715,0.0-13.0-3.11,56021,List2A,black,woman,,,,,"{""Q0"":""luke and ruth is hugging""}","<img src=""stim_listA/hug1.gif""</stim_listA>",is hugging,
null,"<div style=""font-size:60px;"">+</div>",,html-keyboard-response,98,529217,0.0-13.0-0.12,56021,List2A,black,woman,,,,null,,,,
null,"<img src=""stim_listA/touch5.gif""</stim_listA>",,html-keyboard-response,99,531222,0.0-13.0-1.12,56021,List2A,black,woman,,,,null,,,,
null,is touching,,html-keyboard-response,100,533223,0.0-13.0-2.12,56021,List2A,black,woman,,,,null,,,,
7275,,,survey-text,101,540499,0.0-13.0-3.12,56021,List2A,black,woman,,,,,"{""Q0"":""mike and dave is touching""}","<img src=""stim_listA/touch5.gif""</stim_listA>",is touching,
null,"<div style=""font-size:60px;"">+</div>",,html-keyboard-response,102,541001,0.0-13.0-0.13,56021,List2A,black,woman,,,,null,,,,
null,"<img src=""stim_listA/touch8.gif""</stim_listA>",,html-keyboard-response,103,543002,0.0-13.0-1.13,56021,List2A,black,woman,,,,null,,,,
null,are touching each other,,html-keyboard-response,104,545007,0.0-13.0-2.13,56021,List2A,black,woman,,,,null,,,,
9132,,,survey-text,105,554139,0.0-13.0-3.13,56021,List2A,black,woman,,,,,"{""Q0"":""beth and ruth are touching each other""}","<img src=""stim_listA/touch8.gif""</stim_listA>",are touching each other,
null,"<div style=""font-size:60px;"">+</div>",,html-keyboard-response,106,554641,0.0-13.0-0.14,56021,List2A,black,woman,,,,null,,,,
null,"<img src=""stim_listA/argue4.gif""</stim_listA>",,html-keyboard-response,107,556646,0.0-13.0-1.14,56021,List2A,black,woman,,,,null,,,,
null,are arguing with each other,,html-keyboard-response,108,558652,0.0-13.0-2.14,56021,List2A,black,woman,,,,null,,,,
10263,,,survey-text,109,568915,0.0-13.0-3.14,56021,List2A,black,woman,,,,,"{""Q0"":""kate and fred are arguing with each other ""}","<img src=""stim_listA/argue4.gif""</stim_listA>",are arguing with each other,
null,"<div style=""font-size:60px;"">+</div>",,html-keyboard-response,110,569417,0.0-13.0-0.15,56021,List2A,black,woman,,,,null,,,,
null,"<img src=""stim_listA/meet7.gif""</stim_listA>",,html-keyboard-response,111,571422,0.0-13.0-1.15,56021,List2A,black,woman,,,,null,,,,
null,is meeting,,html-keyboard-response,112,573428,0.0-13.0-2.15,56021,List2A,black,woman,,,,null,,,,
6994,,,survey-text,113,580423,0.0-13.0-3.15,56021,List2A,black,woman,,,,,"{""Q0"":""kate and jane is meeting""}","<img src=""stim_listA/meet7.gif""</stim_listA>",is meeting,
null,"<div style=""font-size:60px;"">+</div>",,html-keyboard-response,114,580925,0.0-13.0-0.16,56021,List2A,black,woman,,,,null,,,,
null,"<img src=""stim_listA/dance8.gif""</stim_listA>",,html-keyboard-response,115,582930,0.0-13.0-1.16,56021,List2A,black,woman,,,,null,,,,
null,are dancing with each other,,html-keyboard-response,116,584931,0.0-13.0-2.16,56021,List2A,black,woman,,,,null,,,,
9093,,,survey-text,117,594026,0.0-13.0-3.16,56021,List2A,black,woman,,,,,"{""Q0"":""beth and jane are dancing with each other""}","<img src=""stim_listA/dance8.gif""</stim_listA>",are dancing with each other,
null,"<div style=""font-size:60px;"">+</div>",,html-keyboard-response,118,594527,0.0-13.0-0.17,56021,List2A,black,woman,,,,null,,,,
null,"<img src=""stim_listA/argue8.gif""</stim_listA>",,html-keyboard-response,119,596533,0.0-13.0-1.17,56021,List2A,black,woman,,,,null,,,,
null,are arguing with each other,,html-keyboard-response,120,598539,0.0-13.0-2.17,56021,List2A,black,woman,,,,null,,,,
13026,,,survey-text,121,611565,0.0-13.0-3.17,56021,List2A,black,woman,,,,,"{""Q0"":""kate and ruth are arguing with each other""}","<img src=""stim_listA/argue8.gif""</stim_listA>",are arguing with each other,
null,"<div style=""font-size:60px;"">+</div>",,html-keyboard-response,122,612067,0.0-13.0-0.18,56021,List2A,black,woman,,,,null,,,,
null,"<img src=""stim_listA/talk4.gif""</stim_listA>",,html-keyboard-response,123,614073,0.0-13.0-1.18,56021,List2A,black,woman,,,,null,,,,
null,are talking to each other,,html-keyboard-response,124,616078,0.0-13.0-2.18,56021,List2A,black,woman,,,,null,,,,
7462,,,survey-text,125,623540,0.0-13.0-3.18,56021,List2A,black,woman,,,,,"{""Q0"":""beth and mike are talking to each other""}","<img src=""stim_listA/talk4.gif""</stim_listA>",are talking to each other,
null,"<div style=""font-size:60px;"">+</div>",,html-keyboard-response,126,624043,0.0-13.0-0.19,56021,List2A,black,woman,,,,null,,,,
null,"<img src=""stim_listA/marry6.gif""</stim_listA>",,html-keyboard-response,127,626047,0.0-13.0-1.19,56021,List2A,black,woman,,,,null,,,,
null,are marrying each other,,html-keyboard-response,128,628053,0.0-13.0-2.19,56021,List2A,black,woman,,,,null,,,,
9961,,,survey-text,129,638015,0.0-13.0-3.19,56021,List2A,black,woman,,,,,"{""Q0"":""mike and luke are marrying each other""}","<img src=""stim_listA/marry6.gif""</stim_listA>",are marrying each other,
11280,"<img src='img/portrait_matrix_list2.JPG' style='width:900px;height:500px;''></img><p>If you have memorised all the portraits and names and are ready to start, press Continue.</p><p><strong>Please note: Your memory of these faces will be tested 4 times during this experiment.</strong></p>",0,html-button-response,130,649297,0.0-14.0-0.0,56021,List2A,black,woman,,,,,,,,
2199,"<img src=""portrait/BW2.jpg""style=""width:400px;height:400px;""></img>",2,html-button-response,131,652499,0.0-14.0-1.0,56021,List2A,black,woman,,TRUE,2,,,,,
null,CORRECT,,html-keyboard-response,132,654008,0.0-14.0-2.0-0.0,56021,List2A,black,woman,,,,null,,,,
2553,"<img src=""portrait/WM2.jpg""style=""width:400px;height:400px;""></img>",7,html-button-response,133,656562,0.0-14.0-4.0,56021,List2A,black,woman,,TRUE,7,,,,,
null,CORRECT,,html-keyboard-response,134,658069,0.0-14.0-5.0-0.0,56021,List2A,black,woman,,,,null,,,,
1329,"<img src=""portrait/WM1.jpg""style=""width:400px;height:400px;""></img>",6,html-button-response,135,659400,0.0-14.0-7.0,56021,List2A,black,woman,,TRUE,6,,,,,
null,CORRECT,,html-keyboard-response,136,660911,0.0-14.0-8.0-0.0,56021,List2A,black,woman,,,,null,,,,
1542,"<img src=""portrait/BM1.jpg""style=""width:400px;height:400px;""></img>",4,html-button-response,137,662455,0.0-14.0-10.0,56021,List2A,black,woman,,TRUE,4,,,,,
null,CORRECT,,html-keyboard-response,138,663962,0.0-14.0-11.0-0.0,56021,List2A,black,woman,,,,null,,,,
2295,"<img src=""portrait/BM2.jpg""style=""width:400px;height:400px;""></img>",5,html-button-response,139,666259,0.0-14.0-13.0,56021,List2A,black,woman,,TRUE,5,,,,,
null,CORRECT,,html-keyboard-response,140,667770,0.0-14.0-14.0-0.0,56021,List2A,black,woman,,,,null,,,,
1970,"<img src=""portrait/BW1.jpg""style=""width:400px;height:400px;""></img>",0,html-button-response,141,669742,0.0-14.0-16.0,56021,List2A,black,woman,,TRUE,0,,,,,
null,CORRECT,,html-keyboard-response,142,671248,0.0-14.0-17.0-0.0,56021,List2A,black,woman,,,,null,,,,
4589,"<img src=""portrait/WW2.jpg""style=""width:400px;height:400px;""></img>",3,html-button-response,143,675838,0.0-14.0-19.0,56021,List2A,black,woman,,TRUE,3,,,,,
null,CORRECT,,html-keyboard-response,144,677344,0.0-14.0-20.0-0.0,56021,List2A,black,woman,,,,null,,,,
1797,"<img src=""portrait/WW1.jpg""style=""width:400px;height:400px;""></img>",1,html-button-response,145,679143,0.0-14.0-22.0,56021,List2A,black,woman,,TRUE,1,,,,,
null,CORRECT,,html-keyboard-response,146,680653,0.0-14.0-23.0-0.0,56021,List2A,black,woman,,,,null,,,,
1442,<p>You got 8 out of 8 right first time. Press Continue.</p>,0,html-button-response,147,682096,0.0-14.0-25.0,56021,List2A,black,woman,,,,,,,,
null,"<div style=""font-size:60px;"">+</div>",,html-keyboard-response,148,683601,0.0-15.0-0.0,56021,List2A,black,woman,,,,null,,,,
null,"<img src=""stim_listA/marry8.gif""</stim_listA>",,html-keyboard-response,149,685607,0.0-15.0-1.0,56021,List2A,black,woman,,,,null,,,,
null,are marrying each other,,html-keyboard-response,150,687607,0.0-15.0-2.0,56021,List2A,black,woman,,,,null,,,,
19066,,,survey-text,151,706673,0.0-15.0-3.0,56021,List2A,black,woman,,,,,"{""Q0"":""kate and ruth are marrying each other""}","<img src=""stim_listA/marry8.gif""</stim_listA>",are marrying each other,
null,"<div style=""font-size:60px;"">+</div>",,html-keyboard-response,152,707176,0.0-15.0-0.1,56021,List2A,black,woman,,,,null,,,,
null,"<img src=""stim_listA/talk3.gif""</stim_listA>",,html-keyboard-response,153,709182,0.0-15.0-1.1,56021,List2A,black,woman,,,,null,,,,
null,is talking to,,html-keyboard-response,154,711184,0.0-15.0-2.1,56021,List2A,black,woman,,,,null,,,,
7897,,,survey-text,155,719083,0.0-15.0-3.1,56021,List2A,black,woman,,,,,"{""Q0"":""kate is talking to fred""}","<img src=""stim_listA/talk3.gif""</stim_listA>",is talking to,
null,"<div style=""font-size:60px;"">+</div>",,html-keyboard-response,156,719585,0.0-15.0-0.2,56021,List2A,black,woman,,,,null,,,,
null,"<img src=""stim_listA/argue3.gif""</stim_listA>",,html-keyboard-response,157,721590,0.0-15.0-1.2,56021,List2A,black,woman,,,,null,,,,
null,is arguing with,,html-keyboard-response,158,723592,0.0-15.0-2.2,56021,List2A,black,woman,,,,null,,,,
13049,,,survey-text,159,736643,0.0-15.0-3.2,56021,List2A,black,woman,,,,,"{""Q0"":""beth is arguing with mike""}","<img src=""stim_listA/argue3.gif""</stim_listA>",is arguing with,
null,"<div style=""font-size:60px;"">+</div>",,html-keyboard-response,160,737144,0.0-15.0-0.3,56021,List2A,black,woman,,,,null,,,,
null,"<img src=""stim_listA/meet2.gif""</stim_listA>",,html-keyboard-response,161,739149,0.0-15.0-1.3,56021,List2A,black,woman,,,,null,,,,
null,are meeting each other,,html-keyboard-response,162,741152,0.0-15.0-2.3,56021,List2A,black,woman,,,,null,,,,
14191,,,survey-text,163,755345,0.0-15.0-3.3,56021,List2A,black,woman,,,,,"{""Q0"":""luke and ruth are meeting each other""}","<img src=""stim_listA/meet2.gif""</stim_listA>",are meeting each other,
null,"<div style=""font-size:60px;"">+</div>",,html-keyboard-response,164,755847,0.0-15.0-0.4,56021,List2A,black,woman,,,,null,,,,
null,"<img src=""stim_listA/touch4.gif""</stim_listA>",,html-keyboard-response,165,757848,0.0-15.0-1.4,56021,List2A,black,woman,,,,null,,,,
null,are touching each other,,html-keyboard-response,166,759849,0.0-15.0-2.4,56021,List2A,black,woman,,,,null,,,,
13298,,,survey-text,167,773147,0.0-15.0-3.4,56021,List2A,black,woman,,,,,"{""Q0"":""beth and fred is touching each other""}","<img src=""stim_listA/touch4.gif""</stim_listA>",are touching each other,
null,"<div style=""font-size:60px;"">+</div>",,html-keyboard-response,168,773649,0.0-15.0-0.5,56021,List2A,black,woman,,,,null,,,,
null,"<img src=""stim_listA/touch3.gif""</stim_listA>",,html-keyboard-response,169,775654,0.0-15.0-1.5,56021,List2A,black,woman,,,,null,,,,
null,is touching,,html-keyboard-response,170,777655,0.0-15.0-2.5,56021,List2A,black,woman,,,,null,,,,
5571,,,survey-text,171,783228,0.0-15.0-3.5,56021,List2A,black,woman,,,,,"{""Q0"":""kate is touching mike""}","<img src=""stim_listA/touch3.gif""</stim_listA>",is touching,
null,"<div style=""font-size:60px;"">+</div>",,html-keyboard-response,172,783730,0.0-15.0-0.6,56021,List2A,black,woman,,,,null,,,,
null,"<img src=""stim_listA/fight4.gif""</stim_listA>",,html-keyboard-response,173,785732,0.0-15.0-1.6,56021,List2A,black,woman,,,,null,,,,
null,are fighting each other,,html-keyboard-response,174,787737,0.0-15.0-2.6,56021,List2A,black,woman,,,,null,,,,
7054,,,survey-text,175,794793,0.0-15.0-3.6,56021,List2A,black,woman,,,,,"{""Q0"":""fred and beth is fighting ""}","<img src=""stim_listA/fight4.gif""</stim_listA>",are fighting each other,
null,"<div style=""font-size:60px;"">+</div>",,html-keyboard-response,176,795294,0.0-15.0-0.7,56021,List2A,black,woman,,,,null,,,,
null,"<img src=""stim_listA/talk5.gif""</stim_listA>",,html-keyboard-response,177,797300,0.0-15.0-1.7,56021,List2A,black,woman,,,,null,,,,
null,is talking to,,html-keyboard-response,178,799300,0.0-15.0-2.7,56021,List2A,black,woman,,,,null,,,,
8363,,,survey-text,179,807664,0.0-15.0-3.7,56021,List2A,black,woman,,,,,"{""Q0"":""luke is talking to mike""}","<img src=""stim_listA/talk5.gif""</stim_listA>",is talking to,
null,"<div style=""font-size:60px;"">+</div>",,html-keyboard-response,180,808165,0.0-15.0-0.8,56021,List2A,black,woman,,,,null,,,,
null,"<img src=""stim_listA/touch2.gif""</stim_listA>",,html-keyboard-response,181,810169,0.0-15.0-1.8,56021,List2A,black,woman,,,,null,,,,
null,are touching each other,,html-keyboard-response,182,812170,0.0-15.0-2.8,56021,List2A,black,woman,,,,null,,,,
13498,,,survey-text,183,825669,0.0-15.0-3.8,56021,List2A,black,woman,,,,,"{""Q0"":""luke and ruth is touching each other""}","<img src=""stim_listA/touch2.gif""</stim_listA>",are touching each other,
null,"<div style=""font-size:60px;"">+</div>",,html-keyboard-response,184,826170,0.0-15.0-0.9,56021,List2A,black,woman,,,,null,,,,
null,"<img src=""stim_listA/dance3.gif""</stim_listA>",,html-keyboard-response,185,828172,0.0-15.0-1.9,56021,List2A,black,woman,,,,null,,,,
null,is dancing with,,html-keyboard-response,186,830177,0.0-15.0-2.9,56021,List2A,black,woman,,,,null,,,,
7344,,,survey-text,187,837522,0.0-15.0-3.9,56021,List2A,black,woman,,,,,"{""Q0"":""kate is dancing with fred""}","<img src=""stim_listA/dance3.gif""</stim_listA>",is dancing with,
null,"<div style=""font-size:60px;"">+</div>",,html-keyboard-response,188,838025,0.0-15.0-0.10,56021,List2A,black,woman,,,,null,,,,
null,"<img src=""stim_listA/kiss2.gif""</stim_listA>",,html-keyboard-response,189,840028,0.0-15.0-1.10,56021,List2A,black,woman,,,,null,,,,
null,are kissing each other,,html-keyboard-response,190,842034,0.0-15.0-2.10,56021,List2A,black,woman,,,,null,,,,
11012,,,survey-text,191,853046,0.0-15.0-3.10,56021,List2A,black,woman,,,,,"{""Q0"":""dave and jane are kissing each other""}","<img src=""stim_listA/kiss2.gif""</stim_listA>",are kissing each other,
null,"<div style=""font-size:60px;"">+</div>",,html-keyboard-response,192,853547,0.0-15.0-0.11,56021,List2A,black,woman,,,,null,,,,
null,"<img src=""stim_listA/dance6.gif""</stim_listA>",,html-keyboard-response,193,855548,0.0-15.0-1.11,56021,List2A,black,woman,,,,null,,,,
null,are dancing with each other,,html-keyboard-response,194,857548,0.0-15.0-2.11,56021,List2A,black,woman,,,,null,,,,
9689,,,survey-text,195,867238,0.0-15.0-3.11,56021,List2A,black,woman,,,,,"{""Q0"":""dave and fred are dancing with each other""}","<img src=""stim_listA/dance6.gif""</stim_listA>",are dancing with each other,
null,"<div style=""font-size:60px;"">+</div>",,html-keyboard-response,196,867740,0.0-15.0-0.12,56021,List2A,black,woman,,,,null,,,,
null,"<img src=""stim_listA/argue1.gif""</stim_listA>",,html-keyboard-response,197,869740,0.0-15.0-1.12,56021,List2A,black,woman,,,,null,,,,
null,is arguing with,,html-keyboard-response,198,871747,0.0-15.0-2.12,56021,List2A,black,woman,,,,null,,,,
11822,,,survey-text,199,883569,0.0-15.0-3.12,56021,List2A,black,woman,,,,,"{""Q0"":""dave is arguing with jane""}","<img src=""stim_listA/argue1.gif""</stim_listA>",is arguing with,
null,"<div style=""font-size:60px;"">+</div>",,html-keyboard-response,200,884071,0.0-15.0-0.13,56021,List2A,black,woman,,,,null,,,,
null,"<img src=""stim_listA/fight6.gif""</stim_listA>",,html-keyboard-response,201,886077,0.0-15.0-1.13,56021,List2A,black,woman,,,,null,,,,
null,are fighting each other,,html-keyboard-response,202,888078,0.0-15.0-2.13,56021,List2A,black,woman,,,,null,,,,
9566,,,survey-text,203,897644,0.0-15.0-3.13,56021,List2A,black,woman,,,,,"{""Q0"":""fred and luke are fighting each other""}","<img src=""stim_listA/fight6.gif""</stim_listA>",are fighting each other,
null,"<div style=""font-size:60px;"">+</div>",,html-keyboard-response,204,898146,0.0-15.0-0.14,56021,List2A,black,woman,,,,null,,,,
null,"<img src=""stim_listA/marry3.gif""</stim_listA>",,html-keyboard-response,205,900147,0.0-15.0-1.14,56021,List2A,black,woman,,,,null,,,,
null,is marrying,,html-keyboard-response,206,902152,0.0-15.0-2.14,56021,List2A,black,woman,,,,null,,,,
6752,,,survey-text,207,908905,0.0-15.0-3.14,56021,List2A,black,woman,,,,,"{""Q0"":""mike is marrying beth""}","<img src=""stim_listA/marry3.gif""</stim_listA>",is marrying,
null,"<div style=""font-size:60px;"">+</div>",,html-keyboard-response,208,909408,0.0-15.0-0.15,56021,List2A,black,woman,,,,null,,,,
null,"<img src=""stim_listA/touch1.gif""</stim_listA>",,html-keyboard-response,209,911410,0.0-15.0-1.15,56021,List2A,black,woman,,,,null,,,,
null,is touching,,html-keyboard-response,210,913414,0.0-15.0-2.15,56021,List2A,black,woman,,,,null,,,,
10439,,,survey-text,211,923854,0.0-15.0-3.15,56021,List2A,black,woman,,,,,"{""Q0"":""dave is touching jane""}","<img src=""stim_listA/touch1.gif""</stim_listA>",is touching,
null,"<div style=""font-size:60px;"">+</div>",,html-keyboard-response,212,924356,0.0-15.0-0.16,56021,List2A,black,woman,,,,null,,,,
null,"<img src=""stim_listA/dance7.gif""</stim_listA>",,html-keyboard-response,213,926362,0.0-15.0-1.16,56021,List2A,black,woman,,,,null,,,,
null,is dancing with,,html-keyboard-response,214,928367,0.0-15.0-2.16,56021,List2A,black,woman,,,,null,,,,
8908,,,survey-text,215,937276,0.0-15.0-3.16,56021,List2A,black,woman,,,,,"{""Q0"":""kate is dancing with ruth""}","<img src=""stim_listA/dance7.gif""</stim_listA>",is dancing with,
null,"<div style=""font-size:60px;"">+</div>",,html-keyboard-response,216,937778,0.0-15.0-0.17,56021,List2A,black,woman,,,,null,,,,
null,"<img src=""stim_listA/talk2.gif""</stim_listA>",,html-keyboard-response,217,939778,0.0-15.0-1.17,56021,List2A,black,woman,,,,null,,,,
null,are talking to each other,,html-keyboard-response,218,941782,0.0-15.0-2.17,56021,List2A,black,woman,,,,null,,,,
13667,,,survey-text,219,955449,0.0-15.0-3.17,56021,List2A,black,woman,,,,,"{""Q0"":""ruth and dave are talking to each other""}","<img src=""stim_listA/talk2.gif""</stim_listA>",are talking to each other,
null,"<div style=""font-size:60px;"">+</div>",,html-keyboard-response,220,955952,0.0-15.0-0.18,56021,List2A,black,woman,,,,null,,,,
null,"<img src=""stim_listA/hug3.gif""</stim_listA>",,html-keyboard-response,221,957952,0.0-15.0-1.18,56021,List2A,black,woman,,,,null,,,,
null,is hugging,,html-keyboard-response,222,959954,0.0-15.0-2.18,56021,List2A,black,woman,,,,null,,,,
5103,,,survey-text,223,965058,0.0-15.0-3.18,56021,List2A,black,woman,,,,,"{""Q0"":""beth is hugging fred""}","<img src=""stim_listA/hug3.gif""</stim_listA>",is hugging,
null,"<div style=""font-size:60px;"">+</div>",,html-keyboard-response,224,965560,0.0-15.0-0.19,56021,List2A,black,woman,,,,null,,,,
null,"<img src=""stim_listA/kiss7.gif""</stim_listA>",,html-keyboard-response,225,967566,0.0-15.0-1.19,56021,List2A,black,woman,,,,null,,,,
null,is kissing,,html-keyboard-response,226,969568,0.0-15.0-2.19,56021,List2A,black,woman,,,,null,,,,
6131,,,survey-text,227,975700,0.0-15.0-3.19,56021,List2A,black,woman,,,,,"{""Q0"":""beth is kissing ruth""}","<img src=""stim_listA/kiss7.gif""</stim_listA>",is kissing,
40931,"<img src='img/portrait_matrix_list2.JPG' style='width:900px;height:500px;''></img><p>If you have memorised all the portraits and names and are ready to start, press Continue.</p><p><strong>Please note: Your memory of these faces will be tested 4 times during this experiment.</strong></p>",0,html-button-response,228,1016632,0.0-16.0-0.0,56021,List2A,black,woman,,,,,,,,
2415,"<img src=""portrait/WW2.jpg""style=""width:400px;height:400px;""></img>",3,html-button-response,229,1020052,0.0-16.0-1.0,56021,List2A,black,woman,,TRUE,3,,,,,
null,CORRECT,,html-keyboard-response,230,1021555,0.0-16.0-2.0-0.0,56021,List2A,black,woman,,,,null,,,,
2250,"<img src=""portrait/WM1.jpg""style=""width:400px;height:400px;""></img>",6,html-button-response,231,1023807,0.0-16.0-4.0,56021,List2A,black,woman,,TRUE,6,,,,,
null,CORRECT,,html-keyboard-response,232,1025318,0.0-16.0-5.0-0.0,56021,List2A,black,woman,,,,null,,,,
8542,"<img src=""portrait/WW1.jpg""style=""width:400px;height:400px;""></img>",1,html-button-response,233,1033862,0.0-16.0-7.0,56021,List2A,black,woman,,TRUE,1,,,,,
null,CORRECT,,html-keyboard-response,234,1035364,0.0-16.0-8.0-0.0,56021,List2A,black,woman,,,,null,,,,
1879,"<img src=""portrait/WM2.jpg""style=""width:400px;height:400px;""></img>",7,html-button-response,235,1037244,0.0-16.0-10.0,56021,List2A,black,woman,,TRUE,7,,,,,
null,CORRECT,,html-keyboard-response,236,1038754,0.0-16.0-11.0-0.0,56021,List2A,black,woman,,,,null,,,,
3788,"<img src=""portrait/BM2.jpg""style=""width:400px;height:400px;""></img>",5,html-button-response,237,1042544,0.0-16.0-13.0,56021,List2A,black,woman,,TRUE,5,,,,,
null,CORRECT,,html-keyboard-response,238,1044055,0.0-16.0-14.0-0.0,56021,List2A,black,woman,,,,null,,,,
1648,"<img src=""portrait/BW2.jpg""style=""width:400px;height:400px;""></img>",2,html-button-response,239,1045704,0.0-16.0-16.0,56021,List2A,black,woman,,TRUE,2,,,,,
null,CORRECT,,html-keyboard-response,240,1047212,0.0-16.0-17.0-0.0,56021,List2A,black,woman,,,,null,,,,
1338,"<img src=""portrait/BM1.jpg""style=""width:400px;height:400px;""></img>",4,html-button-response,241,1048552,0.0-16.0-19.0,56021,List2A,black,woman,,TRUE,4,,,,,
null,CORRECT,,html-keyboard-response,242,1050061,0.0-16.0-20.0-0.0,56021,List2A,black,woman,,,,null,,,,
2153,"<img src=""portrait/BW1.jpg""style=""width:400px;height:400px;""></img>",0,html-button-response,243,1052215,0.0-16.0-22.0,56021,List2A,black,woman,,TRUE,0,,,,,
null,CORRECT,,html-keyboard-response,244,1053722,0.0-16.0-23.0-0.0,56021,List2A,black,woman,,,,null,,,,
1988,<p>You got 8 out of 8 right first time. Press Continue.</p>,0,html-button-response,245,1055712,0.0-16.0-25.0,56021,List2A,black,woman,,,,,,,,
null,"<div style=""font-size:60px;"">+</div>",,html-keyboard-response,246,1057223,0.0-17.0-0.0,56021,List2A,black,woman,,,,null,,,,
null,"<img src=""stim_listA/fight1.gif""</stim_listA>",,html-keyboard-response,247,1059225,0.0-17.0-1.0,56021,List2A,black,woman,,,,null,,,,
null,is fighting,,html-keyboard-response,248,1061230,0.0-17.0-2.0,56021,List2A,black,woman,,,,null,,,,
16792,,,survey-text,249,1078024,0.0-17.0-3.0,56021,List2A,black,woman,,,,,"{""Q0"":""jane is fighting dave""}","<img src=""stim_listA/fight1.gif""</stim_listA>",is fighting,
null,"<div style=""font-size:60px;"">+</div>",,html-keyboard-response,250,1078525,0.0-17.0-0.1,56021,List2A,black,woman,,,,null,,,,
null,"<img src=""stim_listA/shout1.gif""</stim_listA>",,html-keyboard-response,251,1080526,0.0-17.0-1.1,56021,List2A,black,woman,,,,null,,,,
null,is shouting at,,html-keyboard-response,252,1082527,0.0-17.0-2.1,56021,List2A,black,woman,,,,null,,,,
18095,,,survey-text,253,1100622,0.0-17.0-3.1,56021,List2A,black,woman,,,,,"{""Q0"":""luke is shouting at ruth""}","<img src=""stim_listA/shout1.gif""</stim_listA>",is shouting at,
null,"<div style=""font-size:60px;"">+</div>",,html-keyboard-response,254,1101124,0.0-17.0-0.2,56021,List2A,black,woman,,,,null,,,,
null,"<img src=""stim_listA/hug6.gif""</stim_listA>",,html-keyboard-response,255,1103129,0.0-17.0-1.2,56021,List2A,black,woman,,,,null,,,,
null,are hugging each other,,html-keyboard-response,256,1105130,0.0-17.0-2.2,56021,List2A,black,woman,,,,null,,,,
13568,,,survey-text,257,1118698,0.0-17.0-3.2,56021,List2A,black,woman,,,,,"{""Q0"":""mike and dave are hugging each other""}","<img src=""stim_listA/hug6.gif""</stim_listA>",are hugging each other,
null,"<div style=""font-size:60px;"">+</div>",,html-keyboard-response,258,1119200,0.0-17.0-0.3,56021,List2A,black,woman,,,,null,,,,
null,"<img src=""stim_listA/shout2.gif""</stim_listA>",,html-keyboard-response,259,1121202,0.0-17.0-1.3,56021,List2A,black,woman,,,,null,,,,
null,are shouting at each other,,html-keyboard-response,260,1123205,0.0-17.0-2.3,56021,List2A,black,woman,,,,null,,,,
15801,,,survey-text,261,1139007,0.0-17.0-3.3,56021,List2A,black,woman,,,,,"{""Q0"":""jane and dave are shouting at each other""}","<img src=""stim_listA/shout2.gif""</stim_listA>",are shouting at each other,
null,"<div style=""font-size:60px;"">+</div>",,html-keyboard-response,262,1139508,0.0-17.0-0.4,56021,List2A,black,woman,,,,null,,,,
null,"<img src=""stim_listA/meet4.gif""</stim_listA>",,html-keyboard-response,263,1141513,0.0-17.0-1.4,56021,List2A,black,woman,,,,null,,,,
null,are meeting each other,,html-keyboard-response,264,1143514,0.0-17.0-2.4,56021,List2A,black,woman,,,,null,,,,
6818,,,survey-text,265,1150333,0.0-17.0-3.4,56021,List2A,black,woman,,,,,"{""Q0"":""beth and fred are meeting each other""}","<img src=""stim_listA/meet4.gif""</stim_listA>",are meeting each other,
null,"<div style=""font-size:60px;"">+</div>",,html-keyboard-response,266,1150834,0.0-17.0-0.5,56021,List2A,black,woman,,,,null,,,,
null,"<img src=""stim_listA/dance2.gif""</stim_listA>",,html-keyboard-response,267,1152840,0.0-17.0-1.5,56021,List2A,black,woman,,,,null,,,,
null,are dancing with each other,,html-keyboard-response,268,1154845,0.0-17.0-2.5,56021,List2A,black,woman,,,,null,,,,
7109,,,survey-text,269,1161955,0.0-17.0-3.5,56021,List2A,black,woman,,,,,"{""Q0"":""ruth and mike are dancing with each other""}","<img src=""stim_listA/dance2.gif""</stim_listA>",are dancing with each other,
null,"<div style=""font-size:60px;"">+</div>",,html-keyboard-response,270,1162457,0.0-17.0-0.6,56021,List2A,black,woman,,,,null,,,,
null,"<img src=""stim_listA/meet3.gif""</stim_listA>",,html-keyboard-response,271,1164460,0.0-17.0-1.6,56021,List2A,black,woman,,,,null,,,,
null,is meeting,,html-keyboard-response,272,1166466,0.0-17.0-2.6,56021,List2A,black,woman,,,,null,,,,
4721,,,survey-text,273,1171188,0.0-17.0-3.6,56021,List2A,black,woman,,,,,"{""Q0"":""kate is meeting mike""}","<img src=""stim_listA/meet3.gif""</stim_listA>",is meeting,
null,"<div style=""font-size:60px;"">+</div>",,html-keyboard-response,274,1171690,0.0-17.0-0.7,56021,List2A,black,woman,,,,null,,,,
null,"<img src=""stim_listA/shout3.gif""</stim_listA>",,html-keyboard-response,275,1173696,0.0-17.0-1.7,56021,List2A,black,woman,,,,null,,,,
null,is shouting at,,html-keyboard-response,276,1175696,0.0-17.0-2.7,56021,List2A,black,woman,,,,null,,,,
5605,,,survey-text,277,1181302,0.0-17.0-3.7,56021,List2A,black,woman,,,,,"{""Q0"":""beth is shouting at fred""}","<img src=""stim_listA/shout3.gif""</stim_listA>",is shouting at,
null,"<div style=""font-size:60px;"">+</div>",,html-keyboard-response,278,1181803,0.0-17.0-0.8,56021,List2A,black,woman,,,,null,,,,
null,"<img src=""stim_listA/hug2.gif""</stim_listA>",,html-keyboard-response,279,1183806,0.0-17.0-1.8,56021,List2A,black,woman,,,,null,,,,
null,are hugging each other,,html-keyboard-response,280,1185809,0.0-17.0-2.8,56021,List2A,black,woman,,,,null,,,,
10502,,,survey-text,281,1196311,0.0-17.0-3.8,56021,List2A,black,woman,,,,,"{""Q0"":""jane and dave are hugging each other""}","<img src=""stim_listA/hug2.gif""</stim_listA>",are hugging each other,
null,"<div style=""font-size:60px;"">+</div>",,html-keyboard-response,282,1196812,0.0-17.0-0.9,56021,List2A,black,woman,,,,null,,,,
null,"<img src=""stim_listA/dance5.gif""</stim_listA>",,html-keyboard-response,283,1198818,0.0-17.0-1.9,56021,List2A,black,woman,,,,null,,,,
null,is dancing with,,html-keyboard-response,284,1200819,0.0-17.0-2.9,56021,List2A,black,woman,,,,null,,,,
7717,,,survey-text,285,1208538,0.0-17.0-3.9,56021,List2A,black,woman,,,,,"{""Q0"":""mike is dancing with luke""}","<img src=""stim_listA/dance5.gif""</stim_listA>",is dancing with,
null,"<div style=""font-size:60px;"">+</div>",,html-keyboard-response,286,1209039,0.0-17.0-0.10,56021,List2A,black,woman,,,,null,,,,
null,"<img src=""stim_listA/kiss1.gif""</stim_listA>",,html-keyboard-response,287,1211044,0.0-17.0-1.10,56021,List2A,black,woman,,,,null,,,,
null,is kissing,,html-keyboard-response,288,1213046,0.0-17.0-2.10,56021,List2A,black,woman,,,,null,,,,
6530,,,survey-text,289,1219577,0.0-17.0-3.10,56021,List2A,black,woman,,,,,"{""Q0"":""luke is kissing ruth""}","<img src=""stim_listA/kiss1.gif""</stim_listA>",is kissing,
null,"<div style=""font-size:60px;"">+</div>",,html-keyboard-response,290,1220079,0.0-17.0-0.11,56021,List2A,black,woman,,,,null,,,,
null,"<img src=""stim_listA/talk6.gif""</stim_listA>",,html-keyboard-response,291,1222084,0.0-17.0-1.11,56021,List2A,black,woman,,,,null,,,,
null,are talking to each other,,html-keyboard-response,292,1224085,0.0-17.0-2.11,56021,List2A,black,woman,,,,null,,,,
10112,,,survey-text,293,1234198,0.0-17.0-3.11,56021,List2A,black,woman,,,,,"{""Q0"":""fred and dave are talking to each other""}","<img src=""stim_listA/talk6.gif""</stim_listA>",are talking to each other,
null,"<div style=""font-size:60px;"">+</div>",,html-keyboard-response,294,1234701,0.0-17.0-0.12,56021,List2A,black,woman,,,,null,,,,
null,"<img src=""stim_listA/fight7.gif""</stim_listA>",,html-keyboard-response,295,1236706,0.0-17.0-1.12,56021,List2A,black,woman,,,,null,,,,
null,is fighting,,html-keyboard-response,296,1238706,0.0-17.0-2.12,56021,List2A,black,woman,,,,null,,,,
7762,,,survey-text,297,1246469,0.0-17.0-3.12,56021,List2A,black,woman,,,,,"{""Q0"":""kate is fighting jane""}","<img src=""stim_listA/fight7.gif""</stim_listA>",is fighting,
null,"<div style=""font-size:60px;"">+</div>",,html-keyboard-response,298,1246970,0.0-17.0-0.13,56021,List2A,black,woman,,,,null,,,,
null,"<img src=""stim_listA/hug4.gif""</stim_listA>",,html-keyboard-response,299,1248975,0.0-17.0-1.13,56021,List2A,black,woman,,,,null,,,,
null,are hugging each other,,html-keyboard-response,300,1250980,0.0-17.0-2.13,56021,List2A,black,woman,,,,null,,,,
8408,,,survey-text,301,1259388,0.0-17.0-3.13,56021,List2A,black,woman,,,,,"{""Q0"":""kate and mike are hugging each other""}","<img src=""stim_listA/hug4.gif""</stim_listA>",are hugging each other,
null,"<div style=""font-size:60px;"">+</div>",,html-keyboard-response,302,1259890,0.0-17.0-0.14,56021,List2A,black,woman,,,,null,,,,
null,"<img src=""stim_listA/shout5.gif""</stim_listA>",,html-keyboard-response,303,1261895,0.0-17.0-1.14,56021,List2A,black,woman,,,,null,,,,
null,is shouting at,,html-keyboard-response,304,1263897,0.0-17.0-2.14,56021,List2A,black,woman,,,,null,,,,
5659,,,survey-text,305,1269557,0.0-17.0-3.14,56021,List2A,black,woman,,,,,"{""Q0"":""luke is shouting at fred""}","<img src=""stim_listA/shout5.gif""</stim_listA>",is shouting at,
null,"<div style=""font-size:60px;"">+</div>",,html-keyboard-response,306,1270059,0.0-17.0-0.15,56021,List2A,black,woman,,,,null,,,,
null,"<img src=""stim_listA/argue7.gif""</stim_listA>",,html-keyboard-response,307,1272065,0.0-17.0-1.15,56021,List2A,black,woman,,,,null,,,,
null,is arguing with,,html-keyboard-response,308,1274065,0.0-17.0-2.15,56021,List2A,black,woman,,,,null,,,,
6940,,,survey-text,309,1281005,0.0-17.0-3.15,56021,List2A,black,woman,,,,,"{""Q0"":""jane is arguing with beth""}","<img src=""stim_listA/argue7.gif""</stim_listA>",is arguing with,
null,"<div style=""font-size:60px;"">+</div>",,html-keyboard-response,310,1281506,0.0-17.0-0.16,56021,List2A,black,woman,,,,null,,,,
null,"<img src=""stim_listA/touch6.gif""</stim_listA>",,html-keyboard-response,311,1283512,0.0-17.0-1.16,56021,List2A,black,woman,,,,null,,,,
null,are touching each other,,html-keyboard-response,312,1285514,0.0-17.0-2.16,56021,List2A,black,woman,,,,null,,,,
10102,,,survey-text,313,1295617,0.0-17.0-3.16,56021,List2A,black,woman,,,,,"{""Q0"":""luke and fred are touching each other""}","<img src=""stim_listA/touch6.gif""</stim_listA>",are touching each other,
null,"<div style=""font-size:60px;"">+</div>",,html-keyboard-response,314,1296118,0.0-17.0-0.17,56021,List2A,black,woman,,,,null,,,,
null,"<img src=""stim_listA/talk8.gif""</stim_listA>",,html-keyboard-response,315,1298124,0.0-17.0-1.17,56021,List2A,black,woman,,,,null,,,,
null,are talking to each other,,html-keyboard-response,316,1300128,0.0-17.0-2.17,56021,List2A,black,woman,,,,null,,,,
9814,,,survey-text,317,1309943,0.0-17.0-3.17,56021,List2A,black,woman,,,,,"{""Q0"":""beth and jane are talking to each other""}","<img src=""stim_listA/talk8.gif""</stim_listA>",are talking to each other,
null,"<div style=""font-size:60px;"">+</div>",,html-keyboard-response,318,1310443,0.0-17.0-0.18,56021,List2A,black,woman,,,,null,,,,
null,"<img src=""stim_listA/argue2.gif""</stim_listA>",,html-keyboard-response,319,1312449,0.0-17.0-1.18,56021,List2A,black,woman,,,,null,,,,
null,are arguing with each other,,html-keyboard-response,320,1314450,0.0-17.0-2.18,56021,List2A,black,woman,,,,null,,,,
7287,,,survey-text,321,1321739,0.0-17.0-3.18,56021,List2A,black,woman,,,,,"{""Q0"":""jane and luke are arguing with each other""}","<img src=""stim_listA/argue2.gif""</stim_listA>",are arguing with each other,
null,"<div style=""font-size:60px;"">+</div>",,html-keyboard-response,322,1322241,0.0-17.0-0.19,56021,List2A,black,woman,,,,null,,,,
null,"<img src=""stim_listA/shout7.gif""</stim_listA>",,html-keyboard-response,323,1324244,0.0-17.0-1.19,56021,List2A,black,woman,,,,null,,,,
null,is shouting at,,html-keyboard-response,324,1326246,0.0-17.0-2.19,56021,List2A,black,woman,,,,null,,,,
7029,,,survey-text,325,1333276,0.0-17.0-3.19,56021,List2A,black,woman,,,,,"{""Q0"":""beth is shouting at ruth""}","<img src=""stim_listA/shout7.gif""</stim_listA>",is shouting at,
4127,"<img src='img/portrait_matrix_list2.JPG' style='width:900px;height:500px;''></img><p>If you have memorised all the portraits and names and are ready to start, press Continue.</p><p><strong>Please note: Your memory of these faces will be tested 4 times during this experiment.</strong></p>",0,html-button-response,326,1337404,0.0-18.0-0.0,56021,List2A,black,woman,,,,,,,,
2238,"<img src=""portrait/WM1.jpg""style=""width:400px;height:400px;""></img>",6,html-button-response,327,1340646,0.0-18.0-1.0,56021,List2A,black,woman,,TRUE,6,,,,,
null,CORRECT,,html-keyboard-response,328,1342155,0.0-18.0-2.0-0.0,56021,List2A,black,woman,,,,null,,,,
1409,"<img src=""portrait/BM2.jpg""style=""width:400px;height:400px;""></img>",5,html-button-response,329,1343566,0.0-18.0-4.0,56021,List2A,black,woman,,TRUE,5,,,,,
null,CORRECT,,html-keyboard-response,330,1345073,0.0-18.0-5.0-0.0,56021,List2A,black,woman,,,,null,,,,
2057,"<img src=""portrait/WW1.jpg""style=""width:400px;height:400px;""></img>",1,html-button-response,331,1347131,0.0-18.0-7.0,56021,List2A,black,woman,,TRUE,1,,,,,
null,CORRECT,,html-keyboard-response,332,1348642,0.0-18.0-8.0-0.0,56021,List2A,black,woman,,,,null,,,,
1466,"<img src=""portrait/BW2.jpg""style=""width:400px;height:400px;""></img>",2,html-button-response,333,1350109,0.0-18.0-10.0,56021,List2A,black,woman,,TRUE,2,,,,,
null,CORRECT,,html-keyboard-response,334,1351619,0.0-18.0-11.0-0.0,56021,List2A,black,woman,,,,null,,,,
2225,"<img src=""portrait/BW1.jpg""style=""width:400px;height:400px;""></img>",0,html-button-response,335,1353846,0.0-18.0-13.0,56021,List2A,black,woman,,TRUE,0,,,,,
null,CORRECT,,html-keyboard-response,336,1355355,0.0-18.0-14.0-0.0,56021,List2A,black,woman,,,,null,,,,
3948,"<img src=""portrait/WW2.jpg""style=""width:400px;height:400px;""></img>",3,html-button-response,337,1359304,0.0-18.0-16.0,56021,List2A,black,woman,,TRUE,3,,,,,
null,CORRECT,,html-keyboard-response,338,1360814,0.0-18.0-17.0-0.0,56021,List2A,black,woman,,,,null,,,,
2219,"<img src=""portrait/WM2.jpg""style=""width:400px;height:400px;""></img>",7,html-button-response,339,1363035,0.0-18.0-19.0,56021,List2A,black,woman,,TRUE,7,,,,,
null,CORRECT,,html-keyboard-response,340,1364543,0.0-18.0-20.0-0.0,56021,List2A,black,woman,,,,null,,,,
1500,"<img src=""portrait/BM1.jpg""style=""width:400px;height:400px;""></img>",4,html-button-response,341,1366045,0.0-18.0-22.0,56021,List2A,black,woman,,TRUE,4,,,,,
null,CORRECT,,html-keyboard-response,342,1367551,0.0-18.0-23.0-0.0,56021,List2A,black,woman,,,,null,,,,
2359,<p>You got 8 out of 8 right first time. Press Continue.</p>,0,html-button-response,343,1369912,0.0-18.0-25.0,56021,List2A,black,woman,,,,,,,,
null,"<div style=""font-size:60px;"">+</div>",,html-keyboard-response,344,1371423,0.0-19.0-0.0,56021,List2A,black,woman,,,,null,,,,
null,"<img src=""stim_listA/kiss8.gif""</stim_listA>",,html-keyboard-response,345,1373429,0.0-19.0-1.0,56021,List2A,black,woman,,,,null,,,,
null,are kissing each other,,html-keyboard-response,346,1375434,0.0-19.0-2.0,56021,List2A,black,woman,,,,null,,,,
7139,,,survey-text,347,1382573,0.0-19.0-3.0,56021,List2A,black,woman,,,,,"{""Q0"":""kate and jane are kissing each other""}","<img src=""stim_listA/kiss8.gif""</stim_listA>",are kissing each other,
null,"<div style=""font-size:60px;"">+</div>",,html-keyboard-response,348,1383075,0.0-19.0-0.1,56021,List2A,black,woman,,,,null,,,,
null,"<img src=""stim_listA/marry5.gif""</stim_listA>",,html-keyboard-response,349,1385081,0.0-19.0-1.1,56021,List2A,black,woman,,,,null,,,,
null,is marrying,,html-keyboard-response,350,1387086,0.0-19.0-2.1,56021,List2A,black,woman,,,,null,,,,
12849,,,survey-text,351,1399936,0.0-19.0-3.1,56021,List2A,black,woman,,,,,"{""Q0"":""fred is marrying dave""}","<img src=""stim_listA/marry5.gif""</stim_listA>",is marrying,
null,"<div style=""font-size:60px;"">+</div>",,html-keyboard-response,352,1400438,0.0-19.0-0.2,56021,List2A,black,woman,,,,null,,,,
null,"<img src=""stim_listA/talk7.gif""</stim_listA>",,html-keyboard-response,353,1402442,0.0-19.0-1.2,56021,List2A,black,woman,,,,null,,,,
null,is talking to,,html-keyboard-response,354,1404443,0.0-19.0-2.2,56021,List2A,black,woman,,,,null,,,,
9425,,,survey-text,355,1413870,0.0-19.0-3.2,56021,List2A,black,woman,,,,,"{""Q0"":""kate is talking to ruth""}","<img src=""stim_listA/talk7.gif""</stim_listA>",is talking to,
null,"<div style=""font-size:60px;"">+</div>",,html-keyboard-response,356,1414372,0.0-19.0-0.3,56021,List2A,black,woman,,,,null,,,,
null,"<img src=""stim_listA/meet8.gif""</stim_listA>",,html-keyboard-response,357,1416373,0.0-19.0-1.3,56021,List2A,black,woman,,,,null,,,,
null,are meeting each other,,html-keyboard-response,358,1418373,0.0-19.0-2.3,56021,List2A,black,woman,,,,null,,,,
7855,,,survey-text,359,1426229,0.0-19.0-3.3,56021,List2A,black,woman,,,,,"{""Q0"":""beth and ruth are meeting each other""}","<img src=""stim_listA/meet8.gif""</stim_listA>",are meeting each other,
null,"<div style=""font-size:60px;"">+</div>",,html-keyboard-response,360,1426732,0.0-19.0-0.4,56021,List2A,black,woman,,,,null,,,,
null,"<img src=""stim_listA/kiss3.gif""</stim_listA>",,html-keyboard-response,361,1428737,0.0-19.0-1.4,56021,List2A,black,woman,,,,null,,,,
null,is kissing,,html-keyboard-response,362,1430741,0.0-19.0-2.4,56021,List2A,black,woman,,,,null,,,,
4186,,,survey-text,363,1434928,0.0-19.0-3.4,56021,List2A,black,woman,,,,,"{""Q0"":""beth is kissing fred""}","<img src=""stim_listA/kiss3.gif""</stim_listA>",is kissing,
null,"<div style=""font-size:60px;"">+</div>",,html-keyboard-response,364,1435429,0.0-19.0-0.5,56021,List2A,black,woman,,,,null,,,,
null,"<img src=""stim_listA/kiss6.gif""</stim_listA>",,html-keyboard-response,365,1437435,0.0-19.0-1.5,56021,List2A,black,woman,,,,null,,,,
null,are kissing each other,,html-keyboard-response,366,1439435,0.0-19.0-2.5,56021,List2A,black,woman,,,,null,,,,
6576,,,survey-text,367,1446012,0.0-19.0-3.5,56021,List2A,black,woman,,,,,"{""Q0"":""mike and dave are kissing each other""}","<img src=""stim_listA/kiss6.gif""</stim_listA>",are kissing each other,
null,"<div style=""font-size:60px;"">+</div>",,html-keyboard-response,368,1446514,0.0-19.0-0.6,56021,List2A,black,woman,,,,null,,,,
null,"<img src=""stim_listA/shout8.gif""</stim_listA>",,html-keyboard-response,369,1448520,0.0-19.0-1.6,56021,List2A,black,woman,,,,null,,,,
null,are shouting at each other,,html-keyboard-response,370,1450525,0.0-19.0-2.6,56021,List2A,black,woman,,,,null,,,,
7847,,,survey-text,371,1458373,0.0-19.0-3.6,56021,List2A,black,woman,,,,,"{""Q0"":""kate and jane are shouting at each other""}","<img src=""stim_listA/shout8.gif""</stim_listA>",are shouting at each other,
null,"<div style=""font-size:60px;"">+</div>",,html-keyboard-response,372,1458874,0.0-19.0-0.7,56021,List2A,black,woman,,,,null,,,,
null,"<img src=""stim_listA/argue6.gif""</stim_listA>",,html-keyboard-response,373,1460879,0.0-19.0-1.7,56021,List2A,black,woman,,,,null,,,,
null,are arguing with each other,,html-keyboard-response,374,1462884,0.0-19.0-2.7,56021,List2A,black,woman,,,,null,,,,
8117,,,survey-text,375,1471002,0.0-19.0-3.7,56021,List2A,black,woman,,,,,"{""Q0"":""luke and mike are arguing with each other""}","<img src=""stim_listA/argue6.gif""</stim_listA>",are arguing with each other,
null,"<div style=""font-size:60px;"">+</div>",,html-keyboard-response,376,1471503,0.0-19.0-0.8,56021,List2A,black,woman,,,,null,,,,
null,"<img src=""stim_listA/hug5.gif""</stim_listA>",,html-keyboard-response,377,1473509,0.0-19.0-1.8,56021,List2A,black,woman,,,,null,,,,
null,is hugging,,html-keyboard-response,378,1475514,0.0-19.0-2.8,56021,List2A,black,woman,,,,null,,,,
11166,,,survey-text,379,1486681,0.0-19.0-3.8,56021,List2A,black,woman,,,,,"{""Q0"":""fred is hugging luke""}","<img src=""stim_listA/hug5.gif""</stim_listA>",is hugging,
null,"<div style=""font-size:60px;"">+</div>",,html-keyboard-response,380,1487183,0.0-19.0-0.9,56021,List2A,black,woman,,,,null,,,,
null,"<img src=""stim_listA/marry7.gif""</stim_listA>",,html-keyboard-response,381,1489189,0.0-19.0-1.9,56021,List2A,black,woman,,,,null,,,,
null,is marrying,,html-keyboard-response,382,1491193,0.0-19.0-2.9,56021,List2A,black,woman,,,,null,,,,
4872,,,survey-text,383,1496067,0.0-19.0-3.9,56021,List2A,black,woman,,,,,"{""Q0"":""beth is marrying jane""}","<img src=""stim_listA/marry7.gif""</stim_listA>",is marrying,
null,"<div style=""font-size:60px;"">+</div>",,html-keyboard-response,384,1496568,0.0-19.0-0.10,56021,List2A,black,woman,,,,null,,,,
null,"<img src=""stim_listA/meet1.gif""</stim_listA>",,html-keyboard-response,385,1498569,0.0-19.0-1.10,56021,List2A,black,woman,,,,null,,,,
null,is meeting,,html-keyboard-response,386,1500574,0.0-19.0-2.10,56021,List2A,black,woman,,,,null,,,,
19738,,,survey-text,387,1520314,0.0-19.0-3.10,56021,List2A,black,woman,,,,,"{""Q0"":""dave is meeting jane""}","<img src=""stim_listA/meet1.gif""</stim_listA>",is meeting,
null,"<div style=""font-size:60px;"">+</div>",,html-keyboard-response,388,1520816,0.0-19.0-0.11,56021,List2A,black,woman,,,,null,,,,
null,"<img src=""stim_listA/hug8.gif""</stim_listA>",,html-keyboard-response,389,1522821,0.0-19.0-1.11,56021,List2A,black,woman,,,,null,,,,
null,are hugging each other,,html-keyboard-response,390,1524822,0.0-19.0-2.11,56021,List2A,black,woman,,,,null,,,,
7738,,,survey-text,391,1532562,0.0-19.0-3.11,56021,List2A,black,woman,,,,,"{""Q0"":""kate and jane are hugging each other""}","<img src=""stim_listA/hug8.gif""</stim_listA>",are hugging each other,
null,"<div style=""font-size:60px;"">+</div>",,html-keyboard-response,392,1533063,0.0-19.0-0.12,56021,List2A,black,woman,,,,null,,,,
null,"<img src=""stim_listA/dance1.gif""</stim_listA>",,html-keyboard-response,393,1535065,0.0-19.0-1.12,56021,List2A,black,woman,,,,null,,,,
null,is dancing with,,html-keyboard-response,394,1537070,0.0-19.0-2.12,56021,List2A,black,woman,,,,null,,,,
6128,,,survey-text,395,1543200,0.0-19.0-3.12,56021,List2A,black,woman,,,,,"{""Q0"":""luke is dancing with jane""}","<img src=""stim_listA/dance1.gif""</stim_listA>",is dancing with,
null,"<div style=""font-size:60px;"">+</div>",,html-keyboard-response,396,1543702,0.0-19.0-0.13,56021,List2A,black,woman,,,,null,,,,
null,"<img src=""stim_listA/touch7.gif""</stim_listA>",,html-keyboard-response,397,1545708,0.0-19.0-1.13,56021,List2A,black,woman,,,,null,,,,
null,is touching,,html-keyboard-response,398,1547709,0.0-19.0-2.13,56021,List2A,black,woman,,,,null,,,,
4942,,,survey-text,399,1552652,0.0-19.0-3.13,56021,List2A,black,woman,,,,,"{""Q0"":""jane is touching kate""}","<img src=""stim_listA/touch7.gif""</stim_listA>",is touching,
null,"<div style=""font-size:60px;"">+</div>",,html-keyboard-response,400,1553154,0.0-19.0-0.14,56021,List2A,black,woman,,,,null,,,,
null,"<img src=""stim_listA/hug7.gif""</stim_listA>",,html-keyboard-response,401,1555155,0.0-19.0-1.14,56021,List2A,black,woman,,,,null,,,,
null,is hugging,,html-keyboard-response,402,1557158,0.0-19.0-2.14,56021,List2A,black,woman,,,,null,,,,
8307,,,survey-text,403,1565466,0.0-19.0-3.14,56021,List2A,black,woman,,,,,"{""Q0"":""beth is hugging ruth""}","<img src=""stim_listA/hug7.gif""</stim_listA>",is hugging,
null,"<div style=""font-size:60px;"">+</div>",,html-keyboard-response,404,1565968,0.0-19.0-0.15,56021,List2A,black,woman,,,,null,,,,
null,"<img src=""stim_listA/fight3.gif""</stim_listA>",,html-keyboard-response,405,1567973,0.0-19.0-1.15,56021,List2A,black,woman,,,,null,,,,
null,is fighting,,html-keyboard-response,406,1569974,0.0-19.0-2.15,56021,List2A,black,woman,,,,null,,,,
6982,,,survey-text,407,1576956,0.0-19.0-3.15,56021,List2A,black,woman,,,,,"{""Q0"":""kate is fighting mike""}","<img src=""stim_listA/fight3.gif""</stim_listA>",is fighting,
null,"<div style=""font-size:60px;"">+</div>",,html-keyboard-response,408,1577458,0.0-19.0-0.16,56021,List2A,black,woman,,,,null,,,,
null,"<img src=""stim_listA/shout4.gif""</stim_listA>",,html-keyboard-response,409,1579460,0.0-19.0-1.16,56021,List2A,black,woman,,,,null,,,,
null,are shouting at each other,,html-keyboard-response,410,1581466,0.0-19.0-2.16,56021,List2A,black,woman,,,,null,,,,
10547,,,survey-text,411,1592014,0.0-19.0-3.16,56021,List2A,black,woman,,,,,"{""Q0"":""kate and mike is shouting at each other""}","<img src=""stim_listA/shout4.gif""</stim_listA>",are shouting at each other,
null,"<div style=""font-size:60px;"">+</div>",,html-keyboard-response,412,1592516,0.0-19.0-0.17,56021,List2A,black,woman,,,,null,,,,
null,"<img src=""stim_listA/marry1.gif""</stim_listA>",,html-keyboard-response,413,1594520,0.0-19.0-1.17,56021,List2A,black,woman,,,,null,,,,
null,is marrying,,html-keyboard-response,414,1596524,0.0-19.0-2.17,56021,List2A,black,woman,,,,null,,,,
8284,,,survey-text,415,1604809,0.0-19.0-3.17,56021,List2A,black,woman,,,,,"{""Q0"":""ruth is marrying dave""}","<img src=""stim_listA/marry1.gif""</stim_listA>",is marrying,
null,"<div style=""font-size:60px;"">+</div>",,html-keyboard-response,416,1605310,0.0-19.0-0.18,56021,List2A,black,woman,,,,null,,,,
null,"<img src=""stim_listA/argue5.gif""</stim_listA>",,html-keyboard-response,417,1607316,0.0-19.0-1.18,56021,List2A,black,woman,,,,null,,,,
null,is arguing with,,html-keyboard-response,418,1609320,0.0-19.0-2.18,56021,List2A,black,woman,,,,null,,,,
8223,,,survey-text,419,1617543,0.0-19.0-3.18,56021,List2A,black,woman,,,,,"{""Q0"":""dave is arguing with fred""}","<img src=""stim_listA/argue5.gif""</stim_listA>",is arguing with,
null,"<div style=""font-size:60px;"">+</div>",,html-keyboard-response,420,1618045,0.0-19.0-0.19,56021,List2A,black,woman,,,,null,,,,
null,"<img src=""stim_listA/fight2.gif""</stim_listA>",,html-keyboard-response,421,1620051,0.0-19.0-1.19,56021,List2A,black,woman,,,,null,,,,
null,are fighting each other,,html-keyboard-response,422,1622053,0.0-19.0-2.19,56021,List2A,black,woman,,,,null,,,,
8701,,,survey-text,423,1630755,0.0-19.0-3.19,56021,List2A,black,woman,,,,,"{""Q0"":""luke and ruth are fighting each other""}","<img src=""stim_listA/fight2.gif""</stim_listA>",are fighting each other,
1615,<p>Thank you for completing that task.</p><p>The final part of this session is a short questionnaire.</p><p>Press Continue.</p>,0,html-button-response,424,1632372,0.0-20.0,56021,List2A,black,woman,,,,,,,,
50636,,,survey-text,425,1684014,0.0-21.0,56021,List2A,black,woman,,,,,"{""Q0"":""23"",""Q1"":""English"",""Q2"":""English"",""Q3"":""United Kingdom"",""Q4"":""Black"",""Q5"":""Female""}",,,demographics
85983,,,survey-likert,426,1770003,0.0-22.0,56021,List2A,black,woman,,,,,"{""Q0"":5,""Q1"":4,""Q2"":5,""Q3"":3,""Q4"":6,""Q5"":2,""Q6"":3,""Q7"":6,""Q8"":5,""Q9"":5,""Q10"":4,""Q11"":3,""Q12"":4,""Q13"":3}",,,likert_race
69188,,,survey-likert,427,1839196,0.0-23.0,56021,List2A,black,woman,,,,,"{""Q0"":4,""Q1"":4,""Q2"":4,""Q3"":5,""Q4"":5,""Q5"":3,""Q6"":5,""Q7"":5,""Q8"":5,""Q9"":5,""Q10"":5,""Q11"":3,""Q12"":3,""Q13"":2}",,,likert_gender
9381,,,survey-text,428,1848581,0.0-24.0,56021,List2A,black,woman,,,,,"{""Q0"":""ccc""}",,,worker_id
31155,,,external-html,429,1879816,0.0-25.0,56021,List2A,black,woman,debrief.html,,,,,,,
