rt,stimulus,button_pressed,trial_type,trial_index,time_elapsed,internal_node_id,subject,list,ppt_race,ppt_gender,url,first_guess,correct,key_press,responses,image_type,phrase_type,test_part
3955,Welcome to the experiment. Press Continue to begin.,0,html-button-response,0,3971,0.0-0.0,57085,List2A,black,woman,,,,,,,,
27435,,,external-html,1,32517,0.0-1.0,57085,List2A,black,woman,consent.html,,,,,,,
11852,"<p>On the next page, you will see portraits of 8 people and their names.</p><p>Your first task is to take a few minutes to memorise the names of these people.</p><p>You will have to recall their names during the rest of the experiment, so it is</p><p>essential that you try to memorise these people and their names as best as you can.</p><br><p><strong>You will then be tested on your memory of these names and portraits.</strong></p><br><p>The experiment will start after you have completed this memory test.</p><br><p>Ready?</p>",0,html-button-response,2,44386,0.0-2.0,57085,List2A,black,woman,,,,,,,,
40157,"<img src='img/portrait_matrix_list2.JPG' style='width:900px;height:500px;''></img><p>If you have memorised all the portraits and names and are ready to start, press Continue.</p><p><strong>Please note: Your memory of these faces will be tested 4 times during this experiment.</strong></p>",0,html-button-response,3,85564,0.0-3.0-0.0,57085,List2A,black,woman,,,,,,,,
2175,"<img src=""portrait/WW2.jpg""style=""width:400px;height:400px;""></img>",3,html-button-response,4,88765,0.0-3.0-1.0,57085,List2A,black,woman,,TRUE,3,,,,,
null,CORRECT,,html-keyboard-response,5,90308,0.0-3.0-2.0-0.0,57085,List2A,black,woman,,,,null,,,,
3069,"<img src=""portrait/BM2.jpg""style=""width:400px;height:400px;""></img>",5,html-button-response,6,93388,0.0-3.0-4.0,57085,List2A,black,woman,,TRUE,5,,,,,
null,CORRECT,,html-keyboard-response,7,94902,0.0-3.0-5.0-0.0,57085,List2A,black,woman,,,,null,,,,
2777,"<img src=""portrait/WW1.jpg""style=""width:400px;height:400px;""></img>",1,html-button-response,8,97685,0.0-3.0-7.0,57085,List2A,black,woman,,TRUE,1,,,,,
null,CORRECT,,html-keyboard-response,9,99202,0.0-3.0-8.0-0.0,57085,List2A,black,woman,,,,null,,,,
3028,"<img src=""portrait/WM2.jpg""style=""width:400px;height:400px;""></img>",7,html-button-response,10,102235,0.0-3.0-10.0,57085,List2A,black,woman,,TRUE,7,,,,,
null,CORRECT,,html-keyboard-response,11,103942,0.0-3.0-11.0-0.0,57085,List2A,black,woman,,,,null,,,,
3408,"<img src=""portrait/WM1.jpg""style=""width:400px;height:400px;""></img>",6,html-button-response,12,107360,0.0-3.0-13.0,57085,List2A,black,woman,,TRUE,6,,,,,
null,CORRECT,,html-keyboard-response,13,108938,0.0-3.0-14.0-0.0,57085,List2A,black,woman,,,,null,,,,
8036,"<img src=""portrait/BM1.jpg""style=""width:400px;height:400px;""></img>",4,html-button-response,14,116981,0.0-3.0-16.0,57085,List2A,black,woman,,TRUE,4,,,,,
null,CORRECT,,html-keyboard-response,15,118559,0.0-3.0-17.0-0.0,57085,List2A,black,woman,,,,null,,,,
7368,"<img src=""portrait/BW2.jpg""style=""width:400px;height:400px;""></img>",2,html-button-response,16,125930,0.0-3.0-19.0,57085,List2A,black,woman,,TRUE,2,,,,,
null,CORRECT,,html-keyboard-response,17,127447,0.0-3.0-20.0-0.0,57085,List2A,black,woman,,,,null,,,,
3396,"<img src=""portrait/BW1.jpg""style=""width:400px;height:400px;""></img>",0,html-button-response,18,130858,0.0-3.0-22.0,57085,List2A,black,woman,,TRUE,0,,,,,
null,CORRECT,,html-keyboard-response,19,132383,0.0-3.0-23.0-0.0,57085,List2A,black,woman,,,,null,,,,
1676,<p>You got 8 out of 8 right first time. Press Continue.</p>,0,html-button-response,20,134071,0.0-3.0-25.0,57085,List2A,black,woman,,,,,,,,
23730,"<p>In this experiment, you will view photographs of the people from the memory game interacting.</p><p>By using the <strong>exact</strong> phrase given <i>after</i> the photograph appears and recalling the correct names of the people in the photographs, form a sentence describing the interaction. You do not need to capitalise names.</p><p>Type your answer in the space provided. Please complete every sentence before moving onto the next trial.</p><p>You will only have a few seconds to memorise each given photograph and phrase before you can respond, so try your best to focus.</p><p>An example is given below. Press 'Continue' when you are ready.</p><img src='img/speaking_example_v2.jpg' style='width:800px;height:460px;''></img>",0,html-button-response,21,158824,0.0-4.0,57085,List2A,black,woman,,,,,,,,
3374,"<p>Before the experiment starts, you will watch two example trials. Press 'Continue'.</p>",0,html-button-response,22,163232,0.0-5.0,57085,List2A,black,woman,,,,,,,,
null,<img src='img/speaking_WW.gif'></img>,,html-keyboard-response,23,166269,0.0-6.0,57085,List2A,black,woman,,,,null,,,,
null,<p>is speaking to</p>,,html-keyboard-response,24,168280,0.0-7.0,57085,List2A,black,woman,,,,null,,,,
5272,<p><b>Answer:</b> jane is speaking to ruth</p>,0,html-button-response,25,173557,0.0-8.0,57085,List2A,black,woman,,,,,,,,
null,<img src='img/pointing_BM.gif'></img>,,html-keyboard-response,26,177041,0.0-9.0,57085,List2A,black,woman,,,,null,,,,
null,<p>are pointing at each other</p>,,html-keyboard-response,27,179183,0.0-10.0,57085,List2A,black,woman,,,,null,,,,
2557,<p><b>Answer:</b> fred and mike are pointing at each other</p>,0,html-button-response,28,181743,0.0-11.0,57085,List2A,black,woman,,,,,,,,
7084,"<p>Ready to start the experiment?</p><br><p><strong>Remember to describe the picture using a full sentence,</strong></p><p><strong> that combines the names of the people with the given phrase.</strong></p><p><strong> You do not need to capitalise names or use punctuation.</strong></p><br><p>Press 'Continue' to begin.</p>",0,html-button-response,29,189834,0.0-12.0,57085,List2A,black,woman,,,,,,,,
null,"<div style=""font-size:60px;"">+</div>",,html-keyboard-response,30,191403,0.0-13.0-0.0,57085,List2A,black,woman,,,,null,,,,
null,"<img src=""stim_listA/hug4.gif""</stim_listA>",,html-keyboard-response,31,193432,0.0-13.0-1.0,57085,List2A,black,woman,,,,null,,,,
null,are hugging each other,,html-keyboard-response,32,195448,0.0-13.0-2.0,57085,List2A,black,woman,,,,null,,,,
19442,,,survey-text,33,214896,0.0-13.0-3.0,57085,List2A,black,woman,,,,,"{""Q0"":""Kate and Mike are hugging each other.""}","<img src=""stim_listA/hug4.gif""</stim_listA>",are hugging each other,
null,"<div style=""font-size:60px;"">+</div>",,html-keyboard-response,34,215417,0.0-13.0-0.1,57085,List2A,black,woman,,,,null,,,,
null,"<img src=""stim_listA/kiss7.gif""</stim_listA>",,html-keyboard-response,35,217430,0.0-13.0-1.1,57085,List2A,black,woman,,,,null,,,,
null,is kissing,,html-keyboard-response,36,219434,0.0-13.0-2.1,57085,List2A,black,woman,,,,null,,,,
17500,,,survey-text,37,236939,0.0-13.0-3.1,57085,List2A,black,woman,,,,,"{""Q0"":""Ruth is kissing Beth.""}","<img src=""stim_listA/kiss7.gif""</stim_listA>",is kissing,
null,"<div style=""font-size:60px;"">+</div>",,html-keyboard-response,38,237457,0.0-13.0-0.2,57085,List2A,black,woman,,,,null,,,,
null,"<img src=""stim_listA/marry5.gif""</stim_listA>",,html-keyboard-response,39,239472,0.0-13.0-1.2,57085,List2A,black,woman,,,,null,,,,
null,is marrying,,html-keyboard-response,40,241483,0.0-13.0-2.2,57085,List2A,black,woman,,,,null,,,,
8284,,,survey-text,41,249772,0.0-13.0-3.2,57085,List2A,black,woman,,,,,"{""Q0"":""Fred is marrying Dave.""}","<img src=""stim_listA/marry5.gif""</stim_listA>",is marrying,
null,"<div style=""font-size:60px;"">+</div>",,html-keyboard-response,42,250287,0.0-13.0-0.3,57085,List2A,black,woman,,,,null,,,,
null,"<img src=""stim_listA/fight3.gif""</stim_listA>",,html-keyboard-response,43,252302,0.0-13.0-1.3,57085,List2A,black,woman,,,,null,,,,
null,is fighting,,html-keyboard-response,44,254318,0.0-13.0-2.3,57085,List2A,black,woman,,,,null,,,,
6348,,,survey-text,45,260670,0.0-13.0-3.3,57085,List2A,black,woman,,,,,"{""Q0"":""Mike is fighting Kate.""}","<img src=""stim_listA/fight3.gif""</stim_listA>",is fighting,
null,"<div style=""font-size:60px;"">+</div>",,html-keyboard-response,46,261186,0.0-13.0-0.4,57085,List2A,black,woman,,,,null,,,,
null,"<img src=""stim_listA/marry8.gif""</stim_listA>",,html-keyboard-response,47,263203,0.0-13.0-1.4,57085,List2A,black,woman,,,,null,,,,
null,are marrying each other,,html-keyboard-response,48,265206,0.0-13.0-2.4,57085,List2A,black,woman,,,,null,,,,
12544,,,survey-text,49,277755,0.0-13.0-3.4,57085,List2A,black,woman,,,,,"{""Q0"":""Ruth and Kate are marrying each other.""}","<img src=""stim_listA/marry8.gif""</stim_listA>",are marrying each other,
null,"<div style=""font-size:60px;"">+</div>",,html-keyboard-response,50,278271,0.0-13.0-0.5,57085,List2A,black,woman,,,,null,,,,
null,"<img src=""stim_listA/marry4.gif""</stim_listA>",,html-keyboard-response,51,280281,0.0-13.0-1.5,57085,List2A,black,woman,,,,null,,,,
null,are marrying each other,,html-keyboard-response,52,282290,0.0-13.0-2.5,57085,List2A,black,woman,,,,null,,,,
12227,,,survey-text,53,294519,0.0-13.0-3.5,57085,List2A,black,woman,,,,,"{""Q0"":""Kate and Fred are marrying each other.""}","<img src=""stim_listA/marry4.gif""</stim_listA>",are marrying each other,
null,"<div style=""font-size:60px;"">+</div>",,html-keyboard-response,54,295027,0.0-13.0-0.6,57085,List2A,black,woman,,,,null,,,,
null,"<img src=""stim_listA/talk6.gif""</stim_listA>",,html-keyboard-response,55,297041,0.0-13.0-1.6,57085,List2A,black,woman,,,,null,,,,
null,are talking to each other,,html-keyboard-response,56,299052,0.0-13.0-2.6,57085,List2A,black,woman,,,,null,,,,
19343,,,survey-text,57,318405,0.0-13.0-3.6,57085,List2A,black,woman,,,,,"{""Q0"":""Kate and Fred are talking to each other.""}","<img src=""stim_listA/talk6.gif""</stim_listA>",are talking to each other,
null,"<div style=""font-size:60px;"">+</div>",,html-keyboard-response,58,318922,0.0-13.0-0.7,57085,List2A,black,woman,,,,null,,,,
null,"<img src=""stim_listA/touch3.gif""</stim_listA>",,html-keyboard-response,59,320940,0.0-13.0-1.7,57085,List2A,black,woman,,,,null,,,,
null,is touching,,html-keyboard-response,60,322954,0.0-13.0-2.7,57085,List2A,black,woman,,,,null,,,,
11018,,,survey-text,61,333977,0.0-13.0-3.7,57085,List2A,black,woman,,,,,"{""Q0"":""Mike is touching Kate.""}","<img src=""stim_listA/touch3.gif""</stim_listA>",is touching,
null,"<div style=""font-size:60px;"">+</div>",,html-keyboard-response,62,334502,0.0-13.0-0.8,57085,List2A,black,woman,,,,null,,,,
null,"<img src=""stim_listA/shout6.gif""</stim_listA>",,html-keyboard-response,63,336524,0.0-13.0-1.8,57085,List2A,black,woman,,,,null,,,,
null,are shouting at each other,,html-keyboard-response,64,338558,0.0-13.0-2.8,57085,List2A,black,woman,,,,null,,,,
10817,,,survey-text,65,349378,0.0-13.0-3.8,57085,List2A,black,woman,,,,,"{""Q0"":""Dave and Mike are shouting at each other.""}","<img src=""stim_listA/shout6.gif""</stim_listA>",are shouting at each other,
null,"<div style=""font-size:60px;"">+</div>",,html-keyboard-response,66,349895,0.0-13.0-0.9,57085,List2A,black,woman,,,,null,,,,
null,"<img src=""stim_listA/shout4.gif""</stim_listA>",,html-keyboard-response,67,351929,0.0-13.0-1.9,57085,List2A,black,woman,,,,null,,,,
null,are shouting at each other,,html-keyboard-response,68,353936,0.0-13.0-2.9,57085,List2A,black,woman,,,,null,,,,
9620,,,survey-text,69,363561,0.0-13.0-3.9,57085,List2A,black,woman,,,,,"{""Q0"":""Kate and Mike are shouting at each other.""}","<img src=""stim_listA/shout4.gif""</stim_listA>",are shouting at each other,
null,"<div style=""font-size:60px;"">+</div>",,html-keyboard-response,70,364119,0.0-13.0-0.10,57085,List2A,black,woman,,,,null,,,,
null,"<img src=""stim_listA/meet8.gif""</stim_listA>",,html-keyboard-response,71,366136,0.0-13.0-1.10,57085,List2A,black,woman,,,,null,,,,
null,are meeting each other,,html-keyboard-response,72,368148,0.0-13.0-2.10,57085,List2A,black,woman,,,,null,,,,
11433,,,survey-text,73,379586,0.0-13.0-3.10,57085,List2A,black,woman,,,,,"{""Q0"":""Beth and Ruth are meeting each other.""}","<img src=""stim_listA/meet8.gif""</stim_listA>",are meeting each other,
null,"<div style=""font-size:60px;"">+</div>",,html-keyboard-response,74,380101,0.0-13.0-0.11,57085,List2A,black,woman,,,,null,,,,
null,"<img src=""stim_listA/touch6.gif""</stim_listA>",,html-keyboard-response,75,382130,0.0-13.0-1.11,57085,List2A,black,woman,,,,null,,,,
null,are touching each other,,html-keyboard-response,76,384157,0.0-13.0-2.11,57085,List2A,black,woman,,,,null,,,,
14553,,,survey-text,77,398714,0.0-13.0-3.11,57085,List2A,black,woman,,,,,"{""Q0"":""Fred and Luke are touching each other.""}","<img src=""stim_listA/touch6.gif""</stim_listA>",are touching each other,
null,"<div style=""font-size:60px;"">+</div>",,html-keyboard-response,78,399231,0.0-13.0-0.12,57085,List2A,black,woman,,,,null,,,,
null,"<img src=""stim_listA/hug3.gif""</stim_listA>",,html-keyboard-response,79,401263,0.0-13.0-1.12,57085,List2A,black,woman,,,,null,,,,
null,is hugging,,html-keyboard-response,80,403278,0.0-13.0-2.12,57085,List2A,black,woman,,,,null,,,,
8079,,,survey-text,81,411360,0.0-13.0-3.12,57085,List2A,black,woman,,,,,"{""Q0"":""Fred is hugging Beth.""}","<img src=""stim_listA/hug3.gif""</stim_listA>",is hugging,
null,"<div style=""font-size:60px;"">+</div>",,html-keyboard-response,82,411869,0.0-13.0-0.13,57085,List2A,black,woman,,,,null,,,,
null,"<img src=""stim_listA/meet1.gif""</stim_listA>",,html-keyboard-response,83,413883,0.0-13.0-1.13,57085,List2A,black,woman,,,,null,,,,
null,is meeting,,html-keyboard-response,84,415895,0.0-13.0-2.13,57085,List2A,black,woman,,,,null,,,,
6035,,,survey-text,85,421941,0.0-13.0-3.13,57085,List2A,black,woman,,,,,"{""Q0"":""Dave is meeting Jane.""}","<img src=""stim_listA/meet1.gif""</stim_listA>",is meeting,
null,"<div style=""font-size:60px;"">+</div>",,html-keyboard-response,86,422453,0.0-13.0-0.14,57085,List2A,black,woman,,,,null,,,,
null,"<img src=""stim_listA/shout7.gif""</stim_listA>",,html-keyboard-response,87,424474,0.0-13.0-1.14,57085,List2A,black,woman,,,,null,,,,
null,is shouting at,,html-keyboard-response,88,426475,0.0-13.0-2.14,57085,List2A,black,woman,,,,null,,,,
10650,,,survey-text,89,437129,0.0-13.0-3.14,57085,List2A,black,woman,,,,,"{""Q0"":""Ruth is shouting at Beth.""}","<img src=""stim_listA/shout7.gif""</stim_listA>",is shouting at,
null,"<div style=""font-size:60px;"">+</div>",,html-keyboard-response,90,437640,0.0-13.0-0.15,57085,List2A,black,woman,,,,null,,,,
null,"<img src=""stim_listA/kiss2.gif""</stim_listA>",,html-keyboard-response,91,439659,0.0-13.0-1.15,57085,List2A,black,woman,,,,null,,,,
null,are kissing each other,,html-keyboard-response,92,441673,0.0-13.0-2.15,57085,List2A,black,woman,,,,null,,,,
10278,,,survey-text,93,451957,0.0-13.0-3.15,57085,List2A,black,woman,,,,,"{""Q0"":""Jane and Dave are kissing each other.""}","<img src=""stim_listA/kiss2.gif""</stim_listA>",are kissing each other,
null,"<div style=""font-size:60px;"">+</div>",,html-keyboard-response,94,452517,0.0-13.0-0.16,57085,List2A,black,woman,,,,null,,,,
null,"<img src=""stim_listA/meet7.gif""</stim_listA>",,html-keyboard-response,95,454527,0.0-13.0-1.16,57085,List2A,black,woman,,,,null,,,,
null,is meeting,,html-keyboard-response,96,456545,0.0-13.0-2.16,57085,List2A,black,woman,,,,null,,,,
7213,,,survey-text,97,463770,0.0-13.0-3.16,57085,List2A,black,woman,,,,,"{""Q0"":""Jane is meeting Kate.""}","<img src=""stim_listA/meet7.gif""</stim_listA>",is meeting,
null,"<div style=""font-size:60px;"">+</div>",,html-keyboard-response,98,464280,0.0-13.0-0.17,57085,List2A,black,woman,,,,null,,,,
null,"<img src=""stim_listA/talk1.gif""</stim_listA>",,html-keyboard-response,99,466293,0.0-13.0-1.17,57085,List2A,black,woman,,,,null,,,,
null,is talking to,,html-keyboard-response,100,468320,0.0-13.0-2.17,57085,List2A,black,woman,,,,null,,,,
9985,,,survey-text,101,478310,0.0-13.0-3.17,57085,List2A,black,woman,,,,,"{""Q0"":""Luke is talking to Jane.""}","<img src=""stim_listA/talk1.gif""</stim_listA>",is talking to,
null,"<div style=""font-size:60px;"">+</div>",,html-keyboard-response,102,478828,0.0-13.0-0.18,57085,List2A,black,woman,,,,null,,,,
null,"<img src=""stim_listA/touch4.gif""</stim_listA>",,html-keyboard-response,103,480832,0.0-13.0-1.18,57085,List2A,black,woman,,,,null,,,,
null,are touching each other,,html-keyboard-response,104,482840,0.0-13.0-2.18,57085,List2A,black,woman,,,,null,,,,
9786,,,survey-text,105,492631,0.0-13.0-3.18,57085,List2A,black,woman,,,,,"{""Q0"":""Beth and Fred are touching each other.""}","<img src=""stim_listA/touch4.gif""</stim_listA>",are touching each other,
null,"<div style=""font-size:60px;"">+</div>",,html-keyboard-response,106,493139,0.0-13.0-0.19,57085,List2A,black,woman,,,,null,,,,
null,"<img src=""stim_listA/argue7.gif""</stim_listA>",,html-keyboard-response,107,495155,0.0-13.0-1.19,57085,List2A,black,woman,,,,null,,,,
null,is arguing with,,html-keyboard-response,108,497173,0.0-13.0-2.19,57085,List2A,black,woman,,,,null,,,,
7722,,,survey-text,109,504897,0.0-13.0-3.19,57085,List2A,black,woman,,,,,"{""Q0"":""Jane is arguing with Beth.""}","<img src=""stim_listA/argue7.gif""</stim_listA>",is arguing with,
14358,"<img src='img/portrait_matrix_list2.JPG' style='width:900px;height:500px;''></img><p>If you have memorised all the portraits and names and are ready to start, press Continue.</p><p><strong>Please note: Your memory of these faces will be tested 4 times during this experiment.</strong></p>",0,html-button-response,110,519267,0.0-14.0-0.0,57085,List2A,black,woman,,,,,,,,
2456,"<img src=""portrait/WM2.jpg""style=""width:400px;height:400px;""></img>",7,html-button-response,111,522743,0.0-14.0-1.0,57085,List2A,black,woman,,TRUE,7,,,,,
null,CORRECT,,html-keyboard-response,112,524271,0.0-14.0-2.0-0.0,57085,List2A,black,woman,,,,null,,,,
2913,"<img src=""portrait/BW1.jpg""style=""width:400px;height:400px;""></img>",0,html-button-response,113,527195,0.0-14.0-4.0,57085,List2A,black,woman,,TRUE,0,,,,,
null,CORRECT,,html-keyboard-response,114,528722,0.0-14.0-5.0-0.0,57085,List2A,black,woman,,,,null,,,,
2387,"<img src=""portrait/BM1.jpg""style=""width:400px;height:400px;""></img>",4,html-button-response,115,531117,0.0-14.0-7.0,57085,List2A,black,woman,,TRUE,4,,,,,
null,CORRECT,,html-keyboard-response,116,532634,0.0-14.0-8.0-0.0,57085,List2A,black,woman,,,,null,,,,
4443,"<img src=""portrait/WW1.jpg""style=""width:400px;height:400px;""></img>",1,html-button-response,117,537084,0.0-14.0-10.0,57085,List2A,black,woman,,TRUE,1,,,,,
null,CORRECT,,html-keyboard-response,118,538612,0.0-14.0-11.0-0.0,57085,List2A,black,woman,,,,null,,,,
2274,"<img src=""portrait/BW2.jpg""style=""width:400px;height:400px;""></img>",2,html-button-response,119,540901,0.0-14.0-13.0,57085,List2A,black,woman,,TRUE,2,,,,,
null,CORRECT,,html-keyboard-response,120,542414,0.0-14.0-14.0-0.0,57085,List2A,black,woman,,,,null,,,,
1810,"<img src=""portrait/WM1.jpg""style=""width:400px;height:400px;""></img>",6,html-button-response,121,544234,0.0-14.0-16.0,57085,List2A,black,woman,,TRUE,6,,,,,
null,CORRECT,,html-keyboard-response,122,545753,0.0-14.0-17.0-0.0,57085,List2A,black,woman,,,,null,,,,
1707,"<img src=""portrait/BM2.jpg""style=""width:400px;height:400px;""></img>",5,html-button-response,123,547465,0.0-14.0-19.0,57085,List2A,black,woman,,TRUE,5,,,,,
null,CORRECT,,html-keyboard-response,124,548982,0.0-14.0-20.0-0.0,57085,List2A,black,woman,,,,null,,,,
1675,"<img src=""portrait/WW2.jpg""style=""width:400px;height:400px;""></img>",3,html-button-response,125,550660,0.0-14.0-22.0,57085,List2A,black,woman,,TRUE,3,,,,,
null,CORRECT,,html-keyboard-response,126,552180,0.0-14.0-23.0-0.0,57085,List2A,black,woman,,,,null,,,,
1616,<p>You got 8 out of 8 right first time. Press Continue.</p>,0,html-button-response,127,553806,0.0-14.0-25.0,57085,List2A,black,woman,,,,,,,,
null,"<div style=""font-size:60px;"">+</div>",,html-keyboard-response,128,555331,0.0-15.0-0.0,57085,List2A,black,woman,,,,null,,,,
null,"<img src=""stim_listA/argue6.gif""</stim_listA>",,html-keyboard-response,129,557343,0.0-15.0-1.0,57085,List2A,black,woman,,,,null,,,,
null,are arguing with each other,,html-keyboard-response,130,559354,0.0-15.0-2.0,57085,List2A,black,woman,,,,null,,,,
10707,,,survey-text,131,570068,0.0-15.0-3.0,57085,List2A,black,woman,,,,,"{""Q0"":""Luke and Mike are arguing with each other.""}","<img src=""stim_listA/argue6.gif""</stim_listA>",are arguing with each other,
null,"<div style=""font-size:60px;"">+</div>",,html-keyboard-response,132,570581,0.0-15.0-0.1,57085,List2A,black,woman,,,,null,,,,
null,"<img src=""stim_listA/shout1.gif""</stim_listA>",,html-keyboard-response,133,572619,0.0-15.0-1.1,57085,List2A,black,woman,,,,null,,,,
null,is shouting at,,html-keyboard-response,134,574636,0.0-15.0-2.1,57085,List2A,black,woman,,,,null,,,,
7987,,,survey-text,135,582626,0.0-15.0-3.1,57085,List2A,black,woman,,,,,"{""Q0"":""Luke is shouting at Ruth.""}","<img src=""stim_listA/shout1.gif""</stim_listA>",is shouting at,
null,"<div style=""font-size:60px;"">+</div>",,html-keyboard-response,136,583139,0.0-15.0-0.2,57085,List2A,black,woman,,,,null,,,,
null,"<img src=""stim_listA/argue1.gif""</stim_listA>",,html-keyboard-response,137,585172,0.0-15.0-1.2,57085,List2A,black,woman,,,,null,,,,
null,is arguing with,,html-keyboard-response,138,587177,0.0-15.0-2.2,57085,List2A,black,woman,,,,null,,,,
10623,,,survey-text,139,597806,0.0-15.0-3.2,57085,List2A,black,woman,,,,,"{""Q0"":""Dave is arguing with Ruth.""}","<img src=""stim_listA/argue1.gif""</stim_listA>",is arguing with,
null,"<div style=""font-size:60px;"">+</div>",,html-keyboard-response,140,598325,0.0-15.0-0.3,57085,List2A,black,woman,,,,null,,,,
null,"<img src=""stim_listA/argue2.gif""</stim_listA>",,html-keyboard-response,141,600362,0.0-15.0-1.3,57085,List2A,black,woman,,,,null,,,,
null,are arguing with each other,,html-keyboard-response,142,602469,0.0-15.0-2.3,57085,List2A,black,woman,,,,null,,,,
12895,,,survey-text,143,615370,0.0-15.0-3.3,57085,List2A,black,woman,,,,,"{""Q0"":""Jane and Luke are arguing with each other.""}","<img src=""stim_listA/argue2.gif""</stim_listA>",are arguing with each other,
null,"<div style=""font-size:60px;"">+</div>",,html-keyboard-response,144,615884,0.0-15.0-0.4,57085,List2A,black,woman,,,,null,,,,
null,"<img src=""stim_listA/argue8.gif""</stim_listA>",,html-keyboard-response,145,617902,0.0-15.0-1.4,57085,List2A,black,woman,,,,null,,,,
null,are arguing with each other,,html-keyboard-response,146,619920,0.0-15.0-2.4,57085,List2A,black,woman,,,,null,,,,
11388,,,survey-text,147,631314,0.0-15.0-3.4,57085,List2A,black,woman,,,,,"{""Q0"":""Kate and Ruth are arguing with each other.""}","<img src=""stim_listA/argue8.gif""</stim_listA>",are arguing with each other,
null,"<div style=""font-size:60px;"">+</div>",,html-keyboard-response,148,631869,0.0-15.0-0.5,57085,List2A,black,woman,,,,null,,,,
null,"<img src=""stim_listA/kiss3.gif""</stim_listA>",,html-keyboard-response,149,633876,0.0-15.0-1.5,57085,List2A,black,woman,,,,null,,,,
null,is kissing,,html-keyboard-response,150,636278,0.0-15.0-2.5,57085,List2A,black,woman,,,,null,,,,
9000,,,survey-text,151,645282,0.0-15.0-3.5,57085,List2A,black,woman,,,,,"{""Q0"":""Beth is Kissing Fred.""}","<img src=""stim_listA/kiss3.gif""</stim_listA>",is kissing,
null,"<div style=""font-size:60px;"">+</div>",,html-keyboard-response,152,645798,0.0-15.0-0.6,57085,List2A,black,woman,,,,null,,,,
null,"<img src=""stim_listA/argue4.gif""</stim_listA>",,html-keyboard-response,153,647831,0.0-15.0-1.6,57085,List2A,black,woman,,,,null,,,,
null,are arguing with each other,,html-keyboard-response,154,649851,0.0-15.0-2.6,57085,List2A,black,woman,,,,null,,,,
16073,,,survey-text,155,665929,0.0-15.0-3.6,57085,List2A,black,woman,,,,,"{""Q0"":""Fred and Kate are arguing with each other.""}","<img src=""stim_listA/argue4.gif""</stim_listA>",are arguing with each other,
null,"<div style=""font-size:60px;"">+</div>",,html-keyboard-response,156,666437,0.0-15.0-0.7,57085,List2A,black,woman,,,,null,,,,
null,"<img src=""stim_listA/fight8.gif""</stim_listA>",,html-keyboard-response,157,668466,0.0-15.0-1.7,57085,List2A,black,woman,,,,null,,,,
null,are fighting each other,,html-keyboard-response,158,670489,0.0-15.0-2.7,57085,List2A,black,woman,,,,null,,,,
11781,,,survey-text,159,682281,0.0-15.0-3.7,57085,List2A,black,woman,,,,,"{""Q0"":""Beth and Ruth are fighting each other.""}","<img src=""stim_listA/fight8.gif""</stim_listA>",are fighting each other,
null,"<div style=""font-size:60px;"">+</div>",,html-keyboard-response,160,682810,0.0-15.0-0.8,57085,List2A,black,woman,,,,null,,,,
null,"<img src=""stim_listA/fight2.gif""</stim_listA>",,html-keyboard-response,161,684827,0.0-15.0-1.8,57085,List2A,black,woman,,,,null,,,,
null,are fighting each other,,html-keyboard-response,162,686844,0.0-15.0-2.8,57085,List2A,black,woman,,,,null,,,,
8833,,,survey-text,163,695686,0.0-15.0-3.8,57085,List2A,black,woman,,,,,"{""Q0"":""Ruth and Luke are fighting each other.""}","<img src=""stim_listA/fight2.gif""</stim_listA>",are fighting each other,
null,"<div style=""font-size:60px;"">+</div>",,html-keyboard-response,164,696206,0.0-15.0-0.9,57085,List2A,black,woman,,,,null,,,,
null,"<img src=""stim_listA/marry1.gif""</stim_listA>",,html-keyboard-response,165,698225,0.0-15.0-1.9,57085,List2A,black,woman,,,,null,,,,
null,is marrying,,html-keyboard-response,166,700228,0.0-15.0-2.9,57085,List2A,black,woman,,,,null,,,,
8250,,,survey-text,167,708486,0.0-15.0-3.9,57085,List2A,black,woman,,,,,"{""Q0"":""Dave is marrying Ruth.""}","<img src=""stim_listA/marry1.gif""</stim_listA>",is marrying,
null,"<div style=""font-size:60px;"">+</div>",,html-keyboard-response,168,709008,0.0-15.0-0.10,57085,List2A,black,woman,,,,null,,,,
null,"<img src=""stim_listA/fight4.gif""</stim_listA>",,html-keyboard-response,169,711017,0.0-15.0-1.10,57085,List2A,black,woman,,,,null,,,,
null,are fighting each other,,html-keyboard-response,170,713057,0.0-15.0-2.10,57085,List2A,black,woman,,,,null,,,,
12945,,,survey-text,171,726006,0.0-15.0-3.10,57085,List2A,black,woman,,,,,"{""Q0"":""Beth and Fred are fighting each other.""}","<img src=""stim_listA/fight4.gif""</stim_listA>",are fighting each other,
null,"<div style=""font-size:60px;"">+</div>",,html-keyboard-response,172,726532,0.0-15.0-0.11,57085,List2A,black,woman,,,,null,,,,
null,"<img src=""stim_listA/argue3.gif""</stim_listA>",,html-keyboard-response,173,728550,0.0-15.0-1.11,57085,List2A,black,woman,,,,null,,,,
null,is arguing with,,html-keyboard-response,174,730559,0.0-15.0-2.11,57085,List2A,black,woman,,,,null,,,,
7824,,,survey-text,175,738388,0.0-15.0-3.11,57085,List2A,black,woman,,,,,"{""Q0"":""Mike is arguing with Beth.""}","<img src=""stim_listA/argue3.gif""</stim_listA>",is arguing with,
null,"<div style=""font-size:60px;"">+</div>",,html-keyboard-response,176,738911,0.0-15.0-0.12,57085,List2A,black,woman,,,,null,,,,
null,"<img src=""stim_listA/dance8.gif""</stim_listA>",,html-keyboard-response,177,740928,0.0-15.0-1.12,57085,List2A,black,woman,,,,null,,,,
null,are dancing with each other,,html-keyboard-response,178,742946,0.0-15.0-2.12,57085,List2A,black,woman,,,,null,,,,
9113,,,survey-text,179,752065,0.0-15.0-3.12,57085,List2A,black,woman,,,,,"{""Q0"":""Jane and Beth are dancing with each other.""}","<img src=""stim_listA/dance8.gif""</stim_listA>",are dancing with each other,
null,"<div style=""font-size:60px;"">+</div>",,html-keyboard-response,180,752581,0.0-15.0-0.13,57085,List2A,black,woman,,,,null,,,,
null,"<img src=""stim_listA/meet3.gif""</stim_listA>",,html-keyboard-response,181,754590,0.0-15.0-1.13,57085,List2A,black,woman,,,,null,,,,
null,is meeting,,html-keyboard-response,182,756593,0.0-15.0-2.13,57085,List2A,black,woman,,,,null,,,,
12752,,,survey-text,183,769348,0.0-15.0-3.13,57085,List2A,black,woman,,,,,"{""Q0"":""Mike is meeting Kate.""}","<img src=""stim_listA/meet3.gif""</stim_listA>",is meeting,
null,"<div style=""font-size:60px;"">+</div>",,html-keyboard-response,184,769858,0.0-15.0-0.14,57085,List2A,black,woman,,,,null,,,,
null,"<img src=""stim_listA/fight1.gif""</stim_listA>",,html-keyboard-response,185,772048,0.0-15.0-1.14,57085,List2A,black,woman,,,,null,,,,
null,is fighting,,html-keyboard-response,186,774061,0.0-15.0-2.14,57085,List2A,black,woman,,,,null,,,,
6375,,,survey-text,187,780439,0.0-15.0-3.14,57085,List2A,black,woman,,,,,"{""Q0"":""Dave is fighting Jane.""}","<img src=""stim_listA/fight1.gif""</stim_listA>",is fighting,
null,"<div style=""font-size:60px;"">+</div>",,html-keyboard-response,188,780955,0.0-15.0-0.15,57085,List2A,black,woman,,,,null,,,,
null,"<img src=""stim_listA/kiss8.gif""</stim_listA>",,html-keyboard-response,189,782973,0.0-15.0-1.15,57085,List2A,black,woman,,,,null,,,,
null,are kissing each other,,html-keyboard-response,190,784991,0.0-15.0-2.15,57085,List2A,black,woman,,,,null,,,,
9381,,,survey-text,191,794375,0.0-15.0-3.15,57085,List2A,black,woman,,,,,"{""Q0"":""Kate and Jane are kissing each other.""}","<img src=""stim_listA/kiss8.gif""</stim_listA>",are kissing each other,
null,"<div style=""font-size:60px;"">+</div>",,html-keyboard-response,192,794887,0.0-15.0-0.16,57085,List2A,black,woman,,,,null,,,,
null,"<img src=""stim_listA/dance7.gif""</stim_listA>",,html-keyboard-response,193,796900,0.0-15.0-1.16,57085,List2A,black,woman,,,,null,,,,
null,is dancing with,,html-keyboard-response,194,798904,0.0-15.0-2.16,57085,List2A,black,woman,,,,null,,,,
9066,,,survey-text,195,807974,0.0-15.0-3.16,57085,List2A,black,woman,,,,,"{""Q0"":""Kate is dancing with Ruth.""}","<img src=""stim_listA/dance7.gif""</stim_listA>",is dancing with,
null,"<div style=""font-size:60px;"">+</div>",,html-keyboard-response,196,808485,0.0-15.0-0.17,57085,List2A,black,woman,,,,null,,,,
null,"<img src=""stim_listA/kiss1.gif""</stim_listA>",,html-keyboard-response,197,810499,0.0-15.0-1.17,57085,List2A,black,woman,,,,null,,,,
null,is kissing,,html-keyboard-response,198,812502,0.0-15.0-2.17,57085,List2A,black,woman,,,,null,,,,
10445,,,survey-text,199,822949,0.0-15.0-3.17,57085,List2A,black,woman,,,,,"{""Q0"":""Luke is kissing Ruth.""}","<img src=""stim_listA/kiss1.gif""</stim_listA>",is kissing,
null,"<div style=""font-size:60px;"">+</div>",,html-keyboard-response,200,823465,0.0-15.0-0.18,57085,List2A,black,woman,,,,null,,,,
null,"<img src=""stim_listA/meet6.gif""</stim_listA>",,html-keyboard-response,201,825481,0.0-15.0-1.18,57085,List2A,black,woman,,,,null,,,,
null,are meeting each other,,html-keyboard-response,202,827483,0.0-15.0-2.18,57085,List2A,black,woman,,,,null,,,,
8939,,,survey-text,203,836430,0.0-15.0-3.18,57085,List2A,black,woman,,,,,"{""Q0"":""Fred and Luke are meeting each other.""}","<img src=""stim_listA/meet6.gif""</stim_listA>",are meeting each other,
null,"<div style=""font-size:60px;"">+</div>",,html-keyboard-response,204,836942,0.0-15.0-0.19,57085,List2A,black,woman,,,,null,,,,
null,"<img src=""stim_listA/shout5.gif""</stim_listA>",,html-keyboard-response,205,838956,0.0-15.0-1.19,57085,List2A,black,woman,,,,null,,,,
null,is shouting at,,html-keyboard-response,206,840960,0.0-15.0-2.19,57085,List2A,black,woman,,,,null,,,,
7771,,,survey-text,207,848732,0.0-15.0-3.19,57085,List2A,black,woman,,,,,"{""Q0"":""Luke is shouting at Fred.""}","<img src=""stim_listA/shout5.gif""</stim_listA>",is shouting at,
4830,"<img src='img/portrait_matrix_list2.JPG' style='width:900px;height:500px;''></img><p>If you have memorised all the portraits and names and are ready to start, press Continue.</p><p><strong>Please note: Your memory of these faces will be tested 4 times during this experiment.</strong></p>",0,html-button-response,208,853572,0.0-16.0-0.0,57085,List2A,black,woman,,,,,,,,
2357,"<img src=""portrait/BM1.jpg""style=""width:400px;height:400px;""></img>",4,html-button-response,209,856943,0.0-16.0-1.0,57085,List2A,black,woman,,TRUE,4,,,,,
null,CORRECT,,html-keyboard-response,210,858471,0.0-16.0-2.0-0.0,57085,List2A,black,woman,,,,null,,,,
1830,"<img src=""portrait/BW2.jpg""style=""width:400px;height:400px;""></img>",2,html-button-response,211,860311,0.0-16.0-4.0,57085,List2A,black,woman,,TRUE,2,,,,,
null,CORRECT,,html-keyboard-response,212,861829,0.0-16.0-5.0-0.0,57085,List2A,black,woman,,,,null,,,,
2000,"<img src=""portrait/BM2.jpg""style=""width:400px;height:400px;""></img>",5,html-button-response,213,863838,0.0-16.0-7.0,57085,List2A,black,woman,,TRUE,5,,,,,
null,CORRECT,,html-keyboard-response,214,865364,0.0-16.0-8.0-0.0,57085,List2A,black,woman,,,,null,,,,
1404,"<img src=""portrait/WW2.jpg""style=""width:400px;height:400px;""></img>",3,html-button-response,215,866773,0.0-16.0-10.0,57085,List2A,black,woman,,TRUE,3,,,,,
null,CORRECT,,html-keyboard-response,216,868298,0.0-16.0-11.0-0.0,57085,List2A,black,woman,,,,null,,,,
2097,"<img src=""portrait/BW1.jpg""style=""width:400px;height:400px;""></img>",0,html-button-response,217,870400,0.0-16.0-13.0,57085,List2A,black,woman,,TRUE,0,,,,,
null,CORRECT,,html-keyboard-response,218,871924,0.0-16.0-14.0-0.0,57085,List2A,black,woman,,,,null,,,,
2766,"<img src=""portrait/WW1.jpg""style=""width:400px;height:400px;""></img>",1,html-button-response,219,874696,0.0-16.0-16.0,57085,List2A,black,woman,,TRUE,1,,,,,
null,CORRECT,,html-keyboard-response,220,876216,0.0-16.0-17.0-0.0,57085,List2A,black,woman,,,,null,,,,
2807,"<img src=""portrait/WM1.jpg""style=""width:400px;height:400px;""></img>",6,html-button-response,221,879029,0.0-16.0-19.0,57085,List2A,black,woman,,TRUE,6,,,,,
null,CORRECT,,html-keyboard-response,222,880547,0.0-16.0-20.0-0.0,57085,List2A,black,woman,,,,null,,,,
1616,"<img src=""portrait/WM2.jpg""style=""width:400px;height:400px;""></img>",7,html-button-response,223,882169,0.0-16.0-22.0,57085,List2A,black,woman,,TRUE,7,,,,,
null,CORRECT,,html-keyboard-response,224,883701,0.0-16.0-23.0-0.0,57085,List2A,black,woman,,,,null,,,,
1497,<p>You got 8 out of 8 right first time. Press Continue.</p>,0,html-button-response,225,885205,0.0-16.0-25.0,57085,List2A,black,woman,,,,,,,,
null,"<div style=""font-size:60px;"">+</div>",,html-keyboard-response,226,886726,0.0-17.0-0.0,57085,List2A,black,woman,,,,null,,,,
null,"<img src=""stim_listA/touch2.gif""</stim_listA>",,html-keyboard-response,227,888744,0.0-17.0-1.0,57085,List2A,black,woman,,,,null,,,,
null,are touching each other,,html-keyboard-response,228,890763,0.0-17.0-2.0,57085,List2A,black,woman,,,,null,,,,
11224,,,survey-text,229,901991,0.0-17.0-3.0,57085,List2A,black,woman,,,,,"{""Q0"":""Ruth and Luke are touching each other.""}","<img src=""stim_listA/touch2.gif""</stim_listA>",are touching each other,
null,"<div style=""font-size:60px;"">+</div>",,html-keyboard-response,230,902515,0.0-17.0-0.1,57085,List2A,black,woman,,,,null,,,,
null,"<img src=""stim_listA/hug5.gif""</stim_listA>",,html-keyboard-response,231,904533,0.0-17.0-1.1,57085,List2A,black,woman,,,,null,,,,
null,is hugging,,html-keyboard-response,232,906537,0.0-17.0-2.1,57085,List2A,black,woman,,,,null,,,,
19352,,,survey-text,233,925897,0.0-17.0-3.1,57085,List2A,black,woman,,,,,"{""Q0"":""Mike is hugging Luke.""}","<img src=""stim_listA/hug5.gif""</stim_listA>",is hugging,
null,"<div style=""font-size:60px;"">+</div>",,html-keyboard-response,234,926408,0.0-17.0-0.2,57085,List2A,black,woman,,,,null,,,,
null,"<img src=""stim_listA/marry7.gif""</stim_listA>",,html-keyboard-response,235,928427,0.0-17.0-1.2,57085,List2A,black,woman,,,,null,,,,
null,is marrying,,html-keyboard-response,236,930449,0.0-17.0-2.2,57085,List2A,black,woman,,,,null,,,,
7640,,,survey-text,237,938096,0.0-17.0-3.2,57085,List2A,black,woman,,,,,"{""Q0"":""Jane is marrying Beth.""}","<img src=""stim_listA/marry7.gif""</stim_listA>",is marrying,
null,"<div style=""font-size:60px;"">+</div>",,html-keyboard-response,238,938615,0.0-17.0-0.3,57085,List2A,black,woman,,,,null,,,,
null,"<img src=""stim_listA/dance6.gif""</stim_listA>",,html-keyboard-response,239,940628,0.0-17.0-1.3,57085,List2A,black,woman,,,,null,,,,
null,are dancing with each other,,html-keyboard-response,240,942631,0.0-17.0-2.3,57085,List2A,black,woman,,,,null,,,,
10625,,,survey-text,241,953260,0.0-17.0-3.3,57085,List2A,black,woman,,,,,"{""Q0"":""Fred and Dave are dancing with each other.""}","<img src=""stim_listA/dance6.gif""</stim_listA>",are dancing with each other,
null,"<div style=""font-size:60px;"">+</div>",,html-keyboard-response,242,953779,0.0-17.0-0.4,57085,List2A,black,woman,,,,null,,,,
null,"<img src=""stim_listA/hug7.gif""</stim_listA>",,html-keyboard-response,243,955797,0.0-17.0-1.4,57085,List2A,black,woman,,,,null,,,,
null,is hugging,,html-keyboard-response,244,957815,0.0-17.0-2.4,57085,List2A,black,woman,,,,null,,,,
9107,,,survey-text,245,966926,0.0-17.0-3.4,57085,List2A,black,woman,,,,,"{""Q0"":""Beth is hugging Ruth.""}","<img src=""stim_listA/hug7.gif""</stim_listA>",is hugging,
null,"<div style=""font-size:60px;"">+</div>",,html-keyboard-response,246,967444,0.0-17.0-0.5,57085,List2A,black,woman,,,,null,,,,
null,"<img src=""stim_listA/dance4.gif""</stim_listA>",,html-keyboard-response,247,969465,0.0-17.0-1.5,57085,List2A,black,woman,,,,null,,,,
null,are dancing with each other,,html-keyboard-response,248,971481,0.0-17.0-2.5,57085,List2A,black,woman,,,,null,,,,
9217,,,survey-text,249,980708,0.0-17.0-3.5,57085,List2A,black,woman,,,,,"{""Q0"":""Beth and Mike are dancing with each other.""}","<img src=""stim_listA/dance4.gif""</stim_listA>",are dancing with each other,
null,"<div style=""font-size:60px;"">+</div>",,html-keyboard-response,250,981225,0.0-17.0-0.6,57085,List2A,black,woman,,,,null,,,,
null,"<img src=""stim_listA/touch8.gif""</stim_listA>",,html-keyboard-response,251,983243,0.0-17.0-1.6,57085,List2A,black,woman,,,,null,,,,
null,are touching each other,,html-keyboard-response,252,985263,0.0-17.0-2.6,57085,List2A,black,woman,,,,null,,,,
13684,,,survey-text,253,998951,0.0-17.0-3.6,57085,List2A,black,woman,,,,,"{""Q0"":""Beth and Ruth are touching each other.""}","<img src=""stim_listA/touch8.gif""</stim_listA>",are touching each other,
null,"<div style=""font-size:60px;"">+</div>",,html-keyboard-response,254,999467,0.0-17.0-0.7,57085,List2A,black,woman,,,,null,,,,
null,"<img src=""stim_listA/dance5.gif""</stim_listA>",,html-keyboard-response,255,1001485,0.0-17.0-1.7,57085,List2A,black,woman,,,,null,,,,
null,is dancing with,,html-keyboard-response,256,1003488,0.0-17.0-2.7,57085,List2A,black,woman,,,,null,,,,
8487,,,survey-text,257,1011977,0.0-17.0-3.7,57085,List2A,black,woman,,,,,"{""Q0"":""Luke is dancing with Mike.""}","<img src=""stim_listA/dance5.gif""</stim_listA>",is dancing with,
null,"<div style=""font-size:60px;"">+</div>",,html-keyboard-response,258,1012497,0.0-17.0-0.8,57085,List2A,black,woman,,,,null,,,,
null,"<img src=""stim_listA/touch7.gif""</stim_listA>",,html-keyboard-response,259,1014511,0.0-17.0-1.8,57085,List2A,black,woman,,,,null,,,,
null,is touching,,html-keyboard-response,260,1016514,0.0-17.0-2.8,57085,List2A,black,woman,,,,null,,,,
7850,,,survey-text,261,1024368,0.0-17.0-3.8,57085,List2A,black,woman,,,,,"{""Q0"":""Jane is touching Kate.""}","<img src=""stim_listA/touch7.gif""</stim_listA>",is touching,
null,"<div style=""font-size:60px;"">+</div>",,html-keyboard-response,262,1024885,0.0-17.0-0.9,57085,List2A,black,woman,,,,null,,,,
null,"<img src=""stim_listA/meet5.gif""</stim_listA>",,html-keyboard-response,263,1026900,0.0-17.0-1.9,57085,List2A,black,woman,,,,null,,,,
null,is meeting,,html-keyboard-response,264,1028903,0.0-17.0-2.9,57085,List2A,black,woman,,,,null,,,,
9443,,,survey-text,265,1038349,0.0-17.0-3.9,57085,List2A,black,woman,,,,,"{""Q0"":""Dave is meeting Mike.""}","<img src=""stim_listA/meet5.gif""</stim_listA>",is meeting,
null,"<div style=""font-size:60px;"">+</div>",,html-keyboard-response,266,1038869,0.0-17.0-0.10,57085,List2A,black,woman,,,,null,,,,
null,"<img src=""stim_listA/kiss6.gif""</stim_listA>",,html-keyboard-response,267,1040882,0.0-17.0-1.10,57085,List2A,black,woman,,,,null,,,,
null,are kissing each other,,html-keyboard-response,268,1042894,0.0-17.0-2.10,57085,List2A,black,woman,,,,null,,,,
8720,,,survey-text,269,1051621,0.0-17.0-3.10,57085,List2A,black,woman,,,,,"{""Q0"":""Dave and Mike are kissing each other.""}","<img src=""stim_listA/kiss6.gif""</stim_listA>",are kissing each other,
null,"<div style=""font-size:60px;"">+</div>",,html-keyboard-response,270,1052143,0.0-17.0-0.11,57085,List2A,black,woman,,,,null,,,,
null,"<img src=""stim_listA/dance1.gif""</stim_listA>",,html-keyboard-response,271,1054160,0.0-17.0-1.11,57085,List2A,black,woman,,,,null,,,,
null,is dancing with,,html-keyboard-response,272,1056163,0.0-17.0-2.11,57085,List2A,black,woman,,,,null,,,,
6936,,,survey-text,273,1063106,0.0-17.0-3.11,57085,List2A,black,woman,,,,,"{""Q0"":""Luke is dancing with Jane.""}","<img src=""stim_listA/dance1.gif""</stim_listA>",is dancing with,
null,"<div style=""font-size:60px;"">+</div>",,html-keyboard-response,274,1063618,0.0-17.0-0.12,57085,List2A,black,woman,,,,null,,,,
null,"<img src=""stim_listA/hug6.gif""</stim_listA>",,html-keyboard-response,275,1065638,0.0-17.0-1.12,57085,List2A,black,woman,,,,null,,,,
null,are hugging each other,,html-keyboard-response,276,1067652,0.0-17.0-2.12,57085,List2A,black,woman,,,,null,,,,
8683,,,survey-text,277,1076341,0.0-17.0-3.12,57085,List2A,black,woman,,,,,"{""Q0"":""Mike and Dave are hugging each other.""}","<img src=""stim_listA/hug6.gif""</stim_listA>",are hugging each other,
null,"<div style=""font-size:60px;"">+</div>",,html-keyboard-response,278,1076854,0.0-17.0-0.13,57085,List2A,black,woman,,,,null,,,,
null,"<img src=""stim_listA/argue5.gif""</stim_listA>",,html-keyboard-response,279,1078861,0.0-17.0-1.13,57085,List2A,black,woman,,,,null,,,,
null,is arguing with,,html-keyboard-response,280,1080870,0.0-17.0-2.13,57085,List2A,black,woman,,,,null,,,,
11285,,,survey-text,281,1092169,0.0-17.0-3.13,57085,List2A,black,woman,,,,,"{""Q0"":""Dave is arguing with Fred.""}","<img src=""stim_listA/argue5.gif""</stim_listA>",is arguing with,
null,"<div style=""font-size:60px;"">+</div>",,html-keyboard-response,282,1092679,0.0-17.0-0.14,57085,List2A,black,woman,,,,null,,,,
null,"<img src=""stim_listA/kiss4.gif""</stim_listA>",,html-keyboard-response,283,1094697,0.0-17.0-1.14,57085,List2A,black,woman,,,,null,,,,
null,are kissing each other,,html-keyboard-response,284,1096719,0.0-17.0-2.14,57085,List2A,black,woman,,,,null,,,,
8438,,,survey-text,285,1105161,0.0-17.0-3.14,57085,List2A,black,woman,,,,,"{""Q0"":""Kate and Mike are kissing each other.""}","<img src=""stim_listA/kiss4.gif""</stim_listA>",are kissing each other,
null,"<div style=""font-size:60px;"">+</div>",,html-keyboard-response,286,1105679,0.0-17.0-0.15,57085,List2A,black,woman,,,,null,,,,
null,"<img src=""stim_listA/shout3.gif""</stim_listA>",,html-keyboard-response,287,1107692,0.0-17.0-1.15,57085,List2A,black,woman,,,,null,,,,
null,is shouting at,,html-keyboard-response,288,1109696,0.0-17.0-2.15,57085,List2A,black,woman,,,,null,,,,
6619,,,survey-text,289,1116319,0.0-17.0-3.15,57085,List2A,black,woman,,,,,"{""Q0"":""Beth is shouting at Fred.""}","<img src=""stim_listA/shout3.gif""</stim_listA>",is shouting at,
null,"<div style=""font-size:60px;"">+</div>",,html-keyboard-response,290,1116823,0.0-17.0-0.16,57085,List2A,black,woman,,,,null,,,,
null,"<img src=""stim_listA/touch5.gif""</stim_listA>",,html-keyboard-response,291,1118839,0.0-17.0-1.16,57085,List2A,black,woman,,,,null,,,,
null,is touching,,html-keyboard-response,292,1120857,0.0-17.0-2.16,57085,List2A,black,woman,,,,null,,,,
7742,,,survey-text,293,1128605,0.0-17.0-3.16,57085,List2A,black,woman,,,,,"{""Q0"":""Dave is touching Mike.""}","<img src=""stim_listA/touch5.gif""</stim_listA>",is touching,
null,"<div style=""font-size:60px;"">+</div>",,html-keyboard-response,294,1129118,0.0-17.0-0.17,57085,List2A,black,woman,,,,null,,,,
null,"<img src=""stim_listA/talk8.gif""</stim_listA>",,html-keyboard-response,295,1131134,0.0-17.0-1.17,57085,List2A,black,woman,,,,null,,,,
null,are talking to each other,,html-keyboard-response,296,1133137,0.0-17.0-2.17,57085,List2A,black,woman,,,,null,,,,
10668,,,survey-text,297,1143811,0.0-17.0-3.17,57085,List2A,black,woman,,,,,"{""Q0"":""Beth and Jane are talking to each other.""}","<img src=""stim_listA/talk8.gif""</stim_listA>",are talking to each other,
null,"<div style=""font-size:60px;"">+</div>",,html-keyboard-response,298,1144324,0.0-17.0-0.18,57085,List2A,black,woman,,,,null,,,,
null,"<img src=""stim_listA/kiss5.gif""</stim_listA>",,html-keyboard-response,299,1146352,0.0-17.0-1.18,57085,List2A,black,woman,,,,null,,,,
null,is kissing,,html-keyboard-response,300,1148367,0.0-17.0-2.18,57085,List2A,black,woman,,,,null,,,,
5796,,,survey-text,301,1154170,0.0-17.0-3.18,57085,List2A,black,woman,,,,,"{""Q0"":""Luke is kissing Fred.""}","<img src=""stim_listA/kiss5.gif""</stim_listA>",is kissing,
null,"<div style=""font-size:60px;"">+</div>",,html-keyboard-response,302,1154691,0.0-17.0-0.19,57085,List2A,black,woman,,,,null,,,,
null,"<img src=""stim_listA/meet4.gif""</stim_listA>",,html-keyboard-response,303,1156704,0.0-17.0-1.19,57085,List2A,black,woman,,,,null,,,,
null,are meeting each other,,html-keyboard-response,304,1158706,0.0-17.0-2.19,57085,List2A,black,woman,,,,null,,,,
8695,,,survey-text,305,1167409,0.0-17.0-3.19,57085,List2A,black,woman,,,,,"{""Q0"":""Beth and Fred are meeting each other.""}","<img src=""stim_listA/meet4.gif""</stim_listA>",are meeting each other,
39871,"<img src='img/portrait_matrix_list2.JPG' style='width:900px;height:500px;''></img><p>If you have memorised all the portraits and names and are ready to start, press Continue.</p><p><strong>Please note: Your memory of these faces will be tested 4 times during this experiment.</strong></p>",0,html-button-response,306,1207289,0.0-18.0-0.0,57085,List2A,black,woman,,,,,,,,
7757,"<img src=""portrait/BM1.jpg""style=""width:400px;height:400px;""></img>",4,html-button-response,307,1216062,0.0-18.0-1.0,57085,List2A,black,woman,,TRUE,4,,,,,
null,CORRECT,,html-keyboard-response,308,1217589,0.0-18.0-2.0-0.0,57085,List2A,black,woman,,,,null,,,,
1923,"<img src=""portrait/WW1.jpg""style=""width:400px;height:400px;""></img>",1,html-button-response,309,1219524,0.0-18.0-4.0,57085,List2A,black,woman,,TRUE,1,,,,,
null,CORRECT,,html-keyboard-response,310,1221050,0.0-18.0-5.0-0.0,57085,List2A,black,woman,,,,null,,,,
3409,"<img src=""portrait/WM1.jpg""style=""width:400px;height:400px;""></img>",6,html-button-response,311,1224474,0.0-18.0-7.0,57085,List2A,black,woman,,TRUE,6,,,,,
null,CORRECT,,html-keyboard-response,312,1226011,0.0-18.0-8.0-0.0,57085,List2A,black,woman,,,,null,,,,
1958,"<img src=""portrait/BW1.jpg""style=""width:400px;height:400px;""></img>",0,html-button-response,313,1227977,0.0-18.0-10.0,57085,List2A,black,woman,,TRUE,0,,,,,
null,CORRECT,,html-keyboard-response,314,1229512,0.0-18.0-11.0-0.0,57085,List2A,black,woman,,,,null,,,,
2122,"<img src=""portrait/BW2.jpg""style=""width:400px;height:400px;""></img>",2,html-button-response,315,1231654,0.0-18.0-13.0,57085,List2A,black,woman,,TRUE,2,,,,,
null,CORRECT,,html-keyboard-response,316,1233180,0.0-18.0-14.0-0.0,57085,List2A,black,woman,,,,null,,,,
3417,"<img src=""portrait/WM2.jpg""style=""width:400px;height:400px;""></img>",7,html-button-response,317,1236606,0.0-18.0-16.0,57085,List2A,black,woman,,TRUE,7,,,,,
null,CORRECT,,html-keyboard-response,318,1238133,0.0-18.0-17.0-0.0,57085,List2A,black,woman,,,,null,,,,
1988,"<img src=""portrait/WW2.jpg""style=""width:400px;height:400px;""></img>",3,html-button-response,319,1240128,0.0-18.0-19.0,57085,List2A,black,woman,,TRUE,3,,,,,
null,CORRECT,,html-keyboard-response,320,1241649,0.0-18.0-20.0-0.0,57085,List2A,black,woman,,,,null,,,,
3244,"<img src=""portrait/BM2.jpg""style=""width:400px;height:400px;""></img>",5,html-button-response,321,1244898,0.0-18.0-22.0,57085,List2A,black,woman,,TRUE,5,,,,,
null,CORRECT,,html-keyboard-response,322,1246418,0.0-18.0-23.0-0.0,57085,List2A,black,woman,,,,null,,,,
2386,<p>You got 8 out of 8 right first time. Press Continue.</p>,0,html-button-response,323,1248844,0.0-18.0-25.0,57085,List2A,black,woman,,,,,,,,
null,"<div style=""font-size:60px;"">+</div>",,html-keyboard-response,324,1250395,0.0-19.0-0.0,57085,List2A,black,woman,,,,null,,,,
null,"<img src=""stim_listA/marry3.gif""</stim_listA>",,html-keyboard-response,325,1252414,0.0-19.0-1.0,57085,List2A,black,woman,,,,null,,,,
null,is marrying,,html-keyboard-response,326,1254426,0.0-19.0-2.0,57085,List2A,black,woman,,,,null,,,,
8568,,,survey-text,327,1262999,0.0-19.0-3.0,57085,List2A,black,woman,,,,,"{""Q0"":""Mike is marrying Beth.""}","<img src=""stim_listA/marry3.gif""</stim_listA>",is marrying,
null,"<div style=""font-size:60px;"">+</div>",,html-keyboard-response,328,1263522,0.0-19.0-0.1,57085,List2A,black,woman,,,,null,,,,
null,"<img src=""stim_listA/talk2.gif""</stim_listA>",,html-keyboard-response,329,1265552,0.0-19.0-1.1,57085,List2A,black,woman,,,,null,,,,
null,are talking to each other,,html-keyboard-response,330,1267558,0.0-19.0-2.1,57085,List2A,black,woman,,,,null,,,,
12556,,,survey-text,331,1280118,0.0-19.0-3.1,57085,List2A,black,woman,,,,,"{""Q0"":""Ruth and Dave are talking to each other.""}","<img src=""stim_listA/talk2.gif""</stim_listA>",are talking to each other,
null,"<div style=""font-size:60px;"">+</div>",,html-keyboard-response,332,1280631,0.0-19.0-0.2,57085,List2A,black,woman,,,,null,,,,
null,"<img src=""stim_listA/touch1.gif""</stim_listA>",,html-keyboard-response,333,1282650,0.0-19.0-1.2,57085,List2A,black,woman,,,,null,,,,
null,is touching,,html-keyboard-response,334,1284664,0.0-19.0-2.2,57085,List2A,black,woman,,,,null,,,,
7027,,,survey-text,335,1291697,0.0-19.0-3.2,57085,List2A,black,woman,,,,,"{""Q0"":""Dave is touching Jane.""}","<img src=""stim_listA/touch1.gif""</stim_listA>",is touching,
null,"<div style=""font-size:60px;"">+</div>",,html-keyboard-response,336,1292229,0.0-19.0-0.3,57085,List2A,black,woman,,,,null,,,,
null,"<img src=""stim_listA/marry2.gif""</stim_listA>",,html-keyboard-response,337,1294247,0.0-19.0-1.3,57085,List2A,black,woman,,,,null,,,,
null,are marrying each other,,html-keyboard-response,338,1296267,0.0-19.0-2.3,57085,List2A,black,woman,,,,null,,,,
12124,,,survey-text,339,1308399,0.0-19.0-3.3,57085,List2A,black,woman,,,,,"{""Q0"":""Jane and Luke are marrying each other.""}","<img src=""stim_listA/marry2.gif""</stim_listA>",are marrying each other,
null,"<div style=""font-size:60px;"">+</div>",,html-keyboard-response,340,1308917,0.0-19.0-0.4,57085,List2A,black,woman,,,,null,,,,
null,"<img src=""stim_listA/fight7.gif""</stim_listA>",,html-keyboard-response,341,1310936,0.0-19.0-1.4,57085,List2A,black,woman,,,,null,,,,
null,is fighting,,html-keyboard-response,342,1312939,0.0-19.0-2.4,57085,List2A,black,woman,,,,null,,,,
6493,,,survey-text,343,1319434,0.0-19.0-3.4,57085,List2A,black,woman,,,,,"{""Q0"":""Jane is fighting Kate.""}","<img src=""stim_listA/fight7.gif""</stim_listA>",is fighting,
null,"<div style=""font-size:60px;"">+</div>",,html-keyboard-response,344,1319943,0.0-19.0-0.5,57085,List2A,black,woman,,,,null,,,,
null,"<img src=""stim_listA/talk3.gif""</stim_listA>",,html-keyboard-response,345,1321959,0.0-19.0-1.5,57085,List2A,black,woman,,,,null,,,,
null,is talking to,,html-keyboard-response,346,1323978,0.0-19.0-2.5,57085,List2A,black,woman,,,,null,,,,
6540,,,survey-text,347,1330523,0.0-19.0-3.5,57085,List2A,black,woman,,,,,"{""Q0"":""Kate is talking to Fred.""}","<img src=""stim_listA/talk3.gif""</stim_listA>",is talking to,
null,"<div style=""font-size:60px;"">+</div>",,html-keyboard-response,348,1331041,0.0-19.0-0.6,57085,List2A,black,woman,,,,null,,,,
null,"<img src=""stim_listA/marry6.gif""</stim_listA>",,html-keyboard-response,349,1333060,0.0-19.0-1.6,57085,List2A,black,woman,,,,null,,,,
null,are marrying each other,,html-keyboard-response,350,1335062,0.0-19.0-2.6,57085,List2A,black,woman,,,,null,,,,
10959,,,survey-text,351,1346024,0.0-19.0-3.6,57085,List2A,black,woman,,,,,"{""Q0"":""Mike is marrying Luke.""}","<img src=""stim_listA/marry6.gif""</stim_listA>",are marrying each other,
null,"<div style=""font-size:60px;"">+</div>",,html-keyboard-response,352,1346536,0.0-19.0-0.7,57085,List2A,black,woman,,,,null,,,,
null,"<img src=""stim_listA/talk7.gif""</stim_listA>",,html-keyboard-response,353,1348555,0.0-19.0-1.7,57085,List2A,black,woman,,,,null,,,,
null,is talking to,,html-keyboard-response,354,1350574,0.0-19.0-2.7,57085,List2A,black,woman,,,,null,,,,
15025,,,survey-text,355,1365602,0.0-19.0-3.7,57085,List2A,black,woman,,,,,"{""Q0"":""Kate is marrying Ruth.""}","<img src=""stim_listA/talk7.gif""</stim_listA>",is talking to,
null,"<div style=""font-size:60px;"">+</div>",,html-keyboard-response,356,1366119,0.0-19.0-0.8,57085,List2A,black,woman,,,,null,,,,
null,"<img src=""stim_listA/meet2.gif""</stim_listA>",,html-keyboard-response,357,1368132,0.0-19.0-1.8,57085,List2A,black,woman,,,,null,,,,
null,are meeting each other,,html-keyboard-response,358,1370134,0.0-19.0-2.8,57085,List2A,black,woman,,,,null,,,,
9623,,,survey-text,359,1379760,0.0-19.0-3.8,57085,List2A,black,woman,,,,,"{""Q0"":""Ruth and Luke are meeting each other.""}","<img src=""stim_listA/meet2.gif""</stim_listA>",are meeting each other,
null,"<div style=""font-size:60px;"">+</div>",,html-keyboard-response,360,1380274,0.0-19.0-0.9,57085,List2A,black,woman,,,,null,,,,
null,"<img src=""stim_listA/fight6.gif""</stim_listA>",,html-keyboard-response,361,1382298,0.0-19.0-1.9,57085,List2A,black,woman,,,,null,,,,
null,are fighting each other,,html-keyboard-response,362,1384307,0.0-19.0-2.9,57085,List2A,black,woman,,,,null,,,,
11238,,,survey-text,363,1395553,0.0-19.0-3.9,57085,List2A,black,woman,,,,,"{""Q0"":""Fred and Luke are fighting each other.""}","<img src=""stim_listA/fight6.gif""</stim_listA>",are fighting each other,
null,"<div style=""font-size:60px;"">+</div>",,html-keyboard-response,364,1396076,0.0-19.0-0.10,57085,List2A,black,woman,,,,null,,,,
null,"<img src=""stim_listA/hug1.gif""</stim_listA>",,html-keyboard-response,365,1398108,0.0-19.0-1.10,57085,List2A,black,woman,,,,null,,,,
null,is hugging,,html-keyboard-response,366,1400125,0.0-19.0-2.10,57085,List2A,black,woman,,,,null,,,,
10680,,,survey-text,367,1410813,0.0-19.0-3.10,57085,List2A,black,woman,,,,,"{""Q0"":""Luke is hugging Ruth.""}","<img src=""stim_listA/hug1.gif""</stim_listA>",is hugging,
null,"<div style=""font-size:60px;"">+</div>",,html-keyboard-response,368,1411329,0.0-19.0-0.11,57085,List2A,black,woman,,,,null,,,,
null,"<img src=""stim_listA/talk4.gif""</stim_listA>",,html-keyboard-response,369,1413336,0.0-19.0-1.11,57085,List2A,black,woman,,,,null,,,,
null,are talking to each other,,html-keyboard-response,370,1415355,0.0-19.0-2.11,57085,List2A,black,woman,,,,null,,,,
9579,,,survey-text,371,1424938,0.0-19.0-3.11,57085,List2A,black,woman,,,,,"{""Q0"":""Beth and Mike are talking to each other.""}","<img src=""stim_listA/talk4.gif""</stim_listA>",are talking to each other,
null,"<div style=""font-size:60px;"">+</div>",,html-keyboard-response,372,1425452,0.0-19.0-0.12,57085,List2A,black,woman,,,,null,,,,
null,"<img src=""stim_listA/shout2.gif""</stim_listA>",,html-keyboard-response,373,1427466,0.0-19.0-1.12,57085,List2A,black,woman,,,,null,,,,
null,are shouting at each other,,html-keyboard-response,374,1429483,0.0-19.0-2.12,57085,List2A,black,woman,,,,null,,,,
9381,,,survey-text,375,1438870,0.0-19.0-3.12,57085,List2A,black,woman,,,,,"{""Q0"":""Jane and Dave are shouting at each other.""}","<img src=""stim_listA/shout2.gif""</stim_listA>",are shouting at each other,
null,"<div style=""font-size:60px;"">+</div>",,html-keyboard-response,376,1439385,0.0-19.0-0.13,57085,List2A,black,woman,,,,null,,,,
null,"<img src=""stim_listA/shout8.gif""</stim_listA>",,html-keyboard-response,377,1441403,0.0-19.0-1.13,57085,List2A,black,woman,,,,null,,,,
null,are shouting at each other,,html-keyboard-response,378,1443411,0.0-19.0-2.13,57085,List2A,black,woman,,,,null,,,,
10139,,,survey-text,379,1453552,0.0-19.0-3.13,57085,List2A,black,woman,,,,,"{""Q0"":""Kate and Jane are shouting at each other.""}","<img src=""stim_listA/shout8.gif""</stim_listA>",are shouting at each other,
null,"<div style=""font-size:60px;"">+</div>",,html-keyboard-response,380,1454060,0.0-19.0-0.14,57085,List2A,black,woman,,,,null,,,,
null,"<img src=""stim_listA/fight5.gif""</stim_listA>",,html-keyboard-response,381,1456074,0.0-19.0-1.14,57085,List2A,black,woman,,,,null,,,,
null,is fighting,,html-keyboard-response,382,1458079,0.0-19.0-2.14,57085,List2A,black,woman,,,,null,,,,
6213,,,survey-text,383,1464299,0.0-19.0-3.14,57085,List2A,black,woman,,,,,"{""Q0"":""Dave is fighting Mike.""}","<img src=""stim_listA/fight5.gif""</stim_listA>",is fighting,
null,"<div style=""font-size:60px;"">+</div>",,html-keyboard-response,384,1464815,0.0-19.0-0.15,57085,List2A,black,woman,,,,null,,,,
null,"<img src=""stim_listA/talk5.gif""</stim_listA>",,html-keyboard-response,385,1466839,0.0-19.0-1.15,57085,List2A,black,woman,,,,null,,,,
null,is talking to,,html-keyboard-response,386,1468853,0.0-19.0-2.15,57085,List2A,black,woman,,,,null,,,,
6647,,,survey-text,387,1475508,0.0-19.0-3.15,57085,List2A,black,woman,,,,,"{""Q0"":""Luke is talking to Mike.""}","<img src=""stim_listA/talk5.gif""</stim_listA>",is talking to,
null,"<div style=""font-size:60px;"">+</div>",,html-keyboard-response,388,1476023,0.0-19.0-0.16,57085,List2A,black,woman,,,,null,,,,
null,"<img src=""stim_listA/dance2.gif""</stim_listA>",,html-keyboard-response,389,1478046,0.0-19.0-1.16,57085,List2A,black,woman,,,,null,,,,
null,are dancing with each other,,html-keyboard-response,390,1480059,0.0-19.0-2.16,57085,List2A,black,woman,,,,null,,,,
11072,,,survey-text,391,1491134,0.0-19.0-3.16,57085,List2A,black,woman,,,,,"{""Q0"":""Ruth and Dave are dancing with each other.""}","<img src=""stim_listA/dance2.gif""</stim_listA>",are dancing with each other,
null,"<div style=""font-size:60px;"">+</div>",,html-keyboard-response,392,1491648,0.0-19.0-0.17,57085,List2A,black,woman,,,,null,,,,
null,"<img src=""stim_listA/dance3.gif""</stim_listA>",,html-keyboard-response,393,1493665,0.0-19.0-1.17,57085,List2A,black,woman,,,,null,,,,
null,is dancing with,,html-keyboard-response,394,1495682,0.0-19.0-2.17,57085,List2A,black,woman,,,,null,,,,
9190,,,survey-text,395,1504875,0.0-19.0-3.17,57085,List2A,black,woman,,,,,"{""Q0"":""Kate is dancing with Fred.""}","<img src=""stim_listA/dance3.gif""</stim_listA>",is dancing with,
null,"<div style=""font-size:60px;"">+</div>",,html-keyboard-response,396,1505383,0.0-19.0-0.18,57085,List2A,black,woman,,,,null,,,,
null,"<img src=""stim_listA/hug2.gif""</stim_listA>",,html-keyboard-response,397,1507398,0.0-19.0-1.18,57085,List2A,black,woman,,,,null,,,,
null,are hugging each other,,html-keyboard-response,398,1509400,0.0-19.0-2.18,57085,List2A,black,woman,,,,null,,,,
13830,,,survey-text,399,1523234,0.0-19.0-3.18,57085,List2A,black,woman,,,,,"{""Q0"":""Jane and Dave are hugging each other.""}","<img src=""stim_listA/hug2.gif""</stim_listA>",are hugging each other,
null,"<div style=""font-size:60px;"">+</div>",,html-keyboard-response,400,1523750,0.0-19.0-0.19,57085,List2A,black,woman,,,,null,,,,
null,"<img src=""stim_listA/hug8.gif""</stim_listA>",,html-keyboard-response,401,1525763,0.0-19.0-1.19,57085,List2A,black,woman,,,,null,,,,
null,are hugging each other,,html-keyboard-response,402,1527766,0.0-19.0-2.19,57085,List2A,black,woman,,,,null,,,,
7968,,,survey-text,403,1535735,0.0-19.0-3.19,57085,List2A,black,woman,,,,,"{""Q0"":""Kate and Jane are hugging each other.""}","<img src=""stim_listA/hug8.gif""</stim_listA>",are hugging each other,
2160,<p>Thank you for completing that task.</p><p>The final part of this session is a short questionnaire.</p><p>Press Continue.</p>,0,html-button-response,404,1537902,0.0-20.0,57085,List2A,black,woman,,,,,,,,
27525,,,survey-text,405,1566443,0.0-21.0,57085,List2A,black,woman,,,,,"{""Q0"":""41"",""Q1"":""English"",""Q2"":""English"",""Q3"":""England"",""Q4"":""Black British"",""Q5"":""Female""}",,,demographics
70571,,,survey-likert,406,1637048,0.0-22.0,57085,List2A,black,woman,,,,,"{""Q0"":4,""Q1"":5,""Q2"":5,""Q3"":5,""Q4"":5,""Q5"":2,""Q6"":3,""Q7"":4,""Q8"":3,""Q9"":4,""Q10"":2,""Q11"":2,""Q12"":2,""Q13"":1}",,,likert_race
77430,,,survey-likert,407,1714515,0.0-23.0,57085,List2A,black,woman,,,,,"{""Q0"":4,""Q1"":5,""Q2"":5,""Q3"":5,""Q4"":5,""Q5"":3,""Q6"":4,""Q7"":2,""Q8"":4,""Q9"":4,""Q10"":4,""Q11"":3,""Q12"":1,""Q13"":1}",,,likert_gender
14924,,,survey-text,408,1729476,0.0-24.0,57085,List2A,black,woman,,,,,"{""Q0"":""ccc""}",,,worker_id
44387,,,external-html,409,1774017,0.0-25.0,57085,List2A,black,woman,debrief.html,,,,,,,
