rt,stimulus,button_pressed,trial_type,trial_index,time_elapsed,internal_node_id,subject,list,ppt_race,ppt_gender,url,first_guess,correct,key_press,responses,image_type,phrase_type,test_part
1911,Welcome to the experiment. Press Continue to begin.,0,html-button-response,0,1914,0.0-0.0,57828,List2B,white,woman,,,,,,,,
85708,,,external-html,1,88854,0.0-1.0,57828,List2B,white,woman,consent.html,,,,,,,
8141,"<p>On the next page, you will see portraits of 8 people and their names.</p><p>Your first task is to take a few minutes to memorise the names of these people.</p><p>You will have to recall their names during the rest of the experiment, so it is</p><p>essential that you try to memorise these people and their names as best as you can.</p><br><p><strong>You will then be tested on your memory of these names and portraits.</strong></p><br><p>The experiment will start after you have completed this memory test.</p><br><p>Ready?</p>",0,html-button-response,2,96997,0.0-2.0,57828,List2B,white,woman,,,,,,,,
113461,"<img src='img/portrait_matrix_list2.JPG' style='width:900px;height:500px;''></img><p>If you have memorised all the portraits and names and are ready to start, press Continue.</p><p><strong>Please note: Your memory of these faces will be tested 4 times during this experiment.</strong></p>",0,html-button-response,3,211461,0.0-3.0-0.0,57828,List2B,white,woman,,,,,,,,
5582,"<img src=""portrait/BM2.jpg""style=""width:400px;height:400px;""></img>",5,html-button-response,4,218049,0.0-3.0-1.0,57828,List2B,white,woman,,TRUE,5,,,,,
null,CORRECT,,html-keyboard-response,5,219563,0.0-3.0-2.0-0.0,57828,List2B,white,woman,,,,null,,,,
1868,"<img src=""portrait/WM1.jpg""style=""width:400px;height:400px;""></img>",6,html-button-response,6,221434,0.0-3.0-4.0,57828,List2B,white,woman,,TRUE,6,,,,,
null,CORRECT,,html-keyboard-response,7,222937,0.0-3.0-5.0-0.0,57828,List2B,white,woman,,,,null,,,,
5013,"<img src=""portrait/WM2.jpg""style=""width:400px;height:400px;""></img>",7,html-button-response,8,227953,0.0-3.0-7.0,57828,List2B,white,woman,,TRUE,7,,,,,
null,CORRECT,,html-keyboard-response,9,229460,0.0-3.0-8.0-0.0,57828,List2B,white,woman,,,,null,,,,
2271,"<img src=""portrait/BW2.jpg""style=""width:400px;height:400px;""></img>",2,html-button-response,10,231733,0.0-3.0-10.0,57828,List2B,white,woman,,TRUE,2,,,,,
null,CORRECT,,html-keyboard-response,11,233241,0.0-3.0-11.0-0.0,57828,List2B,white,woman,,,,null,,,,
1683,"<img src=""portrait/BM1.jpg""style=""width:400px;height:400px;""></img>",4,html-button-response,12,234927,0.0-3.0-13.0,57828,List2B,white,woman,,TRUE,4,,,,,
null,CORRECT,,html-keyboard-response,13,236436,0.0-3.0-14.0-0.0,57828,List2B,white,woman,,,,null,,,,
5522,"<img src=""portrait/WW2.jpg""style=""width:400px;height:400px;""></img>",3,html-button-response,14,241961,0.0-3.0-16.0,57828,List2B,white,woman,,TRUE,3,,,,,
null,CORRECT,,html-keyboard-response,15,243466,0.0-3.0-17.0-0.0,57828,List2B,white,woman,,,,null,,,,
7946,"<img src=""portrait/BW1.jpg""style=""width:400px;height:400px;""></img>",0,html-button-response,16,251414,0.0-3.0-19.0,57828,List2B,white,woman,,TRUE,0,,,,,
null,CORRECT,,html-keyboard-response,17,252919,0.0-3.0-20.0-0.0,57828,List2B,white,woman,,,,null,,,,
1814,"<img src=""portrait/WW1.jpg""style=""width:400px;height:400px;""></img>",1,html-button-response,18,254736,0.0-3.0-22.0,57828,List2B,white,woman,,TRUE,1,,,,,
null,CORRECT,,html-keyboard-response,19,256244,0.0-3.0-23.0-0.0,57828,List2B,white,woman,,,,null,,,,
1524,<p>You got 8 out of 8 right first time. Press Continue.</p>,0,html-button-response,20,257771,0.0-3.0-25.0,57828,List2B,white,woman,,,,,,,,
44511,"<p>In this experiment, you will view photographs of the people from the memory game interacting.</p><p>By using the <strong>exact</strong> phrase given <i>after</i> the photograph appears and recalling the correct names of the people in the photographs, form a sentence describing the interaction. You do not need to capitalise names.</p><p>Type your answer in the space provided. Please complete every sentence before moving onto the next trial.</p><p>You will only have a few seconds to memorise each given photograph and phrase before you can respond, so try your best to focus.</p><p>An example is given below. Press 'Continue' when you are ready.</p><img src='img/speaking_example_v2.jpg' style='width:800px;height:460px;''></img>",0,html-button-response,21,303292,0.0-4.0,57828,List2B,white,woman,,,,,,,,
2316,"<p>Before the experiment starts, you will watch two example trials. Press 'Continue'.</p>",0,html-button-response,22,306613,0.0-5.0,57828,List2B,white,woman,,,,,,,,
null,<img src='img/speaking_WW.gif'></img>,,html-keyboard-response,23,309621,0.0-6.0,57828,List2B,white,woman,,,,null,,,,
null,<p>is speaking to</p>,,html-keyboard-response,24,311631,0.0-7.0,57828,List2B,white,woman,,,,null,,,,
7092,<p><b>Answer:</b> jane is speaking to ruth</p>,0,html-button-response,25,318724,0.0-8.0,57828,List2B,white,woman,,,,,,,,
null,<img src='img/pointing_BM.gif'></img>,,html-keyboard-response,26,321731,0.0-9.0,57828,List2B,white,woman,,,,null,,,,
null,<p>are pointing at each other</p>,,html-keyboard-response,27,323734,0.0-10.0,57828,List2B,white,woman,,,,null,,,,
1539,<p><b>Answer:</b> fred and mike are pointing at each other</p>,0,html-button-response,28,325274,0.0-11.0,57828,List2B,white,woman,,,,,,,,
4678,"<p>Ready to start the experiment?</p><br><p><strong>Remember to describe the picture using a full sentence,</strong></p><p><strong>that combines the names of the people with the given phrase.</strong></p><p><strong>If you do not do this correctly you will not be paid.</strong></p><p><strong> You do not need to capitalise names or use punctuation.</strong></p><br><p>Press 'Continue' to begin.</p>",0,html-button-response,29,330957,0.0-12.0,57828,List2B,white,woman,,,,,,,,
null,"<div style=""font-size:60px;"">+</div>",,html-keyboard-response,30,332463,0.0-13.0-0.0,57828,List2B,white,woman,,,,null,,,,
null,"<img src=""stim_listB/shout2.gif""</stim_listB>",,html-keyboard-response,31,334476,0.0-13.0-1.0,57828,List2B,white,woman,,,,null,,,,
null,are shouting at each other,,html-keyboard-response,32,336480,0.0-13.0-2.0,57828,List2B,white,woman,,,,null,,,,
12954,,,survey-text,33,349438,0.0-13.0-3.0,57828,List2B,white,woman,,,,,"{""Q0"":""dave and jane are arguing""}","<img src=""stim_listB/shout2.gif""</stim_listB>",are shouting at each other,
null,"<div style=""font-size:60px;"">+</div>",,html-keyboard-response,34,349943,0.0-13.0-0.1,57828,List2B,white,woman,,,,null,,,,
null,"<img src=""stim_listB/hug4.gif""</stim_listB>",,html-keyboard-response,35,351949,0.0-13.0-1.1,57828,List2B,white,woman,,,,null,,,,
null,are hugging each other,,html-keyboard-response,36,353952,0.0-13.0-2.1,57828,List2B,white,woman,,,,null,,,,
8733,,,survey-text,37,362687,0.0-13.0-3.1,57828,List2B,white,woman,,,,,"{""Q0"":""kate and mike are hugging each other""}","<img src=""stim_listB/hug4.gif""</stim_listB>",are hugging each other,
null,"<div style=""font-size:60px;"">+</div>",,html-keyboard-response,38,363191,0.0-13.0-0.2,57828,List2B,white,woman,,,,null,,,,
null,"<img src=""stim_listB/dance2.gif""</stim_listB>",,html-keyboard-response,39,365196,0.0-13.0-1.2,57828,List2B,white,woman,,,,null,,,,
null,are dancing with each other,,html-keyboard-response,40,367200,0.0-13.0-2.2,57828,List2B,white,woman,,,,null,,,,
11520,,,survey-text,41,378722,0.0-13.0-3.2,57828,List2B,white,woman,,,,,"{""Q0"":""dave and ruth are dancing with each other""}","<img src=""stim_listB/dance2.gif""</stim_listB>",are dancing with each other,
null,"<div style=""font-size:60px;"">+</div>",,html-keyboard-response,42,379226,0.0-13.0-0.3,57828,List2B,white,woman,,,,null,,,,
null,"<img src=""stim_listB/touch5.gif""</stim_listB>",,html-keyboard-response,43,381234,0.0-13.0-1.3,57828,List2B,white,woman,,,,null,,,,
null,is touching,,html-keyboard-response,44,383242,0.0-13.0-2.3,57828,List2B,white,woman,,,,null,,,,
6273,,,survey-text,45,389515,0.0-13.0-3.3,57828,List2B,white,woman,,,,,"{""Q0"":""mike is touching dave""}","<img src=""stim_listB/touch5.gif""</stim_listB>",is touching,
null,"<div style=""font-size:60px;"">+</div>",,html-keyboard-response,46,390019,0.0-13.0-0.4,57828,List2B,white,woman,,,,null,,,,
null,"<img src=""stim_listB/kiss2.gif""</stim_listB>",,html-keyboard-response,47,392021,0.0-13.0-1.4,57828,List2B,white,woman,,,,null,,,,
null,are kissing each other,,html-keyboard-response,48,394024,0.0-13.0-2.4,57828,List2B,white,woman,,,,null,,,,
10800,,,survey-text,49,404826,0.0-13.0-3.4,57828,List2B,white,woman,,,,,"{""Q0"":""dave and jane are kissing each other""}","<img src=""stim_listB/kiss2.gif""</stim_listB>",are kissing each other,
null,"<div style=""font-size:60px;"">+</div>",,html-keyboard-response,50,405327,0.0-13.0-0.5,57828,List2B,white,woman,,,,null,,,,
null,"<img src=""stim_listB/fight8.gif""</stim_listB>",,html-keyboard-response,51,407332,0.0-13.0-1.5,57828,List2B,white,woman,,,,null,,,,
null,are fighting each other,,html-keyboard-response,52,409337,0.0-13.0-2.5,57828,List2B,white,woman,,,,null,,,,
9588,,,survey-text,53,418927,0.0-13.0-3.5,57828,List2B,white,woman,,,,,"{""Q0"":""ruth and beth are fighting each other""}","<img src=""stim_listB/fight8.gif""</stim_listB>",are fighting each other,
null,"<div style=""font-size:60px;"">+</div>",,html-keyboard-response,54,419429,0.0-13.0-0.6,57828,List2B,white,woman,,,,null,,,,
null,"<img src=""stim_listB/fight3.gif""</stim_listB>",,html-keyboard-response,55,421435,0.0-13.0-1.6,57828,List2B,white,woman,,,,null,,,,
null,is fighting,,html-keyboard-response,56,423437,0.0-13.0-2.6,57828,List2B,white,woman,,,,null,,,,
5541,,,survey-text,57,428980,0.0-13.0-3.6,57828,List2B,white,woman,,,,,"{""Q0"":""kate is fighting mike""}","<img src=""stim_listB/fight3.gif""</stim_listB>",is fighting,
null,"<div style=""font-size:60px;"">+</div>",,html-keyboard-response,58,429482,0.0-13.0-0.7,57828,List2B,white,woman,,,,null,,,,
null,"<img src=""stim_listB/argue4.gif""</stim_listB>",,html-keyboard-response,59,431498,0.0-13.0-1.7,57828,List2B,white,woman,,,,null,,,,
null,are arguing with each other,,html-keyboard-response,60,433504,0.0-13.0-2.7,57828,List2B,white,woman,,,,null,,,,
10112,,,survey-text,61,443617,0.0-13.0-3.7,57828,List2B,white,woman,,,,,"{""Q0"":""fred and kate are arguing with each other""}","<img src=""stim_listB/argue4.gif""</stim_listB>",are arguing with each other,
null,"<div style=""font-size:60px;"">+</div>",,html-keyboard-response,62,444119,0.0-13.0-0.8,57828,List2B,white,woman,,,,null,,,,
null,"<img src=""stim_listB/argue3.gif""</stim_listB>",,html-keyboard-response,63,446122,0.0-13.0-1.8,57828,List2B,white,woman,,,,null,,,,
null,is arguing with,,html-keyboard-response,64,448125,0.0-13.0-2.8,57828,List2B,white,woman,,,,null,,,,
11141,,,survey-text,65,459268,0.0-13.0-3.8,57828,List2B,white,woman,,,,,"{""Q0"":""beth is arguing with mike""}","<img src=""stim_listB/argue3.gif""</stim_listB>",is arguing with,
null,"<div style=""font-size:60px;"">+</div>",,html-keyboard-response,66,459773,0.0-13.0-0.9,57828,List2B,white,woman,,,,null,,,,
null,"<img src=""stim_listB/touch6.gif""</stim_listB>",,html-keyboard-response,67,461779,0.0-13.0-1.9,57828,List2B,white,woman,,,,null,,,,
null,are touching each other,,html-keyboard-response,68,463784,0.0-13.0-2.9,57828,List2B,white,woman,,,,null,,,,
9547,,,survey-text,69,473333,0.0-13.0-3.9,57828,List2B,white,woman,,,,,"{""Q0"":""luke and fred are touching each other""}","<img src=""stim_listB/touch6.gif""</stim_listB>",are touching each other,
null,"<div style=""font-size:60px;"">+</div>",,html-keyboard-response,70,473835,0.0-13.0-0.10,57828,List2B,white,woman,,,,null,,,,
null,"<img src=""stim_listB/marry7.gif""</stim_listB>",,html-keyboard-response,71,475840,0.0-13.0-1.10,57828,List2B,white,woman,,,,null,,,,
null,is marrying,,html-keyboard-response,72,477844,0.0-13.0-2.10,57828,List2B,white,woman,,,,null,,,,
9644,,,survey-text,73,487490,0.0-13.0-3.10,57828,List2B,white,woman,,,,,"{""Q0"":""beth is marrying jane""}","<img src=""stim_listB/marry7.gif""</stim_listB>",is marrying,
null,"<div style=""font-size:60px;"">+</div>",,html-keyboard-response,74,487992,0.0-13.0-0.11,57828,List2B,white,woman,,,,null,,,,
null,"<img src=""stim_listB/marry8.gif""</stim_listB>",,html-keyboard-response,75,489997,0.0-13.0-1.11,57828,List2B,white,woman,,,,null,,,,
null,are marrying each other,,html-keyboard-response,76,492001,0.0-13.0-2.11,57828,List2B,white,woman,,,,null,,,,
7856,,,survey-text,77,499858,0.0-13.0-3.11,57828,List2B,white,woman,,,,,"{""Q0"":""ruth and kate are marrying each other""}","<img src=""stim_listB/marry8.gif""</stim_listB>",are marrying each other,
null,"<div style=""font-size:60px;"">+</div>",,html-keyboard-response,78,500361,0.0-13.0-0.12,57828,List2B,white,woman,,,,null,,,,
null,"<img src=""stim_listB/argue1.gif""</stim_listB>",,html-keyboard-response,79,502366,0.0-13.0-1.12,57828,List2B,white,woman,,,,null,,,,
null,is arguing with,,html-keyboard-response,80,504368,0.0-13.0-2.12,57828,List2B,white,woman,,,,null,,,,
6002,,,survey-text,81,510371,0.0-13.0-3.12,57828,List2B,white,woman,,,,,"{""Q0"":""ruth is arguing with dave""}","<img src=""stim_listB/argue1.gif""</stim_listB>",is arguing with,
null,"<div style=""font-size:60px;"">+</div>",,html-keyboard-response,82,510874,0.0-13.0-0.13,57828,List2B,white,woman,,,,null,,,,
null,"<img src=""stim_listB/kiss4.gif""</stim_listB>",,html-keyboard-response,83,512880,0.0-13.0-1.13,57828,List2B,white,woman,,,,null,,,,
null,are kissing each other,,html-keyboard-response,84,514884,0.0-13.0-2.13,57828,List2B,white,woman,,,,null,,,,
7767,,,survey-text,85,522653,0.0-13.0-3.13,57828,List2B,white,woman,,,,,"{""Q0"":""mike and kate are kissing each other""}","<img src=""stim_listB/kiss4.gif""</stim_listB>",are kissing each other,
null,"<div style=""font-size:60px;"">+</div>",,html-keyboard-response,86,523157,0.0-13.0-0.14,57828,List2B,white,woman,,,,null,,,,
null,"<img src=""stim_listB/kiss7.gif""</stim_listB>",,html-keyboard-response,87,525162,0.0-13.0-1.14,57828,List2B,white,woman,,,,null,,,,
null,is kissing,,html-keyboard-response,88,527165,0.0-13.0-2.14,57828,List2B,white,woman,,,,null,,,,
5961,,,survey-text,89,533127,0.0-13.0-3.14,57828,List2B,white,woman,,,,,"{""Q0"":""ruth is kissing beth""}","<img src=""stim_listB/kiss7.gif""</stim_listB>",is kissing,
null,"<div style=""font-size:60px;"">+</div>",,html-keyboard-response,90,533631,0.0-13.0-0.15,57828,List2B,white,woman,,,,null,,,,
null,"<img src=""stim_listB/marry1.gif""</stim_listB>",,html-keyboard-response,91,535636,0.0-13.0-1.15,57828,List2B,white,woman,,,,null,,,,
null,is marrying,,html-keyboard-response,92,537638,0.0-13.0-2.15,57828,List2B,white,woman,,,,null,,,,
4911,,,survey-text,93,542550,0.0-13.0-3.15,57828,List2B,white,woman,,,,,"{""Q0"":""ruth is marrying dave""}","<img src=""stim_listB/marry1.gif""</stim_listB>",is marrying,
null,"<div style=""font-size:60px;"">+</div>",,html-keyboard-response,94,543054,0.0-13.0-0.16,57828,List2B,white,woman,,,,null,,,,
null,"<img src=""stim_listB/dance7.gif""</stim_listB>",,html-keyboard-response,95,545060,0.0-13.0-1.16,57828,List2B,white,woman,,,,null,,,,
null,is dancing with,,html-keyboard-response,96,547062,0.0-13.0-2.16,57828,List2B,white,woman,,,,null,,,,
5441,,,survey-text,97,552505,0.0-13.0-3.16,57828,List2B,white,woman,,,,,"{""Q0"":""ruth is dancing with kate""}","<img src=""stim_listB/dance7.gif""</stim_listB>",is dancing with,
null,"<div style=""font-size:60px;"">+</div>",,html-keyboard-response,98,553008,0.0-13.0-0.17,57828,List2B,white,woman,,,,null,,,,
null,"<img src=""stim_listB/touch4.gif""</stim_listB>",,html-keyboard-response,99,555016,0.0-13.0-1.17,57828,List2B,white,woman,,,,null,,,,
null,are touching each other,,html-keyboard-response,100,557020,0.0-13.0-2.17,57828,List2B,white,woman,,,,null,,,,
7416,,,survey-text,101,564439,0.0-13.0-3.17,57828,List2B,white,woman,,,,,"{""Q0"":""fred is dancing with beth""}","<img src=""stim_listB/touch4.gif""</stim_listB>",are touching each other,
null,"<div style=""font-size:60px;"">+</div>",,html-keyboard-response,102,564942,0.0-13.0-0.18,57828,List2B,white,woman,,,,null,,,,
null,"<img src=""stim_listB/marry2.gif""</stim_listB>",,html-keyboard-response,103,566947,0.0-13.0-1.18,57828,List2B,white,woman,,,,null,,,,
null,are marrying each other,,html-keyboard-response,104,568950,0.0-13.0-2.18,57828,List2B,white,woman,,,,null,,,,
9692,,,survey-text,105,578645,0.0-13.0-3.18,57828,List2B,white,woman,,,,,"{""Q0"":""luke and jane are marrying each other""}","<img src=""stim_listB/marry2.gif""</stim_listB>",are marrying each other,
null,"<div style=""font-size:60px;"">+</div>",,html-keyboard-response,106,579147,0.0-13.0-0.19,57828,List2B,white,woman,,,,null,,,,
null,"<img src=""stim_listB/shout5.gif""</stim_listB>",,html-keyboard-response,107,581154,0.0-13.0-1.19,57828,List2B,white,woman,,,,null,,,,
null,is shouting at,,html-keyboard-response,108,583158,0.0-13.0-2.19,57828,List2B,white,woman,,,,null,,,,
6127,,,survey-text,109,589286,0.0-13.0-3.19,57828,List2B,white,woman,,,,,"{""Q0"":""luke is shouting at fred""}","<img src=""stim_listB/shout5.gif""</stim_listB>",is shouting at,
21982,"<img src='img/portrait_matrix_list2.JPG' style='width:900px;height:500px;''></img><p>If you have memorised all the portraits and names and are ready to start, press Continue.</p><p><strong>Please note: Your memory of these faces will be tested 4 times during this experiment.</strong></p>",0,html-button-response,110,611269,0.0-14.0-0.0,57828,List2B,white,woman,,,,,,,,
2171,"<img src=""portrait/BW1.jpg""style=""width:400px;height:400px;""></img>",0,html-button-response,111,614445,0.0-14.0-1.0,57828,List2B,white,woman,,TRUE,0,,,,,
null,CORRECT,,html-keyboard-response,112,615951,0.0-14.0-2.0-0.0,57828,List2B,white,woman,,,,null,,,,
2204,"<img src=""portrait/BM2.jpg""style=""width:400px;height:400px;""></img>",5,html-button-response,113,618158,0.0-14.0-4.0,57828,List2B,white,woman,,TRUE,5,,,,,
null,CORRECT,,html-keyboard-response,114,619666,0.0-14.0-5.0-0.0,57828,List2B,white,woman,,,,null,,,,
1425,"<img src=""portrait/WM2.jpg""style=""width:400px;height:400px;""></img>",7,html-button-response,115,621094,0.0-14.0-7.0,57828,List2B,white,woman,,TRUE,7,,,,,
null,CORRECT,,html-keyboard-response,116,622601,0.0-14.0-8.0-0.0,57828,List2B,white,woman,,,,null,,,,
2097,"<img src=""portrait/BW2.jpg""style=""width:400px;height:400px;""></img>",2,html-button-response,117,624701,0.0-14.0-10.0,57828,List2B,white,woman,,TRUE,2,,,,,
null,CORRECT,,html-keyboard-response,118,626207,0.0-14.0-11.0-0.0,57828,List2B,white,woman,,,,null,,,,
1493,"<img src=""portrait/WW1.jpg""style=""width:400px;height:400px;""></img>",1,html-button-response,119,627704,0.0-14.0-13.0,57828,List2B,white,woman,,TRUE,1,,,,,
null,CORRECT,,html-keyboard-response,120,629208,0.0-14.0-14.0-0.0,57828,List2B,white,woman,,,,null,,,,
1825,"<img src=""portrait/WM1.jpg""style=""width:400px;height:400px;""></img>",6,html-button-response,121,631035,0.0-14.0-16.0,57828,List2B,white,woman,,TRUE,6,,,,,
null,CORRECT,,html-keyboard-response,122,632543,0.0-14.0-17.0-0.0,57828,List2B,white,woman,,,,null,,,,
2497,"<img src=""portrait/WW2.jpg""style=""width:400px;height:400px;""></img>",3,html-button-response,123,635041,0.0-14.0-19.0,57828,List2B,white,woman,,TRUE,3,,,,,
null,CORRECT,,html-keyboard-response,124,636550,0.0-14.0-20.0-0.0,57828,List2B,white,woman,,,,null,,,,
1344,"<img src=""portrait/BM1.jpg""style=""width:400px;height:400px;""></img>",4,html-button-response,125,637897,0.0-14.0-22.0,57828,List2B,white,woman,,TRUE,4,,,,,
null,CORRECT,,html-keyboard-response,126,639404,0.0-14.0-23.0-0.0,57828,List2B,white,woman,,,,null,,,,
1401,<p>You got 8 out of 8 right first time. Press Continue.</p>,0,html-button-response,127,640809,0.0-14.0-25.0,57828,List2B,white,woman,,,,,,,,
null,"<div style=""font-size:60px;"">+</div>",,html-keyboard-response,128,642317,0.0-15.0-0.0,57828,List2B,white,woman,,,,null,,,,
null,"<img src=""stim_listB/talk3.gif""</stim_listB>",,html-keyboard-response,129,644324,0.0-15.0-1.0,57828,List2B,white,woman,,,,null,,,,
null,is talking to,,html-keyboard-response,130,646329,0.0-15.0-2.0,57828,List2B,white,woman,,,,null,,,,
6055,,,survey-text,131,652385,0.0-15.0-3.0,57828,List2B,white,woman,,,,,"{""Q0"":""kate is talking to fred""}","<img src=""stim_listB/talk3.gif""</stim_listB>",is talking to,
null,"<div style=""font-size:60px;"">+</div>",,html-keyboard-response,132,652890,0.0-15.0-0.1,57828,List2B,white,woman,,,,null,,,,
null,"<img src=""stim_listB/talk4.gif""</stim_listB>",,html-keyboard-response,133,654897,0.0-15.0-1.1,57828,List2B,white,woman,,,,null,,,,
null,are talking to each other,,html-keyboard-response,134,656900,0.0-15.0-2.1,57828,List2B,white,woman,,,,null,,,,
8161,,,survey-text,135,665064,0.0-15.0-3.1,57828,List2B,white,woman,,,,,"{""Q0"":""mike and beth are talking to each other""}","<img src=""stim_listB/talk4.gif""</stim_listB>",are talking to each other,
null,"<div style=""font-size:60px;"">+</div>",,html-keyboard-response,136,665566,0.0-15.0-0.2,57828,List2B,white,woman,,,,null,,,,
null,"<img src=""stim_listB/hug7.gif""</stim_listB>",,html-keyboard-response,137,667573,0.0-15.0-1.2,57828,List2B,white,woman,,,,null,,,,
null,is hugging,,html-keyboard-response,138,669575,0.0-15.0-2.2,57828,List2B,white,woman,,,,null,,,,
10319,,,survey-text,139,679896,0.0-15.0-3.2,57828,List2B,white,woman,,,,,"{""Q0"":""beth is hugging ruth""}","<img src=""stim_listB/hug7.gif""</stim_listB>",is hugging,
null,"<div style=""font-size:60px;"">+</div>",,html-keyboard-response,140,680401,0.0-15.0-0.3,57828,List2B,white,woman,,,,null,,,,
null,"<img src=""stim_listB/talk6.gif""</stim_listB>",,html-keyboard-response,141,682409,0.0-15.0-1.3,57828,List2B,white,woman,,,,null,,,,
null,are talking to each other,,html-keyboard-response,142,684414,0.0-15.0-2.3,57828,List2B,white,woman,,,,null,,,,
9106,,,survey-text,143,693521,0.0-15.0-3.3,57828,List2B,white,woman,,,,,"{""Q0"":""dave and fred are talking to each other""}","<img src=""stim_listB/talk6.gif""</stim_listB>",are talking to each other,
null,"<div style=""font-size:60px;"">+</div>",,html-keyboard-response,144,694023,0.0-15.0-0.4,57828,List2B,white,woman,,,,null,,,,
null,"<img src=""stim_listB/kiss3.gif""</stim_listB>",,html-keyboard-response,145,696028,0.0-15.0-1.4,57828,List2B,white,woman,,,,null,,,,
null,is kissing,,html-keyboard-response,146,698032,0.0-15.0-2.4,57828,List2B,white,woman,,,,null,,,,
5394,,,survey-text,147,703428,0.0-15.0-3.4,57828,List2B,white,woman,,,,,"{""Q0"":""beth is kissing fred""}","<img src=""stim_listB/kiss3.gif""</stim_listB>",is kissing,
null,"<div style=""font-size:60px;"">+</div>",,html-keyboard-response,148,703932,0.0-15.0-0.5,57828,List2B,white,woman,,,,null,,,,
null,"<img src=""stim_listB/kiss1.gif""</stim_listB>",,html-keyboard-response,149,705936,0.0-15.0-1.5,57828,List2B,white,woman,,,,null,,,,
null,is kissing,,html-keyboard-response,150,707941,0.0-15.0-2.5,57828,List2B,white,woman,,,,null,,,,
5571,,,survey-text,151,713514,0.0-15.0-3.5,57828,List2B,white,woman,,,,,"{""Q0"":""ruth is kissing luke""}","<img src=""stim_listB/kiss1.gif""</stim_listB>",is kissing,
null,"<div style=""font-size:60px;"">+</div>",,html-keyboard-response,152,714016,0.0-15.0-0.6,57828,List2B,white,woman,,,,null,,,,
null,"<img src=""stim_listB/fight1.gif""</stim_listB>",,html-keyboard-response,153,716020,0.0-15.0-1.6,57828,List2B,white,woman,,,,null,,,,
null,is fighting,,html-keyboard-response,154,718025,0.0-15.0-2.6,57828,List2B,white,woman,,,,null,,,,
6613,,,survey-text,155,724640,0.0-15.0-3.6,57828,List2B,white,woman,,,,,"{""Q0"":""jane is fighting dave""}","<img src=""stim_listB/fight1.gif""</stim_listB>",is fighting,
null,"<div style=""font-size:60px;"">+</div>",,html-keyboard-response,156,725142,0.0-15.0-0.7,57828,List2B,white,woman,,,,null,,,,
null,"<img src=""stim_listB/fight7.gif""</stim_listB>",,html-keyboard-response,157,727150,0.0-15.0-1.7,57828,List2B,white,woman,,,,null,,,,
null,is fighting,,html-keyboard-response,158,729152,0.0-15.0-2.7,57828,List2B,white,woman,,,,null,,,,
4817,,,survey-text,159,733970,0.0-15.0-3.7,57828,List2B,white,woman,,,,,"{""Q0"":""jane is fighting kate""}","<img src=""stim_listB/fight7.gif""</stim_listB>",is fighting,
null,"<div style=""font-size:60px;"">+</div>",,html-keyboard-response,160,734474,0.0-15.0-0.8,57828,List2B,white,woman,,,,null,,,,
null,"<img src=""stim_listB/dance1.gif""</stim_listB>",,html-keyboard-response,161,736479,0.0-15.0-1.8,57828,List2B,white,woman,,,,null,,,,
null,is dancing with,,html-keyboard-response,162,738484,0.0-15.0-2.8,57828,List2B,white,woman,,,,null,,,,
7152,,,survey-text,163,745638,0.0-15.0-3.8,57828,List2B,white,woman,,,,,"{""Q0"":""jane is dancing with luke""}","<img src=""stim_listB/dance1.gif""</stim_listB>",is dancing with,
null,"<div style=""font-size:60px;"">+</div>",,html-keyboard-response,164,746141,0.0-15.0-0.9,57828,List2B,white,woman,,,,null,,,,
null,"<img src=""stim_listB/argue7.gif""</stim_listB>",,html-keyboard-response,165,748145,0.0-15.0-1.9,57828,List2B,white,woman,,,,null,,,,
null,is arguing with,,html-keyboard-response,166,750149,0.0-15.0-2.9,57828,List2B,white,woman,,,,null,,,,
5233,,,survey-text,167,755385,0.0-15.0-3.9,57828,List2B,white,woman,,,,,"{""Q0"":""jane is arguing with beth""}","<img src=""stim_listB/argue7.gif""</stim_listB>",is arguing with,
null,"<div style=""font-size:60px;"">+</div>",,html-keyboard-response,168,755887,0.0-15.0-0.10,57828,List2B,white,woman,,,,null,,,,
null,"<img src=""stim_listB/hug5.gif""</stim_listB>",,html-keyboard-response,169,757894,0.0-15.0-1.10,57828,List2B,white,woman,,,,null,,,,
null,is hugging,,html-keyboard-response,170,759898,0.0-15.0-2.10,57828,List2B,white,woman,,,,null,,,,
7751,,,survey-text,171,767652,0.0-15.0-3.10,57828,List2B,white,woman,,,,,"{""Q0"":""luke is hugging fred""}","<img src=""stim_listB/hug5.gif""</stim_listB>",is hugging,
null,"<div style=""font-size:60px;"">+</div>",,html-keyboard-response,172,768154,0.0-15.0-0.11,57828,List2B,white,woman,,,,null,,,,
null,"<img src=""stim_listB/meet8.gif""</stim_listB>",,html-keyboard-response,173,770159,0.0-15.0-1.11,57828,List2B,white,woman,,,,null,,,,
null,are meeting each other,,html-keyboard-response,174,772162,0.0-15.0-2.11,57828,List2B,white,woman,,,,null,,,,
7108,,,survey-text,175,779272,0.0-15.0-3.11,57828,List2B,white,woman,,,,,"{""Q0"":""ruth and beth are meeting each other""}","<img src=""stim_listB/meet8.gif""</stim_listB>",are meeting each other,
null,"<div style=""font-size:60px;"">+</div>",,html-keyboard-response,176,779777,0.0-15.0-0.12,57828,List2B,white,woman,,,,null,,,,
null,"<img src=""stim_listB/meet6.gif""</stim_listB>",,html-keyboard-response,177,781783,0.0-15.0-1.12,57828,List2B,white,woman,,,,null,,,,
null,are meeting each other,,html-keyboard-response,178,783785,0.0-15.0-2.12,57828,List2B,white,woman,,,,null,,,,
7437,,,survey-text,179,791224,0.0-15.0-3.12,57828,List2B,white,woman,,,,,"{""Q0"":""fred and luke are meeting each other""}","<img src=""stim_listB/meet6.gif""</stim_listB>",are meeting each other,
null,"<div style=""font-size:60px;"">+</div>",,html-keyboard-response,180,791727,0.0-15.0-0.13,57828,List2B,white,woman,,,,null,,,,
null,"<img src=""stim_listB/meet1.gif""</stim_listB>",,html-keyboard-response,181,793733,0.0-15.0-1.13,57828,List2B,white,woman,,,,null,,,,
null,is meeting,,html-keyboard-response,182,795737,0.0-15.0-2.13,57828,List2B,white,woman,,,,null,,,,
4785,,,survey-text,183,800523,0.0-15.0-3.13,57828,List2B,white,woman,,,,,"{""Q0"":""jane is meeting dave""}","<img src=""stim_listB/meet1.gif""</stim_listB>",is meeting,
null,"<div style=""font-size:60px;"">+</div>",,html-keyboard-response,184,801025,0.0-15.0-0.14,57828,List2B,white,woman,,,,null,,,,
null,"<img src=""stim_listB/shout6.gif""</stim_listB>",,html-keyboard-response,185,803031,0.0-15.0-1.14,57828,List2B,white,woman,,,,null,,,,
null,are shouting at each other,,html-keyboard-response,186,805033,0.0-15.0-2.14,57828,List2B,white,woman,,,,null,,,,
8960,,,survey-text,187,813995,0.0-15.0-3.14,57828,List2B,white,woman,,,,,"{""Q0"":""dave and mike are shouting at each other""}","<img src=""stim_listB/shout6.gif""</stim_listB>",are shouting at each other,
null,"<div style=""font-size:60px;"">+</div>",,html-keyboard-response,188,814497,0.0-15.0-0.15,57828,List2B,white,woman,,,,null,,,,
null,"<img src=""stim_listB/talk5.gif""</stim_listB>",,html-keyboard-response,189,816506,0.0-15.0-1.15,57828,List2B,white,woman,,,,null,,,,
null,is talking to,,html-keyboard-response,190,818508,0.0-15.0-2.15,57828,List2B,white,woman,,,,null,,,,
5236,,,survey-text,191,823745,0.0-15.0-3.15,57828,List2B,white,woman,,,,,"{""Q0"":""mike is talking to luke""}","<img src=""stim_listB/talk5.gif""</stim_listB>",is talking to,
null,"<div style=""font-size:60px;"">+</div>",,html-keyboard-response,192,824247,0.0-15.0-0.16,57828,List2B,white,woman,,,,null,,,,
null,"<img src=""stim_listB/shout8.gif""</stim_listB>",,html-keyboard-response,193,826251,0.0-15.0-1.16,57828,List2B,white,woman,,,,null,,,,
null,are shouting at each other,,html-keyboard-response,194,828253,0.0-15.0-2.16,57828,List2B,white,woman,,,,null,,,,
8688,,,survey-text,195,836942,0.0-15.0-3.16,57828,List2B,white,woman,,,,,"{""Q0"":""jane and kate are shouting at each other""}","<img src=""stim_listB/shout8.gif""</stim_listB>",are shouting at each other,
null,"<div style=""font-size:60px;"">+</div>",,html-keyboard-response,196,837446,0.0-15.0-0.17,57828,List2B,white,woman,,,,null,,,,
null,"<img src=""stim_listB/fight5.gif""</stim_listB>",,html-keyboard-response,197,839453,0.0-15.0-1.17,57828,List2B,white,woman,,,,null,,,,
null,is fighting,,html-keyboard-response,198,841457,0.0-15.0-2.17,57828,List2B,white,woman,,,,null,,,,
5370,,,survey-text,199,846829,0.0-15.0-3.17,57828,List2B,white,woman,,,,,"{""Q0"":""dave is fighting mike""}","<img src=""stim_listB/fight5.gif""</stim_listB>",is fighting,
null,"<div style=""font-size:60px;"">+</div>",,html-keyboard-response,200,847334,0.0-15.0-0.18,57828,List2B,white,woman,,,,null,,,,
null,"<img src=""stim_listB/fight4.gif""</stim_listB>",,html-keyboard-response,201,849341,0.0-15.0-1.18,57828,List2B,white,woman,,,,null,,,,
null,are fighting each other,,html-keyboard-response,202,851346,0.0-15.0-2.18,57828,List2B,white,woman,,,,null,,,,
10307,,,survey-text,203,861655,0.0-15.0-3.18,57828,List2B,white,woman,,,,,"{""Q0"":""fred and beth are fighting each other""}","<img src=""stim_listB/fight4.gif""</stim_listB>",are fighting each other,
null,"<div style=""font-size:60px;"">+</div>",,html-keyboard-response,204,862159,0.0-15.0-0.19,57828,List2B,white,woman,,,,null,,,,
null,"<img src=""stim_listB/hug3.gif""</stim_listB>",,html-keyboard-response,205,864164,0.0-15.0-1.19,57828,List2B,white,woman,,,,null,,,,
null,is hugging,,html-keyboard-response,206,866168,0.0-15.0-2.19,57828,List2B,white,woman,,,,null,,,,
4912,,,survey-text,207,871083,0.0-15.0-3.19,57828,List2B,white,woman,,,,,"{""Q0"":""beth is hugging fred""}","<img src=""stim_listB/hug3.gif""</stim_listB>",is hugging,
4149,"<img src='img/portrait_matrix_list2.JPG' style='width:900px;height:500px;''></img><p>If you have memorised all the portraits and names and are ready to start, press Continue.</p><p><strong>Please note: Your memory of these faces will be tested 4 times during this experiment.</strong></p>",0,html-button-response,208,875233,0.0-16.0-0.0,57828,List2B,white,woman,,,,,,,,
1815,"<img src=""portrait/BW1.jpg""style=""width:400px;height:400px;""></img>",0,html-button-response,209,878053,0.0-16.0-1.0,57828,List2B,white,woman,,TRUE,0,,,,,
null,CORRECT,,html-keyboard-response,210,879561,0.0-16.0-2.0-0.0,57828,List2B,white,woman,,,,null,,,,
1626,"<img src=""portrait/BW2.jpg""style=""width:400px;height:400px;""></img>",2,html-button-response,211,881190,0.0-16.0-4.0,57828,List2B,white,woman,,TRUE,2,,,,,
null,CORRECT,,html-keyboard-response,212,882700,0.0-16.0-5.0-0.0,57828,List2B,white,woman,,,,null,,,,
1992,"<img src=""portrait/WW1.jpg""style=""width:400px;height:400px;""></img>",1,html-button-response,213,884694,0.0-16.0-7.0,57828,List2B,white,woman,,TRUE,1,,,,,
null,CORRECT,,html-keyboard-response,214,886201,0.0-16.0-8.0-0.0,57828,List2B,white,woman,,,,null,,,,
1480,"<img src=""portrait/BM1.jpg""style=""width:400px;height:400px;""></img>",4,html-button-response,215,887684,0.0-16.0-10.0,57828,List2B,white,woman,,TRUE,4,,,,,
null,CORRECT,,html-keyboard-response,216,889190,0.0-16.0-11.0-0.0,57828,List2B,white,woman,,,,null,,,,
2152,"<img src=""portrait/WM2.jpg""style=""width:400px;height:400px;""></img>",7,html-button-response,217,891345,0.0-16.0-13.0,57828,List2B,white,woman,,TRUE,7,,,,,
null,CORRECT,,html-keyboard-response,218,892852,0.0-16.0-14.0-0.0,57828,List2B,white,woman,,,,null,,,,
1874,"<img src=""portrait/WM1.jpg""style=""width:400px;height:400px;""></img>",6,html-button-response,219,894729,0.0-16.0-16.0,57828,List2B,white,woman,,TRUE,6,,,,,
null,CORRECT,,html-keyboard-response,220,896234,0.0-16.0-17.0-0.0,57828,List2B,white,woman,,,,null,,,,
1663,"<img src=""portrait/WW2.jpg""style=""width:400px;height:400px;""></img>",3,html-button-response,221,897900,0.0-16.0-19.0,57828,List2B,white,woman,,TRUE,3,,,,,
null,CORRECT,,html-keyboard-response,222,899404,0.0-16.0-20.0-0.0,57828,List2B,white,woman,,,,null,,,,
1603,"<img src=""portrait/BM2.jpg""style=""width:400px;height:400px;""></img>",5,html-button-response,223,901010,0.0-16.0-22.0,57828,List2B,white,woman,,TRUE,5,,,,,
null,CORRECT,,html-keyboard-response,224,902516,0.0-16.0-23.0-0.0,57828,List2B,white,woman,,,,null,,,,
1464,<p>You got 8 out of 8 right first time. Press Continue.</p>,0,html-button-response,225,903982,0.0-16.0-25.0,57828,List2B,white,woman,,,,,,,,
null,"<div style=""font-size:60px;"">+</div>",,html-keyboard-response,226,905488,0.0-17.0-0.0,57828,List2B,white,woman,,,,null,,,,
null,"<img src=""stim_listB/marry3.gif""</stim_listB>",,html-keyboard-response,227,907493,0.0-17.0-1.0,57828,List2B,white,woman,,,,null,,,,
null,is marrying,,html-keyboard-response,228,909495,0.0-17.0-2.0,57828,List2B,white,woman,,,,null,,,,
5944,,,survey-text,229,915441,0.0-17.0-3.0,57828,List2B,white,woman,,,,,"{""Q0"":""beth is marrying mike""}","<img src=""stim_listB/marry3.gif""</stim_listB>",is marrying,
null,"<div style=""font-size:60px;"">+</div>",,html-keyboard-response,230,915948,0.0-17.0-0.1,57828,List2B,white,woman,,,,null,,,,
null,"<img src=""stim_listB/marry6.gif""</stim_listB>",,html-keyboard-response,231,917953,0.0-17.0-1.1,57828,List2B,white,woman,,,,null,,,,
null,are marrying each other,,html-keyboard-response,232,919957,0.0-17.0-2.1,57828,List2B,white,woman,,,,null,,,,
11019,,,survey-text,233,930979,0.0-17.0-3.1,57828,List2B,white,woman,,,,,"{""Q0"":""luke and mike are marrying each other""}","<img src=""stim_listB/marry6.gif""</stim_listB>",are marrying each other,
null,"<div style=""font-size:60px;"">+</div>",,html-keyboard-response,234,931484,0.0-17.0-0.2,57828,List2B,white,woman,,,,null,,,,
null,"<img src=""stim_listB/kiss6.gif""</stim_listB>",,html-keyboard-response,235,933489,0.0-17.0-1.2,57828,List2B,white,woman,,,,null,,,,
null,are kissing each other,,html-keyboard-response,236,935494,0.0-17.0-2.2,57828,List2B,white,woman,,,,null,,,,
6386,,,survey-text,237,941882,0.0-17.0-3.2,57828,List2B,white,woman,,,,,"{""Q0"":""dave and mike are kissing each other""}","<img src=""stim_listB/kiss6.gif""</stim_listB>",are kissing each other,
null,"<div style=""font-size:60px;"">+</div>",,html-keyboard-response,238,942386,0.0-17.0-0.3,57828,List2B,white,woman,,,,null,,,,
null,"<img src=""stim_listB/kiss8.gif""</stim_listB>",,html-keyboard-response,239,944391,0.0-17.0-1.3,57828,List2B,white,woman,,,,null,,,,
null,are kissing each other,,html-keyboard-response,240,946396,0.0-17.0-2.3,57828,List2B,white,woman,,,,null,,,,
6827,,,survey-text,241,953226,0.0-17.0-3.3,57828,List2B,white,woman,,,,,"{""Q0"":""kate and jane are kissing each other""}","<img src=""stim_listB/kiss8.gif""</stim_listB>",are kissing each other,
null,"<div style=""font-size:60px;"">+</div>",,html-keyboard-response,242,953729,0.0-17.0-0.4,57828,List2B,white,woman,,,,null,,,,
null,"<img src=""stim_listB/dance6.gif""</stim_listB>",,html-keyboard-response,243,955736,0.0-17.0-1.4,57828,List2B,white,woman,,,,null,,,,
null,are dancing with each other,,html-keyboard-response,244,957740,0.0-17.0-2.4,57828,List2B,white,woman,,,,null,,,,
10266,,,survey-text,245,968008,0.0-17.0-3.4,57828,List2B,white,woman,,,,,"{""Q0"":""fred and dave are dancing with each other""}","<img src=""stim_listB/dance6.gif""</stim_listB>",are dancing with each other,
null,"<div style=""font-size:60px;"">+</div>",,html-keyboard-response,246,968512,0.0-17.0-0.5,57828,List2B,white,woman,,,,null,,,,
null,"<img src=""stim_listB/shout1.gif""</stim_listB>",,html-keyboard-response,247,970516,0.0-17.0-1.5,57828,List2B,white,woman,,,,null,,,,
null,is shouting at,,html-keyboard-response,248,972521,0.0-17.0-2.5,57828,List2B,white,woman,,,,null,,,,
6984,,,survey-text,249,979507,0.0-17.0-3.5,57828,List2B,white,woman,,,,,"{""Q0"":""ruth is shouting at luke""}","<img src=""stim_listB/shout1.gif""</stim_listB>",is shouting at,
null,"<div style=""font-size:60px;"">+</div>",,html-keyboard-response,250,980011,0.0-17.0-0.6,57828,List2B,white,woman,,,,null,,,,
null,"<img src=""stim_listB/meet5.gif""</stim_listB>",,html-keyboard-response,251,982022,0.0-17.0-1.6,57828,List2B,white,woman,,,,null,,,,
null,is meeting,,html-keyboard-response,252,984025,0.0-17.0-2.6,57828,List2B,white,woman,,,,null,,,,
4748,,,survey-text,253,988775,0.0-17.0-3.6,57828,List2B,white,woman,,,,,"{""Q0"":""mike is meeting dave""}","<img src=""stim_listB/meet5.gif""</stim_listB>",is meeting,
null,"<div style=""font-size:60px;"">+</div>",,html-keyboard-response,254,989279,0.0-17.0-0.7,57828,List2B,white,woman,,,,null,,,,
null,"<img src=""stim_listB/touch1.gif""</stim_listB>",,html-keyboard-response,255,991285,0.0-17.0-1.7,57828,List2B,white,woman,,,,null,,,,
null,is touching,,html-keyboard-response,256,993291,0.0-17.0-2.7,57828,List2B,white,woman,,,,null,,,,
5750,,,survey-text,257,999043,0.0-17.0-3.7,57828,List2B,white,woman,,,,,"{""Q0"":""jane is touching dave""}","<img src=""stim_listB/touch1.gif""</stim_listB>",is touching,
null,"<div style=""font-size:60px;"">+</div>",,html-keyboard-response,258,999547,0.0-17.0-0.8,57828,List2B,white,woman,,,,null,,,,
null,"<img src=""stim_listB/dance4.gif""</stim_listB>",,html-keyboard-response,259,1001552,0.0-17.0-1.8,57828,List2B,white,woman,,,,null,,,,
null,are dancing with each other,,html-keyboard-response,260,1003557,0.0-17.0-2.8,57828,List2B,white,woman,,,,null,,,,
8391,,,survey-text,261,1011951,0.0-17.0-3.8,57828,List2B,white,woman,,,,,"{""Q0"":""mike and beth are dancing with each other""}","<img src=""stim_listB/dance4.gif""</stim_listB>",are dancing with each other,
null,"<div style=""font-size:60px;"">+</div>",,html-keyboard-response,262,1012456,0.0-17.0-0.9,57828,List2B,white,woman,,,,null,,,,
null,"<img src=""stim_listB/dance3.gif""</stim_listB>",,html-keyboard-response,263,1014462,0.0-17.0-1.9,57828,List2B,white,woman,,,,null,,,,
null,is dancing with,,html-keyboard-response,264,1016464,0.0-17.0-2.9,57828,List2B,white,woman,,,,null,,,,
5189,,,survey-text,265,1021655,0.0-17.0-3.9,57828,List2B,white,woman,,,,,"{""Q0"":""kate is dancing with fred""}","<img src=""stim_listB/dance3.gif""</stim_listB>",is dancing with,
null,"<div style=""font-size:60px;"">+</div>",,html-keyboard-response,266,1022157,0.0-17.0-0.10,57828,List2B,white,woman,,,,null,,,,
null,"<img src=""stim_listB/touch2.gif""</stim_listB>",,html-keyboard-response,267,1024164,0.0-17.0-1.10,57828,List2B,white,woman,,,,null,,,,
null,are touching each other,,html-keyboard-response,268,1026170,0.0-17.0-2.10,57828,List2B,white,woman,,,,null,,,,
7350,,,survey-text,269,1033522,0.0-17.0-3.10,57828,List2B,white,woman,,,,,"{""Q0"":""ruth and luke are touching each other""}","<img src=""stim_listB/touch2.gif""</stim_listB>",are touching each other,
null,"<div style=""font-size:60px;"">+</div>",,html-keyboard-response,270,1034025,0.0-17.0-0.11,57828,List2B,white,woman,,,,null,,,,
null,"<img src=""stim_listB/fight2.gif""</stim_listB>",,html-keyboard-response,271,1036030,0.0-17.0-1.11,57828,List2B,white,woman,,,,null,,,,
null,are fighting each other,,html-keyboard-response,272,1038033,0.0-17.0-2.11,57828,List2B,white,woman,,,,null,,,,
8027,,,survey-text,273,1046061,0.0-17.0-3.11,57828,List2B,white,woman,,,,,"{""Q0"":""ruth and luke are fighting with each other""}","<img src=""stim_listB/fight2.gif""</stim_listB>",are fighting each other,
null,"<div style=""font-size:60px;"">+</div>",,html-keyboard-response,274,1046564,0.0-17.0-0.12,57828,List2B,white,woman,,,,null,,,,
null,"<img src=""stim_listB/hug6.gif""</stim_listB>",,html-keyboard-response,275,1048572,0.0-17.0-1.12,57828,List2B,white,woman,,,,null,,,,
null,are hugging each other,,html-keyboard-response,276,1050578,0.0-17.0-2.12,57828,List2B,white,woman,,,,null,,,,
7813,,,survey-text,277,1058394,0.0-17.0-3.12,57828,List2B,white,woman,,,,,"{""Q0"":""mike and dave are hugging each other""}","<img src=""stim_listB/hug6.gif""</stim_listB>",are hugging each other,
null,"<div style=""font-size:60px;"">+</div>",,html-keyboard-response,278,1058898,0.0-17.0-0.13,57828,List2B,white,woman,,,,null,,,,
null,"<img src=""stim_listB/shout7.gif""</stim_listB>",,html-keyboard-response,279,1060905,0.0-17.0-1.13,57828,List2B,white,woman,,,,null,,,,
null,is shouting at,,html-keyboard-response,280,1062909,0.0-17.0-2.13,57828,List2B,white,woman,,,,null,,,,
6810,,,survey-text,281,1069721,0.0-17.0-3.13,57828,List2B,white,woman,,,,,"{""Q0"":""ruth is shouting at beth""}","<img src=""stim_listB/shout7.gif""</stim_listB>",is shouting at,
null,"<div style=""font-size:60px;"">+</div>",,html-keyboard-response,282,1070224,0.0-17.0-0.14,57828,List2B,white,woman,,,,null,,,,
null,"<img src=""stim_listB/hug2.gif""</stim_listB>",,html-keyboard-response,283,1072228,0.0-17.0-1.14,57828,List2B,white,woman,,,,null,,,,
null,are hugging each other,,html-keyboard-response,284,1074232,0.0-17.0-2.14,57828,List2B,white,woman,,,,null,,,,
7452,,,survey-text,285,1081686,0.0-17.0-3.14,57828,List2B,white,woman,,,,,"{""Q0"":""jane and dave are hugging each other""}","<img src=""stim_listB/hug2.gif""</stim_listB>",are hugging each other,
null,"<div style=""font-size:60px;"">+</div>",,html-keyboard-response,286,1082191,0.0-17.0-0.15,57828,List2B,white,woman,,,,null,,,,
null,"<img src=""stim_listB/touch7.gif""</stim_listB>",,html-keyboard-response,287,1084195,0.0-17.0-1.15,57828,List2B,white,woman,,,,null,,,,
null,is touching,,html-keyboard-response,288,1086199,0.0-17.0-2.15,57828,List2B,white,woman,,,,null,,,,
6282,,,survey-text,289,1092482,0.0-17.0-3.15,57828,List2B,white,woman,,,,,"{""Q0"":""jane is touching kate""}","<img src=""stim_listB/touch7.gif""</stim_listB>",is touching,
null,"<div style=""font-size:60px;"">+</div>",,html-keyboard-response,290,1092984,0.0-17.0-0.16,57828,List2B,white,woman,,,,null,,,,
null,"<img src=""stim_listB/meet2.gif""</stim_listB>",,html-keyboard-response,291,1094990,0.0-17.0-1.16,57828,List2B,white,woman,,,,null,,,,
null,are meeting each other,,html-keyboard-response,292,1096996,0.0-17.0-2.16,57828,List2B,white,woman,,,,null,,,,
7899,,,survey-text,293,1104898,0.0-17.0-3.16,57828,List2B,white,woman,,,,,"{""Q0"":""ruth and luke are meeting each other""}","<img src=""stim_listB/meet2.gif""</stim_listB>",are meeting each other,
null,"<div style=""font-size:60px;"">+</div>",,html-keyboard-response,294,1105402,0.0-17.0-0.17,57828,List2B,white,woman,,,,null,,,,
null,"<img src=""stim_listB/shout4.gif""</stim_listB>",,html-keyboard-response,295,1107409,0.0-17.0-1.17,57828,List2B,white,woman,,,,null,,,,
null,are shouting at each other,,html-keyboard-response,296,1109412,0.0-17.0-2.17,57828,List2B,white,woman,,,,null,,,,
16844,,,survey-text,297,1126258,0.0-17.0-3.17,57828,List2B,white,woman,,,,,"{""Q0"":""kate and mike are shouting at each other""}","<img src=""stim_listB/shout4.gif""</stim_listB>",are shouting at each other,
null,"<div style=""font-size:60px;"">+</div>",,html-keyboard-response,298,1126762,0.0-17.0-0.18,57828,List2B,white,woman,,,,null,,,,
null,"<img src=""stim_listB/talk7.gif""</stim_listB>",,html-keyboard-response,299,1128769,0.0-17.0-1.18,57828,List2B,white,woman,,,,null,,,,
null,is talking to,,html-keyboard-response,300,1130772,0.0-17.0-2.18,57828,List2B,white,woman,,,,null,,,,
5522,,,survey-text,301,1136295,0.0-17.0-3.18,57828,List2B,white,woman,,,,,"{""Q0"":""kate is talking to ruth""}","<img src=""stim_listB/talk7.gif""</stim_listB>",is talking to,
null,"<div style=""font-size:60px;"">+</div>",,html-keyboard-response,302,1136800,0.0-17.0-0.19,57828,List2B,white,woman,,,,null,,,,
null,"<img src=""stim_listB/hug1.gif""</stim_listB>",,html-keyboard-response,303,1138806,0.0-17.0-1.19,57828,List2B,white,woman,,,,null,,,,
null,is hugging,,html-keyboard-response,304,1140809,0.0-17.0-2.19,57828,List2B,white,woman,,,,null,,,,
5422,,,survey-text,305,1146232,0.0-17.0-3.19,57828,List2B,white,woman,,,,,"{""Q0"":""ruth is hugging luke""}","<img src=""stim_listB/hug1.gif""</stim_listB>",is hugging,
4192,"<img src='img/portrait_matrix_list2.JPG' style='width:900px;height:500px;''></img><p>If you have memorised all the portraits and names and are ready to start, press Continue.</p><p><strong>Please note: Your memory of these faces will be tested 4 times during this experiment.</strong></p>",0,html-button-response,306,1150425,0.0-18.0-0.0,57828,List2B,white,woman,,,,,,,,
2149,"<img src=""portrait/BW2.jpg""style=""width:400px;height:400px;""></img>",2,html-button-response,307,1153581,0.0-18.0-1.0,57828,List2B,white,woman,,TRUE,2,,,,,
null,CORRECT,,html-keyboard-response,308,1155084,0.0-18.0-2.0-0.0,57828,List2B,white,woman,,,,null,,,,
1429,"<img src=""portrait/WW2.jpg""style=""width:400px;height:400px;""></img>",3,html-button-response,309,1156515,0.0-18.0-4.0,57828,List2B,white,woman,,TRUE,3,,,,,
null,CORRECT,,html-keyboard-response,310,1158021,0.0-18.0-5.0-0.0,57828,List2B,white,woman,,,,null,,,,
2424,"<img src=""portrait/WM2.jpg""style=""width:400px;height:400px;""></img>",7,html-button-response,311,1160448,0.0-18.0-7.0,57828,List2B,white,woman,,TRUE,7,,,,,
null,CORRECT,,html-keyboard-response,312,1161955,0.0-18.0-8.0-0.0,57828,List2B,white,woman,,,,null,,,,
2560,"<img src=""portrait/BW1.jpg""style=""width:400px;height:400px;""></img>",0,html-button-response,313,1164517,0.0-18.0-10.0,57828,List2B,white,woman,,TRUE,0,,,,,
null,CORRECT,,html-keyboard-response,314,1166023,0.0-18.0-11.0-0.0,57828,List2B,white,woman,,,,null,,,,
1702,"<img src=""portrait/WW1.jpg""style=""width:400px;height:400px;""></img>",1,html-button-response,315,1167728,0.0-18.0-13.0,57828,List2B,white,woman,,TRUE,1,,,,,
null,CORRECT,,html-keyboard-response,316,1169234,0.0-18.0-14.0-0.0,57828,List2B,white,woman,,,,null,,,,
1571,"<img src=""portrait/BM2.jpg""style=""width:400px;height:400px;""></img>",5,html-button-response,317,1170807,0.0-18.0-16.0,57828,List2B,white,woman,,TRUE,5,,,,,
null,CORRECT,,html-keyboard-response,318,1172314,0.0-18.0-17.0-0.0,57828,List2B,white,woman,,,,null,,,,
1623,"<img src=""portrait/BM1.jpg""style=""width:400px;height:400px;""></img>",4,html-button-response,319,1173940,0.0-18.0-19.0,57828,List2B,white,woman,,TRUE,4,,,,,
null,CORRECT,,html-keyboard-response,320,1175447,0.0-18.0-20.0-0.0,57828,List2B,white,woman,,,,null,,,,
1572,"<img src=""portrait/WM1.jpg""style=""width:400px;height:400px;""></img>",6,html-button-response,321,1177021,0.0-18.0-22.0,57828,List2B,white,woman,,TRUE,6,,,,,
null,CORRECT,,html-keyboard-response,322,1178529,0.0-18.0-23.0-0.0,57828,List2B,white,woman,,,,null,,,,
1572,<p>You got 8 out of 8 right first time. Press Continue.</p>,0,html-button-response,323,1180103,0.0-18.0-25.0,57828,List2B,white,woman,,,,,,,,
null,"<div style=""font-size:60px;"">+</div>",,html-keyboard-response,324,1181615,0.0-19.0-0.0,57828,List2B,white,woman,,,,null,,,,
null,"<img src=""stim_listB/shout3.gif""</stim_listB>",,html-keyboard-response,325,1183620,0.0-19.0-1.0,57828,List2B,white,woman,,,,null,,,,
null,is shouting at,,html-keyboard-response,326,1185625,0.0-19.0-2.0,57828,List2B,white,woman,,,,null,,,,
7624,,,survey-text,327,1193251,0.0-19.0-3.0,57828,List2B,white,woman,,,,,"{""Q0"":""beth is shouting at fred""}","<img src=""stim_listB/shout3.gif""</stim_listB>",is shouting at,
null,"<div style=""font-size:60px;"">+</div>",,html-keyboard-response,328,1193753,0.0-19.0-0.1,57828,List2B,white,woman,,,,null,,,,
null,"<img src=""stim_listB/meet7.gif""</stim_listB>",,html-keyboard-response,329,1195760,0.0-19.0-1.1,57828,List2B,white,woman,,,,null,,,,
null,is meeting,,html-keyboard-response,330,1197763,0.0-19.0-2.1,57828,List2B,white,woman,,,,null,,,,
7301,,,survey-text,331,1205066,0.0-19.0-3.1,57828,List2B,white,woman,,,,,"{""Q0"":""kate is meeting jane""}","<img src=""stim_listB/meet7.gif""</stim_listB>",is meeting,
null,"<div style=""font-size:60px;"">+</div>",,html-keyboard-response,332,1205569,0.0-19.0-0.2,57828,List2B,white,woman,,,,null,,,,
null,"<img src=""stim_listB/talk8.gif""</stim_listB>",,html-keyboard-response,333,1207577,0.0-19.0-1.2,57828,List2B,white,woman,,,,null,,,,
null,are talking to each other,,html-keyboard-response,334,1209579,0.0-19.0-2.2,57828,List2B,white,woman,,,,null,,,,
7706,,,survey-text,335,1217288,0.0-19.0-3.2,57828,List2B,white,woman,,,,,"{""Q0"":""beth and jane are talking to each other""}","<img src=""stim_listB/talk8.gif""</stim_listB>",are talking to each other,
null,"<div style=""font-size:60px;"">+</div>",,html-keyboard-response,336,1217792,0.0-19.0-0.3,57828,List2B,white,woman,,,,null,,,,
null,"<img src=""stim_listB/kiss5.gif""</stim_listB>",,html-keyboard-response,337,1219796,0.0-19.0-1.3,57828,List2B,white,woman,,,,null,,,,
null,is kissing,,html-keyboard-response,338,1221798,0.0-19.0-2.3,57828,List2B,white,woman,,,,null,,,,
4725,,,survey-text,339,1226526,0.0-19.0-3.3,57828,List2B,white,woman,,,,,"{""Q0"":""luke is kissing fred""}","<img src=""stim_listB/kiss5.gif""</stim_listB>",is kissing,
null,"<div style=""font-size:60px;"">+</div>",,html-keyboard-response,340,1227028,0.0-19.0-0.4,57828,List2B,white,woman,,,,null,,,,
null,"<img src=""stim_listB/meet4.gif""</stim_listB>",,html-keyboard-response,341,1229033,0.0-19.0-1.4,57828,List2B,white,woman,,,,null,,,,
null,are meeting each other,,html-keyboard-response,342,1231036,0.0-19.0-2.4,57828,List2B,white,woman,,,,null,,,,
7316,,,survey-text,343,1238354,0.0-19.0-3.4,57828,List2B,white,woman,,,,,"{""Q0"":""beth and fred are meeting each other""}","<img src=""stim_listB/meet4.gif""</stim_listB>",are meeting each other,
null,"<div style=""font-size:60px;"">+</div>",,html-keyboard-response,344,1238860,0.0-19.0-0.5,57828,List2B,white,woman,,,,null,,,,
null,"<img src=""stim_listB/argue2.gif""</stim_listB>",,html-keyboard-response,345,1240866,0.0-19.0-1.5,57828,List2B,white,woman,,,,null,,,,
null,are arguing with each other,,html-keyboard-response,346,1242870,0.0-19.0-2.5,57828,List2B,white,woman,,,,null,,,,
7627,,,survey-text,347,1250500,0.0-19.0-3.5,57828,List2B,white,woman,,,,,"{""Q0"":""jane and luke are arguing with each other""}","<img src=""stim_listB/argue2.gif""</stim_listB>",are arguing with each other,
null,"<div style=""font-size:60px;"">+</div>",,html-keyboard-response,348,1251004,0.0-19.0-0.6,57828,List2B,white,woman,,,,null,,,,
null,"<img src=""stim_listB/meet3.gif""</stim_listB>",,html-keyboard-response,349,1253011,0.0-19.0-1.6,57828,List2B,white,woman,,,,null,,,,
null,is meeting,,html-keyboard-response,350,1255014,0.0-19.0-2.6,57828,List2B,white,woman,,,,null,,,,
6427,,,survey-text,351,1261444,0.0-19.0-3.6,57828,List2B,white,woman,,,,,"{""Q0"":""kate is meeting mike""}","<img src=""stim_listB/meet3.gif""</stim_listB>",is meeting,
null,"<div style=""font-size:60px;"">+</div>",,html-keyboard-response,352,1261948,0.0-19.0-0.7,57828,List2B,white,woman,,,,null,,,,
null,"<img src=""stim_listB/hug8.gif""</stim_listB>",,html-keyboard-response,353,1263954,0.0-19.0-1.7,57828,List2B,white,woman,,,,null,,,,
null,are hugging each other,,html-keyboard-response,354,1265958,0.0-19.0-2.7,57828,List2B,white,woman,,,,null,,,,
6861,,,survey-text,355,1272820,0.0-19.0-3.7,57828,List2B,white,woman,,,,,"{""Q0"":""kate and jane are hugging each other""}","<img src=""stim_listB/hug8.gif""</stim_listB>",are hugging each other,
null,"<div style=""font-size:60px;"">+</div>",,html-keyboard-response,356,1273325,0.0-19.0-0.8,57828,List2B,white,woman,,,,null,,,,
null,"<img src=""stim_listB/touch8.gif""</stim_listB>",,html-keyboard-response,357,1275332,0.0-19.0-1.8,57828,List2B,white,woman,,,,null,,,,
null,are touching each other,,html-keyboard-response,358,1277337,0.0-19.0-2.8,57828,List2B,white,woman,,,,null,,,,
10745,,,survey-text,359,1288083,0.0-19.0-3.8,57828,List2B,white,woman,,,,,"{""Q0"":""ruth and kate are touching each other""}","<img src=""stim_listB/touch8.gif""</stim_listB>",are touching each other,
null,"<div style=""font-size:60px;"">+</div>",,html-keyboard-response,360,1288585,0.0-19.0-0.9,57828,List2B,white,woman,,,,null,,,,
null,"<img src=""stim_listB/argue6.gif""</stim_listB>",,html-keyboard-response,361,1290590,0.0-19.0-1.9,57828,List2B,white,woman,,,,null,,,,
null,are arguing with each other,,html-keyboard-response,362,1292595,0.0-19.0-2.9,57828,List2B,white,woman,,,,null,,,,
9642,,,survey-text,363,1302238,0.0-19.0-3.9,57828,List2B,white,woman,,,,,"{""Q0"":""mike and luke are arguing with each other""}","<img src=""stim_listB/argue6.gif""</stim_listB>",are arguing with each other,
null,"<div style=""font-size:60px;"">+</div>",,html-keyboard-response,364,1302742,0.0-19.0-0.10,57828,List2B,white,woman,,,,null,,,,
null,"<img src=""stim_listB/marry5.gif""</stim_listB>",,html-keyboard-response,365,1304747,0.0-19.0-1.10,57828,List2B,white,woman,,,,null,,,,
null,is marrying,,html-keyboard-response,366,1306750,0.0-19.0-2.10,57828,List2B,white,woman,,,,null,,,,
5141,,,survey-text,367,1311893,0.0-19.0-3.10,57828,List2B,white,woman,,,,,"{""Q0"":""fred is marrying dave""}","<img src=""stim_listB/marry5.gif""</stim_listB>",is marrying,
null,"<div style=""font-size:60px;"">+</div>",,html-keyboard-response,368,1312397,0.0-19.0-0.11,57828,List2B,white,woman,,,,null,,,,
null,"<img src=""stim_listB/fight6.gif""</stim_listB>",,html-keyboard-response,369,1314402,0.0-19.0-1.11,57828,List2B,white,woman,,,,null,,,,
null,are fighting each other,,html-keyboard-response,370,1316407,0.0-19.0-2.11,57828,List2B,white,woman,,,,null,,,,
8577,,,survey-text,371,1324985,0.0-19.0-3.11,57828,List2B,white,woman,,,,,"{""Q0"":""luke and fred are fighting each other""}","<img src=""stim_listB/fight6.gif""</stim_listB>",are fighting each other,
null,"<div style=""font-size:60px;"">+</div>",,html-keyboard-response,372,1325489,0.0-19.0-0.12,57828,List2B,white,woman,,,,null,,,,
null,"<img src=""stim_listB/marry4.gif""</stim_listB>",,html-keyboard-response,373,1327496,0.0-19.0-1.12,57828,List2B,white,woman,,,,null,,,,
null,are marrying each other,,html-keyboard-response,374,1329501,0.0-19.0-2.12,57828,List2B,white,woman,,,,null,,,,
6870,,,survey-text,375,1336373,0.0-19.0-3.12,57828,List2B,white,woman,,,,,"{""Q0"":""kate and fred are marrying each other""}","<img src=""stim_listB/marry4.gif""</stim_listB>",are marrying each other,
null,"<div style=""font-size:60px;"">+</div>",,html-keyboard-response,376,1336875,0.0-19.0-0.13,57828,List2B,white,woman,,,,null,,,,
null,"<img src=""stim_listB/touch3.gif""</stim_listB>",,html-keyboard-response,377,1338883,0.0-19.0-1.13,57828,List2B,white,woman,,,,null,,,,
null,is touching,,html-keyboard-response,378,1340887,0.0-19.0-2.13,57828,List2B,white,woman,,,,null,,,,
5442,,,survey-text,379,1346331,0.0-19.0-3.13,57828,List2B,white,woman,,,,,"{""Q0"":""kate is touching mike""}","<img src=""stim_listB/touch3.gif""</stim_listB>",is touching,
null,"<div style=""font-size:60px;"">+</div>",,html-keyboard-response,380,1346833,0.0-19.0-0.14,57828,List2B,white,woman,,,,null,,,,
null,"<img src=""stim_listB/argue5.gif""</stim_listB>",,html-keyboard-response,381,1348839,0.0-19.0-1.14,57828,List2B,white,woman,,,,null,,,,
null,is arguing with,,html-keyboard-response,382,1350844,0.0-19.0-2.14,57828,List2B,white,woman,,,,null,,,,
6134,,,survey-text,383,1356979,0.0-19.0-3.14,57828,List2B,white,woman,,,,,"{""Q0"":""dave is arguing with fred""}","<img src=""stim_listB/argue5.gif""</stim_listB>",is arguing with,
null,"<div style=""font-size:60px;"">+</div>",,html-keyboard-response,384,1357483,0.0-19.0-0.15,57828,List2B,white,woman,,,,null,,,,
null,"<img src=""stim_listB/talk1.gif""</stim_listB>",,html-keyboard-response,385,1359487,0.0-19.0-1.15,57828,List2B,white,woman,,,,null,,,,
null,is talking to,,html-keyboard-response,386,1361490,0.0-19.0-2.15,57828,List2B,white,woman,,,,null,,,,
5323,,,survey-text,387,1366814,0.0-19.0-3.15,57828,List2B,white,woman,,,,,"{""Q0"":""jane is talking to luke""}","<img src=""stim_listB/talk1.gif""</stim_listB>",is talking to,
null,"<div style=""font-size:60px;"">+</div>",,html-keyboard-response,388,1367319,0.0-19.0-0.16,57828,List2B,white,woman,,,,null,,,,
null,"<img src=""stim_listB/argue8.gif""</stim_listB>",,html-keyboard-response,389,1369326,0.0-19.0-1.16,57828,List2B,white,woman,,,,null,,,,
null,are arguing with each other,,html-keyboard-response,390,1371331,0.0-19.0-2.16,57828,List2B,white,woman,,,,null,,,,
9405,,,survey-text,391,1380738,0.0-19.0-3.16,57828,List2B,white,woman,,,,,"{""Q0"":""ruth and kate are arguing with each other""}","<img src=""stim_listB/argue8.gif""</stim_listB>",are arguing with each other,
null,"<div style=""font-size:60px;"">+</div>",,html-keyboard-response,392,1381243,0.0-19.0-0.17,57828,List2B,white,woman,,,,null,,,,
null,"<img src=""stim_listB/dance8.gif""</stim_listB>",,html-keyboard-response,393,1383250,0.0-19.0-1.17,57828,List2B,white,woman,,,,null,,,,
null,are dancing with each other,,html-keyboard-response,394,1385253,0.0-19.0-2.17,57828,List2B,white,woman,,,,null,,,,
12609,,,survey-text,395,1397863,0.0-19.0-3.17,57828,List2B,white,woman,,,,,"{""Q0"":""beth and jane are dancing with each other""}","<img src=""stim_listB/dance8.gif""</stim_listB>",are dancing with each other,
null,"<div style=""font-size:60px;"">+</div>",,html-keyboard-response,396,1398368,0.0-19.0-0.18,57828,List2B,white,woman,,,,null,,,,
null,"<img src=""stim_listB/talk2.gif""</stim_listB>",,html-keyboard-response,397,1400372,0.0-19.0-1.18,57828,List2B,white,woman,,,,null,,,,
null,are talking to each other,,html-keyboard-response,398,1402377,0.0-19.0-2.18,57828,List2B,white,woman,,,,null,,,,
6930,,,survey-text,399,1409309,0.0-19.0-3.18,57828,List2B,white,woman,,,,,"{""Q0"":""ruth and dave are talking to each other""}","<img src=""stim_listB/talk2.gif""</stim_listB>",are talking to each other,
null,"<div style=""font-size:60px;"">+</div>",,html-keyboard-response,400,1409813,0.0-19.0-0.19,57828,List2B,white,woman,,,,null,,,,
null,"<img src=""stim_listB/dance5.gif""</stim_listB>",,html-keyboard-response,401,1411819,0.0-19.0-1.19,57828,List2B,white,woman,,,,null,,,,
null,is dancing with,,html-keyboard-response,402,1413823,0.0-19.0-2.19,57828,List2B,white,woman,,,,null,,,,
7213,,,survey-text,403,1421037,0.0-19.0-3.19,57828,List2B,white,woman,,,,,"{""Q0"":""mike is dancing with luke""}","<img src=""stim_listB/dance5.gif""</stim_listB>",is dancing with,
1773,<p>Thank you for completing that task.</p><p>The final part of this session is a short questionnaire.</p><p>Press Continue.</p>,0,html-button-response,404,1422812,0.0-20.0,57828,List2B,white,woman,,,,,,,,
16149,,,survey-text,405,1439966,0.0-21.0,57828,List2B,white,woman,,,,,"{""Q0"":""27"",""Q1"":""English"",""Q2"":""English"",""Q3"":""UK"",""Q4"":""White"",""Q5"":""Female""}",,,demographics
52995,,,survey-likert,406,1492987,0.0-22.0,57828,List2B,white,woman,,,,,"{""Q0"":3,""Q1"":3,""Q2"":2,""Q3"":4,""Q4"":1,""Q5"":3,""Q6"":1,""Q7"":1,""Q8"":2,""Q9"":2,""Q10"":3,""Q11"":3,""Q12"":3,""Q13"":3}",,,likert_race
47729,,,survey-likert,407,1540721,0.0-23.0,57828,List2B,white,woman,,,,,"{""Q0"":4,""Q1"":4,""Q2"":3,""Q3"":3,""Q4"":4,""Q5"":4,""Q6"":3,""Q7"":"""",""Q8"":3,""Q9"":4,""Q10"":4,""Q11"":3,""Q12"":3,""Q13"":3}",,,likert_gender
11873,,,survey-text,408,1552595,0.0-24.0,57828,List2B,white,woman,,,,,"{""Q0"":""ccc""}",,,worker_id
27439,,,external-html,409,1580068,0.0-25.0,57828,List2B,white,woman,debrief.html,,,,,,,
