rt,stimulus,button_pressed,trial_type,trial_index,time_elapsed,internal_node_id,subject,list,ppt_race,ppt_gender,url,first_guess,correct,key_press,responses,image_type,phrase_type,test_part
3621,Welcome to the experiment. Press Continue to begin.,0,html-button-response,0,3627,0.0-0.0,60076,List1A,white,woman,,,,,,,,
16938,,,external-html,1,21631,0.0-1.0,60076,List1A,white,woman,consent.html,,,,,,,
15559,"<p>On the next page, you will see portraits of 8 people and their names.</p><p>Your first task is to take a few minutes to memorise the names of these people.</p><p>You will have to recall their names during the rest of the experiment, so it is</p><p>essential that you try to memorise these people and their names as best as you can.</p><br><p><strong>You will then be tested on your memory of these names and portraits.</strong></p><br><p>The experiment will start after you have completed this memory test.</p><br><p>Ready?</p>",0,html-button-response,2,37193,0.0-2.0,60076,List1A,white,woman,,,,,,,,
73073,"<img src='img/portrait_matrix_list1.JPG' style='width:900px;height:500px;''></img><p>If you have memorised all the portraits and names and are ready to start, press Continue.</p><p><strong>Please note: Your memory of these faces will be tested 4 times during this experiment.</strong></p>",0,html-button-response,3,111272,0.0-3.0-0.0,60076,List1A,white,woman,,,,,,,,
6939,"<img src=""portrait/WM2.jpg""style=""width:400px;height:400px;""></img>",7,html-button-response,4,119218,0.0-3.0-1.0,60076,List1A,white,woman,,TRUE,7,,,,,
null,CORRECT,,html-keyboard-response,5,120727,0.0-3.0-2.0-0.0,60076,List1A,white,woman,,,,null,,,,
2113,"<img src=""portrait/BW2.jpg""style=""width:400px;height:400px;""></img>",0,html-button-response,6,122844,0.0-3.0-4.0,60076,List1A,white,woman,,TRUE,2,,,,,
3689,"<img src=""portrait/BW2.jpg""style=""width:400px;height:400px;""></img>",2,html-button-response,7,127538,0.0-3.0-6.0-0.0,60076,List1A,white,woman,,FALSE,2,,,,,
null,CORRECT,,html-keyboard-response,8,129043,0.0-3.0-6.0-1.0-0.0,60076,List1A,white,woman,,,,null,,,,
2567,"<img src=""portrait/BM1.jpg""style=""width:400px;height:400px;""></img>",4,html-button-response,9,131615,0.0-3.0-7.0,60076,List1A,white,woman,,TRUE,4,,,,,
null,CORRECT,,html-keyboard-response,10,133119,0.0-3.0-8.0-0.0,60076,List1A,white,woman,,,,null,,,,
4103,"<img src=""portrait/BW1.jpg""style=""width:400px;height:400px;""></img>",0,html-button-response,11,137228,0.0-3.0-10.0,60076,List1A,white,woman,,TRUE,0,,,,,
null,CORRECT,,html-keyboard-response,12,138733,0.0-3.0-11.0-0.0,60076,List1A,white,woman,,,,null,,,,
4025,"<img src=""portrait/BM2.jpg""style=""width:400px;height:400px;""></img>",5,html-button-response,13,142762,0.0-3.0-13.0,60076,List1A,white,woman,,TRUE,5,,,,,
null,CORRECT,,html-keyboard-response,14,144267,0.0-3.0-14.0-0.0,60076,List1A,white,woman,,,,null,,,,
2168,"<img src=""portrait/WW2.jpg""style=""width:400px;height:400px;""></img>",3,html-button-response,15,146439,0.0-3.0-16.0,60076,List1A,white,woman,,TRUE,3,,,,,
null,CORRECT,,html-keyboard-response,16,147943,0.0-3.0-17.0-0.0,60076,List1A,white,woman,,,,null,,,,
1911,"<img src=""portrait/WW1.jpg""style=""width:400px;height:400px;""></img>",1,html-button-response,17,149858,0.0-3.0-19.0,60076,List1A,white,woman,,TRUE,1,,,,,
null,CORRECT,,html-keyboard-response,18,151363,0.0-3.0-20.0-0.0,60076,List1A,white,woman,,,,null,,,,
2651,"<img src=""portrait/WM1.jpg""style=""width:400px;height:400px;""></img>",6,html-button-response,19,154019,0.0-3.0-22.0,60076,List1A,white,woman,,TRUE,6,,,,,
null,CORRECT,,html-keyboard-response,20,155523,0.0-3.0-23.0-0.0,60076,List1A,white,woman,,,,null,,,,
2210,<p>You got 7 out of 8 right first time. Press Continue.</p>,0,html-button-response,21,157737,0.0-3.0-25.0,60076,List1A,white,woman,,,,,,,,
4514,"As you did not score 100%, the memory game will repeat. Press Continue.",0,html-button-response,22,163255,0.0-3.0-26.0-0.0,60076,List1A,white,woman,,,,,,,,
2544,"<img src='img/portrait_matrix_list1.JPG' style='width:900px;height:500px;''></img><p>If you have memorised all the portraits and names and are ready to start, press Continue.</p><p><strong>Please note: Your memory of these faces will be tested 4 times during this experiment.</strong></p>",0,html-button-response,23,166807,0.0-3.1-0.1,60076,List1A,white,woman,,,,,,,,
9801,"<img src=""portrait/WM2.jpg""style=""width:400px;height:400px;""></img>",7,html-button-response,24,177613,0.0-3.1-1.1,60076,List1A,white,woman,,TRUE,7,,,,,
null,CORRECT,,html-keyboard-response,25,179117,0.0-3.1-2.1-0.1,60076,List1A,white,woman,,,,null,,,,
4987,"<img src=""portrait/BW2.jpg""style=""width:400px;height:400px;""></img>",2,html-button-response,26,184109,0.0-3.1-4.1,60076,List1A,white,woman,,TRUE,2,,,,,
null,CORRECT,,html-keyboard-response,27,185614,0.0-3.1-5.1-0.1,60076,List1A,white,woman,,,,null,,,,
1933,"<img src=""portrait/BM1.jpg""style=""width:400px;height:400px;""></img>",4,html-button-response,28,187552,0.0-3.1-7.1,60076,List1A,white,woman,,TRUE,4,,,,,
null,CORRECT,,html-keyboard-response,29,189056,0.0-3.1-8.1-0.1,60076,List1A,white,woman,,,,null,,,,
5419,"<img src=""portrait/BW1.jpg""style=""width:400px;height:400px;""></img>",0,html-button-response,30,194479,0.0-3.1-10.1,60076,List1A,white,woman,,TRUE,0,,,,,
null,CORRECT,,html-keyboard-response,31,195983,0.0-3.1-11.1-0.1,60076,List1A,white,woman,,,,null,,,,
2328,"<img src=""portrait/BM2.jpg""style=""width:400px;height:400px;""></img>",5,html-button-response,32,198315,0.0-3.1-13.1,60076,List1A,white,woman,,TRUE,5,,,,,
null,CORRECT,,html-keyboard-response,33,199820,0.0-3.1-14.1-0.1,60076,List1A,white,woman,,,,null,,,,
1544,"<img src=""portrait/WW2.jpg""style=""width:400px;height:400px;""></img>",3,html-button-response,34,201368,0.0-3.1-16.1,60076,List1A,white,woman,,TRUE,3,,,,,
null,CORRECT,,html-keyboard-response,35,202879,0.0-3.1-17.1-0.1,60076,List1A,white,woman,,,,null,,,,
1800,"<img src=""portrait/WW1.jpg""style=""width:400px;height:400px;""></img>",1,html-button-response,36,204686,0.0-3.1-19.1,60076,List1A,white,woman,,TRUE,1,,,,,
null,CORRECT,,html-keyboard-response,37,206191,0.0-3.1-20.1-0.1,60076,List1A,white,woman,,,,null,,,,
2673,"<img src=""portrait/WM1.jpg""style=""width:400px;height:400px;""></img>",6,html-button-response,38,208870,0.0-3.1-22.1,60076,List1A,white,woman,,TRUE,6,,,,,
null,CORRECT,,html-keyboard-response,39,210375,0.0-3.1-23.1-0.1,60076,List1A,white,woman,,,,null,,,,
1700,<p>You got 8 out of 8 right first time. Press Continue.</p>,0,html-button-response,40,212079,0.0-3.1-25.1,60076,List1A,white,woman,,,,,,,,
41216,"<p>In this experiment, you will view photographs of the people from the memory game interacting.</p><p>By using the <strong>exact</strong> phrase given <i>after</i> the photograph appears and recalling the correct names of the people in the photographs, form a sentence describing the interaction. You do not need to capitalise names.</p><p>Type your answer in the space provided. Please complete every sentence before moving onto the next trial.</p><p>You will only have a few seconds to memorise each given photograph and phrase before you can respond, so try your best to focus.</p><p>An example is given below. Press 'Continue' when you are ready.</p><img src='img/speaking_example_v2.jpg' style='width:800px;height:460px;''></img>",0,html-button-response,41,254300,0.0-4.0,60076,List1A,white,woman,,,,,,,,
1931,"<p>Before the experiment starts, you will watch two example trials. Press 'Continue'.</p>",0,html-button-response,42,257235,0.0-5.0,60076,List1A,white,woman,,,,,,,,
null,<img src='img/speaking_WW.gif'></img>,,html-keyboard-response,43,260241,0.0-6.0,60076,List1A,white,woman,,,,null,,,,
null,<p>is speaking to</p>,,html-keyboard-response,44,262245,0.0-7.0,60076,List1A,white,woman,,,,null,,,,
2623,<p><b>Answer:</b> kate is speaking to beth</p>,0,html-button-response,45,264873,0.0-8.0,60076,List1A,white,woman,,,,,,,,
null,<img src='img/pointing_BM.gif'></img>,,html-keyboard-response,46,267879,0.0-9.0,60076,List1A,white,woman,,,,null,,,,
null,<p>are pointing at each other</p>,,html-keyboard-response,47,269883,0.0-10.0,60076,List1A,white,woman,,,,null,,,,
1574,<p><b>Answer:</b> luke and dave are pointing at each other</p>,0,html-button-response,48,271459,0.0-11.0,60076,List1A,white,woman,,,,,,,,
1874,"<p>Ready to start the experiment?</p><br><p><strong>Remember to describe the picture using a full sentence,</strong></p><p><strong> that combines the names of the people with the given phrase.</strong></p><p><strong> You do not need to capitalise names or use punctuation.</strong></p><br><p>Press 'Continue' to begin.</p>",0,html-button-response,49,274337,0.0-12.0,60076,List1A,white,woman,,,,,,,,
null,"<div style=""font-size:60px;"">+</div>",,html-keyboard-response,50,275841,0.0-13.0-0.0,60076,List1A,white,woman,,,,null,,,,
null,"<img src=""stim_listA/hug1.gif""</stim_listA>",,html-keyboard-response,51,277847,0.0-13.0-1.0,60076,List1A,white,woman,,,,null,,,,
null,is hugging,,html-keyboard-response,52,279851,0.0-13.0-2.0,60076,List1A,white,woman,,,,null,,,,
8179,,,survey-text,53,288035,0.0-13.0-3.0,60076,List1A,white,woman,,,,,"{""Q0"":""Fred is hugging Beth ""}","<img src=""stim_listA/hug1.gif""</stim_listA>",is hugging,
null,"<div style=""font-size:60px;"">+</div>",,html-keyboard-response,54,288540,0.0-13.0-0.1,60076,List1A,white,woman,,,,null,,,,
null,"<img src=""stim_listA/meet3.gif""</stim_listA>",,html-keyboard-response,55,290545,0.0-13.0-1.1,60076,List1A,white,woman,,,,null,,,,
null,is meeting,,html-keyboard-response,56,292549,0.0-13.0-2.1,60076,List1A,white,woman,,,,null,,,,
12587,,,survey-text,57,305139,0.0-13.0-3.1,60076,List1A,white,woman,,,,,"{""Q0"":""Dave is meeting Jane""}","<img src=""stim_listA/meet3.gif""</stim_listA>",is meeting,
null,"<div style=""font-size:60px;"">+</div>",,html-keyboard-response,58,305642,0.0-13.0-0.2,60076,List1A,white,woman,,,,null,,,,
null,"<img src=""stim_listA/kiss5.gif""</stim_listA>",,html-keyboard-response,59,307647,0.0-13.0-1.2,60076,List1A,white,woman,,,,null,,,,
null,is kissing,,html-keyboard-response,60,309651,0.0-13.0-2.2,60076,List1A,white,woman,,,,null,,,,
11618,,,survey-text,61,321272,0.0-13.0-3.2,60076,List1A,white,woman,,,,,"{""Q0"":""Fred is kissing luke ""}","<img src=""stim_listA/kiss5.gif""</stim_listA>",is kissing,
null,"<div style=""font-size:60px;"">+</div>",,html-keyboard-response,62,321775,0.0-13.0-0.3,60076,List1A,white,woman,,,,null,,,,
null,"<img src=""stim_listA/kiss8.gif""</stim_listA>",,html-keyboard-response,63,323780,0.0-13.0-1.3,60076,List1A,white,woman,,,,null,,,,
null,are kissing each other,,html-keyboard-response,64,325785,0.0-13.0-2.3,60076,List1A,white,woman,,,,null,,,,
7675,,,survey-text,65,333463,0.0-13.0-3.3,60076,List1A,white,woman,,,,,"{""Q0"":""Kate is kissing Ruth ""}","<img src=""stim_listA/kiss8.gif""</stim_listA>",are kissing each other,
null,"<div style=""font-size:60px;"">+</div>",,html-keyboard-response,66,333967,0.0-13.0-0.4,60076,List1A,white,woman,,,,null,,,,
null,"<img src=""stim_listA/argue3.gif""</stim_listA>",,html-keyboard-response,67,335971,0.0-13.0-1.4,60076,List1A,white,woman,,,,null,,,,
null,is arguing with,,html-keyboard-response,68,337975,0.0-13.0-2.4,60076,List1A,white,woman,,,,null,,,,
7978,,,survey-text,69,345957,0.0-13.0-3.4,60076,List1A,white,woman,,,,,"{""Q0"":""Jane is arguing with Dave ""}","<img src=""stim_listA/argue3.gif""</stim_listA>",is arguing with,
null,"<div style=""font-size:60px;"">+</div>",,html-keyboard-response,70,346462,0.0-13.0-0.5,60076,List1A,white,woman,,,,null,,,,
null,"<img src=""stim_listA/shout7.gif""</stim_listA>",,html-keyboard-response,71,348465,0.0-13.0-1.5,60076,List1A,white,woman,,,,null,,,,
null,is shouting at,,html-keyboard-response,72,350469,0.0-13.0-2.5,60076,List1A,white,woman,,,,null,,,,
8093,,,survey-text,73,358565,0.0-13.0-3.5,60076,List1A,white,woman,,,,,"{""Q0"":""Ruth is shouting at beth""}","<img src=""stim_listA/shout7.gif""</stim_listA>",is shouting at,
null,"<div style=""font-size:60px;"">+</div>",,html-keyboard-response,74,359068,0.0-13.0-0.6,60076,List1A,white,woman,,,,null,,,,
null,"<img src=""stim_listA/dance5.gif""</stim_listA>",,html-keyboard-response,75,361073,0.0-13.0-1.6,60076,List1A,white,woman,,,,null,,,,
null,is dancing with,,html-keyboard-response,76,363077,0.0-13.0-2.6,60076,List1A,white,woman,,,,null,,,,
7977,,,survey-text,77,371058,0.0-13.0-3.6,60076,List1A,white,woman,,,,,"{""Q0"":""Fred is dancing with Dave ""}","<img src=""stim_listA/dance5.gif""</stim_listA>",is dancing with,
null,"<div style=""font-size:60px;"">+</div>",,html-keyboard-response,78,371561,0.0-13.0-0.7,60076,List1A,white,woman,,,,null,,,,
null,"<img src=""stim_listA/hug7.gif""</stim_listA>",,html-keyboard-response,79,373565,0.0-13.0-1.7,60076,List1A,white,woman,,,,null,,,,
null,is hugging,,html-keyboard-response,80,375569,0.0-13.0-2.7,60076,List1A,white,woman,,,,null,,,,
8749,,,survey-text,81,384321,0.0-13.0-3.7,60076,List1A,white,woman,,,,,"{""Q0"":""Jane is hugging Beth ""}","<img src=""stim_listA/hug7.gif""</stim_listA>",is hugging,
null,"<div style=""font-size:60px;"">+</div>",,html-keyboard-response,82,384824,0.0-13.0-0.8,60076,List1A,white,woman,,,,null,,,,
null,"<img src=""stim_listA/dance2.gif""</stim_listA>",,html-keyboard-response,83,386832,0.0-13.0-1.8,60076,List1A,white,woman,,,,null,,,,
null,are dancing with each other,,html-keyboard-response,84,388836,0.0-13.0-2.8,60076,List1A,white,woman,,,,null,,,,
7644,,,survey-text,85,396484,0.0-13.0-3.8,60076,List1A,white,woman,,,,,"{""Q0"":""Mike is dancing with beth""}","<img src=""stim_listA/dance2.gif""</stim_listA>",are dancing with each other,
null,"<div style=""font-size:60px;"">+</div>",,html-keyboard-response,86,396987,0.0-13.0-0.9,60076,List1A,white,woman,,,,null,,,,
null,"<img src=""stim_listA/argue6.gif""</stim_listA>",,html-keyboard-response,87,398991,0.0-13.0-1.9,60076,List1A,white,woman,,,,null,,,,
null,are arguing with each other,,html-keyboard-response,88,400995,0.0-13.0-2.9,60076,List1A,white,woman,,,,null,,,,
12553,,,survey-text,89,413551,0.0-13.0-3.9,60076,List1A,white,woman,,,,,"{""Q0"":""Fred and Dave are arguing with each other ""}","<img src=""stim_listA/argue6.gif""</stim_listA>",are arguing with each other,
null,"<div style=""font-size:60px;"">+</div>",,html-keyboard-response,90,414055,0.0-13.0-0.10,60076,List1A,white,woman,,,,null,,,,
null,"<img src=""stim_listA/hug6.gif""</stim_listA>",,html-keyboard-response,91,416059,0.0-13.0-1.10,60076,List1A,white,woman,,,,null,,,,
null,are hugging each other,,html-keyboard-response,92,418062,0.0-13.0-2.10,60076,List1A,white,woman,,,,null,,,,
9182,,,survey-text,93,427246,0.0-13.0-3.10,60076,List1A,white,woman,,,,,"{""Q0"":""Mike and Dave are hugging each other ""}","<img src=""stim_listA/hug6.gif""</stim_listA>",are hugging each other,
null,"<div style=""font-size:60px;"">+</div>",,html-keyboard-response,94,427749,0.0-13.0-0.11,60076,List1A,white,woman,,,,null,,,,
null,"<img src=""stim_listA/shout3.gif""</stim_listA>",,html-keyboard-response,95,429753,0.0-13.0-1.11,60076,List1A,white,woman,,,,null,,,,
null,is shouting at,,html-keyboard-response,96,431757,0.0-13.0-2.11,60076,List1A,white,woman,,,,null,,,,
10646,,,survey-text,97,442406,0.0-13.0-3.11,60076,List1A,white,woman,,,,,"{""Q0"":""Ruth is shouting at luke""}","<img src=""stim_listA/shout3.gif""</stim_listA>",is shouting at,
null,"<div style=""font-size:60px;"">+</div>",,html-keyboard-response,98,442910,0.0-13.0-0.12,60076,List1A,white,woman,,,,null,,,,
null,"<img src=""stim_listA/meet7.gif""</stim_listA>",,html-keyboard-response,99,444915,0.0-13.0-1.12,60076,List1A,white,woman,,,,null,,,,
null,is meeting,,html-keyboard-response,100,446919,0.0-13.0-2.12,60076,List1A,white,woman,,,,null,,,,
6750,,,survey-text,101,453672,0.0-13.0-3.12,60076,List1A,white,woman,,,,,"{""Q0"":""Kate is meeting jane""}","<img src=""stim_listA/meet7.gif""</stim_listA>",is meeting,
null,"<div style=""font-size:60px;"">+</div>",,html-keyboard-response,102,454175,0.0-13.0-0.13,60076,List1A,white,woman,,,,null,,,,
null,"<img src=""stim_listA/kiss4.gif""</stim_listA>",,html-keyboard-response,103,456180,0.0-13.0-1.13,60076,List1A,white,woman,,,,null,,,,
null,are kissing each other,,html-keyboard-response,104,458184,0.0-13.0-2.13,60076,List1A,white,woman,,,,null,,,,
8364,,,survey-text,105,466551,0.0-13.0-3.13,60076,List1A,white,woman,,,,,"{""Q0"":""Jane and Dave are kissing each other""}","<img src=""stim_listA/kiss4.gif""</stim_listA>",are kissing each other,
null,"<div style=""font-size:60px;"">+</div>",,html-keyboard-response,106,467054,0.0-13.0-0.14,60076,List1A,white,woman,,,,null,,,,
null,"<img src=""stim_listA/hug5.gif""</stim_listA>",,html-keyboard-response,107,469058,0.0-13.0-1.14,60076,List1A,white,woman,,,,null,,,,
null,is hugging,,html-keyboard-response,108,471062,0.0-13.0-2.14,60076,List1A,white,woman,,,,null,,,,
8352,,,survey-text,109,479417,0.0-13.0-3.14,60076,List1A,white,woman,,,,,"{""Q0"":""Fred is hugging luke ""}","<img src=""stim_listA/hug5.gif""</stim_listA>",is hugging,
null,"<div style=""font-size:60px;"">+</div>",,html-keyboard-response,110,479920,0.0-13.0-0.15,60076,List1A,white,woman,,,,null,,,,
null,"<img src=""stim_listA/shout8.gif""</stim_listA>",,html-keyboard-response,111,481924,0.0-13.0-1.15,60076,List1A,white,woman,,,,null,,,,
null,are shouting at each other,,html-keyboard-response,112,483928,0.0-13.0-2.15,60076,List1A,white,woman,,,,null,,,,
9835,,,survey-text,113,493766,0.0-13.0-3.15,60076,List1A,white,woman,,,,,"{""Q0"":""Kate and Jane are shouting at each other ""}","<img src=""stim_listA/shout8.gif""</stim_listA>",are shouting at each other,
null,"<div style=""font-size:60px;"">+</div>",,html-keyboard-response,114,494269,0.0-13.0-0.16,60076,List1A,white,woman,,,,null,,,,
null,"<img src=""stim_listA/meet5.gif""</stim_listA>",,html-keyboard-response,115,496274,0.0-13.0-1.16,60076,List1A,white,woman,,,,null,,,,
null,is meeting,,html-keyboard-response,116,498277,0.0-13.0-2.16,60076,List1A,white,woman,,,,null,,,,
7142,,,survey-text,117,505423,0.0-13.0-3.16,60076,List1A,white,woman,,,,,"{""Q0"":""Fred is meeting mike ""}","<img src=""stim_listA/meet5.gif""</stim_listA>",is meeting,
null,"<div style=""font-size:60px;"">+</div>",,html-keyboard-response,118,505926,0.0-13.0-0.17,60076,List1A,white,woman,,,,null,,,,
null,"<img src=""stim_listA/dance8.gif""</stim_listA>",,html-keyboard-response,119,507931,0.0-13.0-1.17,60076,List1A,white,woman,,,,null,,,,
null,are dancing with each other,,html-keyboard-response,120,509935,0.0-13.0-2.17,60076,List1A,white,woman,,,,null,,,,
9191,,,survey-text,121,519130,0.0-13.0-3.17,60076,List1A,white,woman,,,,,"{""Q0"":""Kate and Ruth are dancing with each other ""}","<img src=""stim_listA/dance8.gif""</stim_listA>",are dancing with each other,
null,"<div style=""font-size:60px;"">+</div>",,html-keyboard-response,122,519633,0.0-13.0-0.18,60076,List1A,white,woman,,,,null,,,,
null,"<img src=""stim_listA/dance6.gif""</stim_listA>",,html-keyboard-response,123,521637,0.0-13.0-1.18,60076,List1A,white,woman,,,,null,,,,
null,are dancing with each other,,html-keyboard-response,124,523642,0.0-13.0-2.18,60076,List1A,white,woman,,,,null,,,,
11877,,,survey-text,125,535522,0.0-13.0-3.18,60076,List1A,white,woman,,,,,"{""Q0"":""Mike and luke are dancing with each other ""}","<img src=""stim_listA/dance6.gif""</stim_listA>",are dancing with each other,
null,"<div style=""font-size:60px;"">+</div>",,html-keyboard-response,126,536025,0.0-13.0-0.19,60076,List1A,white,woman,,,,null,,,,
null,"<img src=""stim_listA/touch8.gif""</stim_listA>",,html-keyboard-response,127,538030,0.0-13.0-1.19,60076,List1A,white,woman,,,,null,,,,
null,are touching each other,,html-keyboard-response,128,540034,0.0-13.0-2.19,60076,List1A,white,woman,,,,null,,,,
13434,,,survey-text,129,553471,0.0-13.0-3.19,60076,List1A,white,woman,,,,,"{""Q0"":""Beth and Ruth are touching each other ""}","<img src=""stim_listA/touch8.gif""</stim_listA>",are touching each other,
4828,"<img src='img/portrait_matrix_list1.JPG' style='width:900px;height:500px;''></img><p>If you have memorised all the portraits and names and are ready to start, press Continue.</p><p><strong>Please note: Your memory of these faces will be tested 4 times during this experiment.</strong></p>",0,html-button-response,130,558304,0.0-14.0-0.0,60076,List1A,white,woman,,,,,,,,
9414,"<img src=""portrait/BW2.jpg""style=""width:400px;height:400px;""></img>",2,html-button-response,131,568735,0.0-14.0-1.0,60076,List1A,white,woman,,TRUE,2,,,,,
null,CORRECT,,html-keyboard-response,132,570241,0.0-14.0-2.0-0.0,60076,List1A,white,woman,,,,null,,,,
2013,"<img src=""portrait/WM2.jpg""style=""width:400px;height:400px;""></img>",7,html-button-response,133,572262,0.0-14.0-4.0,60076,List1A,white,woman,,TRUE,7,,,,,
null,CORRECT,,html-keyboard-response,134,573766,0.0-14.0-5.0-0.0,60076,List1A,white,woman,,,,null,,,,
1882,"<img src=""portrait/BM1.jpg""style=""width:400px;height:400px;""></img>",4,html-button-response,135,575655,0.0-14.0-7.0,60076,List1A,white,woman,,TRUE,4,,,,,
null,CORRECT,,html-keyboard-response,136,577160,0.0-14.0-8.0-0.0,60076,List1A,white,woman,,,,null,,,,
3141,"<img src=""portrait/BW1.jpg""style=""width:400px;height:400px;""></img>",0,html-button-response,137,580307,0.0-14.0-10.0,60076,List1A,white,woman,,TRUE,0,,,,,
null,CORRECT,,html-keyboard-response,138,581812,0.0-14.0-11.0-0.0,60076,List1A,white,woman,,,,null,,,,
1865,"<img src=""portrait/WM1.jpg""style=""width:400px;height:400px;""></img>",6,html-button-response,139,583684,0.0-14.0-13.0,60076,List1A,white,woman,,TRUE,6,,,,,
null,CORRECT,,html-keyboard-response,140,585193,0.0-14.0-14.0-0.0,60076,List1A,white,woman,,,,null,,,,
1776,"<img src=""portrait/WW1.jpg""style=""width:400px;height:400px;""></img>",1,html-button-response,141,586978,0.0-14.0-16.0,60076,List1A,white,woman,,TRUE,1,,,,,
null,CORRECT,,html-keyboard-response,142,588482,0.0-14.0-17.0-0.0,60076,List1A,white,woman,,,,null,,,,
1451,"<img src=""portrait/WW2.jpg""style=""width:400px;height:400px;""></img>",3,html-button-response,143,589937,0.0-14.0-19.0,60076,List1A,white,woman,,TRUE,3,,,,,
null,CORRECT,,html-keyboard-response,144,591442,0.0-14.0-20.0-0.0,60076,List1A,white,woman,,,,null,,,,
2174,"<img src=""portrait/BM2.jpg""style=""width:400px;height:400px;""></img>",5,html-button-response,145,593622,0.0-14.0-22.0,60076,List1A,white,woman,,TRUE,5,,,,,
null,CORRECT,,html-keyboard-response,146,595127,0.0-14.0-23.0-0.0,60076,List1A,white,woman,,,,null,,,,
1486,<p>You got 8 out of 8 right first time. Press Continue.</p>,0,html-button-response,147,596615,0.0-14.0-25.0,60076,List1A,white,woman,,,,,,,,
null,"<div style=""font-size:60px;"">+</div>",,html-keyboard-response,148,598122,0.0-15.0-0.0,60076,List1A,white,woman,,,,null,,,,
null,"<img src=""stim_listA/touch3.gif""</stim_listA>",,html-keyboard-response,149,600127,0.0-15.0-1.0,60076,List1A,white,woman,,,,null,,,,
null,is touching,,html-keyboard-response,150,602131,0.0-15.0-2.0,60076,List1A,white,woman,,,,null,,,,
6461,,,survey-text,151,608595,0.0-15.0-3.0,60076,List1A,white,woman,,,,,"{""Q0"":""Dave is touching Jane ""}","<img src=""stim_listA/touch3.gif""</stim_listA>",is touching,
null,"<div style=""font-size:60px;"">+</div>",,html-keyboard-response,152,609098,0.0-15.0-0.1,60076,List1A,white,woman,,,,null,,,,
null,"<img src=""stim_listA/shout1.gif""</stim_listA>",,html-keyboard-response,153,611103,0.0-15.0-1.1,60076,List1A,white,woman,,,,null,,,,
null,is shouting at,,html-keyboard-response,154,613106,0.0-15.0-2.1,60076,List1A,white,woman,,,,null,,,,
10824,,,survey-text,155,623933,0.0-15.0-3.1,60076,List1A,white,woman,,,,,"{""Q0"":""Fred is shouting at Beth ""}","<img src=""stim_listA/shout1.gif""</stim_listA>",is shouting at,
null,"<div style=""font-size:60px;"">+</div>",,html-keyboard-response,156,624436,0.0-15.0-0.2,60076,List1A,white,woman,,,,null,,,,
null,"<img src=""stim_listA/talk3.gif""</stim_listA>",,html-keyboard-response,157,626441,0.0-15.0-1.2,60076,List1A,white,woman,,,,null,,,,
null,is talking to,,html-keyboard-response,158,628445,0.0-15.0-2.2,60076,List1A,white,woman,,,,null,,,,
8466,,,survey-text,159,636914,0.0-15.0-3.2,60076,List1A,white,woman,,,,,"{""Q0"":""Luke is talking to jane""}","<img src=""stim_listA/talk3.gif""</stim_listA>",is talking to,
null,"<div style=""font-size:60px;"">+</div>",,html-keyboard-response,160,637417,0.0-15.0-0.3,60076,List1A,white,woman,,,,null,,,,
null,"<img src=""stim_listA/argue5.gif""</stim_listA>",,html-keyboard-response,161,639422,0.0-15.0-1.3,60076,List1A,white,woman,,,,null,,,,
null,is arguing with,,html-keyboard-response,162,641426,0.0-15.0-2.3,60076,List1A,white,woman,,,,null,,,,
7431,,,survey-text,163,648862,0.0-15.0-3.3,60076,List1A,white,woman,,,,,"{""Q0"":""Luke is arguing with mike ""}","<img src=""stim_listA/argue5.gif""</stim_listA>",is arguing with,
null,"<div style=""font-size:60px;"">+</div>",,html-keyboard-response,164,649366,0.0-15.0-0.4,60076,List1A,white,woman,,,,null,,,,
null,"<img src=""stim_listA/talk8.gif""</stim_listA>",,html-keyboard-response,165,651371,0.0-15.0-1.4,60076,List1A,white,woman,,,,null,,,,
null,are talking to each other,,html-keyboard-response,166,653375,0.0-15.0-2.4,60076,List1A,white,woman,,,,null,,,,
14767,,,survey-text,167,668152,0.0-15.0-3.4,60076,List1A,white,woman,,,,,"{""Q0"":""Kate and ruth are talking to each other ""}","<img src=""stim_listA/talk8.gif""</stim_listA>",are talking to each other,
null,"<div style=""font-size:60px;"">+</div>",,html-keyboard-response,168,668656,0.0-15.0-0.5,60076,List1A,white,woman,,,,null,,,,
null,"<img src=""stim_listA/marry1.gif""</stim_listA>",,html-keyboard-response,169,670661,0.0-15.0-1.5,60076,List1A,white,woman,,,,null,,,,
null,is marrying,,html-keyboard-response,170,672665,0.0-15.0-2.5,60076,List1A,white,woman,,,,null,,,,
8503,,,survey-text,171,681171,0.0-15.0-3.5,60076,List1A,white,woman,,,,,"{""Q0"":""Beth is marrying mike""}","<img src=""stim_listA/marry1.gif""</stim_listA>",is marrying,
null,"<div style=""font-size:60px;"">+</div>",,html-keyboard-response,172,681675,0.0-15.0-0.6,60076,List1A,white,woman,,,,null,,,,
null,"<img src=""stim_listA/marry3.gif""</stim_listA>",,html-keyboard-response,173,683679,0.0-15.0-1.6,60076,List1A,white,woman,,,,null,,,,
null,is marrying,,html-keyboard-response,174,685682,0.0-15.0-2.6,60076,List1A,white,woman,,,,null,,,,
5536,,,survey-text,175,691221,0.0-15.0-3.6,60076,List1A,white,woman,,,,,"{""Q0"":""Ruth is marrying dave""}","<img src=""stim_listA/marry3.gif""</stim_listA>",is marrying,
null,"<div style=""font-size:60px;"">+</div>",,html-keyboard-response,176,691724,0.0-15.0-0.7,60076,List1A,white,woman,,,,null,,,,
null,"<img src=""stim_listA/meet2.gif""</stim_listA>",,html-keyboard-response,177,693729,0.0-15.0-1.7,60076,List1A,white,woman,,,,null,,,,
null,are meeting each other,,html-keyboard-response,178,695733,0.0-15.0-2.7,60076,List1A,white,woman,,,,null,,,,
8647,,,survey-text,179,704384,0.0-15.0-3.7,60076,List1A,white,woman,,,,,"{""Q0"":""Beth and Fred are meeting each other ""}","<img src=""stim_listA/meet2.gif""</stim_listA>",are meeting each other,
null,"<div style=""font-size:60px;"">+</div>",,html-keyboard-response,180,704888,0.0-15.0-0.8,60076,List1A,white,woman,,,,null,,,,
null,"<img src=""stim_listA/kiss1.gif""</stim_listA>",,html-keyboard-response,181,706892,0.0-15.0-1.8,60076,List1A,white,woman,,,,null,,,,
null,is kissing,,html-keyboard-response,182,708896,0.0-15.0-2.8,60076,List1A,white,woman,,,,null,,,,
7005,,,survey-text,183,715904,0.0-15.0-3.8,60076,List1A,white,woman,,,,,"{""Q0"":""Beth is kissing fred""}","<img src=""stim_listA/kiss1.gif""</stim_listA>",is kissing,
null,"<div style=""font-size:60px;"">+</div>",,html-keyboard-response,184,716407,0.0-15.0-0.9,60076,List1A,white,woman,,,,null,,,,
null,"<img src=""stim_listA/touch1.gif""</stim_listA>",,html-keyboard-response,185,718412,0.0-15.0-1.9,60076,List1A,white,woman,,,,null,,,,
null,is touching,,html-keyboard-response,186,720416,0.0-15.0-2.9,60076,List1A,white,woman,,,,null,,,,
6984,,,survey-text,187,727403,0.0-15.0-3.9,60076,List1A,white,woman,,,,,"{""Q0"":""Kate is touching mike""}","<img src=""stim_listA/touch1.gif""</stim_listA>",is touching,
null,"<div style=""font-size:60px;"">+</div>",,html-keyboard-response,188,727907,0.0-15.0-0.10,60076,List1A,white,woman,,,,null,,,,
null,"<img src=""stim_listA/touch2.gif""</stim_listA>",,html-keyboard-response,189,729912,0.0-15.0-1.10,60076,List1A,white,woman,,,,null,,,,
null,are touching each other,,html-keyboard-response,190,731916,0.0-15.0-2.10,60076,List1A,white,woman,,,,null,,,,
9456,,,survey-text,191,741380,0.0-15.0-3.10,60076,List1A,white,woman,,,,,"{""Q0"":""Beth and Fred are touching each other ""}","<img src=""stim_listA/touch2.gif""</stim_listA>",are touching each other,
null,"<div style=""font-size:60px;"">+</div>",,html-keyboard-response,192,741885,0.0-15.0-0.11,60076,List1A,white,woman,,,,null,,,,
null,"<img src=""stim_listA/meet1.gif""</stim_listA>",,html-keyboard-response,193,743890,0.0-15.0-1.11,60076,List1A,white,woman,,,,null,,,,
null,is meeting,,html-keyboard-response,194,745894,0.0-15.0-2.11,60076,List1A,white,woman,,,,null,,,,
5160,,,survey-text,195,751056,0.0-15.0-3.11,60076,List1A,white,woman,,,,,"{""Q0"":""Kate is meeting mikw""}","<img src=""stim_listA/meet1.gif""</stim_listA>",is meeting,
null,"<div style=""font-size:60px;"">+</div>",,html-keyboard-response,196,751560,0.0-15.0-0.12,60076,List1A,white,woman,,,,null,,,,
null,"<img src=""stim_listA/hug8.gif""</stim_listA>",,html-keyboard-response,197,753564,0.0-15.0-1.12,60076,List1A,white,woman,,,,null,,,,
null,are hugging each other,,html-keyboard-response,198,755568,0.0-15.0-2.12,60076,List1A,white,woman,,,,null,,,,
9375,,,survey-text,199,764947,0.0-15.0-3.12,60076,List1A,white,woman,,,,,"{""Q0"":""Kate and Jane are hugging each other ""}","<img src=""stim_listA/hug8.gif""</stim_listA>",are hugging each other,
null,"<div style=""font-size:60px;"">+</div>",,html-keyboard-response,200,765451,0.0-15.0-0.13,60076,List1A,white,woman,,,,null,,,,
null,"<img src=""stim_listA/touch4.gif""</stim_listA>",,html-keyboard-response,201,767455,0.0-15.0-1.13,60076,List1A,white,woman,,,,null,,,,
null,are touching each other,,html-keyboard-response,202,769459,0.0-15.0-2.13,60076,List1A,white,woman,,,,null,,,,
8231,,,survey-text,203,777694,0.0-15.0-3.13,60076,List1A,white,woman,,,,,"{""Q0"":""Luke and Ruth are touching each other ""}","<img src=""stim_listA/touch4.gif""</stim_listA>",are touching each other,
null,"<div style=""font-size:60px;"">+</div>",,html-keyboard-response,204,778197,0.0-15.0-0.14,60076,List1A,white,woman,,,,null,,,,
null,"<img src=""stim_listA/fight6.gif""</stim_listA>",,html-keyboard-response,205,780202,0.0-15.0-1.14,60076,List1A,white,woman,,,,null,,,,
null,are fighting each other,,html-keyboard-response,206,782206,0.0-15.0-2.14,60076,List1A,white,woman,,,,null,,,,
8641,,,survey-text,207,790850,0.0-15.0-3.14,60076,List1A,white,woman,,,,,"{""Q0"":""Fred and Luke are fighting each other ""}","<img src=""stim_listA/fight6.gif""</stim_listA>",are fighting each other,
null,"<div style=""font-size:60px;"">+</div>",,html-keyboard-response,208,791354,0.0-15.0-0.15,60076,List1A,white,woman,,,,null,,,,
null,"<img src=""stim_listA/kiss2.gif""</stim_listA>",,html-keyboard-response,209,793359,0.0-15.0-1.15,60076,List1A,white,woman,,,,null,,,,
null,are kissing each other,,html-keyboard-response,210,795363,0.0-15.0-2.15,60076,List1A,white,woman,,,,null,,,,
8189,,,survey-text,211,803556,0.0-15.0-3.15,60076,List1A,white,woman,,,,,"{""Q0"":""Kate and mike are kissing each other ""}","<img src=""stim_listA/kiss2.gif""</stim_listA>",are kissing each other,
null,"<div style=""font-size:60px;"">+</div>",,html-keyboard-response,212,804060,0.0-15.0-0.16,60076,List1A,white,woman,,,,null,,,,
null,"<img src=""stim_listA/dance4.gif""</stim_listA>",,html-keyboard-response,213,806065,0.0-15.0-1.16,60076,List1A,white,woman,,,,null,,,,
null,are dancing with each other,,html-keyboard-response,214,808069,0.0-15.0-2.16,60076,List1A,white,woman,,,,null,,,,
8968,,,survey-text,215,817039,0.0-15.0-3.16,60076,List1A,white,woman,,,,,"{""Q0"":""Dave and Ruth are dancing with each other ""}","<img src=""stim_listA/dance4.gif""</stim_listA>",are dancing with each other,
null,"<div style=""font-size:60px;"">+</div>",,html-keyboard-response,216,817543,0.0-15.0-0.17,60076,List1A,white,woman,,,,null,,,,
null,"<img src=""stim_listA/argue4.gif""</stim_listA>",,html-keyboard-response,217,819547,0.0-15.0-1.17,60076,List1A,white,woman,,,,null,,,,
null,are arguing with each other,,html-keyboard-response,218,821551,0.0-15.0-2.17,60076,List1A,white,woman,,,,null,,,,
8702,,,survey-text,219,830262,0.0-15.0-3.17,60076,List1A,white,woman,,,,,"{""Q0"":""Jane and Luke are arguing with each other ""}","<img src=""stim_listA/argue4.gif""</stim_listA>",are arguing with each other,
null,"<div style=""font-size:60px;"">+</div>",,html-keyboard-response,220,830766,0.0-15.0-0.18,60076,List1A,white,woman,,,,null,,,,
null,"<img src=""stim_listA/fight4.gif""</stim_listA>",,html-keyboard-response,221,832771,0.0-15.0-1.18,60076,List1A,white,woman,,,,null,,,,
null,are fighting each other,,html-keyboard-response,222,834775,0.0-15.0-2.18,60076,List1A,white,woman,,,,null,,,,
10331,,,survey-text,223,845109,0.0-15.0-3.18,60076,List1A,white,woman,,,,,"{""Q0"":""Luke and Ruth are fighting each other ""}","<img src=""stim_listA/fight4.gif""</stim_listA>",are fighting each other,
null,"<div style=""font-size:60px;"">+</div>",,html-keyboard-response,224,845612,0.0-15.0-0.19,60076,List1A,white,woman,,,,null,,,,
null,"<img src=""stim_listA/marry4.gif""</stim_listA>",,html-keyboard-response,225,847617,0.0-15.0-1.19,60076,List1A,white,woman,,,,null,,,,
null,are marrying each other,,html-keyboard-response,226,849621,0.0-15.0-2.19,60076,List1A,white,woman,,,,null,,,,
10740,,,survey-text,227,860370,0.0-15.0-3.19,60076,List1A,white,woman,,,,,"{""Q0"":""Luke and Jane are marrying each other ""}","<img src=""stim_listA/marry4.gif""</stim_listA>",are marrying each other,
2308,"<img src='img/portrait_matrix_list1.JPG' style='width:900px;height:500px;''></img><p>If you have memorised all the portraits and names and are ready to start, press Continue.</p><p><strong>Please note: Your memory of these faces will be tested 4 times during this experiment.</strong></p>",0,html-button-response,228,862683,0.0-16.0-0.0,60076,List1A,white,woman,,,,,,,,
3375,"<img src=""portrait/BW1.jpg""style=""width:400px;height:400px;""></img>",0,html-button-response,229,867062,0.0-16.0-1.0,60076,List1A,white,woman,,TRUE,0,,,,,
null,CORRECT,,html-keyboard-response,230,868572,0.0-16.0-2.0-0.0,60076,List1A,white,woman,,,,null,,,,
2028,"<img src=""portrait/WW1.jpg""style=""width:400px;height:400px;""></img>",1,html-button-response,231,870606,0.0-16.0-4.0,60076,List1A,white,woman,,TRUE,1,,,,,
null,CORRECT,,html-keyboard-response,232,872111,0.0-16.0-5.0-0.0,60076,List1A,white,woman,,,,null,,,,
2614,"<img src=""portrait/WM1.jpg""style=""width:400px;height:400px;""></img>",6,html-button-response,233,874732,0.0-16.0-7.0,60076,List1A,white,woman,,TRUE,6,,,,,
null,CORRECT,,html-keyboard-response,234,876237,0.0-16.0-8.0-0.0,60076,List1A,white,woman,,,,null,,,,
1638,"<img src=""portrait/WW2.jpg""style=""width:400px;height:400px;""></img>",3,html-button-response,235,877883,0.0-16.0-10.0,60076,List1A,white,woman,,TRUE,3,,,,,
null,CORRECT,,html-keyboard-response,236,879387,0.0-16.0-11.0-0.0,60076,List1A,white,woman,,,,null,,,,
2041,"<img src=""portrait/WM2.jpg""style=""width:400px;height:400px;""></img>",7,html-button-response,237,881433,0.0-16.0-13.0,60076,List1A,white,woman,,TRUE,7,,,,,
null,CORRECT,,html-keyboard-response,238,882938,0.0-16.0-14.0-0.0,60076,List1A,white,woman,,,,null,,,,
2424,"<img src=""portrait/BW2.jpg""style=""width:400px;height:400px;""></img>",2,html-button-response,239,885369,0.0-16.0-16.0,60076,List1A,white,woman,,TRUE,2,,,,,
null,CORRECT,,html-keyboard-response,240,886873,0.0-16.0-17.0-0.0,60076,List1A,white,woman,,,,null,,,,
2307,"<img src=""portrait/BM2.jpg""style=""width:400px;height:400px;""></img>",5,html-button-response,241,889187,0.0-16.0-19.0,60076,List1A,white,woman,,TRUE,5,,,,,
null,CORRECT,,html-keyboard-response,242,890691,0.0-16.0-20.0-0.0,60076,List1A,white,woman,,,,null,,,,
1766,"<img src=""portrait/BM1.jpg""style=""width:400px;height:400px;""></img>",4,html-button-response,243,892465,0.0-16.0-22.0,60076,List1A,white,woman,,TRUE,4,,,,,
null,CORRECT,,html-keyboard-response,244,893969,0.0-16.0-23.0-0.0,60076,List1A,white,woman,,,,null,,,,
1385,<p>You got 8 out of 8 right first time. Press Continue.</p>,0,html-button-response,245,895359,0.0-16.0-25.0,60076,List1A,white,woman,,,,,,,,
null,"<div style=""font-size:60px;"">+</div>",,html-keyboard-response,246,896872,0.0-17.0-0.0,60076,List1A,white,woman,,,,null,,,,
null,"<img src=""stim_listA/talk4.gif""</stim_listA>",,html-keyboard-response,247,898878,0.0-17.0-1.0,60076,List1A,white,woman,,,,null,,,,
null,are talking to each other,,html-keyboard-response,248,900882,0.0-17.0-2.0,60076,List1A,white,woman,,,,null,,,,
8919,,,survey-text,249,909804,0.0-17.0-3.0,60076,List1A,white,woman,,,,,"{""Q0"":""Dave and Ruth are talking to each other ""}","<img src=""stim_listA/talk4.gif""</stim_listA>",are talking to each other,
null,"<div style=""font-size:60px;"">+</div>",,html-keyboard-response,250,910306,0.0-17.0-0.1,60076,List1A,white,woman,,,,null,,,,
null,"<img src=""stim_listA/touch6.gif""</stim_listA>",,html-keyboard-response,251,912311,0.0-17.0-1.1,60076,List1A,white,woman,,,,null,,,,
null,are touching each other,,html-keyboard-response,252,914315,0.0-17.0-2.1,60076,List1A,white,woman,,,,null,,,,
8932,,,survey-text,253,923251,0.0-17.0-3.1,60076,List1A,white,woman,,,,,"{""Q0"":""Fred and Luke are touching each other ""}","<img src=""stim_listA/touch6.gif""</stim_listA>",are touching each other,
null,"<div style=""font-size:60px;"">+</div>",,html-keyboard-response,254,923754,0.0-17.0-0.2,60076,List1A,white,woman,,,,null,,,,
null,"<img src=""stim_listA/marry2.gif""</stim_listA>",,html-keyboard-response,255,925758,0.0-17.0-1.2,60076,List1A,white,woman,,,,null,,,,
null,are marrying each other,,html-keyboard-response,256,927762,0.0-17.0-2.2,60076,List1A,white,woman,,,,null,,,,
16582,,,survey-text,257,944349,0.0-17.0-3.2,60076,List1A,white,woman,,,,,"{""Q0"":""Fred and kate are marrying each other ""}","<img src=""stim_listA/marry2.gif""</stim_listA>",are marrying each other,
null,"<div style=""font-size:60px;"">+</div>",,html-keyboard-response,258,944852,0.0-17.0-0.3,60076,List1A,white,woman,,,,null,,,,
null,"<img src=""stim_listA/talk5.gif""</stim_listA>",,html-keyboard-response,259,946855,0.0-17.0-1.3,60076,List1A,white,woman,,,,null,,,,
null,is talking to,,html-keyboard-response,260,948859,0.0-17.0-2.3,60076,List1A,white,woman,,,,null,,,,
7446,,,survey-text,261,956309,0.0-17.0-3.3,60076,List1A,white,woman,,,,,"{""Q0"":""Fred is talking to dave""}","<img src=""stim_listA/talk5.gif""</stim_listA>",is talking to,
null,"<div style=""font-size:60px;"">+</div>",,html-keyboard-response,262,956813,0.0-17.0-0.4,60076,List1A,white,woman,,,,null,,,,
null,"<img src=""stim_listA/talk6.gif""</stim_listA>",,html-keyboard-response,263,958818,0.0-17.0-1.4,60076,List1A,white,woman,,,,null,,,,
null,are talking to each other,,html-keyboard-response,264,960822,0.0-17.0-2.4,60076,List1A,white,woman,,,,null,,,,
9263,,,survey-text,265,970089,0.0-17.0-3.4,60076,List1A,white,woman,,,,,"{""Q0"":""Luke and mike are talking to each other ""}","<img src=""stim_listA/talk6.gif""</stim_listA>",are talking to each other,
null,"<div style=""font-size:60px;"">+</div>",,html-keyboard-response,266,970592,0.0-17.0-0.5,60076,List1A,white,woman,,,,null,,,,
null,"<img src=""stim_listA/meet6.gif""</stim_listA>",,html-keyboard-response,267,972597,0.0-17.0-1.5,60076,List1A,white,woman,,,,null,,,,
null,are meeting each other,,html-keyboard-response,268,974601,0.0-17.0-2.5,60076,List1A,white,woman,,,,null,,,,
8503,,,survey-text,269,983107,0.0-17.0-3.5,60076,List1A,white,woman,,,,,"{""Q0"":""Luke and Fred are meeting each other ""}","<img src=""stim_listA/meet6.gif""</stim_listA>",are meeting each other,
null,"<div style=""font-size:60px;"">+</div>",,html-keyboard-response,270,983610,0.0-17.0-0.6,60076,List1A,white,woman,,,,null,,,,
null,"<img src=""stim_listA/talk1.gif""</stim_listA>",,html-keyboard-response,271,985614,0.0-17.0-1.6,60076,List1A,white,woman,,,,null,,,,
null,is talking to,,html-keyboard-response,272,987618,0.0-17.0-2.6,60076,List1A,white,woman,,,,null,,,,
7178,,,survey-text,273,994804,0.0-17.0-3.6,60076,List1A,white,woman,,,,,"{""Q0"":""Fred is talking to Kate ""}","<img src=""stim_listA/talk1.gif""</stim_listA>",is talking to,
null,"<div style=""font-size:60px;"">+</div>",,html-keyboard-response,274,995308,0.0-17.0-0.7,60076,List1A,white,woman,,,,null,,,,
null,"<img src=""stim_listA/kiss3.gif""</stim_listA>",,html-keyboard-response,275,997313,0.0-17.0-1.7,60076,List1A,white,woman,,,,null,,,,
null,is kissing,,html-keyboard-response,276,999317,0.0-17.0-2.7,60076,List1A,white,woman,,,,null,,,,
5571,,,survey-text,277,1004891,0.0-17.0-3.7,60076,List1A,white,woman,,,,,"{""Q0"":""Ruth is kissing like ""}","<img src=""stim_listA/kiss3.gif""</stim_listA>",is kissing,
null,"<div style=""font-size:60px;"">+</div>",,html-keyboard-response,278,1005395,0.0-17.0-0.8,60076,List1A,white,woman,,,,null,,,,
null,"<img src=""stim_listA/marry7.gif""</stim_listA>",,html-keyboard-response,279,1007399,0.0-17.0-1.8,60076,List1A,white,woman,,,,null,,,,
null,is marrying,,html-keyboard-response,280,1009403,0.0-17.0-2.8,60076,List1A,white,woman,,,,null,,,,
8027,,,survey-text,281,1017434,0.0-17.0-3.8,60076,List1A,white,woman,,,,,"{""Q0"":""Ruth is marrying Kate""}","<img src=""stim_listA/marry7.gif""</stim_listA>",is marrying,
null,"<div style=""font-size:60px;"">+</div>",,html-keyboard-response,282,1017937,0.0-17.0-0.9,60076,List1A,white,woman,,,,null,,,,
null,"<img src=""stim_listA/hug2.gif""</stim_listA>",,html-keyboard-response,283,1019943,0.0-17.0-1.9,60076,List1A,white,woman,,,,null,,,,
null,are hugging each other,,html-keyboard-response,284,1021946,0.0-17.0-2.9,60076,List1A,white,woman,,,,null,,,,
22303,,,survey-text,285,1044253,0.0-17.0-3.9,60076,List1A,white,woman,,,,,"{""Q0"":""Kate and mike are hugging each other ""}","<img src=""stim_listA/hug2.gif""</stim_listA>",are hugging each other,
null,"<div style=""font-size:60px;"">+</div>",,html-keyboard-response,286,1044757,0.0-17.0-0.10,60076,List1A,white,woman,,,,null,,,,
null,"<img src=""stim_listA/fight1.gif""</stim_listA>",,html-keyboard-response,287,1046760,0.0-17.0-1.10,60076,List1A,white,woman,,,,null,,,,
null,is fighting,,html-keyboard-response,288,1048764,0.0-17.0-2.10,60076,List1A,white,woman,,,,null,,,,
8924,,,survey-text,289,1057691,0.0-17.0-3.10,60076,List1A,white,woman,,,,,"{""Q0"":""Kate is fighting mike""}","<img src=""stim_listA/fight1.gif""</stim_listA>",is fighting,
null,"<div style=""font-size:60px;"">+</div>",,html-keyboard-response,290,1058195,0.0-17.0-0.11,60076,List1A,white,woman,,,,null,,,,
null,"<img src=""stim_listA/touch7.gif""</stim_listA>",,html-keyboard-response,291,1060199,0.0-17.0-1.11,60076,List1A,white,woman,,,,null,,,,
null,is touching,,html-keyboard-response,292,1062203,0.0-17.0-2.11,60076,List1A,white,woman,,,,null,,,,
5720,,,survey-text,293,1067926,0.0-17.0-3.11,60076,List1A,white,woman,,,,,"{""Q0"":""Kate is touching jane""}","<img src=""stim_listA/touch7.gif""</stim_listA>",is touching,
null,"<div style=""font-size:60px;"">+</div>",,html-keyboard-response,294,1068439,0.0-17.0-0.12,60076,List1A,white,woman,,,,null,,,,
null,"<img src=""stim_listA/hug3.gif""</stim_listA>",,html-keyboard-response,295,1070442,0.0-17.0-1.12,60076,List1A,white,woman,,,,null,,,,
null,is hugging,,html-keyboard-response,296,1072446,0.0-17.0-2.12,60076,List1A,white,woman,,,,null,,,,
9013,,,survey-text,297,1081462,0.0-17.0-3.12,60076,List1A,white,woman,,,,,"{""Q0"":""Ruth is hugging luke""}","<img src=""stim_listA/hug3.gif""</stim_listA>",is hugging,
null,"<div style=""font-size:60px;"">+</div>",,html-keyboard-response,298,1081966,0.0-17.0-0.13,60076,List1A,white,woman,,,,null,,,,
null,"<img src=""stim_listA/argue2.gif""</stim_listA>",,html-keyboard-response,299,1083971,0.0-17.0-1.13,60076,List1A,white,woman,,,,null,,,,
null,are arguing with each other,,html-keyboard-response,300,1085974,0.0-17.0-2.13,60076,List1A,white,woman,,,,null,,,,
9782,,,survey-text,301,1095760,0.0-17.0-3.13,60076,List1A,white,woman,,,,,"{""Q0"":""Kate and Fred are arguing with each other ""}","<img src=""stim_listA/argue2.gif""</stim_listA>",are arguing with each other,
null,"<div style=""font-size:60px;"">+</div>",,html-keyboard-response,302,1096264,0.0-17.0-0.14,60076,List1A,white,woman,,,,null,,,,
null,"<img src=""stim_listA/marry8.gif""</stim_listA>",,html-keyboard-response,303,1098267,0.0-17.0-1.14,60076,List1A,white,woman,,,,null,,,,
null,are marrying each other,,html-keyboard-response,304,1100270,0.0-17.0-2.14,60076,List1A,white,woman,,,,null,,,,
10414,,,survey-text,305,1110688,0.0-17.0-3.14,60076,List1A,white,woman,,,,,"{""Q0"":""Jane and Beth are marrying each other ""}","<img src=""stim_listA/marry8.gif""</stim_listA>",are marrying each other,
null,"<div style=""font-size:60px;"">+</div>",,html-keyboard-response,306,1111191,0.0-17.0-0.15,60076,List1A,white,woman,,,,null,,,,
null,"<img src=""stim_listA/meet4.gif""</stim_listA>",,html-keyboard-response,307,1113196,0.0-17.0-1.15,60076,List1A,white,woman,,,,null,,,,
null,are meeting each other,,html-keyboard-response,308,1115200,0.0-17.0-2.15,60076,List1A,white,woman,,,,null,,,,
7481,,,survey-text,309,1122685,0.0-17.0-3.15,60076,List1A,white,woman,,,,,"{""Q0"":""Luke and Ruth are meeting each other ""}","<img src=""stim_listA/meet4.gif""</stim_listA>",are meeting each other,
null,"<div style=""font-size:60px;"">+</div>",,html-keyboard-response,310,1123188,0.0-17.0-0.16,60076,List1A,white,woman,,,,null,,,,
null,"<img src=""stim_listA/talk7.gif""</stim_listA>",,html-keyboard-response,311,1125193,0.0-17.0-1.16,60076,List1A,white,woman,,,,null,,,,
null,is talking to,,html-keyboard-response,312,1127197,0.0-17.0-2.16,60076,List1A,white,woman,,,,null,,,,
6408,,,survey-text,313,1133608,0.0-17.0-3.16,60076,List1A,white,woman,,,,,"{""Q0"":""Beth is talking to jane""}","<img src=""stim_listA/talk7.gif""</stim_listA>",is talking to,
null,"<div style=""font-size:60px;"">+</div>",,html-keyboard-response,314,1134111,0.0-17.0-0.17,60076,List1A,white,woman,,,,null,,,,
null,"<img src=""stim_listA/fight5.gif""</stim_listA>",,html-keyboard-response,315,1136114,0.0-17.0-1.17,60076,List1A,white,woman,,,,null,,,,
null,is fighting,,html-keyboard-response,316,1138118,0.0-17.0-2.17,60076,List1A,white,woman,,,,null,,,,
6534,,,survey-text,317,1144656,0.0-17.0-3.17,60076,List1A,white,woman,,,,,"{""Q0"":""Mike is fighting Dave ""}","<img src=""stim_listA/fight5.gif""</stim_listA>",is fighting,
null,"<div style=""font-size:60px;"">+</div>",,html-keyboard-response,318,1145159,0.0-17.0-0.18,60076,List1A,white,woman,,,,null,,,,
null,"<img src=""stim_listA/dance3.gif""</stim_listA>",,html-keyboard-response,319,1147163,0.0-17.0-1.18,60076,List1A,white,woman,,,,null,,,,
null,is dancing with,,html-keyboard-response,320,1149167,0.0-17.0-2.18,60076,List1A,white,woman,,,,null,,,,
7288,,,survey-text,321,1156459,0.0-17.0-3.18,60076,List1A,white,woman,,,,,"{""Q0"":""Luke is dancing with jane""}","<img src=""stim_listA/dance3.gif""</stim_listA>",is dancing with,
null,"<div style=""font-size:60px;"">+</div>",,html-keyboard-response,322,1156964,0.0-17.0-0.19,60076,List1A,white,woman,,,,null,,,,
null,"<img src=""stim_listA/kiss6.gif""</stim_listA>",,html-keyboard-response,323,1158969,0.0-17.0-1.19,60076,List1A,white,woman,,,,null,,,,
null,are kissing each other,,html-keyboard-response,324,1160973,0.0-17.0-2.19,60076,List1A,white,woman,,,,null,,,,
7931,,,survey-text,325,1168908,0.0-17.0-3.19,60076,List1A,white,woman,,,,,"{""Q0"":""Like and Dave are kissing each other ""}","<img src=""stim_listA/kiss6.gif""</stim_listA>",are kissing each other,
2393,"<img src='img/portrait_matrix_list1.JPG' style='width:900px;height:500px;''></img><p>If you have memorised all the portraits and names and are ready to start, press Continue.</p><p><strong>Please note: Your memory of these faces will be tested 4 times during this experiment.</strong></p>",0,html-button-response,326,1171311,0.0-18.0-0.0,60076,List1A,white,woman,,,,,,,,
1646,"<img src=""portrait/BM2.jpg""style=""width:400px;height:400px;""></img>",5,html-button-response,327,1173965,0.0-18.0-1.0,60076,List1A,white,woman,,TRUE,5,,,,,
null,CORRECT,,html-keyboard-response,328,1175471,0.0-18.0-2.0-0.0,60076,List1A,white,woman,,,,null,,,,
2505,"<img src=""portrait/WM1.jpg""style=""width:400px;height:400px;""></img>",6,html-button-response,329,1177983,0.0-18.0-4.0,60076,List1A,white,woman,,TRUE,6,,,,,
null,CORRECT,,html-keyboard-response,330,1179488,0.0-18.0-5.0-0.0,60076,List1A,white,woman,,,,null,,,,
1430,"<img src=""portrait/WW2.jpg""style=""width:400px;height:400px;""></img>",3,html-button-response,331,1180925,0.0-18.0-7.0,60076,List1A,white,woman,,TRUE,3,,,,,
null,CORRECT,,html-keyboard-response,332,1182430,0.0-18.0-8.0-0.0,60076,List1A,white,woman,,,,null,,,,
1749,"<img src=""portrait/WM2.jpg""style=""width:400px;height:400px;""></img>",7,html-button-response,333,1184187,0.0-18.0-10.0,60076,List1A,white,woman,,TRUE,7,,,,,
null,CORRECT,,html-keyboard-response,334,1185691,0.0-18.0-11.0-0.0,60076,List1A,white,woman,,,,null,,,,
1865,"<img src=""portrait/WW1.jpg""style=""width:400px;height:400px;""></img>",1,html-button-response,335,1187564,0.0-18.0-13.0,60076,List1A,white,woman,,TRUE,1,,,,,
null,CORRECT,,html-keyboard-response,336,1189068,0.0-18.0-14.0-0.0,60076,List1A,white,woman,,,,null,,,,
2232,"<img src=""portrait/BW1.jpg""style=""width:400px;height:400px;""></img>",0,html-button-response,337,1191307,0.0-18.0-16.0,60076,List1A,white,woman,,TRUE,0,,,,,
null,CORRECT,,html-keyboard-response,338,1192812,0.0-18.0-17.0-0.0,60076,List1A,white,woman,,,,null,,,,
1666,"<img src=""portrait/BW2.jpg""style=""width:400px;height:400px;""></img>",2,html-button-response,339,1194484,0.0-18.0-19.0,60076,List1A,white,woman,,TRUE,2,,,,,
null,CORRECT,,html-keyboard-response,340,1195989,0.0-18.0-20.0-0.0,60076,List1A,white,woman,,,,null,,,,
2140,"<img src=""portrait/BM1.jpg""style=""width:400px;height:400px;""></img>",4,html-button-response,341,1198136,0.0-18.0-22.0,60076,List1A,white,woman,,TRUE,4,,,,,
null,CORRECT,,html-keyboard-response,342,1199640,0.0-18.0-23.0-0.0,60076,List1A,white,woman,,,,null,,,,
1469,<p>You got 8 out of 8 right first time. Press Continue.</p>,0,html-button-response,343,1201120,0.0-18.0-25.0,60076,List1A,white,woman,,,,,,,,
null,"<div style=""font-size:60px;"">+</div>",,html-keyboard-response,344,1202628,0.0-19.0-0.0,60076,List1A,white,woman,,,,null,,,,
null,"<img src=""stim_listA/meet8.gif""</stim_listA>",,html-keyboard-response,345,1204633,0.0-19.0-1.0,60076,List1A,white,woman,,,,null,,,,
null,are meeting each other,,html-keyboard-response,346,1206637,0.0-19.0-2.0,60076,List1A,white,woman,,,,null,,,,
8657,,,survey-text,347,1215297,0.0-19.0-3.0,60076,List1A,white,woman,,,,,"{""Q0"":""Beth and Ruth are meeting eachothwr""}","<img src=""stim_listA/meet8.gif""</stim_listA>",are meeting each other,
null,"<div style=""font-size:60px;"">+</div>",,html-keyboard-response,348,1215800,0.0-19.0-0.1,60076,List1A,white,woman,,,,null,,,,
null,"<img src=""stim_listA/dance7.gif""</stim_listA>",,html-keyboard-response,349,1217804,0.0-19.0-1.1,60076,List1A,white,woman,,,,null,,,,
null,is dancing with,,html-keyboard-response,350,1219806,0.0-19.0-2.1,60076,List1A,white,woman,,,,null,,,,
5337,,,survey-text,351,1225146,0.0-19.0-3.1,60076,List1A,white,woman,,,,,"{""Q0"":""Beth is dancing with jane""}","<img src=""stim_listA/dance7.gif""</stim_listA>",is dancing with,
null,"<div style=""font-size:60px;"">+</div>",,html-keyboard-response,352,1225650,0.0-19.0-0.2,60076,List1A,white,woman,,,,null,,,,
null,"<img src=""stim_listA/argue1.gif""</stim_listA>",,html-keyboard-response,353,1227654,0.0-19.0-1.2,60076,List1A,white,woman,,,,null,,,,
null,is arguing with,,html-keyboard-response,354,1229658,0.0-19.0-2.2,60076,List1A,white,woman,,,,null,,,,
6363,,,survey-text,355,1236024,0.0-19.0-3.2,60076,List1A,white,woman,,,,,"{""Q0"":""Beth is arguing with mike ""}","<img src=""stim_listA/argue1.gif""</stim_listA>",is arguing with,
null,"<div style=""font-size:60px;"">+</div>",,html-keyboard-response,356,1236529,0.0-19.0-0.3,60076,List1A,white,woman,,,,null,,,,
null,"<img src=""stim_listA/hug4.gif""</stim_listA>",,html-keyboard-response,357,1238534,0.0-19.0-1.3,60076,List1A,white,woman,,,,null,,,,
null,are hugging each other,,html-keyboard-response,358,1240537,0.0-19.0-2.3,60076,List1A,white,woman,,,,null,,,,
8265,,,survey-text,359,1248806,0.0-19.0-3.3,60076,List1A,white,woman,,,,,"{""Q0"":""Dave and Jane are hugging each other ""}","<img src=""stim_listA/hug4.gif""</stim_listA>",are hugging each other,
null,"<div style=""font-size:60px;"">+</div>",,html-keyboard-response,360,1249309,0.0-19.0-0.4,60076,List1A,white,woman,,,,null,,,,
null,"<img src=""stim_listA/argue7.gif""</stim_listA>",,html-keyboard-response,361,1251314,0.0-19.0-1.4,60076,List1A,white,woman,,,,null,,,,
null,is arguing with,,html-keyboard-response,362,1253318,0.0-19.0-2.4,60076,List1A,white,woman,,,,null,,,,
5720,,,survey-text,363,1259047,0.0-19.0-3.4,60076,List1A,white,woman,,,,,"{""Q0"":""Kate is arguing with ruth""}","<img src=""stim_listA/argue7.gif""</stim_listA>",is arguing with,
null,"<div style=""font-size:60px;"">+</div>",,html-keyboard-response,364,1259551,0.0-19.0-0.5,60076,List1A,white,woman,,,,null,,,,
null,"<img src=""stim_listA/kiss7.gif""</stim_listA>",,html-keyboard-response,365,1261556,0.0-19.0-1.5,60076,List1A,white,woman,,,,null,,,,
null,is kissing,,html-keyboard-response,366,1263560,0.0-19.0-2.5,60076,List1A,white,woman,,,,null,,,,
5169,,,survey-text,367,1268734,0.0-19.0-3.5,60076,List1A,white,woman,,,,,"{""Q0"":""Beth is kissing ruth""}","<img src=""stim_listA/kiss7.gif""</stim_listA>",is kissing,
null,"<div style=""font-size:60px;"">+</div>",,html-keyboard-response,368,1269237,0.0-19.0-0.6,60076,List1A,white,woman,,,,null,,,,
null,"<img src=""stim_listA/shout6.gif""</stim_listA>",,html-keyboard-response,369,1271242,0.0-19.0-1.6,60076,List1A,white,woman,,,,null,,,,
null,are shouting at each other,,html-keyboard-response,370,1273246,0.0-19.0-2.6,60076,List1A,white,woman,,,,null,,,,
7515,,,survey-text,371,1280765,0.0-19.0-3.6,60076,List1A,white,woman,,,,,"{""Q0"":""Mike and Dave are shouting at eachothwr ""}","<img src=""stim_listA/shout6.gif""</stim_listA>",are shouting at each other,
null,"<div style=""font-size:60px;"">+</div>",,html-keyboard-response,372,1281273,0.0-19.0-0.7,60076,List1A,white,woman,,,,null,,,,
null,"<img src=""stim_listA/talk2.gif""</stim_listA>",,html-keyboard-response,373,1283280,0.0-19.0-1.7,60076,List1A,white,woman,,,,null,,,,
null,are talking to each other,,html-keyboard-response,374,1285283,0.0-19.0-2.7,60076,List1A,white,woman,,,,null,,,,
8989,,,survey-text,375,1294276,0.0-19.0-3.7,60076,List1A,white,woman,,,,,"{""Q0"":""Beth and mike are talking to eachothwr""}","<img src=""stim_listA/talk2.gif""</stim_listA>",are talking to each other,
null,"<div style=""font-size:60px;"">+</div>",,html-keyboard-response,376,1294779,0.0-19.0-0.8,60076,List1A,white,woman,,,,null,,,,
null,"<img src=""stim_listA/shout5.gif""</stim_listA>",,html-keyboard-response,377,1296783,0.0-19.0-1.8,60076,List1A,white,woman,,,,null,,,,
null,is shouting at,,html-keyboard-response,378,1298787,0.0-19.0-2.8,60076,List1A,white,woman,,,,null,,,,
15481,,,survey-text,379,1314272,0.0-19.0-3.8,60076,List1A,white,woman,,,,,"{""Q0"":""Fred is shouting at luke""}","<img src=""stim_listA/shout5.gif""</stim_listA>",is shouting at,
null,"<div style=""font-size:60px;"">+</div>",,html-keyboard-response,380,1314777,0.0-19.0-0.9,60076,List1A,white,woman,,,,null,,,,
null,"<img src=""stim_listA/shout4.gif""</stim_listA>",,html-keyboard-response,381,1316782,0.0-19.0-1.9,60076,List1A,white,woman,,,,null,,,,
null,are shouting at each other,,html-keyboard-response,382,1318786,0.0-19.0-2.9,60076,List1A,white,woman,,,,null,,,,
22187,,,survey-text,383,1340977,0.0-19.0-3.9,60076,List1A,white,woman,,,,,"{""Q0"":""Hame wand Dave are shouting at each other ""}","<img src=""stim_listA/shout4.gif""</stim_listA>",are shouting at each other,
null,"<div style=""font-size:60px;"">+</div>",,html-keyboard-response,384,1341481,0.0-19.0-0.10,60076,List1A,white,woman,,,,null,,,,
null,"<img src=""stim_listA/fight3.gif""</stim_listA>",,html-keyboard-response,385,1343486,0.0-19.0-1.10,60076,List1A,white,woman,,,,null,,,,
null,is fighting,,html-keyboard-response,386,1345491,0.0-19.0-2.10,60076,List1A,white,woman,,,,null,,,,
5184,,,survey-text,387,1350678,0.0-19.0-3.10,60076,List1A,white,woman,,,,,"{""Q0"":""Jane is fighting dave""}","<img src=""stim_listA/fight3.gif""</stim_listA>",is fighting,
null,"<div style=""font-size:60px;"">+</div>",,html-keyboard-response,388,1351181,0.0-19.0-0.11,60076,List1A,white,woman,,,,null,,,,
null,"<img src=""stim_listA/touch5.gif""</stim_listA>",,html-keyboard-response,389,1353186,0.0-19.0-1.11,60076,List1A,white,woman,,,,null,,,,
null,is touching,,html-keyboard-response,390,1355190,0.0-19.0-2.11,60076,List1A,white,woman,,,,null,,,,
5346,,,survey-text,391,1360540,0.0-19.0-3.11,60076,List1A,white,woman,,,,,"{""Q0"":""Dave is touching mike""}","<img src=""stim_listA/touch5.gif""</stim_listA>",is touching,
null,"<div style=""font-size:60px;"">+</div>",,html-keyboard-response,392,1361043,0.0-19.0-0.12,60076,List1A,white,woman,,,,null,,,,
null,"<img src=""stim_listA/fight2.gif""</stim_listA>",,html-keyboard-response,393,1363048,0.0-19.0-1.12,60076,List1A,white,woman,,,,null,,,,
null,are fighting each other,,html-keyboard-response,394,1365053,0.0-19.0-2.12,60076,List1A,white,woman,,,,null,,,,
8146,,,survey-text,395,1373202,0.0-19.0-3.12,60076,List1A,white,woman,,,,,"{""Q0"":""Beth and Fred are fighting eachothwr ""}","<img src=""stim_listA/fight2.gif""</stim_listA>",are fighting each other,
null,"<div style=""font-size:60px;"">+</div>",,html-keyboard-response,396,1373705,0.0-19.0-0.13,60076,List1A,white,woman,,,,null,,,,
null,"<img src=""stim_listA/fight7.gif""</stim_listA>",,html-keyboard-response,397,1375709,0.0-19.0-1.13,60076,List1A,white,woman,,,,null,,,,
null,is fighting,,html-keyboard-response,398,1377713,0.0-19.0-2.13,60076,List1A,white,woman,,,,null,,,,
5059,,,survey-text,399,1382776,0.0-19.0-3.13,60076,List1A,white,woman,,,,,"{""Q0"":""Kate is fighting jane""}","<img src=""stim_listA/fight7.gif""</stim_listA>",is fighting,
null,"<div style=""font-size:60px;"">+</div>",,html-keyboard-response,400,1383280,0.0-19.0-0.14,60076,List1A,white,woman,,,,null,,,,
null,"<img src=""stim_listA/fight8.gif""</stim_listA>",,html-keyboard-response,401,1385284,0.0-19.0-1.14,60076,List1A,white,woman,,,,null,,,,
null,are fighting each other,,html-keyboard-response,402,1387288,0.0-19.0-2.14,60076,List1A,white,woman,,,,null,,,,
7865,,,survey-text,403,1395157,0.0-19.0-3.14,60076,List1A,white,woman,,,,,"{""Q0"":""Beth and Ruth are fighting eachothwr ""}","<img src=""stim_listA/fight8.gif""</stim_listA>",are fighting each other,
null,"<div style=""font-size:60px;"">+</div>",,html-keyboard-response,404,1395661,0.0-19.0-0.15,60076,List1A,white,woman,,,,null,,,,
null,"<img src=""stim_listA/dance1.gif""</stim_listA>",,html-keyboard-response,405,1397667,0.0-19.0-1.15,60076,List1A,white,woman,,,,null,,,,
null,is dancing with,,html-keyboard-response,406,1399671,0.0-19.0-2.15,60076,List1A,white,woman,,,,null,,,,
6020,,,survey-text,407,1405695,0.0-19.0-3.15,60076,List1A,white,woman,,,,,"{""Q0"":""Fred is dancing with Kate ""}","<img src=""stim_listA/dance1.gif""</stim_listA>",is dancing with,
null,"<div style=""font-size:60px;"">+</div>",,html-keyboard-response,408,1406198,0.0-19.0-0.16,60076,List1A,white,woman,,,,null,,,,
null,"<img src=""stim_listA/marry5.gif""</stim_listA>",,html-keyboard-response,409,1408203,0.0-19.0-1.16,60076,List1A,white,woman,,,,null,,,,
null,is marrying,,html-keyboard-response,410,1410207,0.0-19.0-2.16,60076,List1A,white,woman,,,,null,,,,
7080,,,survey-text,411,1417291,0.0-19.0-3.16,60076,List1A,white,woman,,,,,"{""Q0"":""Luke is marrying mike""}","<img src=""stim_listA/marry5.gif""</stim_listA>",is marrying,
null,"<div style=""font-size:60px;"">+</div>",,html-keyboard-response,412,1417800,0.0-19.0-0.17,60076,List1A,white,woman,,,,null,,,,
null,"<img src=""stim_listA/shout2.gif""</stim_listA>",,html-keyboard-response,413,1419805,0.0-19.0-1.17,60076,List1A,white,woman,,,,null,,,,
null,are shouting at each other,,html-keyboard-response,414,1421810,0.0-19.0-2.17,60076,List1A,white,woman,,,,null,,,,
9964,,,survey-text,415,1431777,0.0-19.0-3.17,60076,List1A,white,woman,,,,,"{""Q0"":""Kate and mike are shouting at eachother ""}","<img src=""stim_listA/shout2.gif""</stim_listA>",are shouting at each other,
null,"<div style=""font-size:60px;"">+</div>",,html-keyboard-response,416,1432281,0.0-19.0-0.18,60076,List1A,white,woman,,,,null,,,,
null,"<img src=""stim_listA/argue8.gif""</stim_listA>",,html-keyboard-response,417,1434285,0.0-19.0-1.18,60076,List1A,white,woman,,,,null,,,,
null,are arguing with each other,,html-keyboard-response,418,1436288,0.0-19.0-2.18,60076,List1A,white,woman,,,,null,,,,
10574,,,survey-text,419,1446866,0.0-19.0-3.18,60076,List1A,white,woman,,,,,"{""Q0"":""Ruth and Beth are arguing with each ofher""}","<img src=""stim_listA/argue8.gif""</stim_listA>",are arguing with each other,
null,"<div style=""font-size:60px;"">+</div>",,html-keyboard-response,420,1447369,0.0-19.0-0.19,60076,List1A,white,woman,,,,null,,,,
null,"<img src=""stim_listA/marry6.gif""</stim_listA>",,html-keyboard-response,421,1449374,0.0-19.0-1.19,60076,List1A,white,woman,,,,null,,,,
null,are marrying each other,,html-keyboard-response,422,1451378,0.0-19.0-2.19,60076,List1A,white,woman,,,,null,,,,
10534,,,survey-text,423,1461922,0.0-19.0-3.19,60076,List1A,white,woman,,,,,"{""Q0"":""Dave and Fred are marrying eachothwr""}","<img src=""stim_listA/marry6.gif""</stim_listA>",are marrying each other,
4012,<p>Thank you for completing that task.</p><p>The final part of this session is a short questionnaire.</p><p>Press Continue.</p>,0,html-button-response,424,1465938,0.0-20.0,60076,List1A,white,woman,,,,,,,,
35210,,,survey-text,425,1502157,0.0-21.0,60076,List1A,white,woman,,,,,"{""Q0"":""30"",""Q1"":""English "",""Q2"":""English"",""Q3"":""England"",""Q4"":""Caucasian "",""Q5"":""Female""}",,,demographics
45573,,,survey-likert,426,1547742,0.0-22.0,60076,List1A,white,woman,,,,,"{""Q0"":"""",""Q1"":"""",""Q2"":3,""Q3"":4,""Q4"":5,""Q5"":"""",""Q6"":4,""Q7"":3,""Q8"":3,""Q9"":3,""Q10"":3,""Q11"":3,""Q12"":3,""Q13"":2}",,,likert_race
42590,,,survey-likert,427,1590337,0.0-23.0,60076,List1A,white,woman,,,,,"{""Q0"":3,""Q1"":3,""Q2"":5,""Q3"":5,""Q4"":5,""Q5"":5,""Q6"":5,""Q7"":"""",""Q8"":3,""Q9"":4,""Q10"":5,""Q11"":5,""Q12"":"""",""Q13"":5}",,,likert_gender
6529,,,survey-text,428,1596870,0.0-24.0,60076,List1A,white,woman,,,,,"{""Q0"":""ccc""}",,,worker_id
7255,,,external-html,429,1604872,0.0-25.0,60076,List1A,white,woman,debrief.html,,,,,,,
