rt,stimulus,button_pressed,trial_type,trial_index,time_elapsed,internal_node_id,subject,list,ppt_race,ppt_gender,url,first_guess,correct,key_press,responses,image_type,phrase_type,test_part
4529,Welcome to the experiment. Press Continue to begin.,0,html-button-response,0,4534,0.0-0.0,61847,List1B,white,man,,,,,,,,
100132,,,external-html,1,105711,0.0-1.0,61847,List1B,white,man,consent.html,,,,,,,
18281,"<p>On the next page, you will see portraits of 8 people and their names.</p><p>Your first task is to take a few minutes to memorise the names of these people.</p><p>You will have to recall their names during the rest of the experiment, so it is</p><p>essential that you try to memorise these people and their names as best as you can.</p><br><p><strong>You will then be tested on your memory of these names and portraits.</strong></p><br><p>The experiment will start after you have completed this memory test.</p><br><p>Ready?</p>",0,html-button-response,2,123995,0.0-2.0,61847,List1B,white,man,,,,,,,,
117491,"<img src='img/portrait_matrix_list1.JPG' style='width:900px;height:500px;''></img><p>If you have memorised all the portraits and names and are ready to start, press Continue.</p><p><strong>Please note: Your memory of these faces will be tested 4 times during this experiment.</strong></p>",0,html-button-response,3,242489,0.0-3.0-0.0,61847,List1B,white,man,,,,,,,,
5747,"<img src=""portrait/BM2.jpg""style=""width:400px;height:400px;""></img>",5,html-button-response,4,249240,0.0-3.0-1.0,61847,List1B,white,man,,TRUE,5,,,,,
null,CORRECT,,html-keyboard-response,5,250746,0.0-3.0-2.0-0.0,61847,List1B,white,man,,,,null,,,,
9387,"<img src=""portrait/WW1.jpg""style=""width:400px;height:400px;""></img>",1,html-button-response,6,260135,0.0-3.0-4.0,61847,List1B,white,man,,TRUE,1,,,,,
null,CORRECT,,html-keyboard-response,7,261637,0.0-3.0-5.0-0.0,61847,List1B,white,man,,,,null,,,,
5096,"<img src=""portrait/BW1.jpg""style=""width:400px;height:400px;""></img>",0,html-button-response,8,266735,0.0-3.0-7.0,61847,List1B,white,man,,TRUE,0,,,,,
null,CORRECT,,html-keyboard-response,9,268239,0.0-3.0-8.0-0.0,61847,List1B,white,man,,,,null,,,,
9898,"<img src=""portrait/BM1.jpg""style=""width:400px;height:400px;""></img>",4,html-button-response,10,278139,0.0-3.0-10.0,61847,List1B,white,man,,TRUE,4,,,,,
null,CORRECT,,html-keyboard-response,11,279649,0.0-3.0-11.0-0.0,61847,List1B,white,man,,,,null,,,,
6439,"<img src=""portrait/BW2.jpg""style=""width:400px;height:400px;""></img>",2,html-button-response,12,286091,0.0-3.0-13.0,61847,List1B,white,man,,TRUE,2,,,,,
null,CORRECT,,html-keyboard-response,13,287594,0.0-3.0-14.0-0.0,61847,List1B,white,man,,,,null,,,,
4959,"<img src=""portrait/WM1.jpg""style=""width:400px;height:400px;""></img>",6,html-button-response,14,292557,0.0-3.0-16.0,61847,List1B,white,man,,TRUE,6,,,,,
null,CORRECT,,html-keyboard-response,15,294061,0.0-3.0-17.0-0.0,61847,List1B,white,man,,,,null,,,,
6286,"<img src=""portrait/WW2.jpg""style=""width:400px;height:400px;""></img>",3,html-button-response,16,300349,0.0-3.0-19.0,61847,List1B,white,man,,TRUE,3,,,,,
null,CORRECT,,html-keyboard-response,17,301851,0.0-3.0-20.0-0.0,61847,List1B,white,man,,,,null,,,,
5876,"<img src=""portrait/WM2.jpg""style=""width:400px;height:400px;""></img>",7,html-button-response,18,307729,0.0-3.0-22.0,61847,List1B,white,man,,TRUE,7,,,,,
null,CORRECT,,html-keyboard-response,19,309235,0.0-3.0-23.0-0.0,61847,List1B,white,man,,,,null,,,,
4578,<p>You got 8 out of 8 right first time. Press Continue.</p>,0,html-button-response,20,313815,0.0-3.0-25.0,61847,List1B,white,man,,,,,,,,
46653,"<p>In this experiment, you will view photographs of the people from the memory game interacting.</p><p>By using the <strong>exact</strong> phrase given <i>after</i> the photograph appears and recalling the correct names of the people in the photographs, form a sentence describing the interaction. You do not need to capitalise names.</p><p>Type your answer in the space provided. Please complete every sentence before moving onto the next trial.</p><p>You will only have a few seconds to memorise each given photograph and phrase before you can respond, so try your best to focus.</p><p>An example is given below. Press 'Continue' when you are ready.</p><img src='img/speaking_example_v2.jpg' style='width:800px;height:460px;''></img>",0,html-button-response,21,361471,0.0-4.0,61847,List1B,white,man,,,,,,,,
4460,"<p>Before the experiment starts, you will watch two example trials. Press 'Continue'.</p>",0,html-button-response,22,366932,0.0-5.0,61847,List1B,white,man,,,,,,,,
null,<img src='img/speaking_WW.gif'></img>,,html-keyboard-response,23,369935,0.0-6.0,61847,List1B,white,man,,,,null,,,,
null,<p>is speaking to</p>,,html-keyboard-response,24,371939,0.0-7.0,61847,List1B,white,man,,,,null,,,,
7050,<p><b>Answer:</b> kate is speaking to beth</p>,0,html-button-response,25,378989,0.0-8.0,61847,List1B,white,man,,,,,,,,
null,<img src='img/pointing_BM.gif'></img>,,html-keyboard-response,26,381994,0.0-9.0,61847,List1B,white,man,,,,null,,,,
null,<p>are pointing at each other</p>,,html-keyboard-response,27,383999,0.0-10.0,61847,List1B,white,man,,,,null,,,,
5392,<p><b>Answer:</b> luke and dave are pointing at each other</p>,0,html-button-response,28,389393,0.0-11.0,61847,List1B,white,man,,,,,,,,
12121,"<p>Ready to start the experiment?</p><br><p><strong>Remember to describe the picture using a full sentence,</strong></p><p><strong>that combines the names of the people with the given phrase.</strong></p><p><strong>If you do not do this correctly you will not be paid.</strong></p><p><strong> You do not need to capitalise names or use punctuation.</strong></p><br><p>Press 'Continue' to begin.</p>",0,html-button-response,29,402520,0.0-12.0,61847,List1B,white,man,,,,,,,,
null,"<div style=""font-size:60px;"">+</div>",,html-keyboard-response,30,404030,0.0-13.0-0.0,61847,List1B,white,man,,,,null,,,,
null,"<img src=""stim_listB/shout8.gif""</stim_listB>",,html-keyboard-response,31,406036,0.0-13.0-1.0,61847,List1B,white,man,,,,null,,,,
null,are shouting at each other,,html-keyboard-response,32,408042,0.0-13.0-2.0,61847,List1B,white,man,,,,null,,,,
26981,,,survey-text,33,435023,0.0-13.0-3.0,61847,List1B,white,man,,,,,"{""Q0"":""kate and jane are shouting at each other""}","<img src=""stim_listB/shout8.gif""</stim_listB>",are shouting at each other,
null,"<div style=""font-size:60px;"">+</div>",,html-keyboard-response,34,435529,0.0-13.0-0.1,61847,List1B,white,man,,,,null,,,,
null,"<img src=""stim_listB/dance4.gif""</stim_listB>",,html-keyboard-response,35,437535,0.0-13.0-1.1,61847,List1B,white,man,,,,null,,,,
null,are dancing with each other,,html-keyboard-response,36,439541,0.0-13.0-2.1,61847,List1B,white,man,,,,null,,,,
16536,,,survey-text,37,456079,0.0-13.0-3.1,61847,List1B,white,man,,,,,"{""Q0"":""dave and beth are dancing with each other""}","<img src=""stim_listB/dance4.gif""</stim_listB>",are dancing with each other,
null,"<div style=""font-size:60px;"">+</div>",,html-keyboard-response,38,456580,0.0-13.0-0.2,61847,List1B,white,man,,,,null,,,,
null,"<img src=""stim_listB/fight6.gif""</stim_listB>",,html-keyboard-response,39,458582,0.0-13.0-1.2,61847,List1B,white,man,,,,null,,,,
null,are fighting each other,,html-keyboard-response,40,460584,0.0-13.0-2.2,61847,List1B,white,man,,,,null,,,,
20338,,,survey-text,41,480922,0.0-13.0-3.2,61847,List1B,white,man,,,,,"{""Q0"":""fred and luke are fighting with each other""}","<img src=""stim_listB/fight6.gif""</stim_listB>",are fighting each other,
null,"<div style=""font-size:60px;"">+</div>",,html-keyboard-response,42,481424,0.0-13.0-0.3,61847,List1B,white,man,,,,null,,,,
null,"<img src=""stim_listB/talk5.gif""</stim_listB>",,html-keyboard-response,43,483431,0.0-13.0-1.3,61847,List1B,white,man,,,,null,,,,
null,is talking to,,html-keyboard-response,44,485436,0.0-13.0-2.3,61847,List1B,white,man,,,,null,,,,
15993,,,survey-text,45,501430,0.0-13.0-3.3,61847,List1B,white,man,,,,,"{""Q0"":""fred is talking to dave""}","<img src=""stim_listB/talk5.gif""</stim_listB>",is talking to,
null,"<div style=""font-size:60px;"">+</div>",,html-keyboard-response,46,501934,0.0-13.0-0.4,61847,List1B,white,man,,,,null,,,,
null,"<img src=""stim_listB/fight2.gif""</stim_listB>",,html-keyboard-response,47,503937,0.0-13.0-1.4,61847,List1B,white,man,,,,null,,,,
null,are fighting each other,,html-keyboard-response,48,505943,0.0-13.0-2.4,61847,List1B,white,man,,,,null,,,,
16897,,,survey-text,49,522842,0.0-13.0-3.4,61847,List1B,white,man,,,,,"{""Q0"":""fred and kate are fighting""}","<img src=""stim_listB/fight2.gif""</stim_listB>",are fighting each other,
null,"<div style=""font-size:60px;"">+</div>",,html-keyboard-response,50,523347,0.0-13.0-0.5,61847,List1B,white,man,,,,null,,,,
null,"<img src=""stim_listB/talk2.gif""</stim_listB>",,html-keyboard-response,51,525352,0.0-13.0-1.5,61847,List1B,white,man,,,,null,,,,
null,are talking to each other,,html-keyboard-response,52,527356,0.0-13.0-2.5,61847,List1B,white,man,,,,null,,,,
25274,,,survey-text,53,552632,0.0-13.0-3.5,61847,List1B,white,man,,,,,"{""Q0"":""mike and beth are talking ""}","<img src=""stim_listB/talk2.gif""</stim_listB>",are talking to each other,
null,"<div style=""font-size:60px;"">+</div>",,html-keyboard-response,54,553136,0.0-13.0-0.6,61847,List1B,white,man,,,,null,,,,
null,"<img src=""stim_listB/meet4.gif""</stim_listB>",,html-keyboard-response,55,555141,0.0-13.0-1.6,61847,List1B,white,man,,,,null,,,,
null,are meeting each other,,html-keyboard-response,56,557146,0.0-13.0-2.6,61847,List1B,white,man,,,,null,,,,
24047,,,survey-text,57,581194,0.0-13.0-3.6,61847,List1B,white,man,,,,,"{""Q0"":""luke and ruth are meeting""}","<img src=""stim_listB/meet4.gif""</stim_listB>",are meeting each other,
null,"<div style=""font-size:60px;"">+</div>",,html-keyboard-response,58,581699,0.0-13.0-0.7,61847,List1B,white,man,,,,null,,,,
null,"<img src=""stim_listB/fight1.gif""</stim_listB>",,html-keyboard-response,59,583705,0.0-13.0-1.7,61847,List1B,white,man,,,,null,,,,
null,is fighting,,html-keyboard-response,60,585708,0.0-13.0-2.7,61847,List1B,white,man,,,,null,,,,
17608,,,survey-text,61,603317,0.0-13.0-3.7,61847,List1B,white,man,,,,,"{""Q0"":""kate and mike is fighting""}","<img src=""stim_listB/fight1.gif""</stim_listB>",is fighting,
null,"<div style=""font-size:60px;"">+</div>",,html-keyboard-response,62,603818,0.0-13.0-0.8,61847,List1B,white,man,,,,null,,,,
null,"<img src=""stim_listB/hug2.gif""</stim_listB>",,html-keyboard-response,63,605819,0.0-13.0-1.8,61847,List1B,white,man,,,,null,,,,
null,are hugging each other,,html-keyboard-response,64,607820,0.0-13.0-2.8,61847,List1B,white,man,,,,null,,,,
17268,,,survey-text,65,625089,0.0-13.0-3.8,61847,List1B,white,man,,,,,"{""Q0"":""kate and mike are hugging""}","<img src=""stim_listB/hug2.gif""</stim_listB>",are hugging each other,
null,"<div style=""font-size:60px;"">+</div>",,html-keyboard-response,66,625590,0.0-13.0-0.9,61847,List1B,white,man,,,,null,,,,
null,"<img src=""stim_listB/kiss4.gif""</stim_listB>",,html-keyboard-response,67,627592,0.0-13.0-1.9,61847,List1B,white,man,,,,null,,,,
null,are kissing each other,,html-keyboard-response,68,629595,0.0-13.0-2.9,61847,List1B,white,man,,,,null,,,,
18452,,,survey-text,69,648048,0.0-13.0-3.9,61847,List1B,white,man,,,,,"{""Q0"":""dave and june are kissing each other""}","<img src=""stim_listB/kiss4.gif""</stim_listB>",are kissing each other,
null,"<div style=""font-size:60px;"">+</div>",,html-keyboard-response,70,648551,0.0-13.0-0.10,61847,List1B,white,man,,,,null,,,,
null,"<img src=""stim_listB/shout4.gif""</stim_listB>",,html-keyboard-response,71,650554,0.0-13.0-1.10,61847,List1B,white,man,,,,null,,,,
null,are shouting at each other,,html-keyboard-response,72,652558,0.0-13.0-2.10,61847,List1B,white,man,,,,null,,,,
14758,,,survey-text,73,667316,0.0-13.0-3.10,61847,List1B,white,man,,,,,"{""Q0"":""dave and june are shouting at each other""}","<img src=""stim_listB/shout4.gif""</stim_listB>",are shouting at each other,
null,"<div style=""font-size:60px;"">+</div>",,html-keyboard-response,74,667820,0.0-13.0-0.11,61847,List1B,white,man,,,,null,,,,
null,"<img src=""stim_listB/dance5.gif""</stim_listB>",,html-keyboard-response,75,669825,0.0-13.0-1.11,61847,List1B,white,man,,,,null,,,,
null,is dancing with,,html-keyboard-response,76,671831,0.0-13.0-2.11,61847,List1B,white,man,,,,null,,,,
12999,,,survey-text,77,684830,0.0-13.0-3.11,61847,List1B,white,man,,,,,"{""Q0"":""dave is dancing with fred""}","<img src=""stim_listB/dance5.gif""</stim_listB>",is dancing with,
null,"<div style=""font-size:60px;"">+</div>",,html-keyboard-response,78,685331,0.0-13.0-0.12,61847,List1B,white,man,,,,null,,,,
null,"<img src=""stim_listB/hug5.gif""</stim_listB>",,html-keyboard-response,79,687333,0.0-13.0-1.12,61847,List1B,white,man,,,,null,,,,
null,is hugging,,html-keyboard-response,80,689334,0.0-13.0-2.12,61847,List1B,white,man,,,,null,,,,
14108,,,survey-text,81,703444,0.0-13.0-3.12,61847,List1B,white,man,,,,,"{""Q0"":""fred is hugging luke""}","<img src=""stim_listB/hug5.gif""</stim_listB>",is hugging,
null,"<div style=""font-size:60px;"">+</div>",,html-keyboard-response,82,703948,0.0-13.0-0.13,61847,List1B,white,man,,,,null,,,,
null,"<img src=""stim_listB/shout3.gif""</stim_listB>",,html-keyboard-response,83,705955,0.0-13.0-1.13,61847,List1B,white,man,,,,null,,,,
null,is shouting at,,html-keyboard-response,84,707961,0.0-13.0-2.13,61847,List1B,white,man,,,,null,,,,
15355,,,survey-text,85,723316,0.0-13.0-3.13,61847,List1B,white,man,,,,,"{""Q0"":""luke is shouting at ruth""}","<img src=""stim_listB/shout3.gif""</stim_listB>",is shouting at,
null,"<div style=""font-size:60px;"">+</div>",,html-keyboard-response,86,723819,0.0-13.0-0.14,61847,List1B,white,man,,,,null,,,,
null,"<img src=""stim_listB/meet3.gif""</stim_listB>",,html-keyboard-response,87,725825,0.0-13.0-1.14,61847,List1B,white,man,,,,null,,,,
null,is meeting,,html-keyboard-response,88,727827,0.0-13.0-2.14,61847,List1B,white,man,,,,null,,,,
14095,,,survey-text,89,741923,0.0-13.0-3.14,61847,List1B,white,man,,,,,"{""Q0"":""jane is meeting dave""}","<img src=""stim_listB/meet3.gif""</stim_listB>",is meeting,
null,"<div style=""font-size:60px;"">+</div>",,html-keyboard-response,90,742425,0.0-13.0-0.15,61847,List1B,white,man,,,,null,,,,
null,"<img src=""stim_listB/shout5.gif""</stim_listB>",,html-keyboard-response,91,744431,0.0-13.0-1.15,61847,List1B,white,man,,,,null,,,,
null,is shouting at,,html-keyboard-response,92,746436,0.0-13.0-2.15,61847,List1B,white,man,,,,null,,,,
12887,,,survey-text,93,759325,0.0-13.0-3.15,61847,List1B,white,man,,,,,"{""Q0"":""fred is shouting at luke""}","<img src=""stim_listB/shout5.gif""</stim_listB>",is shouting at,
null,"<div style=""font-size:60px;"">+</div>",,html-keyboard-response,94,759828,0.0-13.0-0.16,61847,List1B,white,man,,,,null,,,,
null,"<img src=""stim_listB/argue7.gif""</stim_listB>",,html-keyboard-response,95,761833,0.0-13.0-1.16,61847,List1B,white,man,,,,null,,,,
null,is arguing with,,html-keyboard-response,96,763835,0.0-13.0-2.16,61847,List1B,white,man,,,,null,,,,
18441,,,survey-text,97,782276,0.0-13.0-3.16,61847,List1B,white,man,,,,,"{""Q0"":""ruth is arguing with kate""}","<img src=""stim_listB/argue7.gif""</stim_listB>",is arguing with,
null,"<div style=""font-size:60px;"">+</div>",,html-keyboard-response,98,782779,0.0-13.0-0.17,61847,List1B,white,man,,,,null,,,,
null,"<img src=""stim_listB/argue2.gif""</stim_listB>",,html-keyboard-response,99,784786,0.0-13.0-1.17,61847,List1B,white,man,,,,null,,,,
null,are arguing with each other,,html-keyboard-response,100,786787,0.0-13.0-2.17,61847,List1B,white,man,,,,null,,,,
20785,,,survey-text,101,807573,0.0-13.0-3.17,61847,List1B,white,man,,,,,"{""Q0"":""fred and kate are arguing with each other""}","<img src=""stim_listB/argue2.gif""</stim_listB>",are arguing with each other,
null,"<div style=""font-size:60px;"">+</div>",,html-keyboard-response,102,808077,0.0-13.0-0.18,61847,List1B,white,man,,,,null,,,,
null,"<img src=""stim_listB/fight5.gif""</stim_listB>",,html-keyboard-response,103,810081,0.0-13.0-1.18,61847,List1B,white,man,,,,null,,,,
null,is fighting,,html-keyboard-response,104,812086,0.0-13.0-2.18,61847,List1B,white,man,,,,null,,,,
12996,,,survey-text,105,825084,0.0-13.0-3.18,61847,List1B,white,man,,,,,"{""Q0"":""dave is fighting mike""}","<img src=""stim_listB/fight5.gif""</stim_listB>",is fighting,
null,"<div style=""font-size:60px;"">+</div>",,html-keyboard-response,106,825589,0.0-13.0-0.19,61847,List1B,white,man,,,,null,,,,
null,"<img src=""stim_listB/marry6.gif""</stim_listB>",,html-keyboard-response,107,827595,0.0-13.0-1.19,61847,List1B,white,man,,,,null,,,,
null,are marrying each other,,html-keyboard-response,108,829600,0.0-13.0-2.19,61847,List1B,white,man,,,,null,,,,
12322,,,survey-text,109,841922,0.0-13.0-3.19,61847,List1B,white,man,,,,,"{""Q0"":""fred is marrying dave""}","<img src=""stim_listB/marry6.gif""</stim_listB>",are marrying each other,
35615,"<img src='img/portrait_matrix_list1.JPG' style='width:900px;height:500px;''></img><p>If you have memorised all the portraits and names and are ready to start, press Continue.</p><p><strong>Please note: Your memory of these faces will be tested 4 times during this experiment.</strong></p>",0,html-button-response,110,877538,0.0-14.0-0.0,61847,List1B,white,man,,,,,,,,
5804,"<img src=""portrait/WW2.jpg""style=""width:400px;height:400px;""></img>",3,html-button-response,111,884345,0.0-14.0-1.0,61847,List1B,white,man,,TRUE,3,,,,,
null,CORRECT,,html-keyboard-response,112,885848,0.0-14.0-2.0-0.0,61847,List1B,white,man,,,,null,,,,
4802,"<img src=""portrait/BM2.jpg""style=""width:400px;height:400px;""></img>",5,html-button-response,113,890653,0.0-14.0-4.0,61847,List1B,white,man,,TRUE,5,,,,,
null,CORRECT,,html-keyboard-response,114,892157,0.0-14.0-5.0-0.0,61847,List1B,white,man,,,,null,,,,
7809,"<img src=""portrait/WW1.jpg""style=""width:400px;height:400px;""></img>",1,html-button-response,115,899967,0.0-14.0-7.0,61847,List1B,white,man,,TRUE,1,,,,,
null,CORRECT,,html-keyboard-response,116,901473,0.0-14.0-8.0-0.0,61847,List1B,white,man,,,,null,,,,
5966,"<img src=""portrait/BW1.jpg""style=""width:400px;height:400px;""></img>",0,html-button-response,117,907442,0.0-14.0-10.0,61847,List1B,white,man,,TRUE,0,,,,,
null,CORRECT,,html-keyboard-response,118,908943,0.0-14.0-11.0-0.0,61847,List1B,white,man,,,,null,,,,
4258,"<img src=""portrait/BW2.jpg""style=""width:400px;height:400px;""></img>",2,html-button-response,119,913202,0.0-14.0-13.0,61847,List1B,white,man,,TRUE,2,,,,,
null,CORRECT,,html-keyboard-response,120,914706,0.0-14.0-14.0-0.0,61847,List1B,white,man,,,,null,,,,
3435,"<img src=""portrait/WM2.jpg""style=""width:400px;height:400px;""></img>",7,html-button-response,121,918143,0.0-14.0-16.0,61847,List1B,white,man,,TRUE,7,,,,,
null,CORRECT,,html-keyboard-response,122,919648,0.0-14.0-17.0-0.0,61847,List1B,white,man,,,,null,,,,
9382,"<img src=""portrait/BM1.jpg""style=""width:400px;height:400px;""></img>",4,html-button-response,123,929031,0.0-14.0-19.0,61847,List1B,white,man,,TRUE,4,,,,,
null,CORRECT,,html-keyboard-response,124,930535,0.0-14.0-20.0-0.0,61847,List1B,white,man,,,,null,,,,
3494,"<img src=""portrait/WM1.jpg""style=""width:400px;height:400px;""></img>",6,html-button-response,125,934029,0.0-14.0-22.0,61847,List1B,white,man,,TRUE,6,,,,,
null,CORRECT,,html-keyboard-response,126,935530,0.0-14.0-23.0-0.0,61847,List1B,white,man,,,,null,,,,
3632,<p>You got 8 out of 8 right first time. Press Continue.</p>,0,html-button-response,127,939165,0.0-14.0-25.0,61847,List1B,white,man,,,,,,,,
null,"<div style=""font-size:60px;"">+</div>",,html-keyboard-response,128,940667,0.0-15.0-0.0,61847,List1B,white,man,,,,null,,,,
null,"<img src=""stim_listB/talk7.gif""</stim_listB>",,html-keyboard-response,129,942675,0.0-15.0-1.0,61847,List1B,white,man,,,,null,,,,
null,is talking to,,html-keyboard-response,130,944676,0.0-15.0-2.0,61847,List1B,white,man,,,,null,,,,
17303,,,survey-text,131,961979,0.0-15.0-3.0,61847,List1B,white,man,,,,,"{""Q0"":""jane is talking to kate""}","<img src=""stim_listB/talk7.gif""</stim_listB>",is talking to,
null,"<div style=""font-size:60px;"">+</div>",,html-keyboard-response,132,962481,0.0-15.0-0.1,61847,List1B,white,man,,,,null,,,,
null,"<img src=""stim_listB/dance2.gif""</stim_listB>",,html-keyboard-response,133,964484,0.0-15.0-1.1,61847,List1B,white,man,,,,null,,,,
null,are dancing with each other,,html-keyboard-response,134,966490,0.0-15.0-2.1,61847,List1B,white,man,,,,null,,,,
20085,,,survey-text,135,986576,0.0-15.0-3.1,61847,List1B,white,man,,,,,"{""Q0"":""mike and beth are dancing with each other""}","<img src=""stim_listB/dance2.gif""</stim_listB>",are dancing with each other,
null,"<div style=""font-size:60px;"">+</div>",,html-keyboard-response,136,987077,0.0-15.0-0.2,61847,List1B,white,man,,,,null,,,,
null,"<img src=""stim_listB/shout7.gif""</stim_listB>",,html-keyboard-response,137,989080,0.0-15.0-1.2,61847,List1B,white,man,,,,null,,,,
null,is shouting at,,html-keyboard-response,138,991081,0.0-15.0-2.2,61847,List1B,white,man,,,,null,,,,
17601,,,survey-text,139,1008683,0.0-15.0-3.2,61847,List1B,white,man,,,,,"{""Q0"":""ruth is shouting at beth""}","<img src=""stim_listB/shout7.gif""</stim_listB>",is shouting at,
null,"<div style=""font-size:60px;"">+</div>",,html-keyboard-response,140,1009183,0.0-15.0-0.3,61847,List1B,white,man,,,,null,,,,
null,"<img src=""stim_listB/fight4.gif""</stim_listB>",,html-keyboard-response,141,1011186,0.0-15.0-1.3,61847,List1B,white,man,,,,null,,,,
null,are fighting each other,,html-keyboard-response,142,1013189,0.0-15.0-2.3,61847,List1B,white,man,,,,null,,,,
19649,,,survey-text,143,1032839,0.0-15.0-3.3,61847,List1B,white,man,,,,,"{""Q0"":""luke and ruth are fighting with each other""}","<img src=""stim_listB/fight4.gif""</stim_listB>",are fighting each other,
null,"<div style=""font-size:60px;"">+</div>",,html-keyboard-response,144,1033344,0.0-15.0-0.4,61847,List1B,white,man,,,,null,,,,
null,"<img src=""stim_listB/marry8.gif""</stim_listB>",,html-keyboard-response,145,1035345,0.0-15.0-1.4,61847,List1B,white,man,,,,null,,,,
null,are marrying each other,,html-keyboard-response,146,1037349,0.0-15.0-2.4,61847,List1B,white,man,,,,null,,,,
21202,,,survey-text,147,1058552,0.0-15.0-3.4,61847,List1B,white,man,,,,,"{""Q0"":""jane and kate are marrying each other""}","<img src=""stim_listB/marry8.gif""</stim_listB>",are marrying each other,
null,"<div style=""font-size:60px;"">+</div>",,html-keyboard-response,148,1059056,0.0-15.0-0.5,61847,List1B,white,man,,,,null,,,,
null,"<img src=""stim_listB/fight8.gif""</stim_listB>",,html-keyboard-response,149,1061058,0.0-15.0-1.5,61847,List1B,white,man,,,,null,,,,
null,are fighting each other,,html-keyboard-response,150,1063060,0.0-15.0-2.5,61847,List1B,white,man,,,,null,,,,
13644,,,survey-text,151,1076704,0.0-15.0-3.5,61847,List1B,white,man,,,,,"{""Q0"":""ruth is fighting kate""}","<img src=""stim_listB/fight8.gif""</stim_listB>",are fighting each other,
null,"<div style=""font-size:60px;"">+</div>",,html-keyboard-response,152,1077206,0.0-15.0-0.6,61847,List1B,white,man,,,,null,,,,
null,"<img src=""stim_listB/dance8.gif""</stim_listB>",,html-keyboard-response,153,1079212,0.0-15.0-1.6,61847,List1B,white,man,,,,null,,,,
null,are dancing with each other,,html-keyboard-response,154,1081214,0.0-15.0-2.6,61847,List1B,white,man,,,,null,,,,
20506,,,survey-text,155,1101720,0.0-15.0-3.6,61847,List1B,white,man,,,,,"{""Q0"":""ruth and kate are dancing with each other""}","<img src=""stim_listB/dance8.gif""</stim_listB>",are dancing with each other,
null,"<div style=""font-size:60px;"">+</div>",,html-keyboard-response,156,1102221,0.0-15.0-0.7,61847,List1B,white,man,,,,null,,,,
null,"<img src=""stim_listB/argue3.gif""</stim_listB>",,html-keyboard-response,157,1104226,0.0-15.0-1.7,61847,List1B,white,man,,,,null,,,,
null,is arguing with,,html-keyboard-response,158,1106232,0.0-15.0-2.7,61847,List1B,white,man,,,,null,,,,
11643,,,survey-text,159,1117875,0.0-15.0-3.7,61847,List1B,white,man,,,,,"{""Q0"":""ruth is arguing with dave""}","<img src=""stim_listB/argue3.gif""</stim_listB>",is arguing with,
null,"<div style=""font-size:60px;"">+</div>",,html-keyboard-response,160,1118379,0.0-15.0-0.8,61847,List1B,white,man,,,,null,,,,
null,"<img src=""stim_listB/kiss8.gif""</stim_listB>",,html-keyboard-response,161,1120384,0.0-15.0-1.8,61847,List1B,white,man,,,,null,,,,
null,are kissing each other,,html-keyboard-response,162,1122389,0.0-15.0-2.8,61847,List1B,white,man,,,,null,,,,
22480,,,survey-text,163,1144869,0.0-15.0-3.8,61847,List1B,white,man,,,,,"{""Q0"":""jane and kate are kissing each other""}","<img src=""stim_listB/kiss8.gif""</stim_listB>",are kissing each other,
null,"<div style=""font-size:60px;"">+</div>",,html-keyboard-response,164,1145373,0.0-15.0-0.9,61847,List1B,white,man,,,,null,,,,
null,"<img src=""stim_listB/fight3.gif""</stim_listB>",,html-keyboard-response,165,1147376,0.0-15.0-1.9,61847,List1B,white,man,,,,null,,,,
null,is fighting,,html-keyboard-response,166,1149378,0.0-15.0-2.9,61847,List1B,white,man,,,,null,,,,
11159,,,survey-text,167,1160538,0.0-15.0-3.9,61847,List1B,white,man,,,,,"{""Q0"":""jane is fighting dave""}","<img src=""stim_listB/fight3.gif""</stim_listB>",is fighting,
null,"<div style=""font-size:60px;"">+</div>",,html-keyboard-response,168,1161042,0.0-15.0-0.10,61847,List1B,white,man,,,,null,,,,
null,"<img src=""stim_listB/meet1.gif""</stim_listB>",,html-keyboard-response,169,1163049,0.0-15.0-1.10,61847,List1B,white,man,,,,null,,,,
null,is meeting,,html-keyboard-response,170,1165051,0.0-15.0-2.10,61847,List1B,white,man,,,,null,,,,
11839,,,survey-text,171,1176891,0.0-15.0-3.10,61847,List1B,white,man,,,,,"{""Q0"":""kate is meeting mike""}","<img src=""stim_listB/meet1.gif""</stim_listB>",is meeting,
null,"<div style=""font-size:60px;"">+</div>",,html-keyboard-response,172,1177395,0.0-15.0-0.11,61847,List1B,white,man,,,,null,,,,
null,"<img src=""stim_listB/hug7.gif""</stim_listB>",,html-keyboard-response,173,1179398,0.0-15.0-1.11,61847,List1B,white,man,,,,null,,,,
null,is hugging,,html-keyboard-response,174,1181399,0.0-15.0-2.11,61847,List1B,white,man,,,,null,,,,
13107,,,survey-text,175,1194508,0.0-15.0-3.11,61847,List1B,white,man,,,,,"{""Q0"":""ruth is hugging beth""}","<img src=""stim_listB/hug7.gif""</stim_listB>",is hugging,
null,"<div style=""font-size:60px;"">+</div>",,html-keyboard-response,176,1195009,0.0-15.0-0.12,61847,List1B,white,man,,,,null,,,,
null,"<img src=""stim_listB/talk8.gif""</stim_listB>",,html-keyboard-response,177,1197015,0.0-15.0-1.12,61847,List1B,white,man,,,,null,,,,
null,are talking to each other,,html-keyboard-response,178,1199019,0.0-15.0-2.12,61847,List1B,white,man,,,,null,,,,
15109,,,survey-text,179,1214129,0.0-15.0-3.12,61847,List1B,white,man,,,,,"{""Q0"":""ruth and kate are talking to each other""}","<img src=""stim_listB/talk8.gif""</stim_listB>",are talking to each other,
null,"<div style=""font-size:60px;"">+</div>",,html-keyboard-response,180,1214630,0.0-15.0-0.13,61847,List1B,white,man,,,,null,,,,
null,"<img src=""stim_listB/touch1.gif""</stim_listB>",,html-keyboard-response,181,1216634,0.0-15.0-1.13,61847,List1B,white,man,,,,null,,,,
null,is touching,,html-keyboard-response,182,1218636,0.0-15.0-2.13,61847,List1B,white,man,,,,null,,,,
11111,,,survey-text,183,1229748,0.0-15.0-3.13,61847,List1B,white,man,,,,,"{""Q0"":""kate is touching mike""}","<img src=""stim_listB/touch1.gif""</stim_listB>",is touching,
null,"<div style=""font-size:60px;"">+</div>",,html-keyboard-response,184,1230249,0.0-15.0-0.14,61847,List1B,white,man,,,,null,,,,
null,"<img src=""stim_listB/hug6.gif""</stim_listB>",,html-keyboard-response,185,1232253,0.0-15.0-1.14,61847,List1B,white,man,,,,null,,,,
null,are hugging each other,,html-keyboard-response,186,1234258,0.0-15.0-2.14,61847,List1B,white,man,,,,null,,,,
14014,,,survey-text,187,1248274,0.0-15.0-3.14,61847,List1B,white,man,,,,,"{""Q0"":""dave and mike are hugging""}","<img src=""stim_listB/hug6.gif""</stim_listB>",are hugging each other,
null,"<div style=""font-size:60px;"">+</div>",,html-keyboard-response,188,1248776,0.0-15.0-0.15,61847,List1B,white,man,,,,null,,,,
null,"<img src=""stim_listB/hug8.gif""</stim_listB>",,html-keyboard-response,189,1250777,0.0-15.0-1.15,61847,List1B,white,man,,,,null,,,,
null,are hugging each other,,html-keyboard-response,190,1252782,0.0-15.0-2.15,61847,List1B,white,man,,,,null,,,,
18845,,,survey-text,191,1271628,0.0-15.0-3.15,61847,List1B,white,man,,,,,"{""Q0"":""kate and jane are hugging each other""}","<img src=""stim_listB/hug8.gif""</stim_listB>",are hugging each other,
null,"<div style=""font-size:60px;"">+</div>",,html-keyboard-response,192,1272132,0.0-15.0-0.16,61847,List1B,white,man,,,,null,,,,
null,"<img src=""stim_listB/touch4.gif""</stim_listB>",,html-keyboard-response,193,1274136,0.0-15.0-1.16,61847,List1B,white,man,,,,null,,,,
null,are touching each other,,html-keyboard-response,194,1276139,0.0-15.0-2.16,61847,List1B,white,man,,,,null,,,,
18403,,,survey-text,195,1294543,0.0-15.0-3.16,61847,List1B,white,man,,,,,"{""Q0"":""luke and ruth are touching each other""}","<img src=""stim_listB/touch4.gif""</stim_listB>",are touching each other,
null,"<div style=""font-size:60px;"">+</div>",,html-keyboard-response,196,1295044,0.0-15.0-0.17,61847,List1B,white,man,,,,null,,,,
null,"<img src=""stim_listB/talk4.gif""</stim_listB>",,html-keyboard-response,197,1297046,0.0-15.0-1.17,61847,List1B,white,man,,,,null,,,,
null,are talking to each other,,html-keyboard-response,198,1299048,0.0-15.0-2.17,61847,List1B,white,man,,,,null,,,,
24168,,,survey-text,199,1323217,0.0-15.0-3.17,61847,List1B,white,man,,,,,"{""Q0"":""dave and ruth are talking to each other""}","<img src=""stim_listB/talk4.gif""</stim_listB>",are talking to each other,
null,"<div style=""font-size:60px;"">+</div>",,html-keyboard-response,200,1323718,0.0-15.0-0.18,61847,List1B,white,man,,,,null,,,,
null,"<img src=""stim_listB/talk3.gif""</stim_listB>",,html-keyboard-response,201,1325720,0.0-15.0-1.18,61847,List1B,white,man,,,,null,,,,
null,is talking to,,html-keyboard-response,202,1327726,0.0-15.0-2.18,61847,List1B,white,man,,,,null,,,,
16724,,,survey-text,203,1344451,0.0-15.0-3.18,61847,List1B,white,man,,,,,"{""Q0"":""jane is talking to luke""}","<img src=""stim_listB/talk3.gif""</stim_listB>",is talking to,
null,"<div style=""font-size:60px;"">+</div>",,html-keyboard-response,204,1344954,0.0-15.0-0.19,61847,List1B,white,man,,,,null,,,,
null,"<img src=""stim_listB/argue4.gif""</stim_listB>",,html-keyboard-response,205,1346961,0.0-15.0-1.19,61847,List1B,white,man,,,,null,,,,
null,are arguing with each other,,html-keyboard-response,206,1348962,0.0-15.0-2.19,61847,List1B,white,man,,,,null,,,,
16191,,,survey-text,207,1365154,0.0-15.0-3.19,61847,List1B,white,man,,,,,"{""Q0"":""jane and luke are arguing with each other""}","<img src=""stim_listB/argue4.gif""</stim_listB>",are arguing with each other,
25279,"<img src='img/portrait_matrix_list1.JPG' style='width:900px;height:500px;''></img><p>If you have memorised all the portraits and names and are ready to start, press Continue.</p><p><strong>Please note: Your memory of these faces will be tested 4 times during this experiment.</strong></p>",0,html-button-response,208,1390434,0.0-16.0-0.0,61847,List1B,white,man,,,,,,,,
4502,"<img src=""portrait/WW2.jpg""style=""width:400px;height:400px;""></img>",3,html-button-response,209,1395938,0.0-16.0-1.0,61847,List1B,white,man,,TRUE,3,,,,,
null,CORRECT,,html-keyboard-response,210,1397443,0.0-16.0-2.0-0.0,61847,List1B,white,man,,,,null,,,,
2543,"<img src=""portrait/WM2.jpg""style=""width:400px;height:400px;""></img>",7,html-button-response,211,1399986,0.0-16.0-4.0,61847,List1B,white,man,,TRUE,7,,,,,
null,CORRECT,,html-keyboard-response,212,1401488,0.0-16.0-5.0-0.0,61847,List1B,white,man,,,,null,,,,
2782,"<img src=""portrait/BW2.jpg""style=""width:400px;height:400px;""></img>",2,html-button-response,213,1404272,0.0-16.0-7.0,61847,List1B,white,man,,TRUE,2,,,,,
null,CORRECT,,html-keyboard-response,214,1405774,0.0-16.0-8.0-0.0,61847,List1B,white,man,,,,null,,,,
2001,"<img src=""portrait/WW1.jpg""style=""width:400px;height:400px;""></img>",1,html-button-response,215,1407776,0.0-16.0-10.0,61847,List1B,white,man,,TRUE,1,,,,,
null,CORRECT,,html-keyboard-response,216,1409283,0.0-16.0-11.0-0.0,61847,List1B,white,man,,,,null,,,,
2879,"<img src=""portrait/BW1.jpg""style=""width:400px;height:400px;""></img>",0,html-button-response,217,1412164,0.0-16.0-13.0,61847,List1B,white,man,,TRUE,0,,,,,
null,CORRECT,,html-keyboard-response,218,1413669,0.0-16.0-14.0-0.0,61847,List1B,white,man,,,,null,,,,
2976,"<img src=""portrait/BM2.jpg""style=""width:400px;height:400px;""></img>",5,html-button-response,219,1416646,0.0-16.0-16.0,61847,List1B,white,man,,TRUE,5,,,,,
null,CORRECT,,html-keyboard-response,220,1418149,0.0-16.0-17.0-0.0,61847,List1B,white,man,,,,null,,,,
3182,"<img src=""portrait/BM1.jpg""style=""width:400px;height:400px;""></img>",4,html-button-response,221,1421332,0.0-16.0-19.0,61847,List1B,white,man,,TRUE,4,,,,,
null,CORRECT,,html-keyboard-response,222,1422834,0.0-16.0-20.0-0.0,61847,List1B,white,man,,,,null,,,,
2429,"<img src=""portrait/WM1.jpg""style=""width:400px;height:400px;""></img>",6,html-button-response,223,1425263,0.0-16.0-22.0,61847,List1B,white,man,,TRUE,6,,,,,
null,CORRECT,,html-keyboard-response,224,1426765,0.0-16.0-23.0-0.0,61847,List1B,white,man,,,,null,,,,
3188,<p>You got 8 out of 8 right first time. Press Continue.</p>,0,html-button-response,225,1429954,0.0-16.0-25.0,61847,List1B,white,man,,,,,,,,
null,"<div style=""font-size:60px;"">+</div>",,html-keyboard-response,226,1431460,0.0-17.0-0.0,61847,List1B,white,man,,,,null,,,,
null,"<img src=""stim_listB/dance1.gif""</stim_listB>",,html-keyboard-response,227,1433466,0.0-17.0-1.0,61847,List1B,white,man,,,,null,,,,
null,is dancing with,,html-keyboard-response,228,1435468,0.0-17.0-2.0,61847,List1B,white,man,,,,null,,,,
11891,,,survey-text,229,1447359,0.0-17.0-3.0,61847,List1B,white,man,,,,,"{""Q0"":""fred is dancing with kate""}","<img src=""stim_listB/dance1.gif""</stim_listB>",is dancing with,
null,"<div style=""font-size:60px;"">+</div>",,html-keyboard-response,230,1447865,0.0-17.0-0.1,61847,List1B,white,man,,,,null,,,,
null,"<img src=""stim_listB/touch8.gif""</stim_listB>",,html-keyboard-response,231,1449867,0.0-17.0-1.1,61847,List1B,white,man,,,,null,,,,
null,are touching each other,,html-keyboard-response,232,1451869,0.0-17.0-2.1,61847,List1B,white,man,,,,null,,,,
18901,,,survey-text,233,1470772,0.0-17.0-3.1,61847,List1B,white,man,,,,,"{""Q0"":""ruth and beth are touching each other""}","<img src=""stim_listB/touch8.gif""</stim_listB>",are touching each other,
null,"<div style=""font-size:60px;"">+</div>",,html-keyboard-response,234,1471273,0.0-17.0-0.2,61847,List1B,white,man,,,,null,,,,
null,"<img src=""stim_listB/kiss2.gif""</stim_listB>",,html-keyboard-response,235,1473277,0.0-17.0-1.2,61847,List1B,white,man,,,,null,,,,
null,are kissing each other,,html-keyboard-response,236,1475282,0.0-17.0-2.2,61847,List1B,white,man,,,,null,,,,
13906,,,survey-text,237,1489188,0.0-17.0-3.2,61847,List1B,white,man,,,,,"{""Q0"":""mike and kate are kissing each other""}","<img src=""stim_listB/kiss2.gif""</stim_listB>",are kissing each other,
null,"<div style=""font-size:60px;"">+</div>",,html-keyboard-response,238,1489691,0.0-17.0-0.3,61847,List1B,white,man,,,,null,,,,
null,"<img src=""stim_listB/meet7.gif""</stim_listB>",,html-keyboard-response,239,1491697,0.0-17.0-1.3,61847,List1B,white,man,,,,null,,,,
null,is meeting,,html-keyboard-response,240,1493702,0.0-17.0-2.3,61847,List1B,white,man,,,,null,,,,
10699,,,survey-text,241,1504401,0.0-17.0-3.3,61847,List1B,white,man,,,,,"{""Q0"":""kate is meeting jane""}","<img src=""stim_listB/meet7.gif""</stim_listB>",is meeting,
null,"<div style=""font-size:60px;"">+</div>",,html-keyboard-response,242,1504902,0.0-17.0-0.4,61847,List1B,white,man,,,,null,,,,
null,"<img src=""stim_listB/argue8.gif""</stim_listB>",,html-keyboard-response,243,1506908,0.0-17.0-1.4,61847,List1B,white,man,,,,null,,,,
null,are arguing with each other,,html-keyboard-response,244,1508910,0.0-17.0-2.4,61847,List1B,white,man,,,,null,,,,
19476,,,survey-text,245,1528386,0.0-17.0-3.4,61847,List1B,white,man,,,,,"{""Q0"":""jane and beth are arguing with each other""}","<img src=""stim_listB/argue8.gif""</stim_listB>",are arguing with each other,
null,"<div style=""font-size:60px;"">+</div>",,html-keyboard-response,246,1528887,0.0-17.0-0.5,61847,List1B,white,man,,,,null,,,,
null,"<img src=""stim_listB/marry3.gif""</stim_listB>",,html-keyboard-response,247,1530894,0.0-17.0-1.5,61847,List1B,white,man,,,,null,,,,
null,is marrying,,html-keyboard-response,248,1532900,0.0-17.0-2.5,61847,List1B,white,man,,,,null,,,,
10854,,,survey-text,249,1543754,0.0-17.0-3.5,61847,List1B,white,man,,,,,"{""Q0"":""dave is marrying ruth""}","<img src=""stim_listB/marry3.gif""</stim_listB>",is marrying,
null,"<div style=""font-size:60px;"">+</div>",,html-keyboard-response,250,1544255,0.0-17.0-0.6,61847,List1B,white,man,,,,null,,,,
null,"<img src=""stim_listB/touch5.gif""</stim_listB>",,html-keyboard-response,251,1546259,0.0-17.0-1.6,61847,List1B,white,man,,,,null,,,,
null,is touching,,html-keyboard-response,252,1548262,0.0-17.0-2.6,61847,List1B,white,man,,,,null,,,,
9841,,,survey-text,253,1558103,0.0-17.0-3.6,61847,List1B,white,man,,,,,"{""Q0"":""dave is touching mike""}","<img src=""stim_listB/touch5.gif""</stim_listB>",is touching,
null,"<div style=""font-size:60px;"">+</div>",,html-keyboard-response,254,1558604,0.0-17.0-0.7,61847,List1B,white,man,,,,null,,,,
null,"<img src=""stim_listB/talk1.gif""</stim_listB>",,html-keyboard-response,255,1560612,0.0-17.0-1.7,61847,List1B,white,man,,,,null,,,,
null,is talking to,,html-keyboard-response,256,1562615,0.0-17.0-2.7,61847,List1B,white,man,,,,null,,,,
10818,,,survey-text,257,1573433,0.0-17.0-3.7,61847,List1B,white,man,,,,,"{""Q0"":""kate is talking to fred""}","<img src=""stim_listB/talk1.gif""</stim_listB>",is talking to,
null,"<div style=""font-size:60px;"">+</div>",,html-keyboard-response,258,1573935,0.0-17.0-0.8,61847,List1B,white,man,,,,null,,,,
null,"<img src=""stim_listB/hug4.gif""</stim_listB>",,html-keyboard-response,259,1575941,0.0-17.0-1.8,61847,List1B,white,man,,,,null,,,,
null,are hugging each other,,html-keyboard-response,260,1577947,0.0-17.0-2.8,61847,List1B,white,man,,,,null,,,,
16325,,,survey-text,261,1594274,0.0-17.0-3.8,61847,List1B,white,man,,,,,"{""Q0"":""dave and jane are hugging each other""}","<img src=""stim_listB/hug4.gif""</stim_listB>",are hugging each other,
null,"<div style=""font-size:60px;"">+</div>",,html-keyboard-response,262,1594778,0.0-17.0-0.9,61847,List1B,white,man,,,,null,,,,
null,"<img src=""stim_listB/meet5.gif""</stim_listB>",,html-keyboard-response,263,1596784,0.0-17.0-1.9,61847,List1B,white,man,,,,null,,,,
null,is meeting,,html-keyboard-response,264,1598790,0.0-17.0-2.9,61847,List1B,white,man,,,,null,,,,
8221,,,survey-text,265,1607011,0.0-17.0-3.9,61847,List1B,white,man,,,,,"{""Q0"":""dave is meeting mike""}","<img src=""stim_listB/meet5.gif""</stim_listB>",is meeting,
null,"<div style=""font-size:60px;"">+</div>",,html-keyboard-response,266,1607517,0.0-17.0-0.10,61847,List1B,white,man,,,,null,,,,
null,"<img src=""stim_listB/touch3.gif""</stim_listB>",,html-keyboard-response,267,1609521,0.0-17.0-1.10,61847,List1B,white,man,,,,null,,,,
null,is touching,,html-keyboard-response,268,1611523,0.0-17.0-2.10,61847,List1B,white,man,,,,null,,,,
11145,,,survey-text,269,1622669,0.0-17.0-3.10,61847,List1B,white,man,,,,,"{""Q0"":""dave is touching jane""}","<img src=""stim_listB/touch3.gif""</stim_listB>",is touching,
null,"<div style=""font-size:60px;"">+</div>",,html-keyboard-response,270,1623172,0.0-17.0-0.11,61847,List1B,white,man,,,,null,,,,
null,"<img src=""stim_listB/kiss7.gif""</stim_listB>",,html-keyboard-response,271,1625175,0.0-17.0-1.11,61847,List1B,white,man,,,,null,,,,
null,is kissing,,html-keyboard-response,272,1627180,0.0-17.0-2.11,61847,List1B,white,man,,,,null,,,,
11625,,,survey-text,273,1638806,0.0-17.0-3.11,61847,List1B,white,man,,,,,"{""Q0"":""beth is kissing ruth""}","<img src=""stim_listB/kiss7.gif""</stim_listB>",is kissing,
null,"<div style=""font-size:60px;"">+</div>",,html-keyboard-response,274,1639308,0.0-17.0-0.12,61847,List1B,white,man,,,,null,,,,
null,"<img src=""stim_listB/marry2.gif""</stim_listB>",,html-keyboard-response,275,1641310,0.0-17.0-1.12,61847,List1B,white,man,,,,null,,,,
null,are marrying each other,,html-keyboard-response,276,1643315,0.0-17.0-2.12,61847,List1B,white,man,,,,null,,,,
16327,,,survey-text,277,1659643,0.0-17.0-3.12,61847,List1B,white,man,,,,,"{""Q0"":""kate and fred are marrying each other""}","<img src=""stim_listB/marry2.gif""</stim_listB>",are marrying each other,
null,"<div style=""font-size:60px;"">+</div>",,html-keyboard-response,278,1660145,0.0-17.0-0.13,61847,List1B,white,man,,,,null,,,,
null,"<img src=""stim_listB/fight7.gif""</stim_listB>",,html-keyboard-response,279,1662149,0.0-17.0-1.13,61847,List1B,white,man,,,,null,,,,
null,is fighting,,html-keyboard-response,280,1664150,0.0-17.0-2.13,61847,List1B,white,man,,,,null,,,,
10109,,,survey-text,281,1674260,0.0-17.0-3.13,61847,List1B,white,man,,,,,"{""Q0"":""jane is fighting kate""}","<img src=""stim_listB/fight7.gif""</stim_listB>",is fighting,
null,"<div style=""font-size:60px;"">+</div>",,html-keyboard-response,282,1674760,0.0-17.0-0.14,61847,List1B,white,man,,,,null,,,,
null,"<img src=""stim_listB/kiss5.gif""</stim_listB>",,html-keyboard-response,283,1676768,0.0-17.0-1.14,61847,List1B,white,man,,,,null,,,,
null,is kissing,,html-keyboard-response,284,1678772,0.0-17.0-2.14,61847,List1B,white,man,,,,null,,,,
11948,,,survey-text,285,1690721,0.0-17.0-3.14,61847,List1B,white,man,,,,,"{""Q0"":""luke is kissing fred""}","<img src=""stim_listB/kiss5.gif""</stim_listB>",is kissing,
null,"<div style=""font-size:60px;"">+</div>",,html-keyboard-response,286,1691222,0.0-17.0-0.15,61847,List1B,white,man,,,,null,,,,
null,"<img src=""stim_listB/kiss3.gif""</stim_listB>",,html-keyboard-response,287,1693228,0.0-17.0-1.15,61847,List1B,white,man,,,,null,,,,
null,is kissing,,html-keyboard-response,288,1695228,0.0-17.0-2.15,61847,List1B,white,man,,,,null,,,,
10657,,,survey-text,289,1705886,0.0-17.0-3.15,61847,List1B,white,man,,,,,"{""Q0"":""luke is kissing ruth""}","<img src=""stim_listB/kiss3.gif""</stim_listB>",is kissing,
null,"<div style=""font-size:60px;"">+</div>",,html-keyboard-response,290,1706388,0.0-17.0-0.16,61847,List1B,white,man,,,,null,,,,
null,"<img src=""stim_listB/meet8.gif""</stim_listB>",,html-keyboard-response,291,1708394,0.0-17.0-1.16,61847,List1B,white,man,,,,null,,,,
null,are meeting each other,,html-keyboard-response,292,1710395,0.0-17.0-2.16,61847,List1B,white,man,,,,null,,,,
14658,,,survey-text,293,1725055,0.0-17.0-3.16,61847,List1B,white,man,,,,,"{""Q0"":""ruth and beth are meeting each other""}","<img src=""stim_listB/meet8.gif""</stim_listB>",are meeting each other,
null,"<div style=""font-size:60px;"">+</div>",,html-keyboard-response,294,1725556,0.0-17.0-0.17,61847,List1B,white,man,,,,null,,,,
null,"<img src=""stim_listB/argue5.gif""</stim_listB>",,html-keyboard-response,295,1727562,0.0-17.0-1.17,61847,List1B,white,man,,,,null,,,,
null,is arguing with,,html-keyboard-response,296,1729568,0.0-17.0-2.17,61847,List1B,white,man,,,,null,,,,
12483,,,survey-text,297,1742052,0.0-17.0-3.17,61847,List1B,white,man,,,,,"{""Q0"":""luke is arguing with mike""}","<img src=""stim_listB/argue5.gif""</stim_listB>",is arguing with,
null,"<div style=""font-size:60px;"">+</div>",,html-keyboard-response,298,1742554,0.0-17.0-0.18,61847,List1B,white,man,,,,null,,,,
null,"<img src=""stim_listB/touch7.gif""</stim_listB>",,html-keyboard-response,299,1744560,0.0-17.0-1.18,61847,List1B,white,man,,,,null,,,,
null,is touching,,html-keyboard-response,300,1746561,0.0-17.0-2.18,61847,List1B,white,man,,,,null,,,,
11117,,,survey-text,301,1757679,0.0-17.0-3.18,61847,List1B,white,man,,,,,"{""Q0"":""jane is touching kate""}","<img src=""stim_listB/touch7.gif""</stim_listB>",is touching,
null,"<div style=""font-size:60px;"">+</div>",,html-keyboard-response,302,1758181,0.0-17.0-0.19,61847,List1B,white,man,,,,null,,,,
null,"<img src=""stim_listB/touch6.gif""</stim_listB>",,html-keyboard-response,303,1760187,0.0-17.0-1.19,61847,List1B,white,man,,,,null,,,,
null,are touching each other,,html-keyboard-response,304,1762188,0.0-17.0-2.19,61847,List1B,white,man,,,,null,,,,
16687,,,survey-text,305,1778875,0.0-17.0-3.19,61847,List1B,white,man,,,,,"{""Q0"":""fred and luke are touching each other""}","<img src=""stim_listB/touch6.gif""</stim_listB>",are touching each other,
14508,"<img src='img/portrait_matrix_list1.JPG' style='width:900px;height:500px;''></img><p>If you have memorised all the portraits and names and are ready to start, press Continue.</p><p><strong>Please note: Your memory of these faces will be tested 4 times during this experiment.</strong></p>",0,html-button-response,306,1793385,0.0-18.0-0.0,61847,List1B,white,man,,,,,,,,
3427,"<img src=""portrait/BM1.jpg""style=""width:400px;height:400px;""></img>",4,html-button-response,307,1797815,0.0-18.0-1.0,61847,List1B,white,man,,TRUE,4,,,,,
null,CORRECT,,html-keyboard-response,308,1799318,0.0-18.0-2.0-0.0,61847,List1B,white,man,,,,null,,,,
3033,"<img src=""portrait/WW1.jpg""style=""width:400px;height:400px;""></img>",1,html-button-response,309,1802352,0.0-18.0-4.0,61847,List1B,white,man,,TRUE,1,,,,,
null,CORRECT,,html-keyboard-response,310,1803857,0.0-18.0-5.0-0.0,61847,List1B,white,man,,,,null,,,,
4217,"<img src=""portrait/BW1.jpg""style=""width:400px;height:400px;""></img>",0,html-button-response,311,1808075,0.0-18.0-7.0,61847,List1B,white,man,,TRUE,0,,,,,
null,CORRECT,,html-keyboard-response,312,1809578,0.0-18.0-8.0-0.0,61847,List1B,white,man,,,,null,,,,
2670,"<img src=""portrait/BW2.jpg""style=""width:400px;height:400px;""></img>",2,html-button-response,313,1812250,0.0-18.0-10.0,61847,List1B,white,man,,TRUE,2,,,,,
null,CORRECT,,html-keyboard-response,314,1813754,0.0-18.0-11.0-0.0,61847,List1B,white,man,,,,null,,,,
2141,"<img src=""portrait/WM1.jpg""style=""width:400px;height:400px;""></img>",6,html-button-response,315,1815895,0.0-18.0-13.0,61847,List1B,white,man,,TRUE,6,,,,,
null,CORRECT,,html-keyboard-response,316,1817399,0.0-18.0-14.0-0.0,61847,List1B,white,man,,,,null,,,,
1636,"<img src=""portrait/WM2.jpg""style=""width:400px;height:400px;""></img>",7,html-button-response,317,1819035,0.0-18.0-16.0,61847,List1B,white,man,,TRUE,7,,,,,
null,CORRECT,,html-keyboard-response,318,1820539,0.0-18.0-17.0-0.0,61847,List1B,white,man,,,,null,,,,
1911,"<img src=""portrait/BM2.jpg""style=""width:400px;height:400px;""></img>",5,html-button-response,319,1822451,0.0-18.0-19.0,61847,List1B,white,man,,TRUE,5,,,,,
null,CORRECT,,html-keyboard-response,320,1823954,0.0-18.0-20.0-0.0,61847,List1B,white,man,,,,null,,,,
1816,"<img src=""portrait/WW2.jpg""style=""width:400px;height:400px;""></img>",3,html-button-response,321,1825771,0.0-18.0-22.0,61847,List1B,white,man,,TRUE,3,,,,,
null,CORRECT,,html-keyboard-response,322,1827275,0.0-18.0-23.0-0.0,61847,List1B,white,man,,,,null,,,,
5043,<p>You got 8 out of 8 right first time. Press Continue.</p>,0,html-button-response,323,1832320,0.0-18.0-25.0,61847,List1B,white,man,,,,,,,,
null,"<div style=""font-size:60px;"">+</div>",,html-keyboard-response,324,1833825,0.0-19.0-0.0,61847,List1B,white,man,,,,null,,,,
null,"<img src=""stim_listB/marry1.gif""</stim_listB>",,html-keyboard-response,325,1835829,0.0-19.0-1.0,61847,List1B,white,man,,,,null,,,,
null,is marrying,,html-keyboard-response,326,1837834,0.0-19.0-2.0,61847,List1B,white,man,,,,null,,,,
11246,,,survey-text,327,1849082,0.0-19.0-3.0,61847,List1B,white,man,,,,,"{""Q0"":""mike is marrying beth""}","<img src=""stim_listB/marry1.gif""</stim_listB>",is marrying,
null,"<div style=""font-size:60px;"">+</div>",,html-keyboard-response,328,1849587,0.0-19.0-0.1,61847,List1B,white,man,,,,null,,,,
null,"<img src=""stim_listB/marry7.gif""</stim_listB>",,html-keyboard-response,329,1851590,0.0-19.0-1.1,61847,List1B,white,man,,,,null,,,,
null,is marrying,,html-keyboard-response,330,1853592,0.0-19.0-2.1,61847,List1B,white,man,,,,null,,,,
11073,,,survey-text,331,1864666,0.0-19.0-3.1,61847,List1B,white,man,,,,,"{""Q0"":""kate is marrying ruth""}","<img src=""stim_listB/marry7.gif""</stim_listB>",is marrying,
null,"<div style=""font-size:60px;"">+</div>",,html-keyboard-response,332,1865168,0.0-19.0-0.2,61847,List1B,white,man,,,,null,,,,
null,"<img src=""stim_listB/hug3.gif""</stim_listB>",,html-keyboard-response,333,1867170,0.0-19.0-1.2,61847,List1B,white,man,,,,null,,,,
null,is hugging,,html-keyboard-response,334,1869172,0.0-19.0-2.2,61847,List1B,white,man,,,,null,,,,
11136,,,survey-text,335,1880309,0.0-19.0-3.2,61847,List1B,white,man,,,,,"{""Q0"":""luke is hugging ruth""}","<img src=""stim_listB/hug3.gif""</stim_listB>",is hugging,
null,"<div style=""font-size:60px;"">+</div>",,html-keyboard-response,336,1880810,0.0-19.0-0.3,61847,List1B,white,man,,,,null,,,,
null,"<img src=""stim_listB/argue6.gif""</stim_listB>",,html-keyboard-response,337,1882816,0.0-19.0-1.3,61847,List1B,white,man,,,,null,,,,
null,are arguing with each other,,html-keyboard-response,338,1884820,0.0-19.0-2.3,61847,List1B,white,man,,,,null,,,,
15478,,,survey-text,339,1900300,0.0-19.0-3.3,61847,List1B,white,man,,,,,"{""Q0"":""fred and dave are arguing with each other""}","<img src=""stim_listB/argue6.gif""</stim_listB>",are arguing with each other,
null,"<div style=""font-size:60px;"">+</div>",,html-keyboard-response,340,1900803,0.0-19.0-0.4,61847,List1B,white,man,,,,null,,,,
null,"<img src=""stim_listB/kiss1.gif""</stim_listB>",,html-keyboard-response,341,1902809,0.0-19.0-1.4,61847,List1B,white,man,,,,null,,,,
null,is kissing,,html-keyboard-response,342,1904814,0.0-19.0-2.4,61847,List1B,white,man,,,,null,,,,
12907,,,survey-text,343,1917722,0.0-19.0-3.4,61847,List1B,white,man,,,,,"{""Q0"":""fred is kissing beth""}","<img src=""stim_listB/kiss1.gif""</stim_listB>",is kissing,
null,"<div style=""font-size:60px;"">+</div>",,html-keyboard-response,344,1918224,0.0-19.0-0.5,61847,List1B,white,man,,,,null,,,,
null,"<img src=""stim_listB/touch2.gif""</stim_listB>",,html-keyboard-response,345,1920225,0.0-19.0-1.5,61847,List1B,white,man,,,,null,,,,
null,are touching each other,,html-keyboard-response,346,1922228,0.0-19.0-2.5,61847,List1B,white,man,,,,null,,,,
14697,,,survey-text,347,1936926,0.0-19.0-3.5,61847,List1B,white,man,,,,,"{""Q0"":""fred and beth are touching each other""}","<img src=""stim_listB/touch2.gif""</stim_listB>",are touching each other,
null,"<div style=""font-size:60px;"">+</div>",,html-keyboard-response,348,1937427,0.0-19.0-0.6,61847,List1B,white,man,,,,null,,,,
null,"<img src=""stim_listB/hug1.gif""</stim_listB>",,html-keyboard-response,349,1939428,0.0-19.0-1.6,61847,List1B,white,man,,,,null,,,,
null,is hugging,,html-keyboard-response,350,1941433,0.0-19.0-2.6,61847,List1B,white,man,,,,null,,,,
11097,,,survey-text,351,1952532,0.0-19.0-3.6,61847,List1B,white,man,,,,,"{""Q0"":""fred is hugging beth""}","<img src=""stim_listB/hug1.gif""</stim_listB>",is hugging,
null,"<div style=""font-size:60px;"">+</div>",,html-keyboard-response,352,1953033,0.0-19.0-0.7,61847,List1B,white,man,,,,null,,,,
null,"<img src=""stim_listB/meet2.gif""</stim_listB>",,html-keyboard-response,353,1955035,0.0-19.0-1.7,61847,List1B,white,man,,,,null,,,,
null,are meeting each other,,html-keyboard-response,354,1957041,0.0-19.0-2.7,61847,List1B,white,man,,,,null,,,,
14405,,,survey-text,355,1971447,0.0-19.0-3.7,61847,List1B,white,man,,,,,"{""Q0"":""fred and beth are meeting each other""}","<img src=""stim_listB/meet2.gif""</stim_listB>",are meeting each other,
null,"<div style=""font-size:60px;"">+</div>",,html-keyboard-response,356,1971948,0.0-19.0-0.8,61847,List1B,white,man,,,,null,,,,
null,"<img src=""stim_listB/dance7.gif""</stim_listB>",,html-keyboard-response,357,1973955,0.0-19.0-1.8,61847,List1B,white,man,,,,null,,,,
null,is dancing with,,html-keyboard-response,358,1975960,0.0-19.0-2.8,61847,List1B,white,man,,,,null,,,,
11054,,,survey-text,359,1987016,0.0-19.0-3.8,61847,List1B,white,man,,,,,"{""Q0"":""jane is dancing with beth""}","<img src=""stim_listB/dance7.gif""</stim_listB>",is dancing with,
null,"<div style=""font-size:60px;"">+</div>",,html-keyboard-response,360,1987518,0.0-19.0-0.9,61847,List1B,white,man,,,,null,,,,
null,"<img src=""stim_listB/marry5.gif""</stim_listB>",,html-keyboard-response,361,1989522,0.0-19.0-1.9,61847,List1B,white,man,,,,null,,,,
null,is marrying,,html-keyboard-response,362,1991526,0.0-19.0-2.9,61847,List1B,white,man,,,,null,,,,
10352,,,survey-text,363,2001880,0.0-19.0-3.9,61847,List1B,white,man,,,,,"{""Q0"":""mike is marrying luke""}","<img src=""stim_listB/marry5.gif""</stim_listB>",is marrying,
null,"<div style=""font-size:60px;"">+</div>",,html-keyboard-response,364,2002382,0.0-19.0-0.10,61847,List1B,white,man,,,,null,,,,
null,"<img src=""stim_listB/dance6.gif""</stim_listB>",,html-keyboard-response,365,2004387,0.0-19.0-1.10,61847,List1B,white,man,,,,null,,,,
null,are dancing with each other,,html-keyboard-response,366,2006393,0.0-19.0-2.10,61847,List1B,white,man,,,,null,,,,
13938,,,survey-text,367,2020332,0.0-19.0-3.10,61847,List1B,white,man,,,,,"{""Q0"":""mike and luke are dancing with each other""}","<img src=""stim_listB/dance6.gif""</stim_listB>",are dancing with each other,
null,"<div style=""font-size:60px;"">+</div>",,html-keyboard-response,368,2020835,0.0-19.0-0.11,61847,List1B,white,man,,,,null,,,,
null,"<img src=""stim_listB/kiss6.gif""</stim_listB>",,html-keyboard-response,369,2022837,0.0-19.0-1.11,61847,List1B,white,man,,,,null,,,,
null,are kissing each other,,html-keyboard-response,370,2024841,0.0-19.0-2.11,61847,List1B,white,man,,,,null,,,,
13931,,,survey-text,371,2038773,0.0-19.0-3.11,61847,List1B,white,man,,,,,"{""Q0"":""dave and mike are kissing each other""}","<img src=""stim_listB/kiss6.gif""</stim_listB>",are kissing each other,
null,"<div style=""font-size:60px;"">+</div>",,html-keyboard-response,372,2039277,0.0-19.0-0.12,61847,List1B,white,man,,,,null,,,,
null,"<img src=""stim_listB/dance3.gif""</stim_listB>",,html-keyboard-response,373,2041280,0.0-19.0-1.12,61847,List1B,white,man,,,,null,,,,
null,is dancing with,,html-keyboard-response,374,2043282,0.0-19.0-2.12,61847,List1B,white,man,,,,null,,,,
18040,,,survey-text,375,2061323,0.0-19.0-3.12,61847,List1B,white,man,,,,,"{""Q0"":""luke is dancing with jane""}","<img src=""stim_listB/dance3.gif""</stim_listB>",is dancing with,
null,"<div style=""font-size:60px;"">+</div>",,html-keyboard-response,376,2061825,0.0-19.0-0.13,61847,List1B,white,man,,,,null,,,,
null,"<img src=""stim_listB/shout1.gif""</stim_listB>",,html-keyboard-response,377,2063832,0.0-19.0-1.13,61847,List1B,white,man,,,,null,,,,
null,is shouting at,,html-keyboard-response,378,2065837,0.0-19.0-2.13,61847,List1B,white,man,,,,null,,,,
11041,,,survey-text,379,2076878,0.0-19.0-3.13,61847,List1B,white,man,,,,,"{""Q0"":""fred is shouting at beth""}","<img src=""stim_listB/shout1.gif""</stim_listB>",is shouting at,
null,"<div style=""font-size:60px;"">+</div>",,html-keyboard-response,380,2077382,0.0-19.0-0.14,61847,List1B,white,man,,,,null,,,,
null,"<img src=""stim_listB/marry4.gif""</stim_listB>",,html-keyboard-response,381,2079388,0.0-19.0-1.14,61847,List1B,white,man,,,,null,,,,
null,are marrying each other,,html-keyboard-response,382,2081394,0.0-19.0-2.14,61847,List1B,white,man,,,,null,,,,
14350,,,survey-text,383,2095746,0.0-19.0-3.14,61847,List1B,white,man,,,,,"{""Q0"":""luke and jane are marrying each other""}","<img src=""stim_listB/marry4.gif""</stim_listB>",are marrying each other,
null,"<div style=""font-size:60px;"">+</div>",,html-keyboard-response,384,2096248,0.0-19.0-0.15,61847,List1B,white,man,,,,null,,,,
null,"<img src=""stim_listB/talk6.gif""</stim_listB>",,html-keyboard-response,385,2098252,0.0-19.0-1.15,61847,List1B,white,man,,,,null,,,,
null,are talking to each other,,html-keyboard-response,386,2100255,0.0-19.0-2.15,61847,List1B,white,man,,,,null,,,,
14724,,,survey-text,387,2114979,0.0-19.0-3.15,61847,List1B,white,man,,,,,"{""Q0"":""mike and luke are talking to each other""}","<img src=""stim_listB/talk6.gif""</stim_listB>",are talking to each other,
null,"<div style=""font-size:60px;"">+</div>",,html-keyboard-response,388,2115483,0.0-19.0-0.16,61847,List1B,white,man,,,,null,,,,
null,"<img src=""stim_listB/argue1.gif""</stim_listB>",,html-keyboard-response,389,2117486,0.0-19.0-1.16,61847,List1B,white,man,,,,null,,,,
null,is arguing with,,html-keyboard-response,390,2119489,0.0-19.0-2.16,61847,List1B,white,man,,,,null,,,,
10861,,,survey-text,391,2130351,0.0-19.0-3.16,61847,List1B,white,man,,,,,"{""Q0"":""mike is arguing with beth""}","<img src=""stim_listB/argue1.gif""</stim_listB>",is arguing with,
null,"<div style=""font-size:60px;"">+</div>",,html-keyboard-response,392,2130855,0.0-19.0-0.17,61847,List1B,white,man,,,,null,,,,
null,"<img src=""stim_listB/shout2.gif""</stim_listB>",,html-keyboard-response,393,2132858,0.0-19.0-1.17,61847,List1B,white,man,,,,null,,,,
null,are shouting at each other,,html-keyboard-response,394,2134863,0.0-19.0-2.17,61847,List1B,white,man,,,,null,,,,
14164,,,survey-text,395,2149028,0.0-19.0-3.17,61847,List1B,white,man,,,,,"{""Q0"":""mike and kate are shouting at each other""}","<img src=""stim_listB/shout2.gif""</stim_listB>",are shouting at each other,
null,"<div style=""font-size:60px;"">+</div>",,html-keyboard-response,396,2149530,0.0-19.0-0.18,61847,List1B,white,man,,,,null,,,,
null,"<img src=""stim_listB/meet6.gif""</stim_listB>",,html-keyboard-response,397,2151536,0.0-19.0-1.18,61847,List1B,white,man,,,,null,,,,
null,are meeting each other,,html-keyboard-response,398,2153540,0.0-19.0-2.18,61847,List1B,white,man,,,,null,,,,
13044,,,survey-text,399,2166586,0.0-19.0-3.18,61847,List1B,white,man,,,,,"{""Q0"":""fred and luke are meeting each other""}","<img src=""stim_listB/meet6.gif""</stim_listB>",are meeting each other,
null,"<div style=""font-size:60px;"">+</div>",,html-keyboard-response,400,2167088,0.0-19.0-0.19,61847,List1B,white,man,,,,null,,,,
null,"<img src=""stim_listB/shout6.gif""</stim_listB>",,html-keyboard-response,401,2169091,0.0-19.0-1.19,61847,List1B,white,man,,,,null,,,,
null,are shouting at each other,,html-keyboard-response,402,2171094,0.0-19.0-2.19,61847,List1B,white,man,,,,null,,,,
14760,,,survey-text,403,2185855,0.0-19.0-3.19,61847,List1B,white,man,,,,,"{""Q0"":""mike and dave are shouting at each other""}","<img src=""stim_listB/shout6.gif""</stim_listB>",are shouting at each other,
5990,<p>Thank you for completing that task.</p><p>The final part of this session is a short questionnaire.</p><p>Press Continue.</p>,0,html-button-response,404,2191845,0.0-20.0,61847,List1B,white,man,,,,,,,,
32790,,,survey-text,405,2225638,0.0-21.0,61847,List1B,white,man,,,,,"{""Q0"":""67"",""Q1"":""English"",""Q2"":""English"",""Q3"":""UK"",""Q4"":""White"",""Q5"":""Male""}",,,demographics
117822,,,survey-likert,406,2343467,0.0-22.0,61847,List1B,white,man,,,,,"{""Q0"":4,""Q1"":4,""Q2"":4,""Q3"":4,""Q4"":3,""Q5"":4,""Q6"":4,""Q7"":1,""Q8"":3,""Q9"":2,""Q10"":3,""Q11"":3,""Q12"":2,""Q13"":2}",,,likert_race
44714,,,survey-likert,407,2388184,0.0-23.0,61847,List1B,white,man,,,,,"{""Q0"":"""",""Q1"":"""",""Q2"":"""",""Q3"":"""",""Q4"":"""",""Q5"":"""",""Q6"":"""",""Q7"":"""",""Q8"":"""",""Q9"":"""",""Q10"":3,""Q11"":2,""Q12"":4,""Q13"":3}",,,likert_gender
8000,,,survey-text,408,2396184,0.0-24.0,61847,List1B,white,man,,,,,"{""Q0"":""ccc""}",,,worker_id
56478,,,external-html,409,2452743,0.0-25.0,61847,List1B,white,man,debrief.html,,,,,,,
