rt,stimulus,button_pressed,trial_type,trial_index,time_elapsed,internal_node_id,subject,list,ppt_race,ppt_gender,url,first_guess,correct,key_press,responses,image_type,phrase_type,test_part
1424,Welcome to the experiment. Press Continue to begin.,0,html-button-response,0,1429,0.0-0.0,63174,List2B,white,woman,,,,,,,,
30569,,,external-html,1,33194,0.0-1.0,63174,List2B,white,woman,consent.html,,,,,,,
14670,"<p>On the next page, you will see portraits of 8 people and their names.</p><p>Your first task is to take a few minutes to memorise the names of these people.</p><p>You will have to recall their names during the rest of the experiment, so it is</p><p>essential that you try to memorise these people and their names as best as you can.</p><br><p><strong>You will then be tested on your memory of these names and portraits.</strong></p><br><p>The experiment will start after you have completed this memory test.</p><br><p>Ready?</p>",0,html-button-response,2,47866,0.0-2.0,63174,List2B,white,woman,,,,,,,,
54489,"<img src='img/portrait_matrix_list2.JPG' style='width:900px;height:500px;''></img><p>If you have memorised all the portraits and names and are ready to start, press Continue.</p><p><strong>Please note: Your memory of these faces will be tested 4 times during this experiment.</strong></p>",0,html-button-response,3,103379,0.0-3.0-0.0,63174,List2B,white,woman,,,,,,,,
4359,"<img src=""portrait/WM1.jpg""style=""width:400px;height:400px;""></img>",6,html-button-response,4,108756,0.0-3.0-1.0,63174,List2B,white,woman,,TRUE,6,,,,,
null,CORRECT,,html-keyboard-response,5,110295,0.0-3.0-2.0-0.0,63174,List2B,white,woman,,,,null,,,,
4492,"<img src=""portrait/BW2.jpg""style=""width:400px;height:400px;""></img>",2,html-button-response,6,114796,0.0-3.0-4.0,63174,List2B,white,woman,,TRUE,2,,,,,
null,CORRECT,,html-keyboard-response,7,116339,0.0-3.0-5.0-0.0,63174,List2B,white,woman,,,,null,,,,
1786,"<img src=""portrait/WW2.jpg""style=""width:400px;height:400px;""></img>",3,html-button-response,8,118132,0.0-3.0-7.0,63174,List2B,white,woman,,TRUE,3,,,,,
null,CORRECT,,html-keyboard-response,9,119669,0.0-3.0-8.0-0.0,63174,List2B,white,woman,,,,null,,,,
10073,"<img src=""portrait/BM1.jpg""style=""width:400px;height:400px;""></img>",4,html-button-response,10,129748,0.0-3.0-10.0,63174,List2B,white,woman,,TRUE,4,,,,,
null,CORRECT,,html-keyboard-response,11,131276,0.0-3.0-11.0-0.0,63174,List2B,white,woman,,,,null,,,,
7986,"<img src=""portrait/WW1.jpg""style=""width:400px;height:400px;""></img>",1,html-button-response,12,139268,0.0-3.0-13.0,63174,List2B,white,woman,,TRUE,1,,,,,
null,CORRECT,,html-keyboard-response,13,140809,0.0-3.0-14.0-0.0,63174,List2B,white,woman,,,,null,,,,
6636,"<img src=""portrait/BW1.jpg""style=""width:400px;height:400px;""></img>",0,html-button-response,14,147452,0.0-3.0-16.0,63174,List2B,white,woman,,TRUE,0,,,,,
null,CORRECT,,html-keyboard-response,15,148974,0.0-3.0-17.0-0.0,63174,List2B,white,woman,,,,null,,,,
5034,"<img src=""portrait/WM2.jpg""style=""width:400px;height:400px;""></img>",7,html-button-response,16,154012,0.0-3.0-19.0,63174,List2B,white,woman,,TRUE,7,,,,,
null,CORRECT,,html-keyboard-response,17,155550,0.0-3.0-20.0-0.0,63174,List2B,white,woman,,,,null,,,,
5365,"<img src=""portrait/BM2.jpg""style=""width:400px;height:400px;""></img>",5,html-button-response,18,160923,0.0-3.0-22.0,63174,List2B,white,woman,,TRUE,5,,,,,
null,CORRECT,,html-keyboard-response,19,162460,0.0-3.0-23.0-0.0,63174,List2B,white,woman,,,,null,,,,
1426,<p>You got 8 out of 8 right first time. Press Continue.</p>,0,html-button-response,20,163890,0.0-3.0-25.0,63174,List2B,white,woman,,,,,,,,
37259,"<p>In this experiment, you will view photographs of the people from the memory game interacting.</p><p>By using the <strong>exact</strong> phrase given <i>after</i> the photograph appears and recalling the correct names of the people in the photographs, form a sentence describing the interaction. You do not need to capitalise names.</p><p>Type your answer in the space provided. Please complete every sentence before moving onto the next trial.</p><p>You will only have a few seconds to memorise each given photograph and phrase before you can respond, so try your best to focus.</p><p>An example is given below. Press 'Continue' when you are ready.</p><img src='img/speaking_example_v2.jpg' style='width:800px;height:460px;''></img>",0,html-button-response,21,202163,0.0-4.0,63174,List2B,white,woman,,,,,,,,
2015,"<p>Before the experiment starts, you will watch two example trials. Press 'Continue'.</p>",0,html-button-response,22,205194,0.0-5.0,63174,List2B,white,woman,,,,,,,,
null,<img src='img/speaking_WW.gif'></img>,,html-keyboard-response,23,208221,0.0-6.0,63174,List2B,white,woman,,,,null,,,,
null,<p>is speaking to</p>,,html-keyboard-response,24,210213,0.0-7.0,63174,List2B,white,woman,,,,null,,,,
3683,<p><b>Answer:</b> jane is speaking to ruth</p>,0,html-button-response,25,213898,0.0-8.0,63174,List2B,white,woman,,,,,,,,
null,<img src='img/pointing_BM.gif'></img>,,html-keyboard-response,26,216930,0.0-9.0,63174,List2B,white,woman,,,,null,,,,
null,<p>are pointing at each other</p>,,html-keyboard-response,27,218931,0.0-10.0,63174,List2B,white,woman,,,,null,,,,
3573,<p><b>Answer:</b> fred and mike are pointing at each other</p>,0,html-button-response,28,222506,0.0-11.0,63174,List2B,white,woman,,,,,,,,
15701,"<p>Ready to start the experiment?</p><br><p><strong>Remember to describe the picture using a full sentence,</strong></p><p><strong>that combines the names of the people with the given phrase.</strong></p><p><strong>If you do not do this correctly you will not be paid.</strong></p><p><strong> You do not need to capitalise names or use punctuation.</strong></p><br><p>Press 'Continue' to begin.</p>",0,html-button-response,29,239227,0.0-12.0,63174,List2B,white,woman,,,,,,,,
null,"<div style=""font-size:60px;"">+</div>",,html-keyboard-response,30,240766,0.0-13.0-0.0,63174,List2B,white,woman,,,,null,,,,
null,"<img src=""stim_listB/hug6.gif""</stim_listB>",,html-keyboard-response,31,242781,0.0-13.0-1.0,63174,List2B,white,woman,,,,null,,,,
null,are hugging each other,,html-keyboard-response,32,244786,0.0-13.0-2.0,63174,List2B,white,woman,,,,null,,,,
13116,,,survey-text,33,257907,0.0-13.0-3.0,63174,List2B,white,woman,,,,,"{""Q0"":""dave and mike are hugging each other""}","<img src=""stim_listB/hug6.gif""</stim_listB>",are hugging each other,
null,"<div style=""font-size:60px;"">+</div>",,html-keyboard-response,34,258415,0.0-13.0-0.1,63174,List2B,white,woman,,,,null,,,,
null,"<img src=""stim_listB/meet6.gif""</stim_listB>",,html-keyboard-response,35,260442,0.0-13.0-1.1,63174,List2B,white,woman,,,,null,,,,
null,are meeting each other,,html-keyboard-response,36,262443,0.0-13.0-2.1,63174,List2B,white,woman,,,,null,,,,
15989,,,survey-text,37,278435,0.0-13.0-3.1,63174,List2B,white,woman,,,,,"{""Q0"":""luke and fred are meeting each other""}","<img src=""stim_listB/meet6.gif""</stim_listB>",are meeting each other,
null,"<div style=""font-size:60px;"">+</div>",,html-keyboard-response,38,278958,0.0-13.0-0.2,63174,List2B,white,woman,,,,null,,,,
null,"<img src=""stim_listB/dance1.gif""</stim_listB>",,html-keyboard-response,39,280971,0.0-13.0-1.2,63174,List2B,white,woman,,,,null,,,,
null,is dancing with,,html-keyboard-response,40,282980,0.0-13.0-2.2,63174,List2B,white,woman,,,,null,,,,
7884,,,survey-text,41,290868,0.0-13.0-3.2,63174,List2B,white,woman,,,,,"{""Q0"":""luke is dancing with jane""}","<img src=""stim_listB/dance1.gif""</stim_listB>",is dancing with,
null,"<div style=""font-size:60px;"">+</div>",,html-keyboard-response,42,291383,0.0-13.0-0.3,63174,List2B,white,woman,,,,null,,,,
null,"<img src=""stim_listB/marry8.gif""</stim_listB>",,html-keyboard-response,43,293400,0.0-13.0-1.3,63174,List2B,white,woman,,,,null,,,,
null,are marrying each other,,html-keyboard-response,44,295400,0.0-13.0-2.3,63174,List2B,white,woman,,,,null,,,,
16857,,,survey-text,45,312259,0.0-13.0-3.3,63174,List2B,white,woman,,,,,"{""Q0"":""kate is dancing with ruth""}","<img src=""stim_listB/marry8.gif""</stim_listB>",are marrying each other,
null,"<div style=""font-size:60px;"">+</div>",,html-keyboard-response,46,312762,0.0-13.0-0.4,63174,List2B,white,woman,,,,null,,,,
null,"<img src=""stim_listB/meet8.gif""</stim_listB>",,html-keyboard-response,47,314777,0.0-13.0-1.4,63174,List2B,white,woman,,,,null,,,,
null,are meeting each other,,html-keyboard-response,48,316795,0.0-13.0-2.4,63174,List2B,white,woman,,,,null,,,,
18172,,,survey-text,49,334970,0.0-13.0-3.4,63174,List2B,white,woman,,,,,"{""Q0"":""beth and ruth are meeting each other""}","<img src=""stim_listB/meet8.gif""</stim_listB>",are meeting each other,
null,"<div style=""font-size:60px;"">+</div>",,html-keyboard-response,50,335488,0.0-13.0-0.5,63174,List2B,white,woman,,,,null,,,,
null,"<img src=""stim_listB/meet1.gif""</stim_listB>",,html-keyboard-response,51,337504,0.0-13.0-1.5,63174,List2B,white,woman,,,,null,,,,
null,is meeting,,html-keyboard-response,52,339506,0.0-13.0-2.5,63174,List2B,white,woman,,,,null,,,,
9870,,,survey-text,53,349378,0.0-13.0-3.5,63174,List2B,white,woman,,,,,"{""Q0"":""jane is meeting mike""}","<img src=""stim_listB/meet1.gif""</stim_listB>",is meeting,
null,"<div style=""font-size:60px;"">+</div>",,html-keyboard-response,54,349903,0.0-13.0-0.6,63174,List2B,white,woman,,,,null,,,,
null,"<img src=""stim_listB/marry2.gif""</stim_listB>",,html-keyboard-response,55,351923,0.0-13.0-1.6,63174,List2B,white,woman,,,,null,,,,
null,are marrying each other,,html-keyboard-response,56,353918,0.0-13.0-2.6,63174,List2B,white,woman,,,,null,,,,
15144,,,survey-text,57,369066,0.0-13.0-3.6,63174,List2B,white,woman,,,,,"{""Q0"":""jane and luke are marrying each other""}","<img src=""stim_listB/marry2.gif""</stim_listB>",are marrying each other,
null,"<div style=""font-size:60px;"">+</div>",,html-keyboard-response,58,369599,0.0-13.0-0.7,63174,List2B,white,woman,,,,null,,,,
null,"<img src=""stim_listB/dance8.gif""</stim_listB>",,html-keyboard-response,59,371610,0.0-13.0-1.7,63174,List2B,white,woman,,,,null,,,,
null,are dancing with each other,,html-keyboard-response,60,373619,0.0-13.0-2.7,63174,List2B,white,woman,,,,null,,,,
13724,,,survey-text,61,387349,0.0-13.0-3.7,63174,List2B,white,woman,,,,,"{""Q0"":""jane and beth are marrying each other""}","<img src=""stim_listB/dance8.gif""</stim_listB>",are dancing with each other,
null,"<div style=""font-size:60px;"">+</div>",,html-keyboard-response,62,387861,0.0-13.0-0.8,63174,List2B,white,woman,,,,null,,,,
null,"<img src=""stim_listB/marry1.gif""</stim_listB>",,html-keyboard-response,63,389882,0.0-13.0-1.8,63174,List2B,white,woman,,,,null,,,,
null,is marrying,,html-keyboard-response,64,391897,0.0-13.0-2.8,63174,List2B,white,woman,,,,null,,,,
14325,,,survey-text,65,406226,0.0-13.0-3.8,63174,List2B,white,woman,,,,,"{""Q0"":""ruth is marrying dave""}","<img src=""stim_listB/marry1.gif""</stim_listB>",is marrying,
null,"<div style=""font-size:60px;"">+</div>",,html-keyboard-response,66,406741,0.0-13.0-0.9,63174,List2B,white,woman,,,,null,,,,
null,"<img src=""stim_listB/dance2.gif""</stim_listB>",,html-keyboard-response,67,408760,0.0-13.0-1.9,63174,List2B,white,woman,,,,null,,,,
null,are dancing with each other,,html-keyboard-response,68,410776,0.0-13.0-2.9,63174,List2B,white,woman,,,,null,,,,
15022,,,survey-text,69,425801,0.0-13.0-3.9,63174,List2B,white,woman,,,,,"{""Q0"":""ruth and dave are dancing with each other""}","<img src=""stim_listB/dance2.gif""</stim_listB>",are dancing with each other,
null,"<div style=""font-size:60px;"">+</div>",,html-keyboard-response,70,426317,0.0-13.0-0.10,63174,List2B,white,woman,,,,null,,,,
null,"<img src=""stim_listB/dance5.gif""</stim_listB>",,html-keyboard-response,71,428345,0.0-13.0-1.10,63174,List2B,white,woman,,,,null,,,,
null,is dancing with,,html-keyboard-response,72,430347,0.0-13.0-2.10,63174,List2B,white,woman,,,,null,,,,
24907,,,survey-text,73,455259,0.0-13.0-3.10,63174,List2B,white,woman,,,,,"{""Q0"":""mike is dancing with luke""}","<img src=""stim_listB/dance5.gif""</stim_listB>",is dancing with,
null,"<div style=""font-size:60px;"">+</div>",,html-keyboard-response,74,455783,0.0-13.0-0.11,63174,List2B,white,woman,,,,null,,,,
null,"<img src=""stim_listB/kiss2.gif""</stim_listB>",,html-keyboard-response,75,457800,0.0-13.0-1.11,63174,List2B,white,woman,,,,null,,,,
null,are kissing each other,,html-keyboard-response,76,459800,0.0-13.0-2.11,63174,List2B,white,woman,,,,null,,,,
14630,,,survey-text,77,474434,0.0-13.0-3.11,63174,List2B,white,woman,,,,,"{""Q0"":""dave is kissing jane""}","<img src=""stim_listB/kiss2.gif""</stim_listB>",are kissing each other,
null,"<div style=""font-size:60px;"">+</div>",,html-keyboard-response,78,474957,0.0-13.0-0.12,63174,List2B,white,woman,,,,null,,,,
null,"<img src=""stim_listB/shout7.gif""</stim_listB>",,html-keyboard-response,79,476967,0.0-13.0-1.12,63174,List2B,white,woman,,,,null,,,,
null,is shouting at,,html-keyboard-response,80,478972,0.0-13.0-2.12,63174,List2B,white,woman,,,,null,,,,
12204,,,survey-text,81,491178,0.0-13.0-3.12,63174,List2B,white,woman,,,,,"{""Q0"":""beth is shouting at ruth""}","<img src=""stim_listB/shout7.gif""</stim_listB>",is shouting at,
null,"<div style=""font-size:60px;"">+</div>",,html-keyboard-response,82,491703,0.0-13.0-0.13,63174,List2B,white,woman,,,,null,,,,
null,"<img src=""stim_listB/talk1.gif""</stim_listB>",,html-keyboard-response,83,493718,0.0-13.0-1.13,63174,List2B,white,woman,,,,null,,,,
null,is talking to,,html-keyboard-response,84,495715,0.0-13.0-2.13,63174,List2B,white,woman,,,,null,,,,
7218,,,survey-text,85,502937,0.0-13.0-3.13,63174,List2B,white,woman,,,,,"{""Q0"":""jane is talking to luke""}","<img src=""stim_listB/talk1.gif""</stim_listB>",is talking to,
null,"<div style=""font-size:60px;"">+</div>",,html-keyboard-response,86,503462,0.0-13.0-0.14,63174,List2B,white,woman,,,,null,,,,
null,"<img src=""stim_listB/argue5.gif""</stim_listB>",,html-keyboard-response,87,505488,0.0-13.0-1.14,63174,List2B,white,woman,,,,null,,,,
null,is arguing with,,html-keyboard-response,88,507486,0.0-13.0-2.14,63174,List2B,white,woman,,,,null,,,,
17799,,,survey-text,89,525290,0.0-13.0-3.14,63174,List2B,white,woman,,,,,"{""Q0"":""fred is arguing with dave""}","<img src=""stim_listB/argue5.gif""</stim_listB>",is arguing with,
null,"<div style=""font-size:60px;"">+</div>",,html-keyboard-response,90,525822,0.0-13.0-0.15,63174,List2B,white,woman,,,,null,,,,
null,"<img src=""stim_listB/fight1.gif""</stim_listB>",,html-keyboard-response,91,527851,0.0-13.0-1.15,63174,List2B,white,woman,,,,null,,,,
null,is fighting,,html-keyboard-response,92,529851,0.0-13.0-2.15,63174,List2B,white,woman,,,,null,,,,
12548,,,survey-text,93,542402,0.0-13.0-3.15,63174,List2B,white,woman,,,,,"{""Q0"":""dave is fighting jane""}","<img src=""stim_listB/fight1.gif""</stim_listB>",is fighting,
null,"<div style=""font-size:60px;"">+</div>",,html-keyboard-response,94,542933,0.0-13.0-0.16,63174,List2B,white,woman,,,,null,,,,
null,"<img src=""stim_listB/meet2.gif""</stim_listB>",,html-keyboard-response,95,544963,0.0-13.0-1.16,63174,List2B,white,woman,,,,null,,,,
null,are meeting each other,,html-keyboard-response,96,546948,0.0-13.0-2.16,63174,List2B,white,woman,,,,null,,,,
12145,,,survey-text,97,559097,0.0-13.0-3.16,63174,List2B,white,woman,,,,,"{""Q0"":""luke and ruth are meeting each other""}","<img src=""stim_listB/meet2.gif""</stim_listB>",are meeting each other,
null,"<div style=""font-size:60px;"">+</div>",,html-keyboard-response,98,559622,0.0-13.0-0.17,63174,List2B,white,woman,,,,null,,,,
null,"<img src=""stim_listB/fight3.gif""</stim_listB>",,html-keyboard-response,99,561651,0.0-13.0-1.17,63174,List2B,white,woman,,,,null,,,,
null,is fighting,,html-keyboard-response,100,563650,0.0-13.0-2.17,63174,List2B,white,woman,,,,null,,,,
12813,,,survey-text,101,576465,0.0-13.0-3.17,63174,List2B,white,woman,,,,,"{""Q0"":""kate is fighting mike""}","<img src=""stim_listB/fight3.gif""</stim_listB>",is fighting,
null,"<div style=""font-size:60px;"">+</div>",,html-keyboard-response,102,576996,0.0-13.0-0.18,63174,List2B,white,woman,,,,null,,,,
null,"<img src=""stim_listB/meet7.gif""</stim_listB>",,html-keyboard-response,103,579010,0.0-13.0-1.18,63174,List2B,white,woman,,,,null,,,,
null,is meeting,,html-keyboard-response,104,581005,0.0-13.0-2.18,63174,List2B,white,woman,,,,null,,,,
6392,,,survey-text,105,587401,0.0-13.0-3.18,63174,List2B,white,woman,,,,,"{""Q0"":""kate is meeting jane""}","<img src=""stim_listB/meet7.gif""</stim_listB>",is meeting,
null,"<div style=""font-size:60px;"">+</div>",,html-keyboard-response,106,587914,0.0-13.0-0.19,63174,List2B,white,woman,,,,null,,,,
null,"<img src=""stim_listB/touch8.gif""</stim_listB>",,html-keyboard-response,107,589947,0.0-13.0-1.19,63174,List2B,white,woman,,,,null,,,,
null,are touching each other,,html-keyboard-response,108,591937,0.0-13.0-2.19,63174,List2B,white,woman,,,,null,,,,
13460,,,survey-text,109,605401,0.0-13.0-3.19,63174,List2B,white,woman,,,,,"{""Q0"":""ruth and beth are touching each other""}","<img src=""stim_listB/touch8.gif""</stim_listB>",are touching each other,
12773,"<img src='img/portrait_matrix_list2.JPG' style='width:900px;height:500px;''></img><p>If you have memorised all the portraits and names and are ready to start, press Continue.</p><p><strong>Please note: Your memory of these faces will be tested 4 times during this experiment.</strong></p>",0,html-button-response,110,618177,0.0-14.0-0.0,63174,List2B,white,woman,,,,,,,,
5671,"<img src=""portrait/BW1.jpg""style=""width:400px;height:400px;""></img>",0,html-button-response,111,624881,0.0-14.0-1.0,63174,List2B,white,woman,,TRUE,0,,,,,
null,CORRECT,,html-keyboard-response,112,626420,0.0-14.0-2.0-0.0,63174,List2B,white,woman,,,,null,,,,
2165,"<img src=""portrait/BM2.jpg""style=""width:400px;height:400px;""></img>",5,html-button-response,113,628592,0.0-14.0-4.0,63174,List2B,white,woman,,TRUE,5,,,,,
null,CORRECT,,html-keyboard-response,114,630116,0.0-14.0-5.0-0.0,63174,List2B,white,woman,,,,null,,,,
2078,"<img src=""portrait/BW2.jpg""style=""width:400px;height:400px;""></img>",2,html-button-response,115,632200,0.0-14.0-7.0,63174,List2B,white,woman,,TRUE,2,,,,,
null,CORRECT,,html-keyboard-response,116,633746,0.0-14.0-8.0-0.0,63174,List2B,white,woman,,,,null,,,,
2728,"<img src=""portrait/WW1.jpg""style=""width:400px;height:400px;""></img>",1,html-button-response,117,636480,0.0-14.0-10.0,63174,List2B,white,woman,,TRUE,1,,,,,
null,CORRECT,,html-keyboard-response,118,637991,0.0-14.0-11.0-0.0,63174,List2B,white,woman,,,,null,,,,
4721,"<img src=""portrait/BM1.jpg""style=""width:400px;height:400px;""></img>",4,html-button-response,119,642720,0.0-14.0-13.0,63174,List2B,white,woman,,TRUE,4,,,,,
null,CORRECT,,html-keyboard-response,120,644259,0.0-14.0-14.0-0.0,63174,List2B,white,woman,,,,null,,,,
1671,"<img src=""portrait/WW2.jpg""style=""width:400px;height:400px;""></img>",3,html-button-response,121,645937,0.0-14.0-16.0,63174,List2B,white,woman,,TRUE,3,,,,,
null,CORRECT,,html-keyboard-response,122,647465,0.0-14.0-17.0-0.0,63174,List2B,white,woman,,,,null,,,,
1926,"<img src=""portrait/WM2.jpg""style=""width:400px;height:400px;""></img>",7,html-button-response,123,649400,0.0-14.0-19.0,63174,List2B,white,woman,,TRUE,7,,,,,
null,CORRECT,,html-keyboard-response,124,650930,0.0-14.0-20.0-0.0,63174,List2B,white,woman,,,,null,,,,
2112,"<img src=""portrait/WM1.jpg""style=""width:400px;height:400px;""></img>",6,html-button-response,125,653048,0.0-14.0-22.0,63174,List2B,white,woman,,TRUE,6,,,,,
null,CORRECT,,html-keyboard-response,126,654581,0.0-14.0-23.0-0.0,63174,List2B,white,woman,,,,null,,,,
1437,<p>You got 8 out of 8 right first time. Press Continue.</p>,0,html-button-response,127,656024,0.0-14.0-25.0,63174,List2B,white,woman,,,,,,,,
null,"<div style=""font-size:60px;"">+</div>",,html-keyboard-response,128,657555,0.0-15.0-0.0,63174,List2B,white,woman,,,,null,,,,
null,"<img src=""stim_listB/kiss7.gif""</stim_listB>",,html-keyboard-response,129,659571,0.0-15.0-1.0,63174,List2B,white,woman,,,,null,,,,
null,is kissing,,html-keyboard-response,130,661585,0.0-15.0-2.0,63174,List2B,white,woman,,,,null,,,,
18131,,,survey-text,131,679720,0.0-15.0-3.0,63174,List2B,white,woman,,,,,"{""Q0"":""beth is kissing ruth""}","<img src=""stim_listB/kiss7.gif""</stim_listB>",is kissing,
null,"<div style=""font-size:60px;"">+</div>",,html-keyboard-response,132,680249,0.0-15.0-0.1,63174,List2B,white,woman,,,,null,,,,
null,"<img src=""stim_listB/shout4.gif""</stim_listB>",,html-keyboard-response,133,682281,0.0-15.0-1.1,63174,List2B,white,woman,,,,null,,,,
null,are shouting at each other,,html-keyboard-response,134,684263,0.0-15.0-2.1,63174,List2B,white,woman,,,,null,,,,
14046,,,survey-text,135,698313,0.0-15.0-3.1,63174,List2B,white,woman,,,,,"{""Q0"":""mike and kate are shouting at each other""}","<img src=""stim_listB/shout4.gif""</stim_listB>",are shouting at each other,
null,"<div style=""font-size:60px;"">+</div>",,html-keyboard-response,136,698832,0.0-15.0-0.2,63174,List2B,white,woman,,,,null,,,,
null,"<img src=""stim_listB/fight2.gif""</stim_listB>",,html-keyboard-response,137,700863,0.0-15.0-1.2,63174,List2B,white,woman,,,,null,,,,
null,are fighting each other,,html-keyboard-response,138,702863,0.0-15.0-2.2,63174,List2B,white,woman,,,,null,,,,
12704,,,survey-text,139,715569,0.0-15.0-3.2,63174,List2B,white,woman,,,,,"{""Q0"":""luke and ruth are fighting each other""}","<img src=""stim_listB/fight2.gif""</stim_listB>",are fighting each other,
null,"<div style=""font-size:60px;"">+</div>",,html-keyboard-response,140,716101,0.0-15.0-0.3,63174,List2B,white,woman,,,,null,,,,
null,"<img src=""stim_listB/meet5.gif""</stim_listB>",,html-keyboard-response,141,718130,0.0-15.0-1.3,63174,List2B,white,woman,,,,null,,,,
null,is meeting,,html-keyboard-response,142,720114,0.0-15.0-2.3,63174,List2B,white,woman,,,,null,,,,
5836,,,survey-text,143,725953,0.0-15.0-3.3,63174,List2B,white,woman,,,,,"{""Q0"":""mike is meeting dave""}","<img src=""stim_listB/meet5.gif""</stim_listB>",is meeting,
null,"<div style=""font-size:60px;"">+</div>",,html-keyboard-response,144,726474,0.0-15.0-0.4,63174,List2B,white,woman,,,,null,,,,
null,"<img src=""stim_listB/meet4.gif""</stim_listB>",,html-keyboard-response,145,728486,0.0-15.0-1.4,63174,List2B,white,woman,,,,null,,,,
null,are meeting each other,,html-keyboard-response,146,730506,0.0-15.0-2.4,63174,List2B,white,woman,,,,null,,,,
9338,,,survey-text,147,739848,0.0-15.0-3.4,63174,List2B,white,woman,,,,,"{""Q0"":""fred is meeting beth""}","<img src=""stim_listB/meet4.gif""</stim_listB>",are meeting each other,
null,"<div style=""font-size:60px;"">+</div>",,html-keyboard-response,148,740358,0.0-15.0-0.5,63174,List2B,white,woman,,,,null,,,,
null,"<img src=""stim_listB/meet3.gif""</stim_listB>",,html-keyboard-response,149,742402,0.0-15.0-1.5,63174,List2B,white,woman,,,,null,,,,
null,is meeting,,html-keyboard-response,150,744404,0.0-15.0-2.5,63174,List2B,white,woman,,,,null,,,,
5520,,,survey-text,151,749929,0.0-15.0-3.5,63174,List2B,white,woman,,,,,"{""Q0"":""kate is meeting mike""}","<img src=""stim_listB/meet3.gif""</stim_listB>",is meeting,
null,"<div style=""font-size:60px;"">+</div>",,html-keyboard-response,152,750432,0.0-15.0-0.6,63174,List2B,white,woman,,,,null,,,,
null,"<img src=""stim_listB/talk2.gif""</stim_listB>",,html-keyboard-response,153,752447,0.0-15.0-1.6,63174,List2B,white,woman,,,,null,,,,
null,are talking to each other,,html-keyboard-response,154,754450,0.0-15.0-2.6,63174,List2B,white,woman,,,,null,,,,
8859,,,survey-text,155,763312,0.0-15.0-3.6,63174,List2B,white,woman,,,,,"{""Q0"":""dave and ruth are talking to each other""}","<img src=""stim_listB/talk2.gif""</stim_listB>",are talking to each other,
null,"<div style=""font-size:60px;"">+</div>",,html-keyboard-response,156,763834,0.0-15.0-0.7,63174,List2B,white,woman,,,,null,,,,
null,"<img src=""stim_listB/kiss1.gif""</stim_listB>",,html-keyboard-response,157,765841,0.0-15.0-1.7,63174,List2B,white,woman,,,,null,,,,
null,is kissing,,html-keyboard-response,158,767864,0.0-15.0-2.7,63174,List2B,white,woman,,,,null,,,,
9717,,,survey-text,159,777585,0.0-15.0-3.7,63174,List2B,white,woman,,,,,"{""Q0"":""luke is kissing ruth""}","<img src=""stim_listB/kiss1.gif""</stim_listB>",is kissing,
null,"<div style=""font-size:60px;"">+</div>",,html-keyboard-response,160,778088,0.0-15.0-0.8,63174,List2B,white,woman,,,,null,,,,
null,"<img src=""stim_listB/fight8.gif""</stim_listB>",,html-keyboard-response,161,780104,0.0-15.0-1.8,63174,List2B,white,woman,,,,null,,,,
null,are fighting each other,,html-keyboard-response,162,782117,0.0-15.0-2.8,63174,List2B,white,woman,,,,null,,,,
14383,,,survey-text,163,796503,0.0-15.0-3.8,63174,List2B,white,woman,,,,,"{""Q0"":""ruth and beth are fighting each other""}","<img src=""stim_listB/fight8.gif""</stim_listB>",are fighting each other,
null,"<div style=""font-size:60px;"">+</div>",,html-keyboard-response,164,797019,0.0-15.0-0.9,63174,List2B,white,woman,,,,null,,,,
null,"<img src=""stim_listB/hug7.gif""</stim_listB>",,html-keyboard-response,165,799046,0.0-15.0-1.9,63174,List2B,white,woman,,,,null,,,,
null,is hugging,,html-keyboard-response,166,801051,0.0-15.0-2.9,63174,List2B,white,woman,,,,null,,,,
7961,,,survey-text,167,809015,0.0-15.0-3.9,63174,List2B,white,woman,,,,,"{""Q0"":""ruth is hugging beth""}","<img src=""stim_listB/hug7.gif""</stim_listB>",is hugging,
null,"<div style=""font-size:60px;"">+</div>",,html-keyboard-response,168,809541,0.0-15.0-0.10,63174,List2B,white,woman,,,,null,,,,
null,"<img src=""stim_listB/dance6.gif""</stim_listB>",,html-keyboard-response,169,811554,0.0-15.0-1.10,63174,List2B,white,woman,,,,null,,,,
null,are dancing with each other,,html-keyboard-response,170,813552,0.0-15.0-2.10,63174,List2B,white,woman,,,,null,,,,
8541,,,survey-text,171,822095,0.0-15.0-3.10,63174,List2B,white,woman,,,,,"{""Q0"":""dave and fred are dancing with each other""}","<img src=""stim_listB/dance6.gif""</stim_listB>",are dancing with each other,
null,"<div style=""font-size:60px;"">+</div>",,html-keyboard-response,172,822614,0.0-15.0-0.11,63174,List2B,white,woman,,,,null,,,,
null,"<img src=""stim_listB/argue3.gif""</stim_listB>",,html-keyboard-response,173,824630,0.0-15.0-1.11,63174,List2B,white,woman,,,,null,,,,
null,is arguing with,,html-keyboard-response,174,826623,0.0-15.0-2.11,63174,List2B,white,woman,,,,null,,,,
9373,,,survey-text,175,836000,0.0-15.0-3.11,63174,List2B,white,woman,,,,,"{""Q0"":""mike is arguing with beth""}","<img src=""stim_listB/argue3.gif""</stim_listB>",is arguing with,
null,"<div style=""font-size:60px;"">+</div>",,html-keyboard-response,176,836527,0.0-15.0-0.12,63174,List2B,white,woman,,,,null,,,,
null,"<img src=""stim_listB/hug8.gif""</stim_listB>",,html-keyboard-response,177,838562,0.0-15.0-1.12,63174,List2B,white,woman,,,,null,,,,
null,are hugging each other,,html-keyboard-response,178,840573,0.0-15.0-2.12,63174,List2B,white,woman,,,,null,,,,
9607,,,survey-text,179,850183,0.0-15.0-3.12,63174,List2B,white,woman,,,,,"{""Q0"":""kate and jane are hugging each other""}","<img src=""stim_listB/hug8.gif""</stim_listB>",are hugging each other,
null,"<div style=""font-size:60px;"">+</div>",,html-keyboard-response,180,850699,0.0-15.0-0.13,63174,List2B,white,woman,,,,null,,,,
null,"<img src=""stim_listB/argue6.gif""</stim_listB>",,html-keyboard-response,181,852727,0.0-15.0-1.13,63174,List2B,white,woman,,,,null,,,,
null,are arguing with each other,,html-keyboard-response,182,854731,0.0-15.0-2.13,63174,List2B,white,woman,,,,null,,,,
13850,,,survey-text,183,868583,0.0-15.0-3.13,63174,List2B,white,woman,,,,,"{""Q0"":""mike and luke are arguing with each other""}","<img src=""stim_listB/argue6.gif""</stim_listB>",are arguing with each other,
null,"<div style=""font-size:60px;"">+</div>",,html-keyboard-response,184,869099,0.0-15.0-0.14,63174,List2B,white,woman,,,,null,,,,
null,"<img src=""stim_listB/talk4.gif""</stim_listB>",,html-keyboard-response,185,871118,0.0-15.0-1.14,63174,List2B,white,woman,,,,null,,,,
null,are talking to each other,,html-keyboard-response,186,873131,0.0-15.0-2.14,63174,List2B,white,woman,,,,null,,,,
9386,,,survey-text,187,882520,0.0-15.0-3.14,63174,List2B,white,woman,,,,,"{""Q0"":""mike and beth are talking to each other""}","<img src=""stim_listB/talk4.gif""</stim_listB>",are talking to each other,
null,"<div style=""font-size:60px;"">+</div>",,html-keyboard-response,188,883034,0.0-15.0-0.15,63174,List2B,white,woman,,,,null,,,,
null,"<img src=""stim_listB/marry3.gif""</stim_listB>",,html-keyboard-response,189,885056,0.0-15.0-1.15,63174,List2B,white,woman,,,,null,,,,
null,is marrying,,html-keyboard-response,190,887064,0.0-15.0-2.15,63174,List2B,white,woman,,,,null,,,,
5636,,,survey-text,191,892704,0.0-15.0-3.15,63174,List2B,white,woman,,,,,"{""Q0"":""mike is marrying beth""}","<img src=""stim_listB/marry3.gif""</stim_listB>",is marrying,
null,"<div style=""font-size:60px;"">+</div>",,html-keyboard-response,192,893207,0.0-15.0-0.16,63174,List2B,white,woman,,,,null,,,,
null,"<img src=""stim_listB/argue2.gif""</stim_listB>",,html-keyboard-response,193,895235,0.0-15.0-1.16,63174,List2B,white,woman,,,,null,,,,
null,are arguing with each other,,html-keyboard-response,194,897239,0.0-15.0-2.16,63174,List2B,white,woman,,,,null,,,,
13629,,,survey-text,195,910871,0.0-15.0-3.16,63174,List2B,white,woman,,,,,"{""Q0"":""luke and jane are arguing with each other""}","<img src=""stim_listB/argue2.gif""</stim_listB>",are arguing with each other,
null,"<div style=""font-size:60px;"">+</div>",,html-keyboard-response,196,911394,0.0-15.0-0.17,63174,List2B,white,woman,,,,null,,,,
null,"<img src=""stim_listB/kiss6.gif""</stim_listB>",,html-keyboard-response,197,913422,0.0-15.0-1.17,63174,List2B,white,woman,,,,null,,,,
null,are kissing each other,,html-keyboard-response,198,915415,0.0-15.0-2.17,63174,List2B,white,woman,,,,null,,,,
8822,,,survey-text,199,924240,0.0-15.0-3.17,63174,List2B,white,woman,,,,,"{""Q0"":""dave and mike are kissing each other""}","<img src=""stim_listB/kiss6.gif""</stim_listB>",are kissing each other,
null,"<div style=""font-size:60px;"">+</div>",,html-keyboard-response,200,924767,0.0-15.0-0.18,63174,List2B,white,woman,,,,null,,,,
null,"<img src=""stim_listB/talk6.gif""</stim_listB>",,html-keyboard-response,201,926791,0.0-15.0-1.18,63174,List2B,white,woman,,,,null,,,,
null,are talking to each other,,html-keyboard-response,202,928781,0.0-15.0-2.18,63174,List2B,white,woman,,,,null,,,,
8423,,,survey-text,203,937211,0.0-15.0-3.18,63174,List2B,white,woman,,,,,"{""Q0"":""fred and mike are talking to each other""}","<img src=""stim_listB/talk6.gif""</stim_listB>",are talking to each other,
null,"<div style=""font-size:60px;"">+</div>",,html-keyboard-response,204,937712,0.0-15.0-0.19,63174,List2B,white,woman,,,,null,,,,
null,"<img src=""stim_listB/touch5.gif""</stim_listB>",,html-keyboard-response,205,939729,0.0-15.0-1.19,63174,List2B,white,woman,,,,null,,,,
null,is touching,,html-keyboard-response,206,941723,0.0-15.0-2.19,63174,List2B,white,woman,,,,null,,,,
5928,,,survey-text,207,947654,0.0-15.0-3.19,63174,List2B,white,woman,,,,,"{""Q0"":""dave is touching mike""}","<img src=""stim_listB/touch5.gif""</stim_listB>",is touching,
7681,"<img src='img/portrait_matrix_list2.JPG' style='width:900px;height:500px;''></img><p>If you have memorised all the portraits and names and are ready to start, press Continue.</p><p><strong>Please note: Your memory of these faces will be tested 4 times during this experiment.</strong></p>",0,html-button-response,208,955338,0.0-16.0-0.0,63174,List2B,white,woman,,,,,,,,
2617,"<img src=""portrait/WM1.jpg""style=""width:400px;height:400px;""></img>",6,html-button-response,209,958982,0.0-16.0-1.0,63174,List2B,white,woman,,TRUE,6,,,,,
null,CORRECT,,html-keyboard-response,210,960526,0.0-16.0-2.0-0.0,63174,List2B,white,woman,,,,null,,,,
1275,"<img src=""portrait/WW2.jpg""style=""width:400px;height:400px;""></img>",3,html-button-response,211,961808,0.0-16.0-4.0,63174,List2B,white,woman,,TRUE,3,,,,,
null,CORRECT,,html-keyboard-response,212,963364,0.0-16.0-5.0-0.0,63174,List2B,white,woman,,,,null,,,,
2308,"<img src=""portrait/BW2.jpg""style=""width:400px;height:400px;""></img>",2,html-button-response,213,965678,0.0-16.0-7.0,63174,List2B,white,woman,,TRUE,2,,,,,
null,CORRECT,,html-keyboard-response,214,967217,0.0-16.0-8.0-0.0,63174,List2B,white,woman,,,,null,,,,
2356,"<img src=""portrait/WW1.jpg""style=""width:400px;height:400px;""></img>",1,html-button-response,215,969577,0.0-16.0-10.0,63174,List2B,white,woman,,TRUE,1,,,,,
null,CORRECT,,html-keyboard-response,216,971124,0.0-16.0-11.0-0.0,63174,List2B,white,woman,,,,null,,,,
1764,"<img src=""portrait/BM2.jpg""style=""width:400px;height:400px;""></img>",5,html-button-response,217,972895,0.0-16.0-13.0,63174,List2B,white,woman,,TRUE,5,,,,,
null,CORRECT,,html-keyboard-response,218,974417,0.0-16.0-14.0-0.0,63174,List2B,white,woman,,,,null,,,,
3433,"<img src=""portrait/BW1.jpg""style=""width:400px;height:400px;""></img>",0,html-button-response,219,977863,0.0-16.0-16.0,63174,List2B,white,woman,,TRUE,0,,,,,
null,CORRECT,,html-keyboard-response,220,979406,0.0-16.0-17.0-0.0,63174,List2B,white,woman,,,,null,,,,
1960,"<img src=""portrait/WM2.jpg""style=""width:400px;height:400px;""></img>",7,html-button-response,221,981374,0.0-16.0-19.0,63174,List2B,white,woman,,TRUE,7,,,,,
null,CORRECT,,html-keyboard-response,222,982903,0.0-16.0-20.0-0.0,63174,List2B,white,woman,,,,null,,,,
3007,"<img src=""portrait/BM1.jpg""style=""width:400px;height:400px;""></img>",4,html-button-response,223,985918,0.0-16.0-22.0,63174,List2B,white,woman,,TRUE,4,,,,,
null,CORRECT,,html-keyboard-response,224,987449,0.0-16.0-23.0-0.0,63174,List2B,white,woman,,,,null,,,,
1232,<p>You got 8 out of 8 right first time. Press Continue.</p>,0,html-button-response,225,988685,0.0-16.0-25.0,63174,List2B,white,woman,,,,,,,,
null,"<div style=""font-size:60px;"">+</div>",,html-keyboard-response,226,990199,0.0-17.0-0.0,63174,List2B,white,woman,,,,null,,,,
null,"<img src=""stim_listB/hug1.gif""</stim_listB>",,html-keyboard-response,227,992227,0.0-17.0-1.0,63174,List2B,white,woman,,,,null,,,,
null,is hugging,,html-keyboard-response,228,994205,0.0-17.0-2.0,63174,List2B,white,woman,,,,null,,,,
6573,,,survey-text,229,1000786,0.0-17.0-3.0,63174,List2B,white,woman,,,,,"{""Q0"":""luke is hugging ruth""}","<img src=""stim_listB/hug1.gif""</stim_listB>",is hugging,
null,"<div style=""font-size:60px;"">+</div>",,html-keyboard-response,230,1001297,0.0-17.0-0.1,63174,List2B,white,woman,,,,null,,,,
null,"<img src=""stim_listB/kiss4.gif""</stim_listB>",,html-keyboard-response,231,1003318,0.0-17.0-1.1,63174,List2B,white,woman,,,,null,,,,
null,are kissing each other,,html-keyboard-response,232,1005330,0.0-17.0-2.1,63174,List2B,white,woman,,,,null,,,,
9961,,,survey-text,233,1015295,0.0-17.0-3.1,63174,List2B,white,woman,,,,,"{""Q0"":""mike and kate are kissing each other""}","<img src=""stim_listB/kiss4.gif""</stim_listB>",are kissing each other,
null,"<div style=""font-size:60px;"">+</div>",,html-keyboard-response,234,1015803,0.0-17.0-0.2,63174,List2B,white,woman,,,,null,,,,
null,"<img src=""stim_listB/hug5.gif""</stim_listB>",,html-keyboard-response,235,1017818,0.0-17.0-1.2,63174,List2B,white,woman,,,,null,,,,
null,is hugging,,html-keyboard-response,236,1019822,0.0-17.0-2.2,63174,List2B,white,woman,,,,null,,,,
6830,,,survey-text,237,1026655,0.0-17.0-3.2,63174,List2B,white,woman,,,,,"{""Q0"":""luke is hugging fred""}","<img src=""stim_listB/hug5.gif""</stim_listB>",is hugging,
null,"<div style=""font-size:60px;"">+</div>",,html-keyboard-response,238,1027163,0.0-17.0-0.3,63174,List2B,white,woman,,,,null,,,,
null,"<img src=""stim_listB/fight6.gif""</stim_listB>",,html-keyboard-response,239,1029186,0.0-17.0-1.3,63174,List2B,white,woman,,,,null,,,,
null,are fighting each other,,html-keyboard-response,240,1031171,0.0-17.0-2.3,63174,List2B,white,woman,,,,null,,,,
9054,,,survey-text,241,1040231,0.0-17.0-3.3,63174,List2B,white,woman,,,,,"{""Q0"":""luke and fred are fighting each other""}","<img src=""stim_listB/fight6.gif""</stim_listB>",are fighting each other,
null,"<div style=""font-size:60px;"">+</div>",,html-keyboard-response,242,1040734,0.0-17.0-0.4,63174,List2B,white,woman,,,,null,,,,
null,"<img src=""stim_listB/hug3.gif""</stim_listB>",,html-keyboard-response,243,1042743,0.0-17.0-1.4,63174,List2B,white,woman,,,,null,,,,
null,is hugging,,html-keyboard-response,244,1044758,0.0-17.0-2.4,63174,List2B,white,woman,,,,null,,,,
7326,,,survey-text,245,1052088,0.0-17.0-3.4,63174,List2B,white,woman,,,,,"{""Q0"":""fred is hugging beth""}","<img src=""stim_listB/hug3.gif""</stim_listB>",is hugging,
null,"<div style=""font-size:60px;"">+</div>",,html-keyboard-response,246,1052619,0.0-17.0-0.5,63174,List2B,white,woman,,,,null,,,,
null,"<img src=""stim_listB/shout5.gif""</stim_listB>",,html-keyboard-response,247,1054647,0.0-17.0-1.5,63174,List2B,white,woman,,,,null,,,,
null,is shouting at,,html-keyboard-response,248,1056647,0.0-17.0-2.5,63174,List2B,white,woman,,,,null,,,,
8828,,,survey-text,249,1065480,0.0-17.0-3.5,63174,List2B,white,woman,,,,,"{""Q0"":""fred is shouting at luke""}","<img src=""stim_listB/shout5.gif""</stim_listB>",is shouting at,
null,"<div style=""font-size:60px;"">+</div>",,html-keyboard-response,250,1065990,0.0-17.0-0.6,63174,List2B,white,woman,,,,null,,,,
null,"<img src=""stim_listB/talk8.gif""</stim_listB>",,html-keyboard-response,251,1068009,0.0-17.0-1.6,63174,List2B,white,woman,,,,null,,,,
null,are talking to each other,,html-keyboard-response,252,1070009,0.0-17.0-2.6,63174,List2B,white,woman,,,,null,,,,
8618,,,survey-text,253,1078630,0.0-17.0-3.6,63174,List2B,white,woman,,,,,"{""Q0"":""jane and beth are talking to each other""}","<img src=""stim_listB/talk8.gif""</stim_listB>",are talking to each other,
null,"<div style=""font-size:60px;"">+</div>",,html-keyboard-response,254,1079153,0.0-17.0-0.7,63174,List2B,white,woman,,,,null,,,,
null,"<img src=""stim_listB/kiss3.gif""</stim_listB>",,html-keyboard-response,255,1081204,0.0-17.0-1.7,63174,List2B,white,woman,,,,null,,,,
null,is kissing,,html-keyboard-response,256,1083188,0.0-17.0-2.7,63174,List2B,white,woman,,,,null,,,,
6424,,,survey-text,257,1089615,0.0-17.0-3.7,63174,List2B,white,woman,,,,,"{""Q0"":""beth is kissing fred""}","<img src=""stim_listB/kiss3.gif""</stim_listB>",is kissing,
null,"<div style=""font-size:60px;"">+</div>",,html-keyboard-response,258,1090126,0.0-17.0-0.8,63174,List2B,white,woman,,,,null,,,,
null,"<img src=""stim_listB/argue7.gif""</stim_listB>",,html-keyboard-response,259,1092146,0.0-17.0-1.8,63174,List2B,white,woman,,,,null,,,,
null,is arguing with,,html-keyboard-response,260,1094156,0.0-17.0-2.8,63174,List2B,white,woman,,,,null,,,,
6926,,,survey-text,261,1101086,0.0-17.0-3.8,63174,List2B,white,woman,,,,,"{""Q0"":""beth is arguing with jane""}","<img src=""stim_listB/argue7.gif""</stim_listB>",is arguing with,
null,"<div style=""font-size:60px;"">+</div>",,html-keyboard-response,262,1101590,0.0-17.0-0.9,63174,List2B,white,woman,,,,null,,,,
null,"<img src=""stim_listB/touch6.gif""</stim_listB>",,html-keyboard-response,263,1103597,0.0-17.0-1.9,63174,List2B,white,woman,,,,null,,,,
null,are touching each other,,html-keyboard-response,264,1105611,0.0-17.0-2.9,63174,List2B,white,woman,,,,null,,,,
11063,,,survey-text,265,1116679,0.0-17.0-3.9,63174,List2B,white,woman,,,,,"{""Q0"":""luke and fred are touching each other""}","<img src=""stim_listB/touch6.gif""</stim_listB>",are touching each other,
null,"<div style=""font-size:60px;"">+</div>",,html-keyboard-response,266,1117189,0.0-17.0-0.10,63174,List2B,white,woman,,,,null,,,,
null,"<img src=""stim_listB/talk3.gif""</stim_listB>",,html-keyboard-response,267,1119211,0.0-17.0-1.10,63174,List2B,white,woman,,,,null,,,,
null,is talking to,,html-keyboard-response,268,1121202,0.0-17.0-2.10,63174,List2B,white,woman,,,,null,,,,
8015,,,survey-text,269,1129221,0.0-17.0-3.10,63174,List2B,white,woman,,,,,"{""Q0"":""fred is talking to kate""}","<img src=""stim_listB/talk3.gif""</stim_listB>",is talking to,
null,"<div style=""font-size:60px;"">+</div>",,html-keyboard-response,270,1129754,0.0-17.0-0.11,63174,List2B,white,woman,,,,null,,,,
null,"<img src=""stim_listB/shout8.gif""</stim_listB>",,html-keyboard-response,271,1131782,0.0-17.0-1.11,63174,List2B,white,woman,,,,null,,,,
null,are shouting at each other,,html-keyboard-response,272,1133803,0.0-17.0-2.11,63174,List2B,white,woman,,,,null,,,,
11575,,,survey-text,273,1145381,0.0-17.0-3.11,63174,List2B,white,woman,,,,,"{""Q0"":""kate and jane are shouting at each other""}","<img src=""stim_listB/shout8.gif""</stim_listB>",are shouting at each other,
null,"<div style=""font-size:60px;"">+</div>",,html-keyboard-response,274,1145892,0.0-17.0-0.12,63174,List2B,white,woman,,,,null,,,,
null,"<img src=""stim_listB/argue8.gif""</stim_listB>",,html-keyboard-response,275,1147920,0.0-17.0-1.12,63174,List2B,white,woman,,,,null,,,,
null,are arguing with each other,,html-keyboard-response,276,1149916,0.0-17.0-2.12,63174,List2B,white,woman,,,,null,,,,
16143,,,survey-text,277,1166063,0.0-17.0-3.12,63174,List2B,white,woman,,,,,"{""Q0"":""ruth and kate are arguing together""}","<img src=""stim_listB/argue8.gif""</stim_listB>",are arguing with each other,
null,"<div style=""font-size:60px;"">+</div>",,html-keyboard-response,278,1166591,0.0-17.0-0.13,63174,List2B,white,woman,,,,null,,,,
null,"<img src=""stim_listB/argue4.gif""</stim_listB>",,html-keyboard-response,279,1168605,0.0-17.0-1.13,63174,List2B,white,woman,,,,null,,,,
null,are arguing with each other,,html-keyboard-response,280,1170608,0.0-17.0-2.13,63174,List2B,white,woman,,,,null,,,,
10516,,,survey-text,281,1181126,0.0-17.0-3.13,63174,List2B,white,woman,,,,,"{""Q0"":""kate and fred are arguing with each other""}","<img src=""stim_listB/argue4.gif""</stim_listB>",are arguing with each other,
null,"<div style=""font-size:60px;"">+</div>",,html-keyboard-response,282,1181641,0.0-17.0-0.14,63174,List2B,white,woman,,,,null,,,,
null,"<img src=""stim_listB/argue1.gif""</stim_listB>",,html-keyboard-response,283,1183657,0.0-17.0-1.14,63174,List2B,white,woman,,,,null,,,,
null,is arguing with,,html-keyboard-response,284,1185649,0.0-17.0-2.14,63174,List2B,white,woman,,,,null,,,,
12113,,,survey-text,285,1197767,0.0-17.0-3.14,63174,List2B,white,woman,,,,,"{""Q0"":""ruth is arguing with dave""}","<img src=""stim_listB/argue1.gif""</stim_listB>",is arguing with,
null,"<div style=""font-size:60px;"">+</div>",,html-keyboard-response,286,1198274,0.0-17.0-0.15,63174,List2B,white,woman,,,,null,,,,
null,"<img src=""stim_listB/dance4.gif""</stim_listB>",,html-keyboard-response,287,1200304,0.0-17.0-1.15,63174,List2B,white,woman,,,,null,,,,
null,are dancing with each other,,html-keyboard-response,288,1202288,0.0-17.0-2.15,63174,List2B,white,woman,,,,null,,,,
9690,,,survey-text,289,1211981,0.0-17.0-3.15,63174,List2B,white,woman,,,,,"{""Q0"":""mike and beth are dancing together""}","<img src=""stim_listB/dance4.gif""</stim_listB>",are dancing with each other,
null,"<div style=""font-size:60px;"">+</div>",,html-keyboard-response,290,1212511,0.0-17.0-0.16,63174,List2B,white,woman,,,,null,,,,
null,"<img src=""stim_listB/touch4.gif""</stim_listB>",,html-keyboard-response,291,1214543,0.0-17.0-1.16,63174,List2B,white,woman,,,,null,,,,
null,are touching each other,,html-keyboard-response,292,1216523,0.0-17.0-2.16,63174,List2B,white,woman,,,,null,,,,
9386,,,survey-text,293,1225911,0.0-17.0-3.16,63174,List2B,white,woman,,,,,"{""Q0"":""fred and beth are touching each other""}","<img src=""stim_listB/touch4.gif""</stim_listB>",are touching each other,
null,"<div style=""font-size:60px;"">+</div>",,html-keyboard-response,294,1226430,0.0-17.0-0.17,63174,List2B,white,woman,,,,null,,,,
null,"<img src=""stim_listB/fight4.gif""</stim_listB>",,html-keyboard-response,295,1228450,0.0-17.0-1.17,63174,List2B,white,woman,,,,null,,,,
null,are fighting each other,,html-keyboard-response,296,1230462,0.0-17.0-2.17,63174,List2B,white,woman,,,,null,,,,
9067,,,survey-text,297,1239533,0.0-17.0-3.17,63174,List2B,white,woman,,,,,"{""Q0"":""fred and beth are fighting each other""}","<img src=""stim_listB/fight4.gif""</stim_listB>",are fighting each other,
null,"<div style=""font-size:60px;"">+</div>",,html-keyboard-response,298,1240060,0.0-17.0-0.18,63174,List2B,white,woman,,,,null,,,,
null,"<img src=""stim_listB/dance3.gif""</stim_listB>",,html-keyboard-response,299,1242083,0.0-17.0-1.18,63174,List2B,white,woman,,,,null,,,,
null,is dancing with,,html-keyboard-response,300,1244074,0.0-17.0-2.18,63174,List2B,white,woman,,,,null,,,,
6471,,,survey-text,301,1250548,0.0-17.0-3.18,63174,List2B,white,woman,,,,,"{""Q0"":""kate is dancing with fred""}","<img src=""stim_listB/dance3.gif""</stim_listB>",is dancing with,
null,"<div style=""font-size:60px;"">+</div>",,html-keyboard-response,302,1251071,0.0-17.0-0.19,63174,List2B,white,woman,,,,null,,,,
null,"<img src=""stim_listB/touch1.gif""</stim_listB>",,html-keyboard-response,303,1253087,0.0-17.0-1.19,63174,List2B,white,woman,,,,null,,,,
null,is touching,,html-keyboard-response,304,1255086,0.0-17.0-2.19,63174,List2B,white,woman,,,,null,,,,
6413,,,survey-text,305,1261501,0.0-17.0-3.19,63174,List2B,white,woman,,,,,"{""Q0"":""jane is touching dave""}","<img src=""stim_listB/touch1.gif""</stim_listB>",is touching,
3635,"<img src='img/portrait_matrix_list2.JPG' style='width:900px;height:500px;''></img><p>If you have memorised all the portraits and names and are ready to start, press Continue.</p><p><strong>Please note: Your memory of these faces will be tested 4 times during this experiment.</strong></p>",0,html-button-response,306,1265140,0.0-18.0-0.0,63174,List2B,white,woman,,,,,,,,
2173,"<img src=""portrait/BW1.jpg""style=""width:400px;height:400px;""></img>",0,html-button-response,307,1268336,0.0-18.0-1.0,63174,List2B,white,woman,,TRUE,0,,,,,
null,CORRECT,,html-keyboard-response,308,1269870,0.0-18.0-2.0-0.0,63174,List2B,white,woman,,,,null,,,,
2320,"<img src=""portrait/BM2.jpg""style=""width:400px;height:400px;""></img>",5,html-button-response,309,1272197,0.0-18.0-4.0,63174,List2B,white,woman,,TRUE,5,,,,,
null,CORRECT,,html-keyboard-response,310,1273733,0.0-18.0-5.0-0.0,63174,List2B,white,woman,,,,null,,,,
1742,"<img src=""portrait/WM2.jpg""style=""width:400px;height:400px;""></img>",7,html-button-response,311,1275484,0.0-18.0-7.0,63174,List2B,white,woman,,TRUE,7,,,,,
null,CORRECT,,html-keyboard-response,312,1277031,0.0-18.0-8.0-0.0,63174,List2B,white,woman,,,,null,,,,
1174,"<img src=""portrait/WM1.jpg""style=""width:400px;height:400px;""></img>",6,html-button-response,313,1278213,0.0-18.0-10.0,63174,List2B,white,woman,,TRUE,6,,,,,
null,CORRECT,,html-keyboard-response,314,1279751,0.0-18.0-11.0-0.0,63174,List2B,white,woman,,,,null,,,,
1902,"<img src=""portrait/BM1.jpg""style=""width:400px;height:400px;""></img>",4,html-button-response,315,1281660,0.0-18.0-13.0,63174,List2B,white,woman,,TRUE,4,,,,,
null,CORRECT,,html-keyboard-response,316,1283206,0.0-18.0-14.0-0.0,63174,List2B,white,woman,,,,null,,,,
2551,"<img src=""portrait/WW1.jpg""style=""width:400px;height:400px;""></img>",1,html-button-response,317,1285765,0.0-18.0-16.0,63174,List2B,white,woman,,TRUE,1,,,,,
null,CORRECT,,html-keyboard-response,318,1287310,0.0-18.0-17.0-0.0,63174,List2B,white,woman,,,,null,,,,
1822,"<img src=""portrait/WW2.jpg""style=""width:400px;height:400px;""></img>",3,html-button-response,319,1289141,0.0-18.0-19.0,63174,List2B,white,woman,,TRUE,3,,,,,
null,CORRECT,,html-keyboard-response,320,1290649,0.0-18.0-20.0-0.0,63174,List2B,white,woman,,,,null,,,,
1628,"<img src=""portrait/BW2.jpg""style=""width:400px;height:400px;""></img>",2,html-button-response,321,1292285,0.0-18.0-22.0,63174,List2B,white,woman,,TRUE,2,,,,,
null,CORRECT,,html-keyboard-response,322,1293830,0.0-18.0-23.0-0.0,63174,List2B,white,woman,,,,null,,,,
1176,<p>You got 8 out of 8 right first time. Press Continue.</p>,0,html-button-response,323,1295013,0.0-18.0-25.0,63174,List2B,white,woman,,,,,,,,
null,"<div style=""font-size:60px;"">+</div>",,html-keyboard-response,324,1296549,0.0-19.0-0.0,63174,List2B,white,woman,,,,null,,,,
null,"<img src=""stim_listB/kiss5.gif""</stim_listB>",,html-keyboard-response,325,1298568,0.0-19.0-1.0,63174,List2B,white,woman,,,,null,,,,
null,is kissing,,html-keyboard-response,326,1300584,0.0-19.0-2.0,63174,List2B,white,woman,,,,null,,,,
8650,,,survey-text,327,1309238,0.0-19.0-3.0,63174,List2B,white,woman,,,,,"{""Q0"":""fred is kissing luke""}","<img src=""stim_listB/kiss5.gif""</stim_listB>",is kissing,
null,"<div style=""font-size:60px;"">+</div>",,html-keyboard-response,328,1309764,0.0-19.0-0.1,63174,List2B,white,woman,,,,null,,,,
null,"<img src=""stim_listB/touch3.gif""</stim_listB>",,html-keyboard-response,329,1311791,0.0-19.0-1.1,63174,List2B,white,woman,,,,null,,,,
null,is touching,,html-keyboard-response,330,1313795,0.0-19.0-2.1,63174,List2B,white,woman,,,,null,,,,
6440,,,survey-text,331,1320237,0.0-19.0-3.1,63174,List2B,white,woman,,,,,"{""Q0"":""kate is touching mike""}","<img src=""stim_listB/touch3.gif""</stim_listB>",is touching,
null,"<div style=""font-size:60px;"">+</div>",,html-keyboard-response,332,1320751,0.0-19.0-0.2,63174,List2B,white,woman,,,,null,,,,
null,"<img src=""stim_listB/touch2.gif""</stim_listB>",,html-keyboard-response,333,1322766,0.0-19.0-1.2,63174,List2B,white,woman,,,,null,,,,
null,are touching each other,,html-keyboard-response,334,1324783,0.0-19.0-2.2,63174,List2B,white,woman,,,,null,,,,
9986,,,survey-text,335,1334773,0.0-19.0-3.2,63174,List2B,white,woman,,,,,"{""Q0"":""luke and ruth are touching each other""}","<img src=""stim_listB/touch2.gif""</stim_listB>",are touching each other,
null,"<div style=""font-size:60px;"">+</div>",,html-keyboard-response,336,1335289,0.0-19.0-0.3,63174,List2B,white,woman,,,,null,,,,
null,"<img src=""stim_listB/shout2.gif""</stim_listB>",,html-keyboard-response,337,1337325,0.0-19.0-1.3,63174,List2B,white,woman,,,,null,,,,
null,are shouting at each other,,html-keyboard-response,338,1339302,0.0-19.0-2.3,63174,List2B,white,woman,,,,null,,,,
10364,,,survey-text,339,1349670,0.0-19.0-3.3,63174,List2B,white,woman,,,,,"{""Q0"":""dave and jane are shouting at each other""}","<img src=""stim_listB/shout2.gif""</stim_listB>",are shouting at each other,
null,"<div style=""font-size:60px;"">+</div>",,html-keyboard-response,340,1350176,0.0-19.0-0.4,63174,List2B,white,woman,,,,null,,,,
null,"<img src=""stim_listB/fight5.gif""</stim_listB>",,html-keyboard-response,341,1352207,0.0-19.0-1.4,63174,List2B,white,woman,,,,null,,,,
null,is fighting,,html-keyboard-response,342,1354205,0.0-19.0-2.4,63174,List2B,white,woman,,,,null,,,,
7901,,,survey-text,343,1362110,0.0-19.0-3.4,63174,List2B,white,woman,,,,,"{""Q0"":""dave is fighting mike""}","<img src=""stim_listB/fight5.gif""</stim_listB>",is fighting,
null,"<div style=""font-size:60px;"">+</div>",,html-keyboard-response,344,1362630,0.0-19.0-0.5,63174,List2B,white,woman,,,,null,,,,
null,"<img src=""stim_listB/fight7.gif""</stim_listB>",,html-keyboard-response,345,1364659,0.0-19.0-1.5,63174,List2B,white,woman,,,,null,,,,
null,is fighting,,html-keyboard-response,346,1366646,0.0-19.0-2.5,63174,List2B,white,woman,,,,null,,,,
6195,,,survey-text,347,1372845,0.0-19.0-3.5,63174,List2B,white,woman,,,,,"{""Q0"":""kate is fighting jane""}","<img src=""stim_listB/fight7.gif""</stim_listB>",is fighting,
null,"<div style=""font-size:60px;"">+</div>",,html-keyboard-response,348,1373377,0.0-19.0-0.6,63174,List2B,white,woman,,,,null,,,,
null,"<img src=""stim_listB/touch7.gif""</stim_listB>",,html-keyboard-response,349,1375409,0.0-19.0-1.6,63174,List2B,white,woman,,,,null,,,,
null,is touching,,html-keyboard-response,350,1377398,0.0-19.0-2.6,63174,List2B,white,woman,,,,null,,,,
8347,,,survey-text,351,1385749,0.0-19.0-3.6,63174,List2B,white,woman,,,,,"{""Q0"":""kate is touching jane""}","<img src=""stim_listB/touch7.gif""</stim_listB>",is touching,
null,"<div style=""font-size:60px;"">+</div>",,html-keyboard-response,352,1386256,0.0-19.0-0.7,63174,List2B,white,woman,,,,null,,,,
null,"<img src=""stim_listB/dance7.gif""</stim_listB>",,html-keyboard-response,353,1388283,0.0-19.0-1.7,63174,List2B,white,woman,,,,null,,,,
null,is dancing with,,html-keyboard-response,354,1390289,0.0-19.0-2.7,63174,List2B,white,woman,,,,null,,,,
6729,,,survey-text,355,1397021,0.0-19.0-3.7,63174,List2B,white,woman,,,,,"{""Q0"":""kate is dancing with ruth""}","<img src=""stim_listB/dance7.gif""</stim_listB>",is dancing with,
null,"<div style=""font-size:60px;"">+</div>",,html-keyboard-response,356,1397528,0.0-19.0-0.8,63174,List2B,white,woman,,,,null,,,,
null,"<img src=""stim_listB/shout6.gif""</stim_listB>",,html-keyboard-response,357,1399555,0.0-19.0-1.8,63174,List2B,white,woman,,,,null,,,,
null,are shouting at each other,,html-keyboard-response,358,1401555,0.0-19.0-2.8,63174,List2B,white,woman,,,,null,,,,
9621,,,survey-text,359,1411180,0.0-19.0-3.8,63174,List2B,white,woman,,,,,"{""Q0"":""mike and dave are shouting at each other""}","<img src=""stim_listB/shout6.gif""</stim_listB>",are shouting at each other,
null,"<div style=""font-size:60px;"">+</div>",,html-keyboard-response,360,1411696,0.0-19.0-0.9,63174,List2B,white,woman,,,,null,,,,
null,"<img src=""stim_listB/hug4.gif""</stim_listB>",,html-keyboard-response,361,1413724,0.0-19.0-1.9,63174,List2B,white,woman,,,,null,,,,
null,are hugging each other,,html-keyboard-response,362,1415727,0.0-19.0-2.9,63174,List2B,white,woman,,,,null,,,,
8337,,,survey-text,363,1424068,0.0-19.0-3.9,63174,List2B,white,woman,,,,,"{""Q0"":""mike and kate are hugging each other""}","<img src=""stim_listB/hug4.gif""</stim_listB>",are hugging each other,
null,"<div style=""font-size:60px;"">+</div>",,html-keyboard-response,364,1424584,0.0-19.0-0.10,63174,List2B,white,woman,,,,null,,,,
null,"<img src=""stim_listB/talk7.gif""</stim_listB>",,html-keyboard-response,365,1426601,0.0-19.0-1.10,63174,List2B,white,woman,,,,null,,,,
null,is talking to,,html-keyboard-response,366,1428592,0.0-19.0-2.10,63174,List2B,white,woman,,,,null,,,,
5681,,,survey-text,367,1434276,0.0-19.0-3.10,63174,List2B,white,woman,,,,,"{""Q0"":""kate is talking to ruth""}","<img src=""stim_listB/talk7.gif""</stim_listB>",is talking to,
null,"<div style=""font-size:60px;"">+</div>",,html-keyboard-response,368,1434790,0.0-19.0-0.11,63174,List2B,white,woman,,,,null,,,,
null,"<img src=""stim_listB/marry6.gif""</stim_listB>",,html-keyboard-response,369,1436822,0.0-19.0-1.11,63174,List2B,white,woman,,,,null,,,,
null,are marrying each other,,html-keyboard-response,370,1438803,0.0-19.0-2.11,63174,List2B,white,woman,,,,null,,,,
11172,,,survey-text,371,1449980,0.0-19.0-3.11,63174,List2B,white,woman,,,,,"{""Q0"":""luke and mike are marrying each other""}","<img src=""stim_listB/marry6.gif""</stim_listB>",are marrying each other,
null,"<div style=""font-size:60px;"">+</div>",,html-keyboard-response,372,1450509,0.0-19.0-0.12,63174,List2B,white,woman,,,,null,,,,
null,"<img src=""stim_listB/shout3.gif""</stim_listB>",,html-keyboard-response,373,1452541,0.0-19.0-1.12,63174,List2B,white,woman,,,,null,,,,
null,is shouting at,,html-keyboard-response,374,1454538,0.0-19.0-2.12,63174,List2B,white,woman,,,,null,,,,
8021,,,survey-text,375,1462563,0.0-19.0-3.12,63174,List2B,white,woman,,,,,"{""Q0"":""beth is shouting at fred""}","<img src=""stim_listB/shout3.gif""</stim_listB>",is shouting at,
null,"<div style=""font-size:60px;"">+</div>",,html-keyboard-response,376,1463079,0.0-19.0-0.13,63174,List2B,white,woman,,,,null,,,,
null,"<img src=""stim_listB/marry5.gif""</stim_listB>",,html-keyboard-response,377,1465102,0.0-19.0-1.13,63174,List2B,white,woman,,,,null,,,,
null,is marrying,,html-keyboard-response,378,1467113,0.0-19.0-2.13,63174,List2B,white,woman,,,,null,,,,
6623,,,survey-text,379,1473739,0.0-19.0-3.13,63174,List2B,white,woman,,,,,"{""Q0"":""fred is marrying dave""}","<img src=""stim_listB/marry5.gif""</stim_listB>",is marrying,
null,"<div style=""font-size:60px;"">+</div>",,html-keyboard-response,380,1474254,0.0-19.0-0.14,63174,List2B,white,woman,,,,null,,,,
null,"<img src=""stim_listB/talk5.gif""</stim_listB>",,html-keyboard-response,381,1476267,0.0-19.0-1.14,63174,List2B,white,woman,,,,null,,,,
null,is talking to,,html-keyboard-response,382,1478287,0.0-19.0-2.14,63174,List2B,white,woman,,,,null,,,,
6754,,,survey-text,383,1485045,0.0-19.0-3.14,63174,List2B,white,woman,,,,,"{""Q0"":""mike is talking to luke""}","<img src=""stim_listB/talk5.gif""</stim_listB>",is talking to,
null,"<div style=""font-size:60px;"">+</div>",,html-keyboard-response,384,1485558,0.0-19.0-0.15,63174,List2B,white,woman,,,,null,,,,
null,"<img src=""stim_listB/marry4.gif""</stim_listB>",,html-keyboard-response,385,1487583,0.0-19.0-1.15,63174,List2B,white,woman,,,,null,,,,
null,are marrying each other,,html-keyboard-response,386,1489580,0.0-19.0-2.15,63174,List2B,white,woman,,,,null,,,,
11563,,,survey-text,387,1501148,0.0-19.0-3.15,63174,List2B,white,woman,,,,,"{""Q0"":""fred and kate are marrying each other""}","<img src=""stim_listB/marry4.gif""</stim_listB>",are marrying each other,
null,"<div style=""font-size:60px;"">+</div>",,html-keyboard-response,388,1501652,0.0-19.0-0.16,63174,List2B,white,woman,,,,null,,,,
null,"<img src=""stim_listB/hug2.gif""</stim_listB>",,html-keyboard-response,389,1503669,0.0-19.0-1.16,63174,List2B,white,woman,,,,null,,,,
null,are hugging each other,,html-keyboard-response,390,1505673,0.0-19.0-2.16,63174,List2B,white,woman,,,,null,,,,
8298,,,survey-text,391,1513973,0.0-19.0-3.16,63174,List2B,white,woman,,,,,"{""Q0"":""dave and jane are hugging each other""}","<img src=""stim_listB/hug2.gif""</stim_listB>",are hugging each other,
null,"<div style=""font-size:60px;"">+</div>",,html-keyboard-response,392,1514480,0.0-19.0-0.17,63174,List2B,white,woman,,,,null,,,,
null,"<img src=""stim_listB/marry7.gif""</stim_listB>",,html-keyboard-response,393,1516504,0.0-19.0-1.17,63174,List2B,white,woman,,,,null,,,,
null,is marrying,,html-keyboard-response,394,1518514,0.0-19.0-2.17,63174,List2B,white,woman,,,,null,,,,
5862,,,survey-text,395,1524380,0.0-19.0-3.17,63174,List2B,white,woman,,,,,"{""Q0"":""beth is marrying jane""}","<img src=""stim_listB/marry7.gif""</stim_listB>",is marrying,
null,"<div style=""font-size:60px;"">+</div>",,html-keyboard-response,396,1524912,0.0-19.0-0.18,63174,List2B,white,woman,,,,null,,,,
null,"<img src=""stim_listB/kiss8.gif""</stim_listB>",,html-keyboard-response,397,1526944,0.0-19.0-1.18,63174,List2B,white,woman,,,,null,,,,
null,are kissing each other,,html-keyboard-response,398,1528932,0.0-19.0-2.18,63174,List2B,white,woman,,,,null,,,,
7738,,,survey-text,399,1536675,0.0-19.0-3.18,63174,List2B,white,woman,,,,,"{""Q0"":""jane and kate are kissing each other""}","<img src=""stim_listB/kiss8.gif""</stim_listB>",are kissing each other,
null,"<div style=""font-size:60px;"">+</div>",,html-keyboard-response,400,1537191,0.0-19.0-0.19,63174,List2B,white,woman,,,,null,,,,
null,"<img src=""stim_listB/shout1.gif""</stim_listB>",,html-keyboard-response,401,1539207,0.0-19.0-1.19,63174,List2B,white,woman,,,,null,,,,
null,is shouting at,,html-keyboard-response,402,1541221,0.0-19.0-2.19,63174,List2B,white,woman,,,,null,,,,
6196,,,survey-text,403,1547420,0.0-19.0-3.19,63174,List2B,white,woman,,,,,"{""Q0"":""ruth is shouting at dave""}","<img src=""stim_listB/shout1.gif""</stim_listB>",is shouting at,
1077,<p>Thank you for completing that task.</p><p>The final part of this session is a short questionnaire.</p><p>Press Continue.</p>,0,html-button-response,404,1548500,0.0-20.0,63174,List2B,white,woman,,,,,,,,
21792,,,survey-text,405,1571324,0.0-21.0,63174,List2B,white,woman,,,,,"{""Q0"":""41"",""Q1"":""english"",""Q2"":""english"",""Q3"":""UK"",""Q4"":""white british"",""Q5"":""female""}",,,demographics
35346,,,survey-likert,406,1606677,0.0-22.0,63174,List2B,white,woman,,,,,"{""Q0"":3,""Q1"":3,""Q2"":3,""Q3"":3,""Q4"":3,""Q5"":3,""Q6"":3,""Q7"":1,""Q8"":3,""Q9"":2,""Q10"":3,""Q11"":3,""Q12"":3,""Q13"":2}",,,likert_race
26530,,,survey-likert,407,1633212,0.0-23.0,63174,List2B,white,woman,,,,,"{""Q0"":3,""Q1"":3,""Q2"":3,""Q3"":3,""Q4"":3,""Q5"":3,""Q6"":3,""Q7"":2,""Q8"":3,""Q9"":3,""Q10"":3,""Q11"":3,""Q12"":3,""Q13"":3}",,,likert_gender
3445,,,survey-text,408,1636660,0.0-24.0,63174,List2B,white,woman,,,,,"{""Q0"":""ccc""}",,,worker_id
17801,,,external-html,409,1654633,0.0-25.0,63174,List2B,white,woman,debrief.html,,,,,,,
