rt,stimulus,button_pressed,trial_type,trial_index,time_elapsed,internal_node_id,subject,list,ppt_race,ppt_gender,url,first_guess,correct,key_press,responses,image_type,phrase_type,test_part
182238,Welcome to the experiment. Press Continue to begin.,0,html-button-response,0,182245,0.0-0.0,63438,List1B,black,woman,,,,,,,,
11236,,,external-html,1,195553,0.0-1.0,63438,List1B,black,woman,consent.html,,,,,,,
13351,"<p>On the next page, you will see portraits of 8 people and their names.</p><p>Your first task is to take a few minutes to memorise the names of these people.</p><p>You will have to recall their names during the rest of the experiment, so it is</p><p>essential that you try to memorise these people and their names as best as you can.</p><br><p><strong>You will then be tested on your memory of these names and portraits.</strong></p><br><p>The experiment will start after you have completed this memory test.</p><br><p>Ready?</p>",0,html-button-response,2,208910,0.0-2.0,63438,List1B,black,woman,,,,,,,,
43424,"<img src='img/portrait_matrix_list1.JPG' style='width:900px;height:500px;''></img><p>If you have memorised all the portraits and names and are ready to start, press Continue.</p><p><strong>Please note: Your memory of these faces will be tested 4 times during this experiment.</strong></p>",0,html-button-response,3,253337,0.0-3.0-0.0,63438,List1B,black,woman,,,,,,,,
9426,"<img src=""portrait/WM2.jpg""style=""width:400px;height:400px;""></img>",7,html-button-response,4,263769,0.0-3.0-1.0,63438,List1B,black,woman,,TRUE,7,,,,,
null,CORRECT,,html-keyboard-response,5,265278,0.0-3.0-2.0-0.0,63438,List1B,black,woman,,,,null,,,,
6436,"<img src=""portrait/BW2.jpg""style=""width:400px;height:400px;""></img>",2,html-button-response,6,271724,0.0-3.0-4.0,63438,List1B,black,woman,,TRUE,2,,,,,
null,CORRECT,,html-keyboard-response,7,273228,0.0-3.0-5.0-0.0,63438,List1B,black,woman,,,,null,,,,
6246,"<img src=""portrait/WM1.jpg""style=""width:400px;height:400px;""></img>",6,html-button-response,8,279477,0.0-3.0-7.0,63438,List1B,black,woman,,TRUE,6,,,,,
null,CORRECT,,html-keyboard-response,9,280980,0.0-3.0-8.0-0.0,63438,List1B,black,woman,,,,null,,,,
8731,"<img src=""portrait/WW1.jpg""style=""width:400px;height:400px;""></img>",1,html-button-response,10,289714,0.0-3.0-10.0,63438,List1B,black,woman,,TRUE,1,,,,,
null,CORRECT,,html-keyboard-response,11,291217,0.0-3.0-11.0-0.0,63438,List1B,black,woman,,,,null,,,,
9801,"<img src=""portrait/BM2.jpg""style=""width:400px;height:400px;""></img>",5,html-button-response,12,301021,0.0-3.0-13.0,63438,List1B,black,woman,,TRUE,5,,,,,
null,CORRECT,,html-keyboard-response,13,302523,0.0-3.0-14.0-0.0,63438,List1B,black,woman,,,,null,,,,
7456,"<img src=""portrait/WW2.jpg""style=""width:400px;height:400px;""></img>",3,html-button-response,14,309982,0.0-3.0-16.0,63438,List1B,black,woman,,TRUE,3,,,,,
null,CORRECT,,html-keyboard-response,15,311485,0.0-3.0-17.0-0.0,63438,List1B,black,woman,,,,null,,,,
8509,"<img src=""portrait/BM1.jpg""style=""width:400px;height:400px;""></img>",4,html-button-response,16,319999,0.0-3.0-19.0,63438,List1B,black,woman,,TRUE,4,,,,,
null,CORRECT,,html-keyboard-response,17,321501,0.0-3.0-20.0-0.0,63438,List1B,black,woman,,,,null,,,,
5923,"<img src=""portrait/BW1.jpg""style=""width:400px;height:400px;""></img>",0,html-button-response,18,327429,0.0-3.0-22.0,63438,List1B,black,woman,,TRUE,0,,,,,
null,CORRECT,,html-keyboard-response,19,328933,0.0-3.0-23.0-0.0,63438,List1B,black,woman,,,,null,,,,
3557,<p>You got 8 out of 8 right first time. Press Continue.</p>,0,html-button-response,20,332493,0.0-3.0-25.0,63438,List1B,black,woman,,,,,,,,
56260,"<p>In this experiment, you will view photographs of the people from the memory game interacting.</p><p>By using the <strong>exact</strong> phrase given <i>after</i> the photograph appears and recalling the correct names of the people in the photographs, form a sentence describing the interaction. You do not need to capitalise names.</p><p>Type your answer in the space provided. Please complete every sentence before moving onto the next trial.</p><p>You will only have a few seconds to memorise each given photograph and phrase before you can respond, so try your best to focus.</p><p>An example is given below. Press 'Continue' when you are ready.</p><img src='img/speaking_example_v2.jpg' style='width:800px;height:460px;''></img>",0,html-button-response,21,389763,0.0-4.0,63438,List1B,black,woman,,,,,,,,
3157,"<p>Before the experiment starts, you will watch two example trials. Press 'Continue'.</p>",0,html-button-response,22,393924,0.0-5.0,63438,List1B,black,woman,,,,,,,,
null,<img src='img/speaking_WW.gif'></img>,,html-keyboard-response,23,396927,0.0-6.0,63438,List1B,black,woman,,,,null,,,,
null,<p>is speaking to</p>,,html-keyboard-response,24,398930,0.0-7.0,63438,List1B,black,woman,,,,null,,,,
4529,<p><b>Answer:</b> kate is speaking to beth</p>,0,html-button-response,25,403461,0.0-8.0,63438,List1B,black,woman,,,,,,,,
null,<img src='img/pointing_BM.gif'></img>,,html-keyboard-response,26,406464,0.0-9.0,63438,List1B,black,woman,,,,null,,,,
null,<p>are pointing at each other</p>,,html-keyboard-response,27,408465,0.0-10.0,63438,List1B,black,woman,,,,null,,,,
3746,<p><b>Answer:</b> luke and dave are pointing at each other</p>,0,html-button-response,28,412214,0.0-11.0,63438,List1B,black,woman,,,,,,,,
7911,"<p>Ready to start the experiment?</p><br><p><strong>Remember to describe the picture using a full sentence,</strong></p><p><strong>that combines the names of the people with the given phrase.</strong></p><p><strong>If you do not do this correctly you will not be paid.</strong></p><p><strong> You do not need to capitalise names or use punctuation.</strong></p><br><p>Press 'Continue' to begin.</p>",0,html-button-response,29,421128,0.0-12.0,63438,List1B,black,woman,,,,,,,,
null,"<div style=""font-size:60px;"">+</div>",,html-keyboard-response,30,422631,0.0-13.0-0.0,63438,List1B,black,woman,,,,null,,,,
null,"<img src=""stim_listB/meet3.gif""</stim_listB>",,html-keyboard-response,31,424634,0.0-13.0-1.0,63438,List1B,black,woman,,,,null,,,,
null,is meeting,,html-keyboard-response,32,426636,0.0-13.0-2.0,63438,List1B,black,woman,,,,null,,,,
15737,,,survey-text,33,442377,0.0-13.0-3.0,63438,List1B,black,woman,,,,,"{""Q0"":""jane is speaking to dave""}","<img src=""stim_listB/meet3.gif""</stim_listB>",is meeting,
null,"<div style=""font-size:60px;"">+</div>",,html-keyboard-response,34,442881,0.0-13.0-0.1,63438,List1B,black,woman,,,,null,,,,
null,"<img src=""stim_listB/talk7.gif""</stim_listB>",,html-keyboard-response,35,444882,0.0-13.0-1.1,63438,List1B,black,woman,,,,null,,,,
null,is talking to,,html-keyboard-response,36,446884,0.0-13.0-2.1,63438,List1B,black,woman,,,,null,,,,
16774,,,survey-text,37,463663,0.0-13.0-3.1,63438,List1B,black,woman,,,,,"{""Q0"":""jane is speaking to beth""}","<img src=""stim_listB/talk7.gif""</stim_listB>",is talking to,
null,"<div style=""font-size:60px;"">+</div>",,html-keyboard-response,38,464167,0.0-13.0-0.2,63438,List1B,black,woman,,,,null,,,,
null,"<img src=""stim_listB/marry3.gif""</stim_listB>",,html-keyboard-response,39,466170,0.0-13.0-1.2,63438,List1B,black,woman,,,,null,,,,
null,is marrying,,html-keyboard-response,40,468172,0.0-13.0-2.2,63438,List1B,black,woman,,,,null,,,,
10156,,,survey-text,41,478331,0.0-13.0-3.2,63438,List1B,black,woman,,,,,"{""Q0"":""dave is speaking to ruth""}","<img src=""stim_listB/marry3.gif""</stim_listB>",is marrying,
null,"<div style=""font-size:60px;"">+</div>",,html-keyboard-response,42,478833,0.0-13.0-0.3,63438,List1B,black,woman,,,,null,,,,
null,"<img src=""stim_listB/shout5.gif""</stim_listB>",,html-keyboard-response,43,480835,0.0-13.0-1.3,63438,List1B,black,woman,,,,null,,,,
null,is shouting at,,html-keyboard-response,44,482837,0.0-13.0-2.3,63438,List1B,black,woman,,,,null,,,,
17025,,,survey-text,45,499865,0.0-13.0-3.3,63438,List1B,black,woman,,,,,"{""Q0"":""luke is shouting at fred""}","<img src=""stim_listB/shout5.gif""</stim_listB>",is shouting at,
null,"<div style=""font-size:60px;"">+</div>",,html-keyboard-response,46,500367,0.0-13.0-0.4,63438,List1B,black,woman,,,,null,,,,
null,"<img src=""stim_listB/argue8.gif""</stim_listB>",,html-keyboard-response,47,502369,0.0-13.0-1.4,63438,List1B,black,woman,,,,null,,,,
null,are arguing with each other,,html-keyboard-response,48,504371,0.0-13.0-2.4,63438,List1B,black,woman,,,,null,,,,
25925,,,survey-text,49,530298,0.0-13.0-3.4,63438,List1B,black,woman,,,,,"{""Q0"":""jane and beth are arguing with each other""}","<img src=""stim_listB/argue8.gif""</stim_listB>",are arguing with each other,
null,"<div style=""font-size:60px;"">+</div>",,html-keyboard-response,50,530800,0.0-13.0-0.5,63438,List1B,black,woman,,,,null,,,,
null,"<img src=""stim_listB/shout7.gif""</stim_listB>",,html-keyboard-response,51,532802,0.0-13.0-1.5,63438,List1B,black,woman,,,,null,,,,
null,is shouting at,,html-keyboard-response,52,534803,0.0-13.0-2.5,63438,List1B,black,woman,,,,null,,,,
13098,,,survey-text,53,547904,0.0-13.0-3.5,63438,List1B,black,woman,,,,,"{""Q0"":""ruth is shouting at beth""}","<img src=""stim_listB/shout7.gif""</stim_listB>",is shouting at,
null,"<div style=""font-size:60px;"">+</div>",,html-keyboard-response,54,548406,0.0-13.0-0.6,63438,List1B,black,woman,,,,null,,,,
null,"<img src=""stim_listB/touch3.gif""</stim_listB>",,html-keyboard-response,55,550408,0.0-13.0-1.6,63438,List1B,black,woman,,,,null,,,,
null,is touching,,html-keyboard-response,56,552410,0.0-13.0-2.6,63438,List1B,black,woman,,,,null,,,,
16034,,,survey-text,57,568446,0.0-13.0-3.6,63438,List1B,black,woman,,,,,"{""Q0"":""dave is touching jane""}","<img src=""stim_listB/touch3.gif""</stim_listB>",is touching,
null,"<div style=""font-size:60px;"">+</div>",,html-keyboard-response,58,568949,0.0-13.0-0.7,63438,List1B,black,woman,,,,null,,,,
null,"<img src=""stim_listB/meet4.gif""</stim_listB>",,html-keyboard-response,59,570951,0.0-13.0-1.7,63438,List1B,black,woman,,,,null,,,,
null,are meeting each other,,html-keyboard-response,60,572953,0.0-13.0-2.7,63438,List1B,black,woman,,,,null,,,,
15115,,,survey-text,61,588070,0.0-13.0-3.7,63438,List1B,black,woman,,,,,"{""Q0"":""luke and ruth are meeting each other""}","<img src=""stim_listB/meet4.gif""</stim_listB>",are meeting each other,
null,"<div style=""font-size:60px;"">+</div>",,html-keyboard-response,62,588573,0.0-13.0-0.8,63438,List1B,black,woman,,,,null,,,,
null,"<img src=""stim_listB/argue6.gif""</stim_listB>",,html-keyboard-response,63,590579,0.0-13.0-1.8,63438,List1B,black,woman,,,,null,,,,
null,are arguing with each other,,html-keyboard-response,64,592581,0.0-13.0-2.8,63438,List1B,black,woman,,,,null,,,,
20725,,,survey-text,65,613309,0.0-13.0-3.8,63438,List1B,black,woman,,,,,"{""Q0"":""fred and dave are arguing with each other""}","<img src=""stim_listB/argue6.gif""</stim_listB>",are arguing with each other,
null,"<div style=""font-size:60px;"">+</div>",,html-keyboard-response,66,613815,0.0-13.0-0.9,63438,List1B,black,woman,,,,null,,,,
null,"<img src=""stim_listB/kiss8.gif""</stim_listB>",,html-keyboard-response,67,615818,0.0-13.0-1.9,63438,List1B,black,woman,,,,null,,,,
null,are kissing each other,,html-keyboard-response,68,617819,0.0-13.0-2.9,63438,List1B,black,woman,,,,null,,,,
11107,,,survey-text,69,628928,0.0-13.0-3.9,63438,List1B,black,woman,,,,,"{""Q0"":""kate and jane are kissing each other""}","<img src=""stim_listB/kiss8.gif""</stim_listB>",are kissing each other,
null,"<div style=""font-size:60px;"">+</div>",,html-keyboard-response,70,629431,0.0-13.0-0.10,63438,List1B,black,woman,,,,null,,,,
null,"<img src=""stim_listB/marry7.gif""</stim_listB>",,html-keyboard-response,71,631433,0.0-13.0-1.10,63438,List1B,black,woman,,,,null,,,,
null,is marrying,,html-keyboard-response,72,633434,0.0-13.0-2.10,63438,List1B,black,woman,,,,null,,,,
9268,,,survey-text,73,642705,0.0-13.0-3.10,63438,List1B,black,woman,,,,,"{""Q0"":""ruth is marrying kate""}","<img src=""stim_listB/marry7.gif""</stim_listB>",is marrying,
null,"<div style=""font-size:60px;"">+</div>",,html-keyboard-response,74,643208,0.0-13.0-0.11,63438,List1B,black,woman,,,,null,,,,
null,"<img src=""stim_listB/talk4.gif""</stim_listB>",,html-keyboard-response,75,645213,0.0-13.0-1.11,63438,List1B,black,woman,,,,null,,,,
null,are talking to each other,,html-keyboard-response,76,647214,0.0-13.0-2.11,63438,List1B,black,woman,,,,null,,,,
11456,,,survey-text,77,658673,0.0-13.0-3.11,63438,List1B,black,woman,,,,,"{""Q0"":""ruth and dave are talking to each other""}","<img src=""stim_listB/talk4.gif""</stim_listB>",are talking to each other,
null,"<div style=""font-size:60px;"">+</div>",,html-keyboard-response,78,659177,0.0-13.0-0.12,63438,List1B,black,woman,,,,null,,,,
null,"<img src=""stim_listB/kiss1.gif""</stim_listB>",,html-keyboard-response,79,661179,0.0-13.0-1.12,63438,List1B,black,woman,,,,null,,,,
null,is kissing,,html-keyboard-response,80,663181,0.0-13.0-2.12,63438,List1B,black,woman,,,,null,,,,
8609,,,survey-text,81,671794,0.0-13.0-3.12,63438,List1B,black,woman,,,,,"{""Q0"":""fred is kissing beth""}","<img src=""stim_listB/kiss1.gif""</stim_listB>",is kissing,
null,"<div style=""font-size:60px;"">+</div>",,html-keyboard-response,82,672297,0.0-13.0-0.13,63438,List1B,black,woman,,,,null,,,,
null,"<img src=""stim_listB/argue5.gif""</stim_listB>",,html-keyboard-response,83,674299,0.0-13.0-1.13,63438,List1B,black,woman,,,,null,,,,
null,is arguing with,,html-keyboard-response,84,676301,0.0-13.0-2.13,63438,List1B,black,woman,,,,null,,,,
12538,,,survey-text,85,688844,0.0-13.0-3.13,63438,List1B,black,woman,,,,,"{""Q0"":""mike is arguing with luke""}","<img src=""stim_listB/argue5.gif""</stim_listB>",is arguing with,
null,"<div style=""font-size:60px;"">+</div>",,html-keyboard-response,86,689347,0.0-13.0-0.14,63438,List1B,black,woman,,,,null,,,,
null,"<img src=""stim_listB/touch2.gif""</stim_listB>",,html-keyboard-response,87,691349,0.0-13.0-1.14,63438,List1B,black,woman,,,,null,,,,
null,are touching each other,,html-keyboard-response,88,693351,0.0-13.0-2.14,63438,List1B,black,woman,,,,null,,,,
12638,,,survey-text,89,705992,0.0-13.0-3.14,63438,List1B,black,woman,,,,,"{""Q0"":""fred and beth are touching each other""}","<img src=""stim_listB/touch2.gif""</stim_listB>",are touching each other,
null,"<div style=""font-size:60px;"">+</div>",,html-keyboard-response,90,706495,0.0-13.0-0.15,63438,List1B,black,woman,,,,null,,,,
null,"<img src=""stim_listB/shout2.gif""</stim_listB>",,html-keyboard-response,91,708497,0.0-13.0-1.15,63438,List1B,black,woman,,,,null,,,,
null,are shouting at each other,,html-keyboard-response,92,710498,0.0-13.0-2.15,63438,List1B,black,woman,,,,null,,,,
12402,,,survey-text,93,722902,0.0-13.0-3.15,63438,List1B,black,woman,,,,,"{""Q0"":""kate and mike are shouting at each other""}","<img src=""stim_listB/shout2.gif""</stim_listB>",are shouting at each other,
null,"<div style=""font-size:60px;"">+</div>",,html-keyboard-response,94,723404,0.0-13.0-0.16,63438,List1B,black,woman,,,,null,,,,
null,"<img src=""stim_listB/argue2.gif""</stim_listB>",,html-keyboard-response,95,725408,0.0-13.0-1.16,63438,List1B,black,woman,,,,null,,,,
null,are arguing with each other,,html-keyboard-response,96,727410,0.0-13.0-2.16,63438,List1B,black,woman,,,,null,,,,
14904,,,survey-text,97,742316,0.0-13.0-3.16,63438,List1B,black,woman,,,,,"{""Q0"":""fred and kate are arguing with each other""}","<img src=""stim_listB/argue2.gif""</stim_listB>",are arguing with each other,
null,"<div style=""font-size:60px;"">+</div>",,html-keyboard-response,98,742818,0.0-13.0-0.17,63438,List1B,black,woman,,,,null,,,,
null,"<img src=""stim_listB/marry2.gif""</stim_listB>",,html-keyboard-response,99,744822,0.0-13.0-1.17,63438,List1B,black,woman,,,,null,,,,
null,are marrying each other,,html-keyboard-response,100,746824,0.0-13.0-2.17,63438,List1B,black,woman,,,,null,,,,
18294,,,survey-text,101,765120,0.0-13.0-3.17,63438,List1B,black,woman,,,,,"{""Q0"":""fred and kate are marrying each other""}","<img src=""stim_listB/marry2.gif""</stim_listB>",are marrying each other,
null,"<div style=""font-size:60px;"">+</div>",,html-keyboard-response,102,765622,0.0-13.0-0.18,63438,List1B,black,woman,,,,null,,,,
null,"<img src=""stim_listB/dance3.gif""</stim_listB>",,html-keyboard-response,103,767624,0.0-13.0-1.18,63438,List1B,black,woman,,,,null,,,,
null,is dancing with,,html-keyboard-response,104,769625,0.0-13.0-2.18,63438,List1B,black,woman,,,,null,,,,
11873,,,survey-text,105,781500,0.0-13.0-3.18,63438,List1B,black,woman,,,,,"{""Q0"":""luke is dancing with jane""}","<img src=""stim_listB/dance3.gif""</stim_listB>",is dancing with,
null,"<div style=""font-size:60px;"">+</div>",,html-keyboard-response,106,782003,0.0-13.0-0.19,63438,List1B,black,woman,,,,null,,,,
null,"<img src=""stim_listB/fight4.gif""</stim_listB>",,html-keyboard-response,107,784007,0.0-13.0-1.19,63438,List1B,black,woman,,,,null,,,,
null,are fighting each other,,html-keyboard-response,108,786010,0.0-13.0-2.19,63438,List1B,black,woman,,,,null,,,,
12664,,,survey-text,109,798676,0.0-13.0-3.19,63438,List1B,black,woman,,,,,"{""Q0"":""luke and ruth are fighting each other""}","<img src=""stim_listB/fight4.gif""</stim_listB>",are fighting each other,
10623,"<img src='img/portrait_matrix_list1.JPG' style='width:900px;height:500px;''></img><p>If you have memorised all the portraits and names and are ready to start, press Continue.</p><p><strong>Please note: Your memory of these faces will be tested 4 times during this experiment.</strong></p>",0,html-button-response,110,809304,0.0-14.0-0.0,63438,List1B,black,woman,,,,,,,,
5469,"<img src=""portrait/WW2.jpg""style=""width:400px;height:400px;""></img>",3,html-button-response,111,815783,0.0-14.0-1.0,63438,List1B,black,woman,,TRUE,3,,,,,
null,CORRECT,,html-keyboard-response,112,817286,0.0-14.0-2.0-0.0,63438,List1B,black,woman,,,,null,,,,
3103,"<img src=""portrait/WW1.jpg""style=""width:400px;height:400px;""></img>",1,html-button-response,113,820394,0.0-14.0-4.0,63438,List1B,black,woman,,TRUE,1,,,,,
null,CORRECT,,html-keyboard-response,114,821896,0.0-14.0-5.0-0.0,63438,List1B,black,woman,,,,null,,,,
4053,"<img src=""portrait/BM1.jpg""style=""width:400px;height:400px;""></img>",4,html-button-response,115,825955,0.0-14.0-7.0,63438,List1B,black,woman,,TRUE,4,,,,,
null,CORRECT,,html-keyboard-response,116,827457,0.0-14.0-8.0-0.0,63438,List1B,black,woman,,,,null,,,,
3011,"<img src=""portrait/BW2.jpg""style=""width:400px;height:400px;""></img>",2,html-button-response,117,830472,0.0-14.0-10.0,63438,List1B,black,woman,,TRUE,2,,,,,
null,CORRECT,,html-keyboard-response,118,831975,0.0-14.0-11.0-0.0,63438,List1B,black,woman,,,,null,,,,
4732,"<img src=""portrait/BW1.jpg""style=""width:400px;height:400px;""></img>",0,html-button-response,119,836711,0.0-14.0-13.0,63438,List1B,black,woman,,TRUE,0,,,,,
null,CORRECT,,html-keyboard-response,120,838218,0.0-14.0-14.0-0.0,63438,List1B,black,woman,,,,null,,,,
6187,"<img src=""portrait/WM1.jpg""style=""width:400px;height:400px;""></img>",6,html-button-response,121,844409,0.0-14.0-16.0,63438,List1B,black,woman,,TRUE,6,,,,,
null,CORRECT,,html-keyboard-response,122,845915,0.0-14.0-17.0-0.0,63438,List1B,black,woman,,,,null,,,,
2837,"<img src=""portrait/BM2.jpg""style=""width:400px;height:400px;""></img>",5,html-button-response,123,848755,0.0-14.0-19.0,63438,List1B,black,woman,,TRUE,5,,,,,
null,CORRECT,,html-keyboard-response,124,850259,0.0-14.0-20.0-0.0,63438,List1B,black,woman,,,,null,,,,
5090,"<img src=""portrait/WM2.jpg""style=""width:400px;height:400px;""></img>",7,html-button-response,125,855357,0.0-14.0-22.0,63438,List1B,black,woman,,TRUE,7,,,,,
null,CORRECT,,html-keyboard-response,126,856860,0.0-14.0-23.0-0.0,63438,List1B,black,woman,,,,null,,,,
2287,<p>You got 8 out of 8 right first time. Press Continue.</p>,0,html-button-response,127,859150,0.0-14.0-25.0,63438,List1B,black,woman,,,,,,,,
null,"<div style=""font-size:60px;"">+</div>",,html-keyboard-response,128,860655,0.0-15.0-0.0,63438,List1B,black,woman,,,,null,,,,
null,"<img src=""stim_listB/marry1.gif""</stim_listB>",,html-keyboard-response,129,862660,0.0-15.0-1.0,63438,List1B,black,woman,,,,null,,,,
null,is marrying,,html-keyboard-response,130,864662,0.0-15.0-2.0,63438,List1B,black,woman,,,,null,,,,
12006,,,survey-text,131,876671,0.0-15.0-3.0,63438,List1B,black,woman,,,,,"{""Q0"":""beth is marrying mike""}","<img src=""stim_listB/marry1.gif""</stim_listB>",is marrying,
null,"<div style=""font-size:60px;"">+</div>",,html-keyboard-response,132,877174,0.0-15.0-0.1,63438,List1B,black,woman,,,,null,,,,
null,"<img src=""stim_listB/shout1.gif""</stim_listB>",,html-keyboard-response,133,879177,0.0-15.0-1.1,63438,List1B,black,woman,,,,null,,,,
null,is shouting at,,html-keyboard-response,134,881180,0.0-15.0-2.1,63438,List1B,black,woman,,,,null,,,,
14586,,,survey-text,135,895768,0.0-15.0-3.1,63438,List1B,black,woman,,,,,"{""Q0"":""beth is shouting at fred""}","<img src=""stim_listB/shout1.gif""</stim_listB>",is shouting at,
null,"<div style=""font-size:60px;"">+</div>",,html-keyboard-response,136,896271,0.0-15.0-0.2,63438,List1B,black,woman,,,,null,,,,
null,"<img src=""stim_listB/touch1.gif""</stim_listB>",,html-keyboard-response,137,898273,0.0-15.0-1.2,63438,List1B,black,woman,,,,null,,,,
null,is touching,,html-keyboard-response,138,900274,0.0-15.0-2.2,63438,List1B,black,woman,,,,null,,,,
19421,,,survey-text,139,919698,0.0-15.0-3.2,63438,List1B,black,woman,,,,,"{""Q0"":""kate is touching mike""}","<img src=""stim_listB/touch1.gif""</stim_listB>",is touching,
null,"<div style=""font-size:60px;"">+</div>",,html-keyboard-response,140,920201,0.0-15.0-0.3,63438,List1B,black,woman,,,,null,,,,
null,"<img src=""stim_listB/hug4.gif""</stim_listB>",,html-keyboard-response,141,922203,0.0-15.0-1.3,63438,List1B,black,woman,,,,null,,,,
null,are hugging each other,,html-keyboard-response,142,924206,0.0-15.0-2.3,63438,List1B,black,woman,,,,null,,,,
11854,,,survey-text,143,936064,0.0-15.0-3.3,63438,List1B,black,woman,,,,,"{""Q0"":""dave and jane are hugging each other""}","<img src=""stim_listB/hug4.gif""</stim_listB>",are hugging each other,
null,"<div style=""font-size:60px;"">+</div>",,html-keyboard-response,144,936567,0.0-15.0-0.4,63438,List1B,black,woman,,,,null,,,,
null,"<img src=""stim_listB/meet1.gif""</stim_listB>",,html-keyboard-response,145,938569,0.0-15.0-1.4,63438,List1B,black,woman,,,,null,,,,
null,is meeting,,html-keyboard-response,146,940571,0.0-15.0-2.4,63438,List1B,black,woman,,,,null,,,,
11192,,,survey-text,147,951768,0.0-15.0-3.4,63438,List1B,black,woman,,,,,"{""Q0"":""kate is meeting mike""}","<img src=""stim_listB/meet1.gif""</stim_listB>",is meeting,
null,"<div style=""font-size:60px;"">+</div>",,html-keyboard-response,148,952271,0.0-15.0-0.5,63438,List1B,black,woman,,,,null,,,,
null,"<img src=""stim_listB/fight7.gif""</stim_listB>",,html-keyboard-response,149,954274,0.0-15.0-1.5,63438,List1B,black,woman,,,,null,,,,
null,is fighting,,html-keyboard-response,150,956276,0.0-15.0-2.5,63438,List1B,black,woman,,,,null,,,,
14128,,,survey-text,151,970407,0.0-15.0-3.5,63438,List1B,black,woman,,,,,"{""Q0"":""kate is fighting jane""}","<img src=""stim_listB/fight7.gif""</stim_listB>",is fighting,
null,"<div style=""font-size:60px;"">+</div>",,html-keyboard-response,152,970912,0.0-15.0-0.6,63438,List1B,black,woman,,,,null,,,,
null,"<img src=""stim_listB/fight5.gif""</stim_listB>",,html-keyboard-response,153,972914,0.0-15.0-1.6,63438,List1B,black,woman,,,,null,,,,
null,is fighting,,html-keyboard-response,154,974916,0.0-15.0-2.6,63438,List1B,black,woman,,,,null,,,,
8793,,,survey-text,155,983711,0.0-15.0-3.6,63438,List1B,black,woman,,,,,"{""Q0"":""mike is fighting dave""}","<img src=""stim_listB/fight5.gif""</stim_listB>",is fighting,
null,"<div style=""font-size:60px;"">+</div>",,html-keyboard-response,156,984213,0.0-15.0-0.7,63438,List1B,black,woman,,,,null,,,,
null,"<img src=""stim_listB/kiss5.gif""</stim_listB>",,html-keyboard-response,157,986216,0.0-15.0-1.7,63438,List1B,black,woman,,,,null,,,,
null,is kissing,,html-keyboard-response,158,988218,0.0-15.0-2.7,63438,List1B,black,woman,,,,null,,,,
8613,,,survey-text,159,996833,0.0-15.0-3.7,63438,List1B,black,woman,,,,,"{""Q0"":""fred is kissing luke""}","<img src=""stim_listB/kiss5.gif""</stim_listB>",is kissing,
null,"<div style=""font-size:60px;"">+</div>",,html-keyboard-response,160,997337,0.0-15.0-0.8,63438,List1B,black,woman,,,,null,,,,
null,"<img src=""stim_listB/shout3.gif""</stim_listB>",,html-keyboard-response,161,999339,0.0-15.0-1.8,63438,List1B,black,woman,,,,null,,,,
null,is shouting at,,html-keyboard-response,162,1001341,0.0-15.0-2.8,63438,List1B,black,woman,,,,null,,,,
12624,,,survey-text,163,1013968,0.0-15.0-3.8,63438,List1B,black,woman,,,,,"{""Q0"":""luke is shouting at ruth""}","<img src=""stim_listB/shout3.gif""</stim_listB>",is shouting at,
null,"<div style=""font-size:60px;"">+</div>",,html-keyboard-response,164,1014470,0.0-15.0-0.9,63438,List1B,black,woman,,,,null,,,,
null,"<img src=""stim_listB/dance2.gif""</stim_listB>",,html-keyboard-response,165,1016474,0.0-15.0-1.9,63438,List1B,black,woman,,,,null,,,,
null,are dancing with each other,,html-keyboard-response,166,1018476,0.0-15.0-2.9,63438,List1B,black,woman,,,,null,,,,
13859,,,survey-text,167,1032339,0.0-15.0-3.9,63438,List1B,black,woman,,,,,"{""Q0"":""mike and kate are dancing with each other""}","<img src=""stim_listB/dance2.gif""</stim_listB>",are dancing with each other,
null,"<div style=""font-size:60px;"">+</div>",,html-keyboard-response,168,1032842,0.0-15.0-0.10,63438,List1B,black,woman,,,,null,,,,
null,"<img src=""stim_listB/meet7.gif""</stim_listB>",,html-keyboard-response,169,1034844,0.0-15.0-1.10,63438,List1B,black,woman,,,,null,,,,
null,is meeting,,html-keyboard-response,170,1036845,0.0-15.0-2.10,63438,List1B,black,woman,,,,null,,,,
10497,,,survey-text,171,1047345,0.0-15.0-3.10,63438,List1B,black,woman,,,,,"{""Q0"":""kate is meeting jane""}","<img src=""stim_listB/meet7.gif""</stim_listB>",is meeting,
null,"<div style=""font-size:60px;"">+</div>",,html-keyboard-response,172,1047848,0.0-15.0-0.11,63438,List1B,black,woman,,,,null,,,,
null,"<img src=""stim_listB/kiss2.gif""</stim_listB>",,html-keyboard-response,173,1049851,0.0-15.0-1.11,63438,List1B,black,woman,,,,null,,,,
null,are kissing each other,,html-keyboard-response,174,1051853,0.0-15.0-2.11,63438,List1B,black,woman,,,,null,,,,
13422,,,survey-text,175,1065277,0.0-15.0-3.11,63438,List1B,black,woman,,,,,"{""Q0"":""kate and mike are kissing each other""}","<img src=""stim_listB/kiss2.gif""</stim_listB>",are kissing each other,
null,"<div style=""font-size:60px;"">+</div>",,html-keyboard-response,176,1065781,0.0-15.0-0.12,63438,List1B,black,woman,,,,null,,,,
null,"<img src=""stim_listB/argue1.gif""</stim_listB>",,html-keyboard-response,177,1067784,0.0-15.0-1.12,63438,List1B,black,woman,,,,null,,,,
null,is arguing with,,html-keyboard-response,178,1069786,0.0-15.0-2.12,63438,List1B,black,woman,,,,null,,,,
11284,,,survey-text,179,1081074,0.0-15.0-3.12,63438,List1B,black,woman,,,,,"{""Q0"":""mike is arguing with beth""}","<img src=""stim_listB/argue1.gif""</stim_listB>",is arguing with,
null,"<div style=""font-size:60px;"">+</div>",,html-keyboard-response,180,1081577,0.0-15.0-0.13,63438,List1B,black,woman,,,,null,,,,
null,"<img src=""stim_listB/shout6.gif""</stim_listB>",,html-keyboard-response,181,1083583,0.0-15.0-1.13,63438,List1B,black,woman,,,,null,,,,
null,are shouting at each other,,html-keyboard-response,182,1085585,0.0-15.0-2.13,63438,List1B,black,woman,,,,null,,,,
11811,,,survey-text,183,1097402,0.0-15.0-3.13,63438,List1B,black,woman,,,,,"{""Q0"":""mike and dave are shouting at each other""}","<img src=""stim_listB/shout6.gif""</stim_listB>",are shouting at each other,
null,"<div style=""font-size:60px;"">+</div>",,html-keyboard-response,184,1097905,0.0-15.0-0.14,63438,List1B,black,woman,,,,null,,,,
null,"<img src=""stim_listB/talk1.gif""</stim_listB>",,html-keyboard-response,185,1099908,0.0-15.0-1.14,63438,List1B,black,woman,,,,null,,,,
null,is talking to,,html-keyboard-response,186,1101910,0.0-15.0-2.14,63438,List1B,black,woman,,,,null,,,,
11323,,,survey-text,187,1113235,0.0-15.0-3.14,63438,List1B,black,woman,,,,,"{""Q0"":""kate is talking to fred""}","<img src=""stim_listB/talk1.gif""</stim_listB>",is talking to,
null,"<div style=""font-size:60px;"">+</div>",,html-keyboard-response,188,1113740,0.0-15.0-0.15,63438,List1B,black,woman,,,,null,,,,
null,"<img src=""stim_listB/marry8.gif""</stim_listB>",,html-keyboard-response,189,1115747,0.0-15.0-1.15,63438,List1B,black,woman,,,,null,,,,
null,are marrying each other,,html-keyboard-response,190,1117752,0.0-15.0-2.15,63438,List1B,black,woman,,,,null,,,,
11281,,,survey-text,191,1129038,0.0-15.0-3.15,63438,List1B,black,woman,,,,,"{""Q0"":""kate and jane are marrying each other""}","<img src=""stim_listB/marry8.gif""</stim_listB>",are marrying each other,
null,"<div style=""font-size:60px;"">+</div>",,html-keyboard-response,192,1129541,0.0-15.0-0.16,63438,List1B,black,woman,,,,null,,,,
null,"<img src=""stim_listB/hug5.gif""</stim_listB>",,html-keyboard-response,193,1131544,0.0-15.0-1.16,63438,List1B,black,woman,,,,null,,,,
null,is hugging,,html-keyboard-response,194,1133546,0.0-15.0-2.16,63438,List1B,black,woman,,,,null,,,,
8985,,,survey-text,195,1142533,0.0-15.0-3.16,63438,List1B,black,woman,,,,,"{""Q0"":""fred is hugging luke""}","<img src=""stim_listB/hug5.gif""</stim_listB>",is hugging,
null,"<div style=""font-size:60px;"">+</div>",,html-keyboard-response,196,1143035,0.0-15.0-0.17,63438,List1B,black,woman,,,,null,,,,
null,"<img src=""stim_listB/fight6.gif""</stim_listB>",,html-keyboard-response,197,1145038,0.0-15.0-1.17,63438,List1B,black,woman,,,,null,,,,
null,are fighting each other,,html-keyboard-response,198,1147040,0.0-15.0-2.17,63438,List1B,black,woman,,,,null,,,,
11130,,,survey-text,199,1158172,0.0-15.0-3.17,63438,List1B,black,woman,,,,,"{""Q0"":""fred and luke are fighting each other""}","<img src=""stim_listB/fight6.gif""</stim_listB>",are fighting each other,
null,"<div style=""font-size:60px;"">+</div>",,html-keyboard-response,200,1158676,0.0-15.0-0.18,63438,List1B,black,woman,,,,null,,,,
null,"<img src=""stim_listB/kiss6.gif""</stim_listB>",,html-keyboard-response,201,1160678,0.0-15.0-1.18,63438,List1B,black,woman,,,,null,,,,
null,are kissing each other,,html-keyboard-response,202,1162681,0.0-15.0-2.18,63438,List1B,black,woman,,,,null,,,,
35446,,,survey-text,203,1198131,0.0-15.0-3.18,63438,List1B,black,woman,,,,,"{""Q0"":""luke and mike are kissing each other""}","<img src=""stim_listB/kiss6.gif""</stim_listB>",are kissing each other,
null,"<div style=""font-size:60px;"">+</div>",,html-keyboard-response,204,1198634,0.0-15.0-0.19,63438,List1B,black,woman,,,,null,,,,
null,"<img src=""stim_listB/touch6.gif""</stim_listB>",,html-keyboard-response,205,1200636,0.0-15.0-1.19,63438,List1B,black,woman,,,,null,,,,
null,are touching each other,,html-keyboard-response,206,1202637,0.0-15.0-2.19,63438,List1B,black,woman,,,,null,,,,
10756,,,survey-text,207,1213395,0.0-15.0-3.19,63438,List1B,black,woman,,,,,"{""Q0"":""fred and luke are touching each other""}","<img src=""stim_listB/touch6.gif""</stim_listB>",are touching each other,
5018,"<img src='img/portrait_matrix_list1.JPG' style='width:900px;height:500px;''></img><p>If you have memorised all the portraits and names and are ready to start, press Continue.</p><p><strong>Please note: Your memory of these faces will be tested 4 times during this experiment.</strong></p>",0,html-button-response,208,1218417,0.0-16.0-0.0,63438,List1B,black,woman,,,,,,,,
6630,"<img src=""portrait/WW1.jpg""style=""width:400px;height:400px;""></img>",1,html-button-response,209,1226051,0.0-16.0-1.0,63438,List1B,black,woman,,TRUE,1,,,,,
null,CORRECT,,html-keyboard-response,210,1227557,0.0-16.0-2.0-0.0,63438,List1B,black,woman,,,,null,,,,
3674,"<img src=""portrait/WW2.jpg""style=""width:400px;height:400px;""></img>",3,html-button-response,211,1231234,0.0-16.0-4.0,63438,List1B,black,woman,,TRUE,3,,,,,
null,CORRECT,,html-keyboard-response,212,1232737,0.0-16.0-5.0-0.0,63438,List1B,black,woman,,,,null,,,,
2914,"<img src=""portrait/BM1.jpg""style=""width:400px;height:400px;""></img>",4,html-button-response,213,1235658,0.0-16.0-7.0,63438,List1B,black,woman,,TRUE,4,,,,,
null,CORRECT,,html-keyboard-response,214,1237162,0.0-16.0-8.0-0.0,63438,List1B,black,woman,,,,null,,,,
3439,"<img src=""portrait/BW2.jpg""style=""width:400px;height:400px;""></img>",2,html-button-response,215,1240603,0.0-16.0-10.0,63438,List1B,black,woman,,TRUE,2,,,,,
null,CORRECT,,html-keyboard-response,216,1242106,0.0-16.0-11.0-0.0,63438,List1B,black,woman,,,,null,,,,
3625,"<img src=""portrait/WM2.jpg""style=""width:400px;height:400px;""></img>",7,html-button-response,217,1245734,0.0-16.0-13.0,63438,List1B,black,woman,,TRUE,7,,,,,
null,CORRECT,,html-keyboard-response,218,1247237,0.0-16.0-14.0-0.0,63438,List1B,black,woman,,,,null,,,,
3368,"<img src=""portrait/BM2.jpg""style=""width:400px;height:400px;""></img>",5,html-button-response,219,1250618,0.0-16.0-16.0,63438,List1B,black,woman,,TRUE,5,,,,,
null,CORRECT,,html-keyboard-response,220,1252122,0.0-16.0-17.0-0.0,63438,List1B,black,woman,,,,null,,,,
3568,"<img src=""portrait/WM1.jpg""style=""width:400px;height:400px;""></img>",6,html-button-response,221,1255695,0.0-16.0-19.0,63438,List1B,black,woman,,TRUE,6,,,,,
null,CORRECT,,html-keyboard-response,222,1257199,0.0-16.0-20.0-0.0,63438,List1B,black,woman,,,,null,,,,
3195,"<img src=""portrait/BW1.jpg""style=""width:400px;height:400px;""></img>",0,html-button-response,223,1260397,0.0-16.0-22.0,63438,List1B,black,woman,,TRUE,0,,,,,
null,CORRECT,,html-keyboard-response,224,1261901,0.0-16.0-23.0-0.0,63438,List1B,black,woman,,,,null,,,,
2115,<p>You got 8 out of 8 right first time. Press Continue.</p>,0,html-button-response,225,1264019,0.0-16.0-25.0,63438,List1B,black,woman,,,,,,,,
null,"<div style=""font-size:60px;"">+</div>",,html-keyboard-response,226,1265526,0.0-17.0-0.0,63438,List1B,black,woman,,,,null,,,,
null,"<img src=""stim_listB/kiss7.gif""</stim_listB>",,html-keyboard-response,227,1267532,0.0-17.0-1.0,63438,List1B,black,woman,,,,null,,,,
null,is kissing,,html-keyboard-response,228,1269533,0.0-17.0-2.0,63438,List1B,black,woman,,,,null,,,,
8547,,,survey-text,229,1278083,0.0-17.0-3.0,63438,List1B,black,woman,,,,,"{""Q0"":""ruth is kissing kate""}","<img src=""stim_listB/kiss7.gif""</stim_listB>",is kissing,
null,"<div style=""font-size:60px;"">+</div>",,html-keyboard-response,230,1278586,0.0-17.0-0.1,63438,List1B,black,woman,,,,null,,,,
null,"<img src=""stim_listB/dance8.gif""</stim_listB>",,html-keyboard-response,231,1280588,0.0-17.0-1.1,63438,List1B,black,woman,,,,null,,,,
null,are dancing with each other,,html-keyboard-response,232,1282590,0.0-17.0-2.1,63438,List1B,black,woman,,,,null,,,,
13014,,,survey-text,233,1295605,0.0-17.0-3.1,63438,List1B,black,woman,,,,,"{""Q0"":""ruth and kate are dancing with each other""}","<img src=""stim_listB/dance8.gif""</stim_listB>",are dancing with each other,
null,"<div style=""font-size:60px;"">+</div>",,html-keyboard-response,234,1296107,0.0-17.0-0.2,63438,List1B,black,woman,,,,null,,,,
null,"<img src=""stim_listB/meet2.gif""</stim_listB>",,html-keyboard-response,235,1298109,0.0-17.0-1.2,63438,List1B,black,woman,,,,null,,,,
null,are meeting each other,,html-keyboard-response,236,1300111,0.0-17.0-2.2,63438,List1B,black,woman,,,,null,,,,
11125,,,survey-text,237,1311241,0.0-17.0-3.2,63438,List1B,black,woman,,,,,"{""Q0"":""fred is meeting beth""}","<img src=""stim_listB/meet2.gif""</stim_listB>",are meeting each other,
null,"<div style=""font-size:60px;"">+</div>",,html-keyboard-response,238,1311743,0.0-17.0-0.3,63438,List1B,black,woman,,,,null,,,,
null,"<img src=""stim_listB/hug3.gif""</stim_listB>",,html-keyboard-response,239,1313746,0.0-17.0-1.3,63438,List1B,black,woman,,,,null,,,,
null,is hugging,,html-keyboard-response,240,1315747,0.0-17.0-2.3,63438,List1B,black,woman,,,,null,,,,
11217,,,survey-text,241,1326967,0.0-17.0-3.3,63438,List1B,black,woman,,,,,"{""Q0"":""luke is hugging ruth""}","<img src=""stim_listB/hug3.gif""</stim_listB>",is hugging,
null,"<div style=""font-size:60px;"">+</div>",,html-keyboard-response,242,1327469,0.0-17.0-0.4,63438,List1B,black,woman,,,,null,,,,
null,"<img src=""stim_listB/hug2.gif""</stim_listB>",,html-keyboard-response,243,1329472,0.0-17.0-1.4,63438,List1B,black,woman,,,,null,,,,
null,are hugging each other,,html-keyboard-response,244,1331474,0.0-17.0-2.4,63438,List1B,black,woman,,,,null,,,,
11861,,,survey-text,245,1343337,0.0-17.0-3.4,63438,List1B,black,woman,,,,,"{""Q0"":""kate and mike are hugging each other""}","<img src=""stim_listB/hug2.gif""</stim_listB>",are hugging each other,
null,"<div style=""font-size:60px;"">+</div>",,html-keyboard-response,246,1343840,0.0-17.0-0.5,63438,List1B,black,woman,,,,null,,,,
null,"<img src=""stim_listB/talk5.gif""</stim_listB>",,html-keyboard-response,247,1345844,0.0-17.0-1.5,63438,List1B,black,woman,,,,null,,,,
null,is talking to,,html-keyboard-response,248,1347846,0.0-17.0-2.5,63438,List1B,black,woman,,,,null,,,,
11165,,,survey-text,249,1359012,0.0-17.0-3.5,63438,List1B,black,woman,,,,,"{""Q0"":""dave is talking to fred""}","<img src=""stim_listB/talk5.gif""</stim_listB>",is talking to,
null,"<div style=""font-size:60px;"">+</div>",,html-keyboard-response,250,1359515,0.0-17.0-0.6,63438,List1B,black,woman,,,,null,,,,
null,"<img src=""stim_listB/shout8.gif""</stim_listB>",,html-keyboard-response,251,1361518,0.0-17.0-1.6,63438,List1B,black,woman,,,,null,,,,
null,are shouting at each other,,html-keyboard-response,252,1363520,0.0-17.0-2.6,63438,List1B,black,woman,,,,null,,,,
15257,,,survey-text,253,1378780,0.0-17.0-3.6,63438,List1B,black,woman,,,,,"{""Q0"":""kate and jane are shouting at each other""}","<img src=""stim_listB/shout8.gif""</stim_listB>",are shouting at each other,
null,"<div style=""font-size:60px;"">+</div>",,html-keyboard-response,254,1379283,0.0-17.0-0.7,63438,List1B,black,woman,,,,null,,,,
null,"<img src=""stim_listB/meet8.gif""</stim_listB>",,html-keyboard-response,255,1381285,0.0-17.0-1.7,63438,List1B,black,woman,,,,null,,,,
null,are meeting each other,,html-keyboard-response,256,1383287,0.0-17.0-2.7,63438,List1B,black,woman,,,,null,,,,
21133,,,survey-text,257,1404425,0.0-17.0-3.7,63438,List1B,black,woman,,,,,"{""Q0"":""beth and ruth are meeting each other""}","<img src=""stim_listB/meet8.gif""</stim_listB>",are meeting each other,
null,"<div style=""font-size:60px;"">+</div>",,html-keyboard-response,258,1404928,0.0-17.0-0.8,63438,List1B,black,woman,,,,null,,,,
null,"<img src=""stim_listB/fight2.gif""</stim_listB>",,html-keyboard-response,259,1406930,0.0-17.0-1.8,63438,List1B,black,woman,,,,null,,,,
null,are fighting each other,,html-keyboard-response,260,1408933,0.0-17.0-2.8,63438,List1B,black,woman,,,,null,,,,
13078,,,survey-text,261,1422013,0.0-17.0-3.8,63438,List1B,black,woman,,,,,"{""Q0"":""fred and beth are fighting each other""}","<img src=""stim_listB/fight2.gif""</stim_listB>",are fighting each other,
null,"<div style=""font-size:60px;"">+</div>",,html-keyboard-response,262,1422516,0.0-17.0-0.9,63438,List1B,black,woman,,,,null,,,,
null,"<img src=""stim_listB/fight1.gif""</stim_listB>",,html-keyboard-response,263,1424519,0.0-17.0-1.9,63438,List1B,black,woman,,,,null,,,,
null,is fighting,,html-keyboard-response,264,1426520,0.0-17.0-2.9,63438,List1B,black,woman,,,,null,,,,
13359,,,survey-text,265,1439883,0.0-17.0-3.9,63438,List1B,black,woman,,,,,"{""Q0"":""mike is fighting kate""}","<img src=""stim_listB/fight1.gif""</stim_listB>",is fighting,
null,"<div style=""font-size:60px;"">+</div>",,html-keyboard-response,266,1440386,0.0-17.0-0.10,63438,List1B,black,woman,,,,null,,,,
null,"<img src=""stim_listB/argue3.gif""</stim_listB>",,html-keyboard-response,267,1442388,0.0-17.0-1.10,63438,List1B,black,woman,,,,null,,,,
null,is arguing with,,html-keyboard-response,268,1444390,0.0-17.0-2.10,63438,List1B,black,woman,,,,null,,,,
9826,,,survey-text,269,1454219,0.0-17.0-3.10,63438,List1B,black,woman,,,,,"{""Q0"":""dave is arguing with ruth""}","<img src=""stim_listB/argue3.gif""</stim_listB>",is arguing with,
null,"<div style=""font-size:60px;"">+</div>",,html-keyboard-response,270,1454722,0.0-17.0-0.11,63438,List1B,black,woman,,,,null,,,,
null,"<img src=""stim_listB/talk2.gif""</stim_listB>",,html-keyboard-response,271,1456724,0.0-17.0-1.11,63438,List1B,black,woman,,,,null,,,,
null,are talking to each other,,html-keyboard-response,272,1458726,0.0-17.0-2.11,63438,List1B,black,woman,,,,null,,,,
13797,,,survey-text,273,1472527,0.0-17.0-3.11,63438,List1B,black,woman,,,,,"{""Q0"":""beth and mike are talking to each other""}","<img src=""stim_listB/talk2.gif""</stim_listB>",are talking to each other,
null,"<div style=""font-size:60px;"">+</div>",,html-keyboard-response,274,1473030,0.0-17.0-0.12,63438,List1B,black,woman,,,,null,,,,
null,"<img src=""stim_listB/dance5.gif""</stim_listB>",,html-keyboard-response,275,1475033,0.0-17.0-1.12,63438,List1B,black,woman,,,,null,,,,
null,is dancing with,,html-keyboard-response,276,1477035,0.0-17.0-2.12,63438,List1B,black,woman,,,,null,,,,
8985,,,survey-text,277,1486025,0.0-17.0-3.12,63438,List1B,black,woman,,,,,"{""Q0"":""fred is dancing with dave""}","<img src=""stim_listB/dance5.gif""</stim_listB>",is dancing with,
null,"<div style=""font-size:60px;"">+</div>",,html-keyboard-response,278,1486527,0.0-17.0-0.13,63438,List1B,black,woman,,,,null,,,,
null,"<img src=""stim_listB/talk3.gif""</stim_listB>",,html-keyboard-response,279,1488530,0.0-17.0-1.13,63438,List1B,black,woman,,,,null,,,,
null,is talking to,,html-keyboard-response,280,1490532,0.0-17.0-2.13,63438,List1B,black,woman,,,,null,,,,
14440,,,survey-text,281,1504974,0.0-17.0-3.13,63438,List1B,black,woman,,,,,"{""Q0"":""jane is talking to luke""}","<img src=""stim_listB/talk3.gif""</stim_listB>",is talking to,
null,"<div style=""font-size:60px;"">+</div>",,html-keyboard-response,282,1505476,0.0-17.0-0.14,63438,List1B,black,woman,,,,null,,,,
null,"<img src=""stim_listB/fight8.gif""</stim_listB>",,html-keyboard-response,283,1507478,0.0-17.0-1.14,63438,List1B,black,woman,,,,null,,,,
null,are fighting each other,,html-keyboard-response,284,1509480,0.0-17.0-2.14,63438,List1B,black,woman,,,,null,,,,
11739,,,survey-text,285,1521222,0.0-17.0-3.14,63438,List1B,black,woman,,,,,"{""Q0"":""ruth and beth are fighting each other""}","<img src=""stim_listB/fight8.gif""</stim_listB>",are fighting each other,
null,"<div style=""font-size:60px;"">+</div>",,html-keyboard-response,286,1521725,0.0-17.0-0.15,63438,List1B,black,woman,,,,null,,,,
null,"<img src=""stim_listB/kiss4.gif""</stim_listB>",,html-keyboard-response,287,1523727,0.0-17.0-1.15,63438,List1B,black,woman,,,,null,,,,
null,are kissing each other,,html-keyboard-response,288,1525729,0.0-17.0-2.15,63438,List1B,black,woman,,,,null,,,,
13207,,,survey-text,289,1538939,0.0-17.0-3.15,63438,List1B,black,woman,,,,,"{""Q0"":""jane and dave are kissing each other""}","<img src=""stim_listB/kiss4.gif""</stim_listB>",are kissing each other,
null,"<div style=""font-size:60px;"">+</div>",,html-keyboard-response,290,1539441,0.0-17.0-0.16,63438,List1B,black,woman,,,,null,,,,
null,"<img src=""stim_listB/meet6.gif""</stim_listB>",,html-keyboard-response,291,1541443,0.0-17.0-1.16,63438,List1B,black,woman,,,,null,,,,
null,are meeting each other,,html-keyboard-response,292,1543446,0.0-17.0-2.16,63438,List1B,black,woman,,,,null,,,,
11573,,,survey-text,293,1555022,0.0-17.0-3.16,63438,List1B,black,woman,,,,,"{""Q0"":""fred and luke are meeting each other""}","<img src=""stim_listB/meet6.gif""</stim_listB>",are meeting each other,
null,"<div style=""font-size:60px;"">+</div>",,html-keyboard-response,294,1555525,0.0-17.0-0.17,63438,List1B,black,woman,,,,null,,,,
null,"<img src=""stim_listB/marry5.gif""</stim_listB>",,html-keyboard-response,295,1557527,0.0-17.0-1.17,63438,List1B,black,woman,,,,null,,,,
null,is marrying,,html-keyboard-response,296,1559530,0.0-17.0-2.17,63438,List1B,black,woman,,,,null,,,,
11368,,,survey-text,297,1570903,0.0-17.0-3.17,63438,List1B,black,woman,,,,,"{""Q0"":""luke is marrying mike""}","<img src=""stim_listB/marry5.gif""</stim_listB>",is marrying,
null,"<div style=""font-size:60px;"">+</div>",,html-keyboard-response,298,1571406,0.0-17.0-0.18,63438,List1B,black,woman,,,,null,,,,
null,"<img src=""stim_listB/argue7.gif""</stim_listB>",,html-keyboard-response,299,1573410,0.0-17.0-1.18,63438,List1B,black,woman,,,,null,,,,
null,is arguing with,,html-keyboard-response,300,1575413,0.0-17.0-2.18,63438,List1B,black,woman,,,,null,,,,
9963,,,survey-text,301,1585378,0.0-17.0-3.18,63438,List1B,black,woman,,,,,"{""Q0"":""ruth is arguing with kate""}","<img src=""stim_listB/argue7.gif""</stim_listB>",is arguing with,
null,"<div style=""font-size:60px;"">+</div>",,html-keyboard-response,302,1585881,0.0-17.0-0.19,63438,List1B,black,woman,,,,null,,,,
null,"<img src=""stim_listB/argue4.gif""</stim_listB>",,html-keyboard-response,303,1587884,0.0-17.0-1.19,63438,List1B,black,woman,,,,null,,,,
null,are arguing with each other,,html-keyboard-response,304,1589887,0.0-17.0-2.19,63438,List1B,black,woman,,,,null,,,,
14612,,,survey-text,305,1604503,0.0-17.0-3.19,63438,List1B,black,woman,,,,,"{""Q0"":""jane and luke are arguing with each other""}","<img src=""stim_listB/argue4.gif""</stim_listB>",are arguing with each other,
5197,"<img src='img/portrait_matrix_list1.JPG' style='width:900px;height:500px;''></img><p>If you have memorised all the portraits and names and are ready to start, press Continue.</p><p><strong>Please note: Your memory of these faces will be tested 4 times during this experiment.</strong></p>",0,html-button-response,306,1609704,0.0-18.0-0.0,63438,List1B,black,woman,,,,,,,,
5874,"<img src=""portrait/WM2.jpg""style=""width:400px;height:400px;""></img>",7,html-button-response,307,1616585,0.0-18.0-1.0,63438,List1B,black,woman,,TRUE,7,,,,,
null,CORRECT,,html-keyboard-response,308,1618090,0.0-18.0-2.0-0.0,63438,List1B,black,woman,,,,null,,,,
3713,"<img src=""portrait/BW2.jpg""style=""width:400px;height:400px;""></img>",2,html-button-response,309,1621809,0.0-18.0-4.0,63438,List1B,black,woman,,TRUE,2,,,,,
null,CORRECT,,html-keyboard-response,310,1623313,0.0-18.0-5.0-0.0,63438,List1B,black,woman,,,,null,,,,
4374,"<img src=""portrait/WW1.jpg""style=""width:400px;height:400px;""></img>",1,html-button-response,311,1627691,0.0-18.0-7.0,63438,List1B,black,woman,,TRUE,1,,,,,
null,CORRECT,,html-keyboard-response,312,1629196,0.0-18.0-8.0-0.0,63438,List1B,black,woman,,,,null,,,,
2577,"<img src=""portrait/WM1.jpg""style=""width:400px;height:400px;""></img>",6,html-button-response,313,1631778,0.0-18.0-10.0,63438,List1B,black,woman,,TRUE,6,,,,,
null,CORRECT,,html-keyboard-response,314,1633281,0.0-18.0-11.0-0.0,63438,List1B,black,woman,,,,null,,,,
3336,"<img src=""portrait/BM1.jpg""style=""width:400px;height:400px;""></img>",4,html-button-response,315,1636622,0.0-18.0-13.0,63438,List1B,black,woman,,TRUE,4,,,,,
null,CORRECT,,html-keyboard-response,316,1638125,0.0-18.0-14.0-0.0,63438,List1B,black,woman,,,,null,,,,
2684,"<img src=""portrait/BM2.jpg""style=""width:400px;height:400px;""></img>",5,html-button-response,317,1640818,0.0-18.0-16.0,63438,List1B,black,woman,,TRUE,5,,,,,
null,CORRECT,,html-keyboard-response,318,1642321,0.0-18.0-17.0-0.0,63438,List1B,black,woman,,,,null,,,,
3922,"<img src=""portrait/WW2.jpg""style=""width:400px;height:400px;""></img>",3,html-button-response,319,1646246,0.0-18.0-19.0,63438,List1B,black,woman,,TRUE,3,,,,,
null,CORRECT,,html-keyboard-response,320,1647754,0.0-18.0-20.0-0.0,63438,List1B,black,woman,,,,null,,,,
3766,"<img src=""portrait/BW1.jpg""style=""width:400px;height:400px;""></img>",0,html-button-response,321,1651523,0.0-18.0-22.0,63438,List1B,black,woman,,TRUE,0,,,,,
null,CORRECT,,html-keyboard-response,322,1653026,0.0-18.0-23.0-0.0,63438,List1B,black,woman,,,,null,,,,
2001,<p>You got 8 out of 8 right first time. Press Continue.</p>,0,html-button-response,323,1655032,0.0-18.0-25.0,63438,List1B,black,woman,,,,,,,,
null,"<div style=""font-size:60px;"">+</div>",,html-keyboard-response,324,1656542,0.0-19.0-0.0,63438,List1B,black,woman,,,,null,,,,
null,"<img src=""stim_listB/touch8.gif""</stim_listB>",,html-keyboard-response,325,1658546,0.0-19.0-1.0,63438,List1B,black,woman,,,,null,,,,
null,are touching each other,,html-keyboard-response,326,1660548,0.0-19.0-2.0,63438,List1B,black,woman,,,,null,,,,
11989,,,survey-text,327,1672540,0.0-19.0-3.0,63438,List1B,black,woman,,,,,"{""Q0"":""ruth and kate are touching each other""}","<img src=""stim_listB/touch8.gif""</stim_listB>",are touching each other,
null,"<div style=""font-size:60px;"">+</div>",,html-keyboard-response,328,1673043,0.0-19.0-0.1,63438,List1B,black,woman,,,,null,,,,
null,"<img src=""stim_listB/hug8.gif""</stim_listB>",,html-keyboard-response,329,1675045,0.0-19.0-1.1,63438,List1B,black,woman,,,,null,,,,
null,are hugging each other,,html-keyboard-response,330,1677047,0.0-19.0-2.1,63438,List1B,black,woman,,,,null,,,,
13505,,,survey-text,331,1690554,0.0-19.0-3.1,63438,List1B,black,woman,,,,,"{""Q0"":""kate and jane are hugging each other""}","<img src=""stim_listB/hug8.gif""</stim_listB>",are hugging each other,
null,"<div style=""font-size:60px;"">+</div>",,html-keyboard-response,332,1691057,0.0-19.0-0.2,63438,List1B,black,woman,,,,null,,,,
null,"<img src=""stim_listB/dance4.gif""</stim_listB>",,html-keyboard-response,333,1693059,0.0-19.0-1.2,63438,List1B,black,woman,,,,null,,,,
null,are dancing with each other,,html-keyboard-response,334,1695061,0.0-19.0-2.2,63438,List1B,black,woman,,,,null,,,,
14915,,,survey-text,335,1709978,0.0-19.0-3.2,63438,List1B,black,woman,,,,,"{""Q0"":""dave and ruth are dancing with each other""}","<img src=""stim_listB/dance4.gif""</stim_listB>",are dancing with each other,
null,"<div style=""font-size:60px;"">+</div>",,html-keyboard-response,336,1710481,0.0-19.0-0.3,63438,List1B,black,woman,,,,null,,,,
null,"<img src=""stim_listB/touch7.gif""</stim_listB>",,html-keyboard-response,337,1712483,0.0-19.0-1.3,63438,List1B,black,woman,,,,null,,,,
null,is touching,,html-keyboard-response,338,1714485,0.0-19.0-2.3,63438,List1B,black,woman,,,,null,,,,
12860,,,survey-text,339,1727348,0.0-19.0-3.3,63438,List1B,black,woman,,,,,"{""Q0"":""kate is touching jane""}","<img src=""stim_listB/touch7.gif""</stim_listB>",is touching,
null,"<div style=""font-size:60px;"">+</div>",,html-keyboard-response,340,1727850,0.0-19.0-0.4,63438,List1B,black,woman,,,,null,,,,
null,"<img src=""stim_listB/marry6.gif""</stim_listB>",,html-keyboard-response,341,1729852,0.0-19.0-1.4,63438,List1B,black,woman,,,,null,,,,
null,are marrying each other,,html-keyboard-response,342,1731854,0.0-19.0-2.4,63438,List1B,black,woman,,,,null,,,,
12578,,,survey-text,343,1744434,0.0-19.0-3.4,63438,List1B,black,woman,,,,,"{""Q0"":""fred and dave are marrying each other""}","<img src=""stim_listB/marry6.gif""</stim_listB>",are marrying each other,
null,"<div style=""font-size:60px;"">+</div>",,html-keyboard-response,344,1744936,0.0-19.0-0.5,63438,List1B,black,woman,,,,null,,,,
null,"<img src=""stim_listB/hug6.gif""</stim_listB>",,html-keyboard-response,345,1746938,0.0-19.0-1.5,63438,List1B,black,woman,,,,null,,,,
null,are hugging each other,,html-keyboard-response,346,1748940,0.0-19.0-2.5,63438,List1B,black,woman,,,,null,,,,
13152,,,survey-text,347,1762094,0.0-19.0-3.5,63438,List1B,black,woman,,,,,"{""Q0"":""dave and mike are hugging each other""}","<img src=""stim_listB/hug6.gif""</stim_listB>",are hugging each other,
null,"<div style=""font-size:60px;"">+</div>",,html-keyboard-response,348,1762598,0.0-19.0-0.6,63438,List1B,black,woman,,,,null,,,,
null,"<img src=""stim_listB/meet5.gif""</stim_listB>",,html-keyboard-response,349,1764600,0.0-19.0-1.6,63438,List1B,black,woman,,,,null,,,,
null,is meeting,,html-keyboard-response,350,1766602,0.0-19.0-2.6,63438,List1B,black,woman,,,,null,,,,
5680,,,survey-text,351,1772284,0.0-19.0-3.6,63438,List1B,black,woman,,,,,"{""Q0"":""dave is meeting mike""}","<img src=""stim_listB/meet5.gif""</stim_listB>",is meeting,
null,"<div style=""font-size:60px;"">+</div>",,html-keyboard-response,352,1772786,0.0-19.0-0.7,63438,List1B,black,woman,,,,null,,,,
null,"<img src=""stim_listB/hug1.gif""</stim_listB>",,html-keyboard-response,353,1774789,0.0-19.0-1.7,63438,List1B,black,woman,,,,null,,,,
null,is hugging,,html-keyboard-response,354,1776792,0.0-19.0-2.7,63438,List1B,black,woman,,,,null,,,,
10448,,,survey-text,355,1787242,0.0-19.0-3.7,63438,List1B,black,woman,,,,,"{""Q0"":""fred is hugging beth""}","<img src=""stim_listB/hug1.gif""</stim_listB>",is hugging,
null,"<div style=""font-size:60px;"">+</div>",,html-keyboard-response,356,1787744,0.0-19.0-0.8,63438,List1B,black,woman,,,,null,,,,
null,"<img src=""stim_listB/touch4.gif""</stim_listB>",,html-keyboard-response,357,1789747,0.0-19.0-1.8,63438,List1B,black,woman,,,,null,,,,
null,are touching each other,,html-keyboard-response,358,1791750,0.0-19.0-2.8,63438,List1B,black,woman,,,,null,,,,
14003,,,survey-text,359,1805758,0.0-19.0-3.8,63438,List1B,black,woman,,,,,"{""Q0"":""ruth and luke are touching each other""}","<img src=""stim_listB/touch4.gif""</stim_listB>",are touching each other,
null,"<div style=""font-size:60px;"">+</div>",,html-keyboard-response,360,1806262,0.0-19.0-0.9,63438,List1B,black,woman,,,,null,,,,
null,"<img src=""stim_listB/kiss3.gif""</stim_listB>",,html-keyboard-response,361,1808265,0.0-19.0-1.9,63438,List1B,black,woman,,,,null,,,,
null,is kissing,,html-keyboard-response,362,1810267,0.0-19.0-2.9,63438,List1B,black,woman,,,,null,,,,
11585,,,survey-text,363,1821857,0.0-19.0-3.9,63438,List1B,black,woman,,,,,"{""Q0"":""ruth is kissing luke""}","<img src=""stim_listB/kiss3.gif""</stim_listB>",is kissing,
null,"<div style=""font-size:60px;"">+</div>",,html-keyboard-response,364,1822360,0.0-19.0-0.10,63438,List1B,black,woman,,,,null,,,,
null,"<img src=""stim_listB/dance6.gif""</stim_listB>",,html-keyboard-response,365,1824362,0.0-19.0-1.10,63438,List1B,black,woman,,,,null,,,,
null,are dancing with each other,,html-keyboard-response,366,1826364,0.0-19.0-2.10,63438,List1B,black,woman,,,,null,,,,
12713,,,survey-text,367,1839081,0.0-19.0-3.10,63438,List1B,black,woman,,,,,"{""Q0"":""luke and mike are dancing with each other""}","<img src=""stim_listB/dance6.gif""</stim_listB>",are dancing with each other,
null,"<div style=""font-size:60px;"">+</div>",,html-keyboard-response,368,1839585,0.0-19.0-0.11,63438,List1B,black,woman,,,,null,,,,
null,"<img src=""stim_listB/marry4.gif""</stim_listB>",,html-keyboard-response,369,1841587,0.0-19.0-1.11,63438,List1B,black,woman,,,,null,,,,
null,are marrying each other,,html-keyboard-response,370,1843589,0.0-19.0-2.11,63438,List1B,black,woman,,,,null,,,,
13024,,,survey-text,371,1856616,0.0-19.0-3.11,63438,List1B,black,woman,,,,,"{""Q0"":""jane and luke are marrying each other""}","<img src=""stim_listB/marry4.gif""</stim_listB>",are marrying each other,
null,"<div style=""font-size:60px;"">+</div>",,html-keyboard-response,372,1857119,0.0-19.0-0.12,63438,List1B,black,woman,,,,null,,,,
null,"<img src=""stim_listB/fight3.gif""</stim_listB>",,html-keyboard-response,373,1859121,0.0-19.0-1.12,63438,List1B,black,woman,,,,null,,,,
null,is fighting,,html-keyboard-response,374,1861123,0.0-19.0-2.12,63438,List1B,black,woman,,,,null,,,,
9630,,,survey-text,375,1870756,0.0-19.0-3.12,63438,List1B,black,woman,,,,,"{""Q0"":""dave is fighting jane""}","<img src=""stim_listB/fight3.gif""</stim_listB>",is fighting,
null,"<div style=""font-size:60px;"">+</div>",,html-keyboard-response,376,1871259,0.0-19.0-0.13,63438,List1B,black,woman,,,,null,,,,
null,"<img src=""stim_listB/touch5.gif""</stim_listB>",,html-keyboard-response,377,1873262,0.0-19.0-1.13,63438,List1B,black,woman,,,,null,,,,
null,is touching,,html-keyboard-response,378,1875266,0.0-19.0-2.13,63438,List1B,black,woman,,,,null,,,,
9104,,,survey-text,379,1884374,0.0-19.0-3.13,63438,List1B,black,woman,,,,,"{""Q0"":""mike is touching dave""}","<img src=""stim_listB/touch5.gif""</stim_listB>",is touching,
null,"<div style=""font-size:60px;"">+</div>",,html-keyboard-response,380,1884877,0.0-19.0-0.14,63438,List1B,black,woman,,,,null,,,,
null,"<img src=""stim_listB/talk8.gif""</stim_listB>",,html-keyboard-response,381,1886879,0.0-19.0-1.14,63438,List1B,black,woman,,,,null,,,,
null,are talking to each other,,html-keyboard-response,382,1888881,0.0-19.0-2.14,63438,List1B,black,woman,,,,null,,,,
11277,,,survey-text,383,1900160,0.0-19.0-3.14,63438,List1B,black,woman,,,,,"{""Q0"":""kate and ruth are talking to each other""}","<img src=""stim_listB/talk8.gif""</stim_listB>",are talking to each other,
null,"<div style=""font-size:60px;"">+</div>",,html-keyboard-response,384,1900664,0.0-19.0-0.15,63438,List1B,black,woman,,,,null,,,,
null,"<img src=""stim_listB/dance1.gif""</stim_listB>",,html-keyboard-response,385,1902667,0.0-19.0-1.15,63438,List1B,black,woman,,,,null,,,,
null,is dancing with,,html-keyboard-response,386,1904669,0.0-19.0-2.15,63438,List1B,black,woman,,,,null,,,,
21540,,,survey-text,387,1926214,0.0-19.0-3.15,63438,List1B,black,woman,,,,,"{""Q0"":""kate and fred are dancing with each other""}","<img src=""stim_listB/dance1.gif""</stim_listB>",is dancing with,
null,"<div style=""font-size:60px;"">+</div>",,html-keyboard-response,388,1926716,0.0-19.0-0.16,63438,List1B,black,woman,,,,null,,,,
null,"<img src=""stim_listB/dance7.gif""</stim_listB>",,html-keyboard-response,389,1928719,0.0-19.0-1.16,63438,List1B,black,woman,,,,null,,,,
null,is dancing with,,html-keyboard-response,390,1930721,0.0-19.0-2.16,63438,List1B,black,woman,,,,null,,,,
9538,,,survey-text,391,1940261,0.0-19.0-3.16,63438,List1B,black,woman,,,,,"{""Q0"":""jane is dancing with beth""}","<img src=""stim_listB/dance7.gif""</stim_listB>",is dancing with,
null,"<div style=""font-size:60px;"">+</div>",,html-keyboard-response,392,1940764,0.0-19.0-0.17,63438,List1B,black,woman,,,,null,,,,
null,"<img src=""stim_listB/hug7.gif""</stim_listB>",,html-keyboard-response,393,1942766,0.0-19.0-1.17,63438,List1B,black,woman,,,,null,,,,
null,is hugging,,html-keyboard-response,394,1944768,0.0-19.0-2.17,63438,List1B,black,woman,,,,null,,,,
7983,,,survey-text,395,1952754,0.0-19.0-3.17,63438,List1B,black,woman,,,,,"{""Q0"":""ruth is hugging beth""}","<img src=""stim_listB/hug7.gif""</stim_listB>",is hugging,
null,"<div style=""font-size:60px;"">+</div>",,html-keyboard-response,396,1953257,0.0-19.0-0.18,63438,List1B,black,woman,,,,null,,,,
null,"<img src=""stim_listB/talk6.gif""</stim_listB>",,html-keyboard-response,397,1955259,0.0-19.0-1.18,63438,List1B,black,woman,,,,null,,,,
null,are talking to each other,,html-keyboard-response,398,1957261,0.0-19.0-2.18,63438,List1B,black,woman,,,,null,,,,
11744,,,survey-text,399,1969008,0.0-19.0-3.18,63438,List1B,black,woman,,,,,"{""Q0"":""luke and mike are talking to each other""}","<img src=""stim_listB/talk6.gif""</stim_listB>",are talking to each other,
null,"<div style=""font-size:60px;"">+</div>",,html-keyboard-response,400,1969511,0.0-19.0-0.19,63438,List1B,black,woman,,,,null,,,,
null,"<img src=""stim_listB/shout4.gif""</stim_listB>",,html-keyboard-response,401,1971515,0.0-19.0-1.19,63438,List1B,black,woman,,,,null,,,,
null,are shouting at each other,,html-keyboard-response,402,1973517,0.0-19.0-2.19,63438,List1B,black,woman,,,,null,,,,
10889,,,survey-text,403,1984408,0.0-19.0-3.19,63438,List1B,black,woman,,,,,"{""Q0"":""dave and jane are shouting at each other""}","<img src=""stim_listB/shout4.gif""</stim_listB>",are shouting at each other,
2448,<p>Thank you for completing that task.</p><p>The final part of this session is a short questionnaire.</p><p>Press Continue.</p>,0,html-button-response,404,1986859,0.0-20.0,63438,List1B,black,woman,,,,,,,,
30384,,,survey-text,405,2018251,0.0-21.0,63438,List1B,black,woman,,,,,"{""Q0"":""32"",""Q1"":""English"",""Q2"":""English"",""Q3"":""USA"",""Q4"":""African"",""Q5"":""Female""}",,,demographics
34817,,,survey-likert,406,2053088,0.0-22.0,63438,List1B,black,woman,,,,,"{""Q0"":5,""Q1"":5,""Q2"":5,""Q3"":6,""Q4"":6,""Q5"":5,""Q6"":5,""Q7"":"""",""Q8"":5,""Q9"":"""",""Q10"":5,""Q11"":5,""Q12"":5,""Q13"":5}",,,likert_race
49478,,,survey-likert,407,2102610,0.0-23.0,63438,List1B,black,woman,,,,,"{""Q0"":6,""Q1"":6,""Q2"":6,""Q3"":6,""Q4"":6,""Q5"":6,""Q6"":6,""Q7"":4,""Q8"":6,""Q9"":6,""Q10"":6,""Q11"":5,""Q12"":5,""Q13"":5}",,,likert_gender
5481,,,survey-text,408,2108125,0.0-24.0,63438,List1B,black,woman,,,,,"{""Q0"":""ccc""}",,,worker_id
24091,,,external-html,409,2134665,0.0-25.0,63438,List1B,black,woman,debrief.html,,,,,,,
