rt,stimulus,button_pressed,trial_type,trial_index,time_elapsed,internal_node_id,subject,list,ppt_race,ppt_gender,url,first_guess,correct,key_press,responses,image_type,phrase_type,test_part
1749,Welcome to the experiment. Press Continue to begin.,0,html-button-response,0,1752,0.0-0.0,63809,List2B,white,woman,,,,,,,,
41150,,,external-html,1,43952,0.0-1.0,63809,List2B,white,woman,consent.html,,,,,,,
7854,"<p>On the next page, you will see portraits of 8 people and their names.</p><p>Your first task is to take a few minutes to memorise the names of these people.</p><p>You will have to recall their names during the rest of the experiment, so it is</p><p>essential that you try to memorise these people and their names as best as you can.</p><br><p><strong>You will then be tested on your memory of these names and portraits.</strong></p><br><p>The experiment will start after you have completed this memory test.</p><br><p>Ready?</p>",0,html-button-response,2,51808,0.0-2.0,63809,List2B,white,woman,,,,,,,,
127330,"<img src='img/portrait_matrix_list2.JPG' style='width:900px;height:500px;''></img><p>If you have memorised all the portraits and names and are ready to start, press Continue.</p><p><strong>Please note: Your memory of these faces will be tested 4 times during this experiment.</strong></p>",0,html-button-response,3,180144,0.0-3.0-0.0,63809,List2B,white,woman,,,,,,,,
10244,"<img src=""portrait/BM1.jpg""style=""width:400px;height:400px;""></img>",4,html-button-response,4,191399,0.0-3.0-1.0,63809,List2B,white,woman,,TRUE,4,,,,,
null,CORRECT,,html-keyboard-response,5,192906,0.0-3.0-2.0-0.0,63809,List2B,white,woman,,,,null,,,,
9323,"<img src=""portrait/BW1.jpg""style=""width:400px;height:400px;""></img>",1,html-button-response,6,202232,0.0-3.0-4.0,63809,List2B,white,woman,,TRUE,0,,,,,
4051,"<img src=""portrait/BW1.jpg""style=""width:400px;height:400px;""></img>",0,html-button-response,7,207287,0.0-3.0-6.0-0.0,63809,List2B,white,woman,,FALSE,0,,,,,
null,CORRECT,,html-keyboard-response,8,208792,0.0-3.0-6.0-1.0-0.0,63809,List2B,white,woman,,,,null,,,,
2125,"<img src=""portrait/WW1.jpg""style=""width:400px;height:400px;""></img>",1,html-button-response,9,210920,0.0-3.0-7.0,63809,List2B,white,woman,,TRUE,1,,,,,
null,CORRECT,,html-keyboard-response,10,212423,0.0-3.0-8.0-0.0,63809,List2B,white,woman,,,,null,,,,
2051,"<img src=""portrait/WM2.jpg""style=""width:400px;height:400px;""></img>",7,html-button-response,11,214480,0.0-3.0-10.0,63809,List2B,white,woman,,TRUE,7,,,,,
null,CORRECT,,html-keyboard-response,12,215985,0.0-3.0-11.0-0.0,63809,List2B,white,woman,,,,null,,,,
3627,"<img src=""portrait/WW2.jpg""style=""width:400px;height:400px;""></img>",3,html-button-response,13,219615,0.0-3.0-13.0,63809,List2B,white,woman,,TRUE,3,,,,,
null,CORRECT,,html-keyboard-response,14,221118,0.0-3.0-14.0-0.0,63809,List2B,white,woman,,,,null,,,,
6511,"<img src=""portrait/BW2.jpg""style=""width:400px;height:400px;""></img>",2,html-button-response,15,227631,0.0-3.0-16.0,63809,List2B,white,woman,,TRUE,2,,,,,
null,CORRECT,,html-keyboard-response,16,229136,0.0-3.0-17.0-0.0,63809,List2B,white,woman,,,,null,,,,
2623,"<img src=""portrait/BM2.jpg""style=""width:400px;height:400px;""></img>",5,html-button-response,17,231767,0.0-3.0-19.0,63809,List2B,white,woman,,TRUE,5,,,,,
null,CORRECT,,html-keyboard-response,18,233271,0.0-3.0-20.0-0.0,63809,List2B,white,woman,,,,null,,,,
4700,"<img src=""portrait/WM1.jpg""style=""width:400px;height:400px;""></img>",6,html-button-response,19,237975,0.0-3.0-22.0,63809,List2B,white,woman,,TRUE,6,,,,,
null,CORRECT,,html-keyboard-response,20,239479,0.0-3.0-23.0-0.0,63809,List2B,white,woman,,,,null,,,,
1340,<p>You got 7 out of 8 right first time. Press Continue.</p>,0,html-button-response,21,240823,0.0-3.0-25.0,63809,List2B,white,woman,,,,,,,,
2364,"As you did not score 100%, the memory game will repeat. Press Continue.",0,html-button-response,22,244191,0.0-3.0-26.0-0.0,63809,List2B,white,woman,,,,,,,,
3719,"<img src='img/portrait_matrix_list2.JPG' style='width:900px;height:500px;''></img><p>If you have memorised all the portraits and names and are ready to start, press Continue.</p><p><strong>Please note: Your memory of these faces will be tested 4 times during this experiment.</strong></p>",0,html-button-response,23,248918,0.0-3.1-0.1,63809,List2B,white,woman,,,,,,,,
4035,"<img src=""portrait/BM1.jpg""style=""width:400px;height:400px;""></img>",4,html-button-response,24,253959,0.0-3.1-1.1,63809,List2B,white,woman,,TRUE,4,,,,,
null,CORRECT,,html-keyboard-response,25,255464,0.0-3.1-2.1-0.1,63809,List2B,white,woman,,,,null,,,,
1964,"<img src=""portrait/BW1.jpg""style=""width:400px;height:400px;""></img>",0,html-button-response,26,257431,0.0-3.1-4.1,63809,List2B,white,woman,,TRUE,0,,,,,
null,CORRECT,,html-keyboard-response,27,258934,0.0-3.1-5.1-0.1,63809,List2B,white,woman,,,,null,,,,
3662,"<img src=""portrait/WW1.jpg""style=""width:400px;height:400px;""></img>",1,html-button-response,28,262599,0.0-3.1-7.1,63809,List2B,white,woman,,TRUE,1,,,,,
null,CORRECT,,html-keyboard-response,29,264104,0.0-3.1-8.1-0.1,63809,List2B,white,woman,,,,null,,,,
1413,"<img src=""portrait/WM2.jpg""style=""width:400px;height:400px;""></img>",7,html-button-response,30,265519,0.0-3.1-10.1,63809,List2B,white,woman,,TRUE,7,,,,,
null,CORRECT,,html-keyboard-response,31,267022,0.0-3.1-11.1-0.1,63809,List2B,white,woman,,,,null,,,,
1398,"<img src=""portrait/WW2.jpg""style=""width:400px;height:400px;""></img>",3,html-button-response,32,268423,0.0-3.1-13.1,63809,List2B,white,woman,,TRUE,3,,,,,
null,CORRECT,,html-keyboard-response,33,269925,0.0-3.1-14.1-0.1,63809,List2B,white,woman,,,,null,,,,
3266,"<img src=""portrait/BW2.jpg""style=""width:400px;height:400px;""></img>",2,html-button-response,34,273192,0.0-3.1-16.1,63809,List2B,white,woman,,TRUE,2,,,,,
null,CORRECT,,html-keyboard-response,35,274698,0.0-3.1-17.1-0.1,63809,List2B,white,woman,,,,null,,,,
1857,"<img src=""portrait/BM2.jpg""style=""width:400px;height:400px;""></img>",5,html-button-response,36,276560,0.0-3.1-19.1,63809,List2B,white,woman,,TRUE,5,,,,,
null,CORRECT,,html-keyboard-response,37,278063,0.0-3.1-20.1-0.1,63809,List2B,white,woman,,,,null,,,,
1836,"<img src=""portrait/WM1.jpg""style=""width:400px;height:400px;""></img>",6,html-button-response,38,279903,0.0-3.1-22.1,63809,List2B,white,woman,,TRUE,6,,,,,
null,CORRECT,,html-keyboard-response,39,281406,0.0-3.1-23.1-0.1,63809,List2B,white,woman,,,,null,,,,
869,<p>You got 8 out of 8 right first time. Press Continue.</p>,0,html-button-response,40,282279,0.0-3.1-25.1,63809,List2B,white,woman,,,,,,,,
30460,"<p>In this experiment, you will view photographs of the people from the memory game interacting.</p><p>By using the <strong>exact</strong> phrase given <i>after</i> the photograph appears and recalling the correct names of the people in the photographs, form a sentence describing the interaction. You do not need to capitalise names.</p><p>Type your answer in the space provided. Please complete every sentence before moving onto the next trial.</p><p>You will only have a few seconds to memorise each given photograph and phrase before you can respond, so try your best to focus.</p><p>An example is given below. Press 'Continue' when you are ready.</p><img src='img/speaking_example_v2.jpg' style='width:800px;height:460px;''></img>",0,html-button-response,41,313744,0.0-4.0,63809,List2B,white,woman,,,,,,,,
1605,"<p>Before the experiment starts, you will watch two example trials. Press 'Continue'.</p>",0,html-button-response,42,316352,0.0-5.0,63809,List2B,white,woman,,,,,,,,
null,<img src='img/speaking_WW.gif'></img>,,html-keyboard-response,43,319359,0.0-6.0,63809,List2B,white,woman,,,,null,,,,
null,<p>is speaking to</p>,,html-keyboard-response,44,321360,0.0-7.0,63809,List2B,white,woman,,,,null,,,,
9398,<p><b>Answer:</b> jane is speaking to ruth</p>,0,html-button-response,45,330760,0.0-8.0,63809,List2B,white,woman,,,,,,,,
null,<img src='img/pointing_BM.gif'></img>,,html-keyboard-response,46,333766,0.0-9.0,63809,List2B,white,woman,,,,null,,,,
null,<p>are pointing at each other</p>,,html-keyboard-response,47,335769,0.0-10.0,63809,List2B,white,woman,,,,null,,,,
5684,<p><b>Answer:</b> fred and mike are pointing at each other</p>,0,html-button-response,48,341456,0.0-11.0,63809,List2B,white,woman,,,,,,,,
21316,"<p>Ready to start the experiment?</p><br><p><strong>Remember to describe the picture using a full sentence,</strong></p><p><strong>that combines the names of the people with the given phrase.</strong></p><p><strong>If you do not do this correctly you will not be paid.</strong></p><p><strong> You do not need to capitalise names or use punctuation.</strong></p><br><p>Press 'Continue' to begin.</p>",0,html-button-response,49,363776,0.0-12.0,63809,List2B,white,woman,,,,,,,,
null,"<div style=""font-size:60px;"">+</div>",,html-keyboard-response,50,365281,0.0-13.0-0.0,63809,List2B,white,woman,,,,null,,,,
null,"<img src=""stim_listB/shout6.gif""</stim_listB>",,html-keyboard-response,51,367287,0.0-13.0-1.0,63809,List2B,white,woman,,,,null,,,,
null,are shouting at each other,,html-keyboard-response,52,369290,0.0-13.0-2.0,63809,List2B,white,woman,,,,null,,,,
27100,,,survey-text,53,396392,0.0-13.0-3.0,63809,List2B,white,woman,,,,,"{""Q0"":""mike and dave are shouting at each other""}","<img src=""stim_listB/shout6.gif""</stim_listB>",are shouting at each other,
null,"<div style=""font-size:60px;"">+</div>",,html-keyboard-response,54,396896,0.0-13.0-0.1,63809,List2B,white,woman,,,,null,,,,
null,"<img src=""stim_listB/meet6.gif""</stim_listB>",,html-keyboard-response,55,398900,0.0-13.0-1.1,63809,List2B,white,woman,,,,null,,,,
null,are meeting each other,,html-keyboard-response,56,400902,0.0-13.0-2.1,63809,List2B,white,woman,,,,null,,,,
20949,,,survey-text,57,421856,0.0-13.0-3.1,63809,List2B,white,woman,,,,,"{""Q0"":""luke and fred are meetng each other""}","<img src=""stim_listB/meet6.gif""</stim_listB>",are meeting each other,
null,"<div style=""font-size:60px;"">+</div>",,html-keyboard-response,58,422357,0.0-13.0-0.2,63809,List2B,white,woman,,,,null,,,,
null,"<img src=""stim_listB/hug1.gif""</stim_listB>",,html-keyboard-response,59,424363,0.0-13.0-1.2,63809,List2B,white,woman,,,,null,,,,
null,is hugging,,html-keyboard-response,60,426365,0.0-13.0-2.2,63809,List2B,white,woman,,,,null,,,,
16687,,,survey-text,61,443056,0.0-13.0-3.2,63809,List2B,white,woman,,,,,"{""Q0"":""ruth is hugging luke""}","<img src=""stim_listB/hug1.gif""</stim_listB>",is hugging,
null,"<div style=""font-size:60px;"">+</div>",,html-keyboard-response,62,443558,0.0-13.0-0.3,63809,List2B,white,woman,,,,null,,,,
null,"<img src=""stim_listB/meet3.gif""</stim_listB>",,html-keyboard-response,63,445561,0.0-13.0-1.3,63809,List2B,white,woman,,,,null,,,,
null,is meeting,,html-keyboard-response,64,447563,0.0-13.0-2.3,63809,List2B,white,woman,,,,null,,,,
14164,,,survey-text,65,461728,0.0-13.0-3.3,63809,List2B,white,woman,,,,,"{""Q0"":""mike is meeting kate""}","<img src=""stim_listB/meet3.gif""</stim_listB>",is meeting,
null,"<div style=""font-size:60px;"">+</div>",,html-keyboard-response,66,462229,0.0-13.0-0.4,63809,List2B,white,woman,,,,null,,,,
null,"<img src=""stim_listB/dance5.gif""</stim_listB>",,html-keyboard-response,67,464232,0.0-13.0-1.4,63809,List2B,white,woman,,,,null,,,,
null,is dancing with,,html-keyboard-response,68,466235,0.0-13.0-2.4,63809,List2B,white,woman,,,,null,,,,
7786,,,survey-text,69,474024,0.0-13.0-3.4,63809,List2B,white,woman,,,,,"{""Q0"":""luke is dancing with mike""}","<img src=""stim_listB/dance5.gif""</stim_listB>",is dancing with,
null,"<div style=""font-size:60px;"">+</div>",,html-keyboard-response,70,474527,0.0-13.0-0.5,63809,List2B,white,woman,,,,null,,,,
null,"<img src=""stim_listB/fight8.gif""</stim_listB>",,html-keyboard-response,71,476534,0.0-13.0-1.5,63809,List2B,white,woman,,,,null,,,,
null,are fighting each other,,html-keyboard-response,72,478537,0.0-13.0-2.5,63809,List2B,white,woman,,,,null,,,,
11706,,,survey-text,73,490247,0.0-13.0-3.5,63809,List2B,white,woman,,,,,"{""Q0"":""ruth and beth are fighting each other""}","<img src=""stim_listB/fight8.gif""</stim_listB>",are fighting each other,
null,"<div style=""font-size:60px;"">+</div>",,html-keyboard-response,74,490749,0.0-13.0-0.6,63809,List2B,white,woman,,,,null,,,,
null,"<img src=""stim_listB/dance3.gif""</stim_listB>",,html-keyboard-response,75,492755,0.0-13.0-1.6,63809,List2B,white,woman,,,,null,,,,
null,is dancing with,,html-keyboard-response,76,494761,0.0-13.0-2.6,63809,List2B,white,woman,,,,null,,,,
11451,,,survey-text,77,506215,0.0-13.0-3.6,63809,List2B,white,woman,,,,,"{""Q0"":""fred and kate are dancing with each other""}","<img src=""stim_listB/dance3.gif""</stim_listB>",is dancing with,
null,"<div style=""font-size:60px;"">+</div>",,html-keyboard-response,78,506716,0.0-13.0-0.7,63809,List2B,white,woman,,,,null,,,,
null,"<img src=""stim_listB/touch4.gif""</stim_listB>",,html-keyboard-response,79,508719,0.0-13.0-1.7,63809,List2B,white,woman,,,,null,,,,
null,are touching each other,,html-keyboard-response,80,510721,0.0-13.0-2.7,63809,List2B,white,woman,,,,null,,,,
8229,,,survey-text,81,518951,0.0-13.0-3.7,63809,List2B,white,woman,,,,,"{""Q0"":""fred and beth are touching each other""}","<img src=""stim_listB/touch4.gif""</stim_listB>",are touching each other,
null,"<div style=""font-size:60px;"">+</div>",,html-keyboard-response,82,519454,0.0-13.0-0.8,63809,List2B,white,woman,,,,null,,,,
null,"<img src=""stim_listB/touch2.gif""</stim_listB>",,html-keyboard-response,83,521461,0.0-13.0-1.8,63809,List2B,white,woman,,,,null,,,,
null,are touching each other,,html-keyboard-response,84,523464,0.0-13.0-2.8,63809,List2B,white,woman,,,,null,,,,
11528,,,survey-text,85,534992,0.0-13.0-3.8,63809,List2B,white,woman,,,,,"{""Q0"":""luke and ruth are touching each other""}","<img src=""stim_listB/touch2.gif""</stim_listB>",are touching each other,
null,"<div style=""font-size:60px;"">+</div>",,html-keyboard-response,86,535494,0.0-13.0-0.9,63809,List2B,white,woman,,,,null,,,,
null,"<img src=""stim_listB/fight2.gif""</stim_listB>",,html-keyboard-response,87,537498,0.0-13.0-1.9,63809,List2B,white,woman,,,,null,,,,
null,are fighting each other,,html-keyboard-response,88,539501,0.0-13.0-2.9,63809,List2B,white,woman,,,,null,,,,
10983,,,survey-text,89,550488,0.0-13.0-3.9,63809,List2B,white,woman,,,,,"{""Q0"":""luke and ruth are fighting each other""}","<img src=""stim_listB/fight2.gif""</stim_listB>",are fighting each other,
null,"<div style=""font-size:60px;"">+</div>",,html-keyboard-response,90,550991,0.0-13.0-0.10,63809,List2B,white,woman,,,,null,,,,
null,"<img src=""stim_listB/meet2.gif""</stim_listB>",,html-keyboard-response,91,552997,0.0-13.0-1.10,63809,List2B,white,woman,,,,null,,,,
null,are meeting each other,,html-keyboard-response,92,555001,0.0-13.0-2.10,63809,List2B,white,woman,,,,null,,,,
10925,,,survey-text,93,565928,0.0-13.0-3.10,63809,List2B,white,woman,,,,,"{""Q0"":""luke and ruth are meeting each other""}","<img src=""stim_listB/meet2.gif""</stim_listB>",are meeting each other,
null,"<div style=""font-size:60px;"">+</div>",,html-keyboard-response,94,566430,0.0-13.0-0.11,63809,List2B,white,woman,,,,null,,,,
null,"<img src=""stim_listB/dance7.gif""</stim_listB>",,html-keyboard-response,95,568433,0.0-13.0-1.11,63809,List2B,white,woman,,,,null,,,,
null,is dancing with,,html-keyboard-response,96,570435,0.0-13.0-2.11,63809,List2B,white,woman,,,,null,,,,
7163,,,survey-text,97,577599,0.0-13.0-3.11,63809,List2B,white,woman,,,,,"{""Q0"":""ruth is dancing with kate""}","<img src=""stim_listB/dance7.gif""</stim_listB>",is dancing with,
null,"<div style=""font-size:60px;"">+</div>",,html-keyboard-response,98,578101,0.0-13.0-0.12,63809,List2B,white,woman,,,,null,,,,
null,"<img src=""stim_listB/hug7.gif""</stim_listB>",,html-keyboard-response,99,580104,0.0-13.0-1.12,63809,List2B,white,woman,,,,null,,,,
null,is hugging,,html-keyboard-response,100,582107,0.0-13.0-2.12,63809,List2B,white,woman,,,,null,,,,
5450,,,survey-text,101,587559,0.0-13.0-3.12,63809,List2B,white,woman,,,,,"{""Q0"":""ruth is hugging beth""}","<img src=""stim_listB/hug7.gif""</stim_listB>",is hugging,
null,"<div style=""font-size:60px;"">+</div>",,html-keyboard-response,102,588062,0.0-13.0-0.13,63809,List2B,white,woman,,,,null,,,,
null,"<img src=""stim_listB/argue8.gif""</stim_listB>",,html-keyboard-response,103,590067,0.0-13.0-1.13,63809,List2B,white,woman,,,,null,,,,
null,are arguing with each other,,html-keyboard-response,104,592069,0.0-13.0-2.13,63809,List2B,white,woman,,,,null,,,,
12095,,,survey-text,105,604167,0.0-13.0-3.13,63809,List2B,white,woman,,,,,"{""Q0"":""ruth and kate are arguing with each other""}","<img src=""stim_listB/argue8.gif""</stim_listB>",are arguing with each other,
null,"<div style=""font-size:60px;"">+</div>",,html-keyboard-response,106,604669,0.0-13.0-0.14,63809,List2B,white,woman,,,,null,,,,
null,"<img src=""stim_listB/dance4.gif""</stim_listB>",,html-keyboard-response,107,606672,0.0-13.0-1.14,63809,List2B,white,woman,,,,null,,,,
null,are dancing with each other,,html-keyboard-response,108,608675,0.0-13.0-2.14,63809,List2B,white,woman,,,,null,,,,
10171,,,survey-text,109,618847,0.0-13.0-3.14,63809,List2B,white,woman,,,,,"{""Q0"":""mike and beth and dancing with each other""}","<img src=""stim_listB/dance4.gif""</stim_listB>",are dancing with each other,
null,"<div style=""font-size:60px;"">+</div>",,html-keyboard-response,110,619349,0.0-13.0-0.15,63809,List2B,white,woman,,,,null,,,,
null,"<img src=""stim_listB/shout4.gif""</stim_listB>",,html-keyboard-response,111,621353,0.0-13.0-1.15,63809,List2B,white,woman,,,,null,,,,
null,are shouting at each other,,html-keyboard-response,112,623356,0.0-13.0-2.15,63809,List2B,white,woman,,,,null,,,,
7722,,,survey-text,113,631079,0.0-13.0-3.15,63809,List2B,white,woman,,,,,"{""Q0"":""mike and kate are shouting at each other""}","<img src=""stim_listB/shout4.gif""</stim_listB>",are shouting at each other,
null,"<div style=""font-size:60px;"">+</div>",,html-keyboard-response,114,631579,0.0-13.0-0.16,63809,List2B,white,woman,,,,null,,,,
null,"<img src=""stim_listB/fight3.gif""</stim_listB>",,html-keyboard-response,115,633583,0.0-13.0-1.16,63809,List2B,white,woman,,,,null,,,,
null,is fighting,,html-keyboard-response,116,635584,0.0-13.0-2.16,63809,List2B,white,woman,,,,null,,,,
8318,,,survey-text,117,643904,0.0-13.0-3.16,63809,List2B,white,woman,,,,,"{""Q0"":""mike is fighting kate""}","<img src=""stim_listB/fight3.gif""</stim_listB>",is fighting,
null,"<div style=""font-size:60px;"">+</div>",,html-keyboard-response,118,644405,0.0-13.0-0.17,63809,List2B,white,woman,,,,null,,,,
null,"<img src=""stim_listB/touch5.gif""</stim_listB>",,html-keyboard-response,119,646408,0.0-13.0-1.17,63809,List2B,white,woman,,,,null,,,,
null,is touching,,html-keyboard-response,120,648411,0.0-13.0-2.17,63809,List2B,white,woman,,,,null,,,,
5788,,,survey-text,121,654199,0.0-13.0-3.17,63809,List2B,white,woman,,,,,"{""Q0"":""mike is touching dave""}","<img src=""stim_listB/touch5.gif""</stim_listB>",is touching,
null,"<div style=""font-size:60px;"">+</div>",,html-keyboard-response,122,654700,0.0-13.0-0.18,63809,List2B,white,woman,,,,null,,,,
null,"<img src=""stim_listB/kiss8.gif""</stim_listB>",,html-keyboard-response,123,656703,0.0-13.0-1.18,63809,List2B,white,woman,,,,null,,,,
null,are kissing each other,,html-keyboard-response,124,658703,0.0-13.0-2.18,63809,List2B,white,woman,,,,null,,,,
15290,,,survey-text,125,673999,0.0-13.0-3.18,63809,List2B,white,woman,,,,,"{""Q0"":""jane is kissing kate""}","<img src=""stim_listB/kiss8.gif""</stim_listB>",are kissing each other,
null,"<div style=""font-size:60px;"">+</div>",,html-keyboard-response,126,674500,0.0-13.0-0.19,63809,List2B,white,woman,,,,null,,,,
null,"<img src=""stim_listB/meet8.gif""</stim_listB>",,html-keyboard-response,127,676503,0.0-13.0-1.19,63809,List2B,white,woman,,,,null,,,,
null,are meeting each other,,html-keyboard-response,128,678505,0.0-13.0-2.19,63809,List2B,white,woman,,,,null,,,,
8395,,,survey-text,129,686904,0.0-13.0-3.19,63809,List2B,white,woman,,,,,"{""Q0"":""ruth and beth are meeting each other""}","<img src=""stim_listB/meet8.gif""</stim_listB>",are meeting each other,
10995,"<img src='img/portrait_matrix_list2.JPG' style='width:900px;height:500px;''></img><p>If you have memorised all the portraits and names and are ready to start, press Continue.</p><p><strong>Please note: Your memory of these faces will be tested 4 times during this experiment.</strong></p>",0,html-button-response,130,697901,0.0-14.0-0.0,63809,List2B,white,woman,,,,,,,,
3142,"<img src=""portrait/WM1.jpg""style=""width:400px;height:400px;""></img>",6,html-button-response,131,702056,0.0-14.0-1.0,63809,List2B,white,woman,,TRUE,6,,,,,
null,CORRECT,,html-keyboard-response,132,703562,0.0-14.0-2.0-0.0,63809,List2B,white,woman,,,,null,,,,
2913,"<img src=""portrait/BM2.jpg""style=""width:400px;height:400px;""></img>",5,html-button-response,133,706479,0.0-14.0-4.0,63809,List2B,white,woman,,TRUE,5,,,,,
null,CORRECT,,html-keyboard-response,134,707984,0.0-14.0-5.0-0.0,63809,List2B,white,woman,,,,null,,,,
1355,"<img src=""portrait/BM1.jpg""style=""width:400px;height:400px;""></img>",4,html-button-response,135,709343,0.0-14.0-7.0,63809,List2B,white,woman,,TRUE,4,,,,,
null,CORRECT,,html-keyboard-response,136,710847,0.0-14.0-8.0-0.0,63809,List2B,white,woman,,,,null,,,,
1117,"<img src=""portrait/WM2.jpg""style=""width:400px;height:400px;""></img>",7,html-button-response,137,711967,0.0-14.0-10.0,63809,List2B,white,woman,,TRUE,7,,,,,
null,CORRECT,,html-keyboard-response,138,713469,0.0-14.0-11.0-0.0,63809,List2B,white,woman,,,,null,,,,
1319,"<img src=""portrait/WW2.jpg""style=""width:400px;height:400px;""></img>",3,html-button-response,139,714791,0.0-14.0-13.0,63809,List2B,white,woman,,TRUE,3,,,,,
null,CORRECT,,html-keyboard-response,140,716295,0.0-14.0-14.0-0.0,63809,List2B,white,woman,,,,null,,,,
1380,"<img src=""portrait/WW1.jpg""style=""width:400px;height:400px;""></img>",1,html-button-response,141,717679,0.0-14.0-16.0,63809,List2B,white,woman,,TRUE,1,,,,,
null,CORRECT,,html-keyboard-response,142,719182,0.0-14.0-17.0-0.0,63809,List2B,white,woman,,,,null,,,,
2605,"<img src=""portrait/BW1.jpg""style=""width:400px;height:400px;""></img>",0,html-button-response,143,721791,0.0-14.0-19.0,63809,List2B,white,woman,,TRUE,0,,,,,
null,CORRECT,,html-keyboard-response,144,723294,0.0-14.0-20.0-0.0,63809,List2B,white,woman,,,,null,,,,
2766,"<img src=""portrait/BW2.jpg""style=""width:400px;height:400px;""></img>",2,html-button-response,145,726063,0.0-14.0-22.0,63809,List2B,white,woman,,TRUE,2,,,,,
null,CORRECT,,html-keyboard-response,146,727569,0.0-14.0-23.0-0.0,63809,List2B,white,woman,,,,null,,,,
941,<p>You got 8 out of 8 right first time. Press Continue.</p>,0,html-button-response,147,728511,0.0-14.0-25.0,63809,List2B,white,woman,,,,,,,,
null,"<div style=""font-size:60px;"">+</div>",,html-keyboard-response,148,730015,0.0-15.0-0.0,63809,List2B,white,woman,,,,null,,,,
null,"<img src=""stim_listB/dance1.gif""</stim_listB>",,html-keyboard-response,149,732019,0.0-15.0-1.0,63809,List2B,white,woman,,,,null,,,,
null,is dancing with,,html-keyboard-response,150,734022,0.0-15.0-2.0,63809,List2B,white,woman,,,,null,,,,
8456,,,survey-text,151,742480,0.0-15.0-3.0,63809,List2B,white,woman,,,,,"{""Q0"":""luke is dancing with jane""}","<img src=""stim_listB/dance1.gif""</stim_listB>",is dancing with,
null,"<div style=""font-size:60px;"">+</div>",,html-keyboard-response,152,742983,0.0-15.0-0.1,63809,List2B,white,woman,,,,null,,,,
null,"<img src=""stim_listB/kiss7.gif""</stim_listB>",,html-keyboard-response,153,744992,0.0-15.0-1.1,63809,List2B,white,woman,,,,null,,,,
null,is kissing,,html-keyboard-response,154,746995,0.0-15.0-2.1,63809,List2B,white,woman,,,,null,,,,
11344,,,survey-text,155,758344,0.0-15.0-3.1,63809,List2B,white,woman,,,,,"{""Q0"":""ruth is kissing beth""}","<img src=""stim_listB/kiss7.gif""</stim_listB>",is kissing,
null,"<div style=""font-size:60px;"">+</div>",,html-keyboard-response,156,758846,0.0-15.0-0.2,63809,List2B,white,woman,,,,null,,,,
null,"<img src=""stim_listB/talk2.gif""</stim_listB>",,html-keyboard-response,157,760849,0.0-15.0-1.2,63809,List2B,white,woman,,,,null,,,,
null,are talking to each other,,html-keyboard-response,158,762851,0.0-15.0-2.2,63809,List2B,white,woman,,,,null,,,,
12993,,,survey-text,159,775848,0.0-15.0-3.2,63809,List2B,white,woman,,,,,"{""Q0"":""dave and ruth are talking to each other""}","<img src=""stim_listB/talk2.gif""</stim_listB>",are talking to each other,
null,"<div style=""font-size:60px;"">+</div>",,html-keyboard-response,160,776349,0.0-15.0-0.3,63809,List2B,white,woman,,,,null,,,,
null,"<img src=""stim_listB/fight1.gif""</stim_listB>",,html-keyboard-response,161,778352,0.0-15.0-1.3,63809,List2B,white,woman,,,,null,,,,
null,is fighting,,html-keyboard-response,162,780353,0.0-15.0-2.3,63809,List2B,white,woman,,,,null,,,,
6972,,,survey-text,163,787327,0.0-15.0-3.3,63809,List2B,white,woman,,,,,"{""Q0"":""jane is fighitng dave""}","<img src=""stim_listB/fight1.gif""</stim_listB>",is fighting,
null,"<div style=""font-size:60px;"">+</div>",,html-keyboard-response,164,787829,0.0-15.0-0.4,63809,List2B,white,woman,,,,null,,,,
null,"<img src=""stim_listB/hug6.gif""</stim_listB>",,html-keyboard-response,165,789831,0.0-15.0-1.4,63809,List2B,white,woman,,,,null,,,,
null,are hugging each other,,html-keyboard-response,166,791833,0.0-15.0-2.4,63809,List2B,white,woman,,,,null,,,,
7406,,,survey-text,167,799239,0.0-15.0-3.4,63809,List2B,white,woman,,,,,"{""Q0"":""dave and mike are hugging each other""}","<img src=""stim_listB/hug6.gif""</stim_listB>",are hugging each other,
null,"<div style=""font-size:60px;"">+</div>",,html-keyboard-response,168,799741,0.0-15.0-0.5,63809,List2B,white,woman,,,,null,,,,
null,"<img src=""stim_listB/marry2.gif""</stim_listB>",,html-keyboard-response,169,801742,0.0-15.0-1.5,63809,List2B,white,woman,,,,null,,,,
null,are marrying each other,,html-keyboard-response,170,803747,0.0-15.0-2.5,63809,List2B,white,woman,,,,null,,,,
7857,,,survey-text,171,811607,0.0-15.0-3.5,63809,List2B,white,woman,,,,,"{""Q0"":""luke and jane are marrying each other""}","<img src=""stim_listB/marry2.gif""</stim_listB>",are marrying each other,
null,"<div style=""font-size:60px;"">+</div>",,html-keyboard-response,172,812111,0.0-15.0-0.6,63809,List2B,white,woman,,,,null,,,,
null,"<img src=""stim_listB/hug5.gif""</stim_listB>",,html-keyboard-response,173,814118,0.0-15.0-1.6,63809,List2B,white,woman,,,,null,,,,
null,is hugging,,html-keyboard-response,174,816125,0.0-15.0-2.6,63809,List2B,white,woman,,,,null,,,,
12576,,,survey-text,175,828704,0.0-15.0-3.6,63809,List2B,white,woman,,,,,"{""Q0"":""luke is hugging fred""}","<img src=""stim_listB/hug5.gif""</stim_listB>",is hugging,
null,"<div style=""font-size:60px;"">+</div>",,html-keyboard-response,176,829206,0.0-15.0-0.7,63809,List2B,white,woman,,,,null,,,,
null,"<img src=""stim_listB/touch7.gif""</stim_listB>",,html-keyboard-response,177,831210,0.0-15.0-1.7,63809,List2B,white,woman,,,,null,,,,
null,is touching,,html-keyboard-response,178,833213,0.0-15.0-2.7,63809,List2B,white,woman,,,,null,,,,
9222,,,survey-text,179,842438,0.0-15.0-3.7,63809,List2B,white,woman,,,,,"{""Q0"":""jane is touching kate""}","<img src=""stim_listB/touch7.gif""</stim_listB>",is touching,
null,"<div style=""font-size:60px;"">+</div>",,html-keyboard-response,180,842940,0.0-15.0-0.8,63809,List2B,white,woman,,,,null,,,,
null,"<img src=""stim_listB/marry3.gif""</stim_listB>",,html-keyboard-response,181,844944,0.0-15.0-1.8,63809,List2B,white,woman,,,,null,,,,
null,is marrying,,html-keyboard-response,182,846947,0.0-15.0-2.8,63809,List2B,white,woman,,,,null,,,,
11182,,,survey-text,183,858134,0.0-15.0-3.8,63809,List2B,white,woman,,,,,"{""Q0"":""mike is marrying beth""}","<img src=""stim_listB/marry3.gif""</stim_listB>",is marrying,
null,"<div style=""font-size:60px;"">+</div>",,html-keyboard-response,184,858636,0.0-15.0-0.9,63809,List2B,white,woman,,,,null,,,,
null,"<img src=""stim_listB/argue1.gif""</stim_listB>",,html-keyboard-response,185,860638,0.0-15.0-1.9,63809,List2B,white,woman,,,,null,,,,
null,is arguing with,,html-keyboard-response,186,862640,0.0-15.0-2.9,63809,List2B,white,woman,,,,null,,,,
5174,,,survey-text,187,867815,0.0-15.0-3.9,63809,List2B,white,woman,,,,,"{""Q0"":""jane is arguing with dave""}","<img src=""stim_listB/argue1.gif""</stim_listB>",is arguing with,
null,"<div style=""font-size:60px;"">+</div>",,html-keyboard-response,188,868317,0.0-15.0-0.10,63809,List2B,white,woman,,,,null,,,,
null,"<img src=""stim_listB/kiss1.gif""</stim_listB>",,html-keyboard-response,189,870320,0.0-15.0-1.10,63809,List2B,white,woman,,,,null,,,,
null,is kissing,,html-keyboard-response,190,872322,0.0-15.0-2.10,63809,List2B,white,woman,,,,null,,,,
9848,,,survey-text,191,882175,0.0-15.0-3.10,63809,List2B,white,woman,,,,,"{""Q0"":""ruth is kissing luke""}","<img src=""stim_listB/kiss1.gif""</stim_listB>",is kissing,
null,"<div style=""font-size:60px;"">+</div>",,html-keyboard-response,192,882678,0.0-15.0-0.11,63809,List2B,white,woman,,,,null,,,,
null,"<img src=""stim_listB/shout7.gif""</stim_listB>",,html-keyboard-response,193,884684,0.0-15.0-1.11,63809,List2B,white,woman,,,,null,,,,
null,is shouting at,,html-keyboard-response,194,886689,0.0-15.0-2.11,63809,List2B,white,woman,,,,null,,,,
7755,,,survey-text,195,894447,0.0-15.0-3.11,63809,List2B,white,woman,,,,,"{""Q0"":""ruth is shouting at beth""}","<img src=""stim_listB/shout7.gif""</stim_listB>",is shouting at,
null,"<div style=""font-size:60px;"">+</div>",,html-keyboard-response,196,894948,0.0-15.0-0.12,63809,List2B,white,woman,,,,null,,,,
null,"<img src=""stim_listB/fight6.gif""</stim_listB>",,html-keyboard-response,197,896950,0.0-15.0-1.12,63809,List2B,white,woman,,,,null,,,,
null,are fighting each other,,html-keyboard-response,198,898953,0.0-15.0-2.12,63809,List2B,white,woman,,,,null,,,,
10644,,,survey-text,199,909599,0.0-15.0-3.12,63809,List2B,white,woman,,,,,"{""Q0"":""luke and fred are fighting each other""}","<img src=""stim_listB/fight6.gif""</stim_listB>",are fighting each other,
null,"<div style=""font-size:60px;"">+</div>",,html-keyboard-response,200,910101,0.0-15.0-0.13,63809,List2B,white,woman,,,,null,,,,
null,"<img src=""stim_listB/marry1.gif""</stim_listB>",,html-keyboard-response,201,912105,0.0-15.0-1.13,63809,List2B,white,woman,,,,null,,,,
null,is marrying,,html-keyboard-response,202,914109,0.0-15.0-2.13,63809,List2B,white,woman,,,,null,,,,
6137,,,survey-text,203,920247,0.0-15.0-3.13,63809,List2B,white,woman,,,,,"{""Q0"":""dave is marrying ruth""}","<img src=""stim_listB/marry1.gif""</stim_listB>",is marrying,
null,"<div style=""font-size:60px;"">+</div>",,html-keyboard-response,204,920748,0.0-15.0-0.14,63809,List2B,white,woman,,,,null,,,,
null,"<img src=""stim_listB/shout1.gif""</stim_listB>",,html-keyboard-response,205,922753,0.0-15.0-1.14,63809,List2B,white,woman,,,,null,,,,
null,is shouting at,,html-keyboard-response,206,924754,0.0-15.0-2.14,63809,List2B,white,woman,,,,null,,,,
6356,,,survey-text,207,931112,0.0-15.0-3.14,63809,List2B,white,woman,,,,,"{""Q0"":""luke is shotuing at ruth""}","<img src=""stim_listB/shout1.gif""</stim_listB>",is shouting at,
null,"<div style=""font-size:60px;"">+</div>",,html-keyboard-response,208,931613,0.0-15.0-0.15,63809,List2B,white,woman,,,,null,,,,
null,"<img src=""stim_listB/hug4.gif""</stim_listB>",,html-keyboard-response,209,933618,0.0-15.0-1.15,63809,List2B,white,woman,,,,null,,,,
null,are hugging each other,,html-keyboard-response,210,935620,0.0-15.0-2.15,63809,List2B,white,woman,,,,null,,,,
6066,,,survey-text,211,941687,0.0-15.0-3.15,63809,List2B,white,woman,,,,,"{""Q0"":""mike and kate are hugging each other""}","<img src=""stim_listB/hug4.gif""</stim_listB>",are hugging each other,
null,"<div style=""font-size:60px;"">+</div>",,html-keyboard-response,212,942188,0.0-15.0-0.16,63809,List2B,white,woman,,,,null,,,,
null,"<img src=""stim_listB/fight7.gif""</stim_listB>",,html-keyboard-response,213,944191,0.0-15.0-1.16,63809,List2B,white,woman,,,,null,,,,
null,is fighting,,html-keyboard-response,214,946192,0.0-15.0-2.16,63809,List2B,white,woman,,,,null,,,,
10494,,,survey-text,215,956687,0.0-15.0-3.16,63809,List2B,white,woman,,,,,"{""Q0"":""jane is fighting kate""}","<img src=""stim_listB/fight7.gif""</stim_listB>",is fighting,
null,"<div style=""font-size:60px;"">+</div>",,html-keyboard-response,216,957188,0.0-15.0-0.17,63809,List2B,white,woman,,,,null,,,,
null,"<img src=""stim_listB/marry6.gif""</stim_listB>",,html-keyboard-response,217,959191,0.0-15.0-1.17,63809,List2B,white,woman,,,,null,,,,
null,are marrying each other,,html-keyboard-response,218,961192,0.0-15.0-2.17,63809,List2B,white,woman,,,,null,,,,
6222,,,survey-text,219,967415,0.0-15.0-3.17,63809,List2B,white,woman,,,,,"{""Q0"":""luke and mike are marrying each other""}","<img src=""stim_listB/marry6.gif""</stim_listB>",are marrying each other,
null,"<div style=""font-size:60px;"">+</div>",,html-keyboard-response,220,967916,0.0-15.0-0.18,63809,List2B,white,woman,,,,null,,,,
null,"<img src=""stim_listB/shout5.gif""</stim_listB>",,html-keyboard-response,221,969918,0.0-15.0-1.18,63809,List2B,white,woman,,,,null,,,,
null,is shouting at,,html-keyboard-response,222,971919,0.0-15.0-2.18,63809,List2B,white,woman,,,,null,,,,
5669,,,survey-text,223,977590,0.0-15.0-3.18,63809,List2B,white,woman,,,,,"{""Q0"":""fred is shouting at luke""}","<img src=""stim_listB/shout5.gif""</stim_listB>",is shouting at,
null,"<div style=""font-size:60px;"">+</div>",,html-keyboard-response,224,978093,0.0-15.0-0.19,63809,List2B,white,woman,,,,null,,,,
null,"<img src=""stim_listB/kiss5.gif""</stim_listB>",,html-keyboard-response,225,980095,0.0-15.0-1.19,63809,List2B,white,woman,,,,null,,,,
null,is kissing,,html-keyboard-response,226,982098,0.0-15.0-2.19,63809,List2B,white,woman,,,,null,,,,
8045,,,survey-text,227,990143,0.0-15.0-3.19,63809,List2B,white,woman,,,,,"{""Q0"":""fred is kissing luke""}","<img src=""stim_listB/kiss5.gif""</stim_listB>",is kissing,
1973,"<img src='img/portrait_matrix_list2.JPG' style='width:900px;height:500px;''></img><p>If you have memorised all the portraits and names and are ready to start, press Continue.</p><p><strong>Please note: Your memory of these faces will be tested 4 times during this experiment.</strong></p>",0,html-button-response,228,992119,0.0-16.0-0.0,63809,List2B,white,woman,,,,,,,,
1987,"<img src=""portrait/WW1.jpg""style=""width:400px;height:400px;""></img>",1,html-button-response,229,995111,0.0-16.0-1.0,63809,List2B,white,woman,,TRUE,1,,,,,
null,CORRECT,,html-keyboard-response,230,996616,0.0-16.0-2.0-0.0,63809,List2B,white,woman,,,,null,,,,
1611,"<img src=""portrait/BM1.jpg""style=""width:400px;height:400px;""></img>",4,html-button-response,231,998232,0.0-16.0-4.0,63809,List2B,white,woman,,TRUE,4,,,,,
null,CORRECT,,html-keyboard-response,232,999735,0.0-16.0-5.0-0.0,63809,List2B,white,woman,,,,null,,,,
1349,"<img src=""portrait/WW2.jpg""style=""width:400px;height:400px;""></img>",3,html-button-response,233,1001088,0.0-16.0-7.0,63809,List2B,white,woman,,TRUE,3,,,,,
null,CORRECT,,html-keyboard-response,234,1002591,0.0-16.0-8.0-0.0,63809,List2B,white,woman,,,,null,,,,
1444,"<img src=""portrait/BW2.jpg""style=""width:400px;height:400px;""></img>",2,html-button-response,235,1004038,0.0-16.0-10.0,63809,List2B,white,woman,,TRUE,2,,,,,
null,CORRECT,,html-keyboard-response,236,1005542,0.0-16.0-11.0-0.0,63809,List2B,white,woman,,,,null,,,,
1248,"<img src=""portrait/WM1.jpg""style=""width:400px;height:400px;""></img>",6,html-button-response,237,1006791,0.0-16.0-13.0,63809,List2B,white,woman,,TRUE,6,,,,,
null,CORRECT,,html-keyboard-response,238,1008296,0.0-16.0-14.0-0.0,63809,List2B,white,woman,,,,null,,,,
1595,"<img src=""portrait/BW1.jpg""style=""width:400px;height:400px;""></img>",0,html-button-response,239,1009895,0.0-16.0-16.0,63809,List2B,white,woman,,TRUE,0,,,,,
null,CORRECT,,html-keyboard-response,240,1011400,0.0-16.0-17.0-0.0,63809,List2B,white,woman,,,,null,,,,
853,"<img src=""portrait/WM2.jpg""style=""width:400px;height:400px;""></img>",7,html-button-response,241,1012256,0.0-16.0-19.0,63809,List2B,white,woman,,TRUE,7,,,,,
null,CORRECT,,html-keyboard-response,242,1013757,0.0-16.0-20.0-0.0,63809,List2B,white,woman,,,,null,,,,
2744,"<img src=""portrait/BM2.jpg""style=""width:400px;height:400px;""></img>",5,html-button-response,243,1016503,0.0-16.0-22.0,63809,List2B,white,woman,,TRUE,5,,,,,
null,CORRECT,,html-keyboard-response,244,1018005,0.0-16.0-23.0-0.0,63809,List2B,white,woman,,,,null,,,,
907,<p>You got 8 out of 8 right first time. Press Continue.</p>,0,html-button-response,245,1018920,0.0-16.0-25.0,63809,List2B,white,woman,,,,,,,,
null,"<div style=""font-size:60px;"">+</div>",,html-keyboard-response,246,1020425,0.0-17.0-0.0,63809,List2B,white,woman,,,,null,,,,
null,"<img src=""stim_listB/marry7.gif""</stim_listB>",,html-keyboard-response,247,1022429,0.0-17.0-1.0,63809,List2B,white,woman,,,,null,,,,
null,is marrying,,html-keyboard-response,248,1024429,0.0-17.0-2.0,63809,List2B,white,woman,,,,null,,,,
14849,,,survey-text,249,1039279,0.0-17.0-3.0,63809,List2B,white,woman,,,,,"{""Q0"":""jane is marrying beth""}","<img src=""stim_listB/marry7.gif""</stim_listB>",is marrying,
null,"<div style=""font-size:60px;"">+</div>",,html-keyboard-response,250,1039781,0.0-17.0-0.1,63809,List2B,white,woman,,,,null,,,,
null,"<img src=""stim_listB/hug3.gif""</stim_listB>",,html-keyboard-response,251,1041783,0.0-17.0-1.1,63809,List2B,white,woman,,,,null,,,,
null,is hugging,,html-keyboard-response,252,1043785,0.0-17.0-2.1,63809,List2B,white,woman,,,,null,,,,
5709,,,survey-text,253,1049495,0.0-17.0-3.1,63809,List2B,white,woman,,,,,"{""Q0"":""beth is hugging fred""}","<img src=""stim_listB/hug3.gif""</stim_listB>",is hugging,
null,"<div style=""font-size:60px;"">+</div>",,html-keyboard-response,254,1049997,0.0-17.0-0.2,63809,List2B,white,woman,,,,null,,,,
null,"<img src=""stim_listB/touch3.gif""</stim_listB>",,html-keyboard-response,255,1052001,0.0-17.0-1.2,63809,List2B,white,woman,,,,null,,,,
null,is touching,,html-keyboard-response,256,1054002,0.0-17.0-2.2,63809,List2B,white,woman,,,,null,,,,
6676,,,survey-text,257,1060679,0.0-17.0-3.2,63809,List2B,white,woman,,,,,"{""Q0"":""mike is touching kate""}","<img src=""stim_listB/touch3.gif""</stim_listB>",is touching,
null,"<div style=""font-size:60px;"">+</div>",,html-keyboard-response,258,1061180,0.0-17.0-0.3,63809,List2B,white,woman,,,,null,,,,
null,"<img src=""stim_listB/kiss2.gif""</stim_listB>",,html-keyboard-response,259,1063181,0.0-17.0-1.3,63809,List2B,white,woman,,,,null,,,,
null,are kissing each other,,html-keyboard-response,260,1065184,0.0-17.0-2.3,63809,List2B,white,woman,,,,null,,,,
9863,,,survey-text,261,1075048,0.0-17.0-3.3,63809,List2B,white,woman,,,,,"{""Q0"":""dave and jane are kissing each other""}","<img src=""stim_listB/kiss2.gif""</stim_listB>",are kissing each other,
null,"<div style=""font-size:60px;"">+</div>",,html-keyboard-response,262,1075549,0.0-17.0-0.4,63809,List2B,white,woman,,,,null,,,,
null,"<img src=""stim_listB/talk4.gif""</stim_listB>",,html-keyboard-response,263,1077552,0.0-17.0-1.4,63809,List2B,white,woman,,,,null,,,,
null,are talking to each other,,html-keyboard-response,264,1079553,0.0-17.0-2.4,63809,List2B,white,woman,,,,null,,,,
9757,,,survey-text,265,1089311,0.0-17.0-3.4,63809,List2B,white,woman,,,,,"{""Q0"":""mike and beth are talking to each other""}","<img src=""stim_listB/talk4.gif""</stim_listB>",are talking to each other,
null,"<div style=""font-size:60px;"">+</div>",,html-keyboard-response,266,1089812,0.0-17.0-0.5,63809,List2B,white,woman,,,,null,,,,
null,"<img src=""stim_listB/kiss3.gif""</stim_listB>",,html-keyboard-response,267,1091815,0.0-17.0-1.5,63809,List2B,white,woman,,,,null,,,,
null,is kissing,,html-keyboard-response,268,1093817,0.0-17.0-2.5,63809,List2B,white,woman,,,,null,,,,
9364,,,survey-text,269,1103182,0.0-17.0-3.5,63809,List2B,white,woman,,,,,"{""Q0"":""fred is kissing beth""}","<img src=""stim_listB/kiss3.gif""</stim_listB>",is kissing,
null,"<div style=""font-size:60px;"">+</div>",,html-keyboard-response,270,1103683,0.0-17.0-0.6,63809,List2B,white,woman,,,,null,,,,
null,"<img src=""stim_listB/dance8.gif""</stim_listB>",,html-keyboard-response,271,1105687,0.0-17.0-1.6,63809,List2B,white,woman,,,,null,,,,
null,are dancing with each other,,html-keyboard-response,272,1107690,0.0-17.0-2.6,63809,List2B,white,woman,,,,null,,,,
7169,,,survey-text,273,1114864,0.0-17.0-3.6,63809,List2B,white,woman,,,,,"{""Q0"":""jane and beth are dancing with each other""}","<img src=""stim_listB/dance8.gif""</stim_listB>",are dancing with each other,
null,"<div style=""font-size:60px;"">+</div>",,html-keyboard-response,274,1115368,0.0-17.0-0.7,63809,List2B,white,woman,,,,null,,,,
null,"<img src=""stim_listB/marry5.gif""</stim_listB>",,html-keyboard-response,275,1117374,0.0-17.0-1.7,63809,List2B,white,woman,,,,null,,,,
null,is marrying,,html-keyboard-response,276,1119379,0.0-17.0-2.7,63809,List2B,white,woman,,,,null,,,,
5251,,,survey-text,277,1124632,0.0-17.0-3.7,63809,List2B,white,woman,,,,,"{""Q0"":""fred is marrying dave""}","<img src=""stim_listB/marry5.gif""</stim_listB>",is marrying,
null,"<div style=""font-size:60px;"">+</div>",,html-keyboard-response,278,1125133,0.0-17.0-0.8,63809,List2B,white,woman,,,,null,,,,
null,"<img src=""stim_listB/hug2.gif""</stim_listB>",,html-keyboard-response,279,1127135,0.0-17.0-1.8,63809,List2B,white,woman,,,,null,,,,
null,are hugging each other,,html-keyboard-response,280,1129139,0.0-17.0-2.8,63809,List2B,white,woman,,,,null,,,,
5483,,,survey-text,281,1134624,0.0-17.0-3.8,63809,List2B,white,woman,,,,,"{""Q0"":""dave and jane are hugging each other""}","<img src=""stim_listB/hug2.gif""</stim_listB>",are hugging each other,
null,"<div style=""font-size:60px;"">+</div>",,html-keyboard-response,282,1135126,0.0-17.0-0.9,63809,List2B,white,woman,,,,null,,,,
null,"<img src=""stim_listB/argue6.gif""</stim_listB>",,html-keyboard-response,283,1137129,0.0-17.0-1.9,63809,List2B,white,woman,,,,null,,,,
null,are arguing with each other,,html-keyboard-response,284,1139134,0.0-17.0-2.9,63809,List2B,white,woman,,,,null,,,,
12792,,,survey-text,285,1151927,0.0-17.0-3.9,63809,List2B,white,woman,,,,,"{""Q0"":""luke and mike are arguing with each other""}","<img src=""stim_listB/argue6.gif""</stim_listB>",are arguing with each other,
null,"<div style=""font-size:60px;"">+</div>",,html-keyboard-response,286,1152429,0.0-17.0-0.10,63809,List2B,white,woman,,,,null,,,,
null,"<img src=""stim_listB/marry4.gif""</stim_listB>",,html-keyboard-response,287,1154432,0.0-17.0-1.10,63809,List2B,white,woman,,,,null,,,,
null,are marrying each other,,html-keyboard-response,288,1156433,0.0-17.0-2.10,63809,List2B,white,woman,,,,null,,,,
6422,,,survey-text,289,1162856,0.0-17.0-3.10,63809,List2B,white,woman,,,,,"{""Q0"":""fred and kate are marrying each other""}","<img src=""stim_listB/marry4.gif""</stim_listB>",are marrying each other,
null,"<div style=""font-size:60px;"">+</div>",,html-keyboard-response,290,1163358,0.0-17.0-0.11,63809,List2B,white,woman,,,,null,,,,
null,"<img src=""stim_listB/meet5.gif""</stim_listB>",,html-keyboard-response,291,1165359,0.0-17.0-1.11,63809,List2B,white,woman,,,,null,,,,
null,is meeting,,html-keyboard-response,292,1167361,0.0-17.0-2.11,63809,List2B,white,woman,,,,null,,,,
5662,,,survey-text,293,1173024,0.0-17.0-3.11,63809,List2B,white,woman,,,,,"{""Q0"":""mike is meeting dave""}","<img src=""stim_listB/meet5.gif""</stim_listB>",is meeting,
null,"<div style=""font-size:60px;"">+</div>",,html-keyboard-response,294,1173527,0.0-17.0-0.12,63809,List2B,white,woman,,,,null,,,,
null,"<img src=""stim_listB/talk1.gif""</stim_listB>",,html-keyboard-response,295,1175536,0.0-17.0-1.12,63809,List2B,white,woman,,,,null,,,,
null,is talking to,,html-keyboard-response,296,1177539,0.0-17.0-2.12,63809,List2B,white,woman,,,,null,,,,
5752,,,survey-text,297,1183295,0.0-17.0-3.12,63809,List2B,white,woman,,,,,"{""Q0"":""jane is talking to luke""}","<img src=""stim_listB/talk1.gif""</stim_listB>",is talking to,
null,"<div style=""font-size:60px;"">+</div>",,html-keyboard-response,298,1183798,0.0-17.0-0.13,63809,List2B,white,woman,,,,null,,,,
null,"<img src=""stim_listB/shout2.gif""</stim_listB>",,html-keyboard-response,299,1185803,0.0-17.0-1.13,63809,List2B,white,woman,,,,null,,,,
null,are shouting at each other,,html-keyboard-response,300,1187807,0.0-17.0-2.13,63809,List2B,white,woman,,,,null,,,,
15179,,,survey-text,301,1202991,0.0-17.0-3.13,63809,List2B,white,woman,,,,,"{""Q0"":""jane and dave are shouting at each other""}","<img src=""stim_listB/shout2.gif""</stim_listB>",are shouting at each other,
null,"<div style=""font-size:60px;"">+</div>",,html-keyboard-response,302,1203492,0.0-17.0-0.14,63809,List2B,white,woman,,,,null,,,,
null,"<img src=""stim_listB/marry8.gif""</stim_listB>",,html-keyboard-response,303,1205495,0.0-17.0-1.14,63809,List2B,white,woman,,,,null,,,,
null,are marrying each other,,html-keyboard-response,304,1207498,0.0-17.0-2.14,63809,List2B,white,woman,,,,null,,,,
9125,,,survey-text,305,1216624,0.0-17.0-3.14,63809,List2B,white,woman,,,,,"{""Q0"":""ruth and kate are marrying each other""}","<img src=""stim_listB/marry8.gif""</stim_listB>",are marrying each other,
null,"<div style=""font-size:60px;"">+</div>",,html-keyboard-response,306,1217128,0.0-17.0-0.15,63809,List2B,white,woman,,,,null,,,,
null,"<img src=""stim_listB/talk6.gif""</stim_listB>",,html-keyboard-response,307,1219134,0.0-17.0-1.15,63809,List2B,white,woman,,,,null,,,,
null,are talking to each other,,html-keyboard-response,308,1221136,0.0-17.0-2.15,63809,List2B,white,woman,,,,null,,,,
7789,,,survey-text,309,1228927,0.0-17.0-3.15,63809,List2B,white,woman,,,,,"{""Q0"":""fred and dave are talking to each other""}","<img src=""stim_listB/talk6.gif""</stim_listB>",are talking to each other,
null,"<div style=""font-size:60px;"">+</div>",,html-keyboard-response,310,1229429,0.0-17.0-0.16,63809,List2B,white,woman,,,,null,,,,
null,"<img src=""stim_listB/touch6.gif""</stim_listB>",,html-keyboard-response,311,1231431,0.0-17.0-1.16,63809,List2B,white,woman,,,,null,,,,
null,are touching each other,,html-keyboard-response,312,1233433,0.0-17.0-2.16,63809,List2B,white,woman,,,,null,,,,
7950,,,survey-text,313,1241384,0.0-17.0-3.16,63809,List2B,white,woman,,,,,"{""Q0"":""luke and fred are touching each other""}","<img src=""stim_listB/touch6.gif""</stim_listB>",are touching each other,
null,"<div style=""font-size:60px;"">+</div>",,html-keyboard-response,314,1241886,0.0-17.0-0.17,63809,List2B,white,woman,,,,null,,,,
null,"<img src=""stim_listB/argue3.gif""</stim_listB>",,html-keyboard-response,315,1243894,0.0-17.0-1.17,63809,List2B,white,woman,,,,null,,,,
null,is arguing with,,html-keyboard-response,316,1245899,0.0-17.0-2.17,63809,List2B,white,woman,,,,null,,,,
14636,,,survey-text,317,1260537,0.0-17.0-3.17,63809,List2B,white,woman,,,,,"{""Q0"":""beth is arguing with mike""}","<img src=""stim_listB/argue3.gif""</stim_listB>",is arguing with,
null,"<div style=""font-size:60px;"">+</div>",,html-keyboard-response,318,1261038,0.0-17.0-0.18,63809,List2B,white,woman,,,,null,,,,
null,"<img src=""stim_listB/touch1.gif""</stim_listB>",,html-keyboard-response,319,1263041,0.0-17.0-1.18,63809,List2B,white,woman,,,,null,,,,
null,is touching,,html-keyboard-response,320,1265044,0.0-17.0-2.18,63809,List2B,white,woman,,,,null,,,,
9146,,,survey-text,321,1274192,0.0-17.0-3.18,63809,List2B,white,woman,,,,,"{""Q0"":""dave is touching jane""}","<img src=""stim_listB/touch1.gif""</stim_listB>",is touching,
null,"<div style=""font-size:60px;"">+</div>",,html-keyboard-response,322,1274693,0.0-17.0-0.19,63809,List2B,white,woman,,,,null,,,,
null,"<img src=""stim_listB/talk7.gif""</stim_listB>",,html-keyboard-response,323,1276698,0.0-17.0-1.19,63809,List2B,white,woman,,,,null,,,,
null,is talking to,,html-keyboard-response,324,1278700,0.0-17.0-2.19,63809,List2B,white,woman,,,,null,,,,
13770,,,survey-text,325,1292471,0.0-17.0-3.19,63809,List2B,white,woman,,,,,"{""Q0"":""ruth is talking to kate""}","<img src=""stim_listB/talk7.gif""</stim_listB>",is talking to,
1253,"<img src='img/portrait_matrix_list2.JPG' style='width:900px;height:500px;''></img><p>If you have memorised all the portraits and names and are ready to start, press Continue.</p><p><strong>Please note: Your memory of these faces will be tested 4 times during this experiment.</strong></p>",0,html-button-response,326,1293727,0.0-18.0-0.0,63809,List2B,white,woman,,,,,,,,
2282,"<img src=""portrait/BW2.jpg""style=""width:400px;height:400px;""></img>",2,html-button-response,327,1297015,0.0-18.0-1.0,63809,List2B,white,woman,,TRUE,2,,,,,
null,CORRECT,,html-keyboard-response,328,1298519,0.0-18.0-2.0-0.0,63809,List2B,white,woman,,,,null,,,,
1221,"<img src=""portrait/WW2.jpg""style=""width:400px;height:400px;""></img>",3,html-button-response,329,1299744,0.0-18.0-4.0,63809,List2B,white,woman,,TRUE,3,,,,,
null,CORRECT,,html-keyboard-response,330,1301250,0.0-18.0-5.0-0.0,63809,List2B,white,woman,,,,null,,,,
1186,"<img src=""portrait/WM2.jpg""style=""width:400px;height:400px;""></img>",7,html-button-response,331,1302439,0.0-18.0-7.0,63809,List2B,white,woman,,TRUE,7,,,,,
null,CORRECT,,html-keyboard-response,332,1303942,0.0-18.0-8.0-0.0,63809,List2B,white,woman,,,,null,,,,
1846,"<img src=""portrait/BM2.jpg""style=""width:400px;height:400px;""></img>",5,html-button-response,333,1305791,0.0-18.0-10.0,63809,List2B,white,woman,,TRUE,5,,,,,
null,CORRECT,,html-keyboard-response,334,1307295,0.0-18.0-11.0-0.0,63809,List2B,white,woman,,,,null,,,,
1252,"<img src=""portrait/BM1.jpg""style=""width:400px;height:400px;""></img>",4,html-button-response,335,1308550,0.0-18.0-13.0,63809,List2B,white,woman,,TRUE,4,,,,,
null,CORRECT,,html-keyboard-response,336,1310054,0.0-18.0-14.0-0.0,63809,List2B,white,woman,,,,null,,,,
1983,"<img src=""portrait/WW1.jpg""style=""width:400px;height:400px;""></img>",1,html-button-response,337,1312040,0.0-18.0-16.0,63809,List2B,white,woman,,TRUE,1,,,,,
null,CORRECT,,html-keyboard-response,338,1313547,0.0-18.0-17.0-0.0,63809,List2B,white,woman,,,,null,,,,
1206,"<img src=""portrait/WM1.jpg""style=""width:400px;height:400px;""></img>",6,html-button-response,339,1314768,0.0-18.0-19.0,63809,List2B,white,woman,,TRUE,6,,,,,
null,CORRECT,,html-keyboard-response,340,1316272,0.0-18.0-20.0-0.0,63809,List2B,white,woman,,,,null,,,,
1713,"<img src=""portrait/BW1.jpg""style=""width:400px;height:400px;""></img>",0,html-button-response,341,1317991,0.0-18.0-22.0,63809,List2B,white,woman,,TRUE,0,,,,,
null,CORRECT,,html-keyboard-response,342,1319495,0.0-18.0-23.0-0.0,63809,List2B,white,woman,,,,null,,,,
729,<p>You got 8 out of 8 right first time. Press Continue.</p>,0,html-button-response,343,1320232,0.0-18.0-25.0,63809,List2B,white,woman,,,,,,,,
null,"<div style=""font-size:60px;"">+</div>",,html-keyboard-response,344,1321740,0.0-19.0-0.0,63809,List2B,white,woman,,,,null,,,,
null,"<img src=""stim_listB/meet7.gif""</stim_listB>",,html-keyboard-response,345,1323745,0.0-19.0-1.0,63809,List2B,white,woman,,,,null,,,,
null,is meeting,,html-keyboard-response,346,1325746,0.0-19.0-2.0,63809,List2B,white,woman,,,,null,,,,
13892,,,survey-text,347,1339639,0.0-19.0-3.0,63809,List2B,white,woman,,,,,"{""Q0"":""jane is meeting kate""}","<img src=""stim_listB/meet7.gif""</stim_listB>",is meeting,
null,"<div style=""font-size:60px;"">+</div>",,html-keyboard-response,348,1340141,0.0-19.0-0.1,63809,List2B,white,woman,,,,null,,,,
null,"<img src=""stim_listB/talk8.gif""</stim_listB>",,html-keyboard-response,349,1342145,0.0-19.0-1.1,63809,List2B,white,woman,,,,null,,,,
null,are talking to each other,,html-keyboard-response,350,1344148,0.0-19.0-2.1,63809,List2B,white,woman,,,,null,,,,
7776,,,survey-text,351,1351926,0.0-19.0-3.1,63809,List2B,white,woman,,,,,"{""Q0"":""jane and beth are talking to each other""}","<img src=""stim_listB/talk8.gif""</stim_listB>",are talking to each other,
null,"<div style=""font-size:60px;"">+</div>",,html-keyboard-response,352,1352429,0.0-19.0-0.2,63809,List2B,white,woman,,,,null,,,,
null,"<img src=""stim_listB/shout8.gif""</stim_listB>",,html-keyboard-response,353,1354434,0.0-19.0-1.2,63809,List2B,white,woman,,,,null,,,,
null,are shouting at each other,,html-keyboard-response,354,1356436,0.0-19.0-2.2,63809,List2B,white,woman,,,,null,,,,
10738,,,survey-text,355,1367175,0.0-19.0-3.2,63809,List2B,white,woman,,,,,"{""Q0"":""jane and kate are shouting at each other""}","<img src=""stim_listB/shout8.gif""</stim_listB>",are shouting at each other,
null,"<div style=""font-size:60px;"">+</div>",,html-keyboard-response,356,1367678,0.0-19.0-0.3,63809,List2B,white,woman,,,,null,,,,
null,"<img src=""stim_listB/fight5.gif""</stim_listB>",,html-keyboard-response,357,1369680,0.0-19.0-1.3,63809,List2B,white,woman,,,,null,,,,
null,is fighting,,html-keyboard-response,358,1371681,0.0-19.0-2.3,63809,List2B,white,woman,,,,null,,,,
15375,,,survey-text,359,1387057,0.0-19.0-3.3,63809,List2B,white,woman,,,,,"{""Q0"":""dave is fighting mike""}","<img src=""stim_listB/fight5.gif""</stim_listB>",is fighting,
null,"<div style=""font-size:60px;"">+</div>",,html-keyboard-response,360,1387560,0.0-19.0-0.4,63809,List2B,white,woman,,,,null,,,,
null,"<img src=""stim_listB/argue5.gif""</stim_listB>",,html-keyboard-response,361,1389567,0.0-19.0-1.4,63809,List2B,white,woman,,,,null,,,,
null,is arguing with,,html-keyboard-response,362,1391571,0.0-19.0-2.4,63809,List2B,white,woman,,,,null,,,,
6804,,,survey-text,363,1398375,0.0-19.0-3.4,63809,List2B,white,woman,,,,,"{""Q0"":""dave is arguing with fred""}","<img src=""stim_listB/argue5.gif""</stim_listB>",is arguing with,
null,"<div style=""font-size:60px;"">+</div>",,html-keyboard-response,364,1398880,0.0-19.0-0.5,63809,List2B,white,woman,,,,null,,,,
null,"<img src=""stim_listB/touch8.gif""</stim_listB>",,html-keyboard-response,365,1400886,0.0-19.0-1.5,63809,List2B,white,woman,,,,null,,,,
null,are touching each other,,html-keyboard-response,366,1402887,0.0-19.0-2.5,63809,List2B,white,woman,,,,null,,,,
15295,,,survey-text,367,1418184,0.0-19.0-3.5,63809,List2B,white,woman,,,,,"{""Q0"":""ruth and beth are touching each other""}","<img src=""stim_listB/touch8.gif""</stim_listB>",are touching each other,
null,"<div style=""font-size:60px;"">+</div>",,html-keyboard-response,368,1418684,0.0-19.0-0.6,63809,List2B,white,woman,,,,null,,,,
null,"<img src=""stim_listB/argue2.gif""</stim_listB>",,html-keyboard-response,369,1420688,0.0-19.0-1.6,63809,List2B,white,woman,,,,null,,,,
null,are arguing with each other,,html-keyboard-response,370,1422707,0.0-19.0-2.6,63809,List2B,white,woman,,,,null,,,,
11269,,,survey-text,371,1433984,0.0-19.0-3.6,63809,List2B,white,woman,,,,,"{""Q0"":""jane and luke are arguing with each other""}","<img src=""stim_listB/argue2.gif""</stim_listB>",are arguing with each other,
null,"<div style=""font-size:60px;"">+</div>",,html-keyboard-response,372,1434486,0.0-19.0-0.7,63809,List2B,white,woman,,,,null,,,,
null,"<img src=""stim_listB/kiss4.gif""</stim_listB>",,html-keyboard-response,373,1436490,0.0-19.0-1.7,63809,List2B,white,woman,,,,null,,,,
null,are kissing each other,,html-keyboard-response,374,1438492,0.0-19.0-2.7,63809,List2B,white,woman,,,,null,,,,
7258,,,survey-text,375,1445751,0.0-19.0-3.7,63809,List2B,white,woman,,,,,"{""Q0"":""mike and kate are kissing each other""}","<img src=""stim_listB/kiss4.gif""</stim_listB>",are kissing each other,
null,"<div style=""font-size:60px;"">+</div>",,html-keyboard-response,376,1446253,0.0-19.0-0.8,63809,List2B,white,woman,,,,null,,,,
null,"<img src=""stim_listB/meet4.gif""</stim_listB>",,html-keyboard-response,377,1448257,0.0-19.0-1.8,63809,List2B,white,woman,,,,null,,,,
null,are meeting each other,,html-keyboard-response,378,1450258,0.0-19.0-2.8,63809,List2B,white,woman,,,,null,,,,
128595,,,survey-text,379,1578855,0.0-19.0-3.8,63809,List2B,white,woman,,,,,"{""Q0"":""fred and beth are meeting each other""}","<img src=""stim_listB/meet4.gif""</stim_listB>",are meeting each other,
null,"<div style=""font-size:60px;"">+</div>",,html-keyboard-response,380,1579357,0.0-19.0-0.9,63809,List2B,white,woman,,,,null,,,,
null,"<img src=""stim_listB/fight4.gif""</stim_listB>",,html-keyboard-response,381,1581358,0.0-19.0-1.9,63809,List2B,white,woman,,,,null,,,,
null,are fighting each other,,html-keyboard-response,382,1583359,0.0-19.0-2.9,63809,List2B,white,woman,,,,null,,,,
9206,,,survey-text,383,1592568,0.0-19.0-3.9,63809,List2B,white,woman,,,,,"{""Q0"":""fred and beth are fighting each other""}","<img src=""stim_listB/fight4.gif""</stim_listB>",are fighting each other,
null,"<div style=""font-size:60px;"">+</div>",,html-keyboard-response,384,1593069,0.0-19.0-0.10,63809,List2B,white,woman,,,,null,,,,
null,"<img src=""stim_listB/meet1.gif""</stim_listB>",,html-keyboard-response,385,1595072,0.0-19.0-1.10,63809,List2B,white,woman,,,,null,,,,
null,is meeting,,html-keyboard-response,386,1597074,0.0-19.0-2.10,63809,List2B,white,woman,,,,null,,,,
4500,,,survey-text,387,1601575,0.0-19.0-3.10,63809,List2B,white,woman,,,,,"{""Q0"":""jane is meeting dave""}","<img src=""stim_listB/meet1.gif""</stim_listB>",is meeting,
null,"<div style=""font-size:60px;"">+</div>",,html-keyboard-response,388,1602076,0.0-19.0-0.11,63809,List2B,white,woman,,,,null,,,,
null,"<img src=""stim_listB/talk5.gif""</stim_listB>",,html-keyboard-response,389,1604080,0.0-19.0-1.11,63809,List2B,white,woman,,,,null,,,,
null,is talking to,,html-keyboard-response,390,1606080,0.0-19.0-2.11,63809,List2B,white,woman,,,,null,,,,
5118,,,survey-text,391,1611199,0.0-19.0-3.11,63809,List2B,white,woman,,,,,"{""Q0"":""mike is talking to luke""}","<img src=""stim_listB/talk5.gif""</stim_listB>",is talking to,
null,"<div style=""font-size:60px;"">+</div>",,html-keyboard-response,392,1611700,0.0-19.0-0.12,63809,List2B,white,woman,,,,null,,,,
null,"<img src=""stim_listB/argue4.gif""</stim_listB>",,html-keyboard-response,393,1613704,0.0-19.0-1.12,63809,List2B,white,woman,,,,null,,,,
null,are arguing with each other,,html-keyboard-response,394,1615705,0.0-19.0-2.12,63809,List2B,white,woman,,,,null,,,,
10277,,,survey-text,395,1625984,0.0-19.0-3.12,63809,List2B,white,woman,,,,,"{""Q0"":""kate and fred are arguing with each other""}","<img src=""stim_listB/argue4.gif""</stim_listB>",are arguing with each other,
null,"<div style=""font-size:60px;"">+</div>",,html-keyboard-response,396,1626486,0.0-19.0-0.13,63809,List2B,white,woman,,,,null,,,,
null,"<img src=""stim_listB/talk3.gif""</stim_listB>",,html-keyboard-response,397,1628491,0.0-19.0-1.13,63809,List2B,white,woman,,,,null,,,,
null,is talking to,,html-keyboard-response,398,1630494,0.0-19.0-2.13,63809,List2B,white,woman,,,,null,,,,
5766,,,survey-text,399,1636263,0.0-19.0-3.13,63809,List2B,white,woman,,,,,"{""Q0"":""kate is talking to fred""}","<img src=""stim_listB/talk3.gif""</stim_listB>",is talking to,
null,"<div style=""font-size:60px;"">+</div>",,html-keyboard-response,400,1636766,0.0-19.0-0.14,63809,List2B,white,woman,,,,null,,,,
null,"<img src=""stim_listB/argue7.gif""</stim_listB>",,html-keyboard-response,401,1638771,0.0-19.0-1.14,63809,List2B,white,woman,,,,null,,,,
null,is arguing with,,html-keyboard-response,402,1640774,0.0-19.0-2.14,63809,List2B,white,woman,,,,null,,,,
8567,,,survey-text,403,1649343,0.0-19.0-3.14,63809,List2B,white,woman,,,,,"{""Q0"":""beth is arguing with jane""}","<img src=""stim_listB/argue7.gif""</stim_listB>",is arguing with,
null,"<div style=""font-size:60px;"">+</div>",,html-keyboard-response,404,1649845,0.0-19.0-0.15,63809,List2B,white,woman,,,,null,,,,
null,"<img src=""stim_listB/shout3.gif""</stim_listB>",,html-keyboard-response,405,1651848,0.0-19.0-1.15,63809,List2B,white,woman,,,,null,,,,
null,is shouting at,,html-keyboard-response,406,1653857,0.0-19.0-2.15,63809,List2B,white,woman,,,,null,,,,
7043,,,survey-text,407,1660904,0.0-19.0-3.15,63809,List2B,white,woman,,,,,"{""Q0"":""jane is shouting at fred""}","<img src=""stim_listB/shout3.gif""</stim_listB>",is shouting at,
null,"<div style=""font-size:60px;"">+</div>",,html-keyboard-response,408,1661406,0.0-19.0-0.16,63809,List2B,white,woman,,,,null,,,,
null,"<img src=""stim_listB/dance6.gif""</stim_listB>",,html-keyboard-response,409,1663410,0.0-19.0-1.16,63809,List2B,white,woman,,,,null,,,,
null,are dancing with each other,,html-keyboard-response,410,1665411,0.0-19.0-2.16,63809,List2B,white,woman,,,,null,,,,
7579,,,survey-text,411,1672991,0.0-19.0-3.16,63809,List2B,white,woman,,,,,"{""Q0"":""fred and dave are dancing with each other""}","<img src=""stim_listB/dance6.gif""</stim_listB>",are dancing with each other,
null,"<div style=""font-size:60px;"">+</div>",,html-keyboard-response,412,1673493,0.0-19.0-0.17,63809,List2B,white,woman,,,,null,,,,
null,"<img src=""stim_listB/hug8.gif""</stim_listB>",,html-keyboard-response,413,1675496,0.0-19.0-1.17,63809,List2B,white,woman,,,,null,,,,
null,are hugging each other,,html-keyboard-response,414,1677499,0.0-19.0-2.17,63809,List2B,white,woman,,,,null,,,,
10604,,,survey-text,415,1688104,0.0-19.0-3.17,63809,List2B,white,woman,,,,,"{""Q0"":""jane and kate are hugging each other""}","<img src=""stim_listB/hug8.gif""</stim_listB>",are hugging each other,
null,"<div style=""font-size:60px;"">+</div>",,html-keyboard-response,416,1688606,0.0-19.0-0.18,63809,List2B,white,woman,,,,null,,,,
null,"<img src=""stim_listB/kiss6.gif""</stim_listB>",,html-keyboard-response,417,1690611,0.0-19.0-1.18,63809,List2B,white,woman,,,,null,,,,
null,are kissing each other,,html-keyboard-response,418,1692614,0.0-19.0-2.18,63809,List2B,white,woman,,,,null,,,,
10598,,,survey-text,419,1703214,0.0-19.0-3.18,63809,List2B,white,woman,,,,,"{""Q0"":""mike and dave are kissing each other""}","<img src=""stim_listB/kiss6.gif""</stim_listB>",are kissing each other,
null,"<div style=""font-size:60px;"">+</div>",,html-keyboard-response,420,1703718,0.0-19.0-0.19,63809,List2B,white,woman,,,,null,,,,
null,"<img src=""stim_listB/dance2.gif""</stim_listB>",,html-keyboard-response,421,1705720,0.0-19.0-1.19,63809,List2B,white,woman,,,,null,,,,
null,are dancing with each other,,html-keyboard-response,422,1707721,0.0-19.0-2.19,63809,List2B,white,woman,,,,null,,,,
9533,,,survey-text,423,1717255,0.0-19.0-3.19,63809,List2B,white,woman,,,,,"{""Q0"":""ruth and dave are dancing with each other""}","<img src=""stim_listB/dance2.gif""</stim_listB>",are dancing with each other,
2504,<p>Thank you for completing that task.</p><p>The final part of this session is a short questionnaire.</p><p>Press Continue.</p>,0,html-button-response,424,1719759,0.0-20.0,63809,List2B,white,woman,,,,,,,,
42317,,,survey-text,425,1763080,0.0-21.0,63809,List2B,white,woman,,,,,"{""Q0"":""36"",""Q1"":""English"",""Q2"":""English"",""Q3"":""United Kingdom"",""Q4"":""White"",""Q5"":""Female""}",,,demographics
59501,,,survey-likert,426,1822589,0.0-22.0,63809,List2B,white,woman,,,,,"{""Q0"":4,""Q1"":3,""Q2"":2,""Q3"":3,""Q4"":2,""Q5"":4,""Q6"":3,""Q7"":1,""Q8"":2,""Q9"":2,""Q10"":5,""Q11"":5,""Q12"":2,""Q13"":3}",,,likert_race
36393,,,survey-likert,427,1858988,0.0-23.0,63809,List2B,white,woman,,,,,"{""Q0"":5,""Q1"":5,""Q2"":5,""Q3"":3,""Q4"":4,""Q5"":3,""Q6"":3,""Q7"":4,""Q8"":4,""Q9"":5,""Q10"":5,""Q11"":5,""Q12"":6,""Q13"":4}",,,likert_gender
6873,,,survey-text,428,1865863,0.0-24.0,63809,List2B,white,woman,,,,,"{""Q0"":""ccc""}",,,worker_id
25310,,,external-html,429,1891256,0.0-25.0,63809,List2B,white,woman,debrief.html,,,,,,,
