rt,stimulus,button_pressed,trial_type,trial_index,time_elapsed,internal_node_id,subject,list,ppt_race,ppt_gender,url,first_guess,correct,key_press,responses,image_type,phrase_type,test_part
1940,Welcome to the experiment. Press Continue to begin.,0,html-button-response,0,1943,0.0-0.0,67824,List1A,black,man,,,,,,,,
40938,,,external-html,1,44016,0.0-1.0,67824,List1A,black,man,consent.html,,,,,,,
25391,"<p>On the next page, you will see portraits of 8 people and their names.</p><p>Your first task is to take a few minutes to memorise the names of these people.</p><p>You will have to recall their names during the rest of the experiment, so it is</p><p>essential that you try to memorise these people and their names as best as you can.</p><br><p><strong>You will then be tested on your memory of these names and portraits.</strong></p><br><p>The experiment will start after you have completed this memory test.</p><br><p>Ready?</p>",0,html-button-response,2,69408,0.0-2.0,67824,List1A,black,man,,,,,,,,
169643,"<img src='img/portrait_matrix_list1.JPG' style='width:900px;height:500px;''></img><p>If you have memorised all the portraits and names and are ready to start, press Continue.</p><p><strong>Please note: Your memory of these faces will be tested 4 times during this experiment.</strong></p>",0,html-button-response,3,240058,0.0-3.0-0.0,67824,List1A,black,man,,,,,,,,
2079,"<img src=""portrait/WM2.jpg""style=""width:400px;height:400px;""></img>",7,html-button-response,4,243139,0.0-3.0-1.0,67824,List1A,black,man,,TRUE,7,,,,,
null,CORRECT,,html-keyboard-response,5,244642,0.0-3.0-2.0-0.0,67824,List1A,black,man,,,,null,,,,
5108,"<img src=""portrait/WW1.jpg""style=""width:400px;height:400px;""></img>",1,html-button-response,6,249751,0.0-3.0-4.0,67824,List1A,black,man,,TRUE,1,,,,,
null,CORRECT,,html-keyboard-response,7,251253,0.0-3.0-5.0-0.0,67824,List1A,black,man,,,,null,,,,
1859,"<img src=""portrait/BM1.jpg""style=""width:400px;height:400px;""></img>",4,html-button-response,8,253113,0.0-3.0-7.0,67824,List1A,black,man,,TRUE,4,,,,,
null,CORRECT,,html-keyboard-response,9,254615,0.0-3.0-8.0-0.0,67824,List1A,black,man,,,,null,,,,
2466,"<img src=""portrait/BM2.jpg""style=""width:400px;height:400px;""></img>",5,html-button-response,10,257083,0.0-3.0-10.0,67824,List1A,black,man,,TRUE,5,,,,,
null,CORRECT,,html-keyboard-response,11,258586,0.0-3.0-11.0-0.0,67824,List1A,black,man,,,,null,,,,
2932,"<img src=""portrait/BW1.jpg""style=""width:400px;height:400px;""></img>",0,html-button-response,12,261519,0.0-3.0-13.0,67824,List1A,black,man,,TRUE,0,,,,,
null,CORRECT,,html-keyboard-response,13,263020,0.0-3.0-14.0-0.0,67824,List1A,black,man,,,,null,,,,
2881,"<img src=""portrait/WW2.jpg""style=""width:400px;height:400px;""></img>",3,html-button-response,14,265902,0.0-3.0-16.0,67824,List1A,black,man,,TRUE,3,,,,,
null,CORRECT,,html-keyboard-response,15,267404,0.0-3.0-17.0-0.0,67824,List1A,black,man,,,,null,,,,
1954,"<img src=""portrait/BW2.jpg""style=""width:400px;height:400px;""></img>",2,html-button-response,16,269358,0.0-3.0-19.0,67824,List1A,black,man,,TRUE,2,,,,,
null,CORRECT,,html-keyboard-response,17,270860,0.0-3.0-20.0-0.0,67824,List1A,black,man,,,,null,,,,
2163,"<img src=""portrait/WM1.jpg""style=""width:400px;height:400px;""></img>",6,html-button-response,18,273024,0.0-3.0-22.0,67824,List1A,black,man,,TRUE,6,,,,,
null,CORRECT,,html-keyboard-response,19,274526,0.0-3.0-23.0-0.0,67824,List1A,black,man,,,,null,,,,
1954,<p>You got 8 out of 8 right first time. Press Continue.</p>,0,html-button-response,20,276481,0.0-3.0-25.0,67824,List1A,black,man,,,,,,,,
25510,"<p>In this experiment, you will view photographs of the people from the memory game interacting.</p><p>By using the <strong>exact</strong> phrase given <i>after</i> the photograph appears and recalling the correct names of the people in the photographs, form a sentence describing the interaction. You do not need to capitalise names.</p><p>Type your answer in the space provided. Please complete every sentence before moving onto the next trial.</p><p>You will only have a few seconds to memorise each given photograph and phrase before you can respond, so try your best to focus.</p><p>An example is given below. Press 'Continue' when you are ready.</p><img src='img/speaking_example_v2.jpg' style='width:800px;height:460px;''></img>",0,html-button-response,21,302992,0.0-4.0,67824,List1A,black,man,,,,,,,,
1605,"<p>Before the experiment starts, you will watch two example trials. Press 'Continue'.</p>",0,html-button-response,22,305598,0.0-5.0,67824,List1A,black,man,,,,,,,,
null,<img src='img/speaking_WW.gif'></img>,,html-keyboard-response,23,308600,0.0-6.0,67824,List1A,black,man,,,,null,,,,
null,<p>is speaking to</p>,,html-keyboard-response,24,310601,0.0-7.0,67824,List1A,black,man,,,,null,,,,
2403,<p><b>Answer:</b> kate is speaking to beth</p>,0,html-button-response,25,313004,0.0-8.0,67824,List1A,black,man,,,,,,,,
null,<img src='img/pointing_BM.gif'></img>,,html-keyboard-response,26,316006,0.0-9.0,67824,List1A,black,man,,,,null,,,,
null,<p>are pointing at each other</p>,,html-keyboard-response,27,318006,0.0-10.0,67824,List1A,black,man,,,,null,,,,
4390,<p><b>Answer:</b> luke and dave are pointing at each other</p>,0,html-button-response,28,322396,0.0-11.0,67824,List1A,black,man,,,,,,,,
9667,"<p>Ready to start the experiment?</p><br><p><strong>Remember to describe the picture using a full sentence,</strong></p><p><strong>that combines the names of the people with the given phrase.</strong></p><p><strong>If you do not do this correctly you will not be paid.</strong></p><p><strong> You do not need to capitalise names or use punctuation.</strong></p><br><p>Press 'Continue' to begin.</p>",0,html-button-response,29,333066,0.0-12.0,67824,List1A,black,man,,,,,,,,
null,"<div style=""font-size:60px;"">+</div>",,html-keyboard-response,30,334567,0.0-13.0-0.0,67824,List1A,black,man,,,,null,,,,
null,"<img src=""stim_listA/fight6.gif""</stim_listA>",,html-keyboard-response,31,336570,0.0-13.0-1.0,67824,List1A,black,man,,,,null,,,,
null,are fighting each other,,html-keyboard-response,32,338571,0.0-13.0-2.0,67824,List1A,black,man,,,,null,,,,
9505,,,survey-text,33,348078,0.0-13.0-3.0,67824,List1A,black,man,,,,,"{""Q0"":""luke and fred are fighting each other""}","<img src=""stim_listA/fight6.gif""</stim_listA>",are fighting each other,
null,"<div style=""font-size:60px;"">+</div>",,html-keyboard-response,34,348579,0.0-13.0-0.1,67824,List1A,black,man,,,,null,,,,
null,"<img src=""stim_listA/shout8.gif""</stim_listA>",,html-keyboard-response,35,350580,0.0-13.0-1.1,67824,List1A,black,man,,,,null,,,,
null,are shouting at each other,,html-keyboard-response,36,352582,0.0-13.0-2.1,67824,List1A,black,man,,,,null,,,,
8505,,,survey-text,37,361088,0.0-13.0-3.1,67824,List1A,black,man,,,,,"{""Q0"":""jane and kate are shouting at each other""}","<img src=""stim_listA/shout8.gif""</stim_listA>",are shouting at each other,
null,"<div style=""font-size:60px;"">+</div>",,html-keyboard-response,38,361589,0.0-13.0-0.2,67824,List1A,black,man,,,,null,,,,
null,"<img src=""stim_listA/marry8.gif""</stim_listA>",,html-keyboard-response,39,363592,0.0-13.0-1.2,67824,List1A,black,man,,,,null,,,,
null,are marrying each other,,html-keyboard-response,40,365592,0.0-13.0-2.2,67824,List1A,black,man,,,,null,,,,
7768,,,survey-text,41,373361,0.0-13.0-3.2,67824,List1A,black,man,,,,,"{""Q0"":""jane and beth are marrying each other""}","<img src=""stim_listA/marry8.gif""</stim_listA>",are marrying each other,
null,"<div style=""font-size:60px;"">+</div>",,html-keyboard-response,42,373863,0.0-13.0-0.3,67824,List1A,black,man,,,,null,,,,
null,"<img src=""stim_listA/shout1.gif""</stim_listA>",,html-keyboard-response,43,375865,0.0-13.0-1.3,67824,List1A,black,man,,,,null,,,,
null,is shouting at,,html-keyboard-response,44,377867,0.0-13.0-2.3,67824,List1A,black,man,,,,null,,,,
5007,,,survey-text,45,382875,0.0-13.0-3.3,67824,List1A,black,man,,,,,"{""Q0"":""fred is shouting at beth""}","<img src=""stim_listA/shout1.gif""</stim_listA>",is shouting at,
null,"<div style=""font-size:60px;"">+</div>",,html-keyboard-response,46,383376,0.0-13.0-0.4,67824,List1A,black,man,,,,null,,,,
null,"<img src=""stim_listA/marry3.gif""</stim_listA>",,html-keyboard-response,47,385378,0.0-13.0-1.4,67824,List1A,black,man,,,,null,,,,
null,is marrying,,html-keyboard-response,48,387380,0.0-13.0-2.4,67824,List1A,black,man,,,,null,,,,
4901,,,survey-text,49,392283,0.0-13.0-3.4,67824,List1A,black,man,,,,,"{""Q0"":""dave is marrying ruth""}","<img src=""stim_listA/marry3.gif""</stim_listA>",is marrying,
null,"<div style=""font-size:60px;"">+</div>",,html-keyboard-response,50,392784,0.0-13.0-0.5,67824,List1A,black,man,,,,null,,,,
null,"<img src=""stim_listA/touch5.gif""</stim_listA>",,html-keyboard-response,51,394785,0.0-13.0-1.5,67824,List1A,black,man,,,,null,,,,
null,is touching,,html-keyboard-response,52,396785,0.0-13.0-2.5,67824,List1A,black,man,,,,null,,,,
5507,,,survey-text,53,402293,0.0-13.0-3.5,67824,List1A,black,man,,,,,"{""Q0"":""mike is touching dave""}","<img src=""stim_listA/touch5.gif""</stim_listA>",is touching,
null,"<div style=""font-size:60px;"">+</div>",,html-keyboard-response,54,402794,0.0-13.0-0.6,67824,List1A,black,man,,,,null,,,,
null,"<img src=""stim_listA/talk2.gif""</stim_listA>",,html-keyboard-response,55,404797,0.0-13.0-1.6,67824,List1A,black,man,,,,null,,,,
null,are talking to each other,,html-keyboard-response,56,406799,0.0-13.0-2.6,67824,List1A,black,man,,,,null,,,,
7799,,,survey-text,57,414598,0.0-13.0-3.6,67824,List1A,black,man,,,,,"{""Q0"":""beth and mike are talking to each other""}","<img src=""stim_listA/talk2.gif""</stim_listA>",are talking to each other,
null,"<div style=""font-size:60px;"">+</div>",,html-keyboard-response,58,415101,0.0-13.0-0.7,67824,List1A,black,man,,,,null,,,,
null,"<img src=""stim_listA/fight2.gif""</stim_listA>",,html-keyboard-response,59,417104,0.0-13.0-1.7,67824,List1A,black,man,,,,null,,,,
null,are fighting each other,,html-keyboard-response,60,419105,0.0-13.0-2.7,67824,List1A,black,man,,,,null,,,,
7682,,,survey-text,61,426789,0.0-13.0-3.7,67824,List1A,black,man,,,,,"{""Q0"":""beth and fred are fighting each other""}","<img src=""stim_listA/fight2.gif""</stim_listA>",are fighting each other,
null,"<div style=""font-size:60px;"">+</div>",,html-keyboard-response,62,427290,0.0-13.0-0.8,67824,List1A,black,man,,,,null,,,,
null,"<img src=""stim_listA/dance5.gif""</stim_listA>",,html-keyboard-response,63,429291,0.0-13.0-1.8,67824,List1A,black,man,,,,null,,,,
null,is dancing with,,html-keyboard-response,64,431292,0.0-13.0-2.8,67824,List1A,black,man,,,,null,,,,
6807,,,survey-text,65,438101,0.0-13.0-3.8,67824,List1A,black,man,,,,,"{""Q0"":""fred is dancing with dave""}","<img src=""stim_listA/dance5.gif""</stim_listA>",is dancing with,
null,"<div style=""font-size:60px;"">+</div>",,html-keyboard-response,66,438603,0.0-13.0-0.9,67824,List1A,black,man,,,,null,,,,
null,"<img src=""stim_listA/hug5.gif""</stim_listA>",,html-keyboard-response,67,440606,0.0-13.0-1.9,67824,List1A,black,man,,,,null,,,,
null,is hugging,,html-keyboard-response,68,442608,0.0-13.0-2.9,67824,List1A,black,man,,,,null,,,,
4920,,,survey-text,69,447530,0.0-13.0-3.9,67824,List1A,black,man,,,,,"{""Q0"":""fred is hugging luke""}","<img src=""stim_listA/hug5.gif""</stim_listA>",is hugging,
null,"<div style=""font-size:60px;"">+</div>",,html-keyboard-response,70,448031,0.0-13.0-0.10,67824,List1A,black,man,,,,null,,,,
null,"<img src=""stim_listA/dance8.gif""</stim_listA>",,html-keyboard-response,71,450034,0.0-13.0-1.10,67824,List1A,black,man,,,,null,,,,
null,are dancing with each other,,html-keyboard-response,72,452035,0.0-13.0-2.10,67824,List1A,black,man,,,,null,,,,
6846,,,survey-text,73,458882,0.0-13.0-3.10,67824,List1A,black,man,,,,,"{""Q0"":""ruth and kate are dancing with each other""}","<img src=""stim_listA/dance8.gif""</stim_listA>",are dancing with each other,
null,"<div style=""font-size:60px;"">+</div>",,html-keyboard-response,74,459383,0.0-13.0-0.11,67824,List1A,black,man,,,,null,,,,
null,"<img src=""stim_listA/shout4.gif""</stim_listA>",,html-keyboard-response,75,461385,0.0-13.0-1.11,67824,List1A,black,man,,,,null,,,,
null,are shouting at each other,,html-keyboard-response,76,463386,0.0-13.0-2.11,67824,List1A,black,man,,,,null,,,,
9878,,,survey-text,77,473264,0.0-13.0-3.11,67824,List1A,black,man,,,,,"{""Q0"":""jane and dave are shouting at each other""}","<img src=""stim_listA/shout4.gif""</stim_listA>",are shouting at each other,
null,"<div style=""font-size:60px;"">+</div>",,html-keyboard-response,78,473767,0.0-13.0-0.12,67824,List1A,black,man,,,,null,,,,
null,"<img src=""stim_listA/touch7.gif""</stim_listA>",,html-keyboard-response,79,475769,0.0-13.0-1.12,67824,List1A,black,man,,,,null,,,,
null,is touching,,html-keyboard-response,80,477771,0.0-13.0-2.12,67824,List1A,black,man,,,,null,,,,
4739,,,survey-text,81,482512,0.0-13.0-3.12,67824,List1A,black,man,,,,,"{""Q0"":""kate is touching jane""}","<img src=""stim_listA/touch7.gif""</stim_listA>",is touching,
null,"<div style=""font-size:60px;"">+</div>",,html-keyboard-response,82,483014,0.0-13.0-0.13,67824,List1A,black,man,,,,null,,,,
null,"<img src=""stim_listA/dance3.gif""</stim_listA>",,html-keyboard-response,83,485017,0.0-13.0-1.13,67824,List1A,black,man,,,,null,,,,
null,is dancing with,,html-keyboard-response,84,487019,0.0-13.0-2.13,67824,List1A,black,man,,,,null,,,,
6573,,,survey-text,85,493592,0.0-13.0-3.13,67824,List1A,black,man,,,,,"{""Q0"":""luke is dancing with jane""}","<img src=""stim_listA/dance3.gif""</stim_listA>",is dancing with,
null,"<div style=""font-size:60px;"">+</div>",,html-keyboard-response,86,494093,0.0-13.0-0.14,67824,List1A,black,man,,,,null,,,,
null,"<img src=""stim_listA/hug2.gif""</stim_listA>",,html-keyboard-response,87,496096,0.0-13.0-1.14,67824,List1A,black,man,,,,null,,,,
null,are hugging each other,,html-keyboard-response,88,498098,0.0-13.0-2.14,67824,List1A,black,man,,,,null,,,,
9084,,,survey-text,89,507182,0.0-13.0-3.14,67824,List1A,black,man,,,,,"{""Q0"":""kate and mike are hugging each other""}","<img src=""stim_listA/hug2.gif""</stim_listA>",are hugging each other,
null,"<div style=""font-size:60px;"">+</div>",,html-keyboard-response,90,507683,0.0-13.0-0.15,67824,List1A,black,man,,,,null,,,,
null,"<img src=""stim_listA/fight8.gif""</stim_listA>",,html-keyboard-response,91,509686,0.0-13.0-1.15,67824,List1A,black,man,,,,null,,,,
null,are fighting each other,,html-keyboard-response,92,511687,0.0-13.0-2.15,67824,List1A,black,man,,,,null,,,,
8135,,,survey-text,93,519823,0.0-13.0-3.15,67824,List1A,black,man,,,,,"{""Q0"":""ruth and beth are fighting each other""}","<img src=""stim_listA/fight8.gif""</stim_listA>",are fighting each other,
null,"<div style=""font-size:60px;"">+</div>",,html-keyboard-response,94,520324,0.0-13.0-0.16,67824,List1A,black,man,,,,null,,,,
null,"<img src=""stim_listA/talk5.gif""</stim_listA>",,html-keyboard-response,95,522326,0.0-13.0-1.16,67824,List1A,black,man,,,,null,,,,
null,is talking to,,html-keyboard-response,96,524327,0.0-13.0-2.16,67824,List1A,black,man,,,,null,,,,
5074,,,survey-text,97,529401,0.0-13.0-3.16,67824,List1A,black,man,,,,,"{""Q0"":""fred is talking to dave""}","<img src=""stim_listA/talk5.gif""</stim_listA>",is talking to,
null,"<div style=""font-size:60px;"">+</div>",,html-keyboard-response,98,529902,0.0-13.0-0.17,67824,List1A,black,man,,,,null,,,,
null,"<img src=""stim_listA/talk8.gif""</stim_listA>",,html-keyboard-response,99,531905,0.0-13.0-1.17,67824,List1A,black,man,,,,null,,,,
null,are talking to each other,,html-keyboard-response,100,533906,0.0-13.0-2.17,67824,List1A,black,man,,,,null,,,,
8057,,,survey-text,101,541963,0.0-13.0-3.17,67824,List1A,black,man,,,,,"{""Q0"":""ruth and kate are talking to each other""}","<img src=""stim_listA/talk8.gif""</stim_listA>",are talking to each other,
null,"<div style=""font-size:60px;"">+</div>",,html-keyboard-response,102,542466,0.0-13.0-0.18,67824,List1A,black,man,,,,null,,,,
null,"<img src=""stim_listA/talk6.gif""</stim_listA>",,html-keyboard-response,103,544469,0.0-13.0-1.18,67824,List1A,black,man,,,,null,,,,
null,are talking to each other,,html-keyboard-response,104,546470,0.0-13.0-2.18,67824,List1A,black,man,,,,null,,,,
7142,,,survey-text,105,553613,0.0-13.0-3.18,67824,List1A,black,man,,,,,"{""Q0"":""luke and mike are talking to each other""}","<img src=""stim_listA/talk6.gif""</stim_listA>",are talking to each other,
null,"<div style=""font-size:60px;"">+</div>",,html-keyboard-response,106,554115,0.0-13.0-0.19,67824,List1A,black,man,,,,null,,,,
null,"<img src=""stim_listA/kiss1.gif""</stim_listA>",,html-keyboard-response,107,556118,0.0-13.0-1.19,67824,List1A,black,man,,,,null,,,,
null,is kissing,,html-keyboard-response,108,558119,0.0-13.0-2.19,67824,List1A,black,man,,,,null,,,,
5087,,,survey-text,109,563207,0.0-13.0-3.19,67824,List1A,black,man,,,,,"{""Q0"":""fred is kissing beth""}","<img src=""stim_listA/kiss1.gif""</stim_listA>",is kissing,
19742,"<img src='img/portrait_matrix_list1.JPG' style='width:900px;height:500px;''></img><p>If you have memorised all the portraits and names and are ready to start, press Continue.</p><p><strong>Please note: Your memory of these faces will be tested 4 times during this experiment.</strong></p>",0,html-button-response,110,582951,0.0-14.0-0.0,67824,List1A,black,man,,,,,,,,
2374,"<img src=""portrait/WW1.jpg""style=""width:400px;height:400px;""></img>",1,html-button-response,111,586327,0.0-14.0-1.0,67824,List1A,black,man,,TRUE,1,,,,,
null,CORRECT,,html-keyboard-response,112,587830,0.0-14.0-2.0-0.0,67824,List1A,black,man,,,,null,,,,
1588,"<img src=""portrait/BW1.jpg""style=""width:400px;height:400px;""></img>",0,html-button-response,113,589419,0.0-14.0-4.0,67824,List1A,black,man,,TRUE,0,,,,,
null,CORRECT,,html-keyboard-response,114,590922,0.0-14.0-5.0-0.0,67824,List1A,black,man,,,,null,,,,
1984,"<img src=""portrait/WM1.jpg""style=""width:400px;height:400px;""></img>",6,html-button-response,115,592907,0.0-14.0-7.0,67824,List1A,black,man,,TRUE,6,,,,,
null,CORRECT,,html-keyboard-response,116,594408,0.0-14.0-8.0-0.0,67824,List1A,black,man,,,,null,,,,
1340,"<img src=""portrait/WM2.jpg""style=""width:400px;height:400px;""></img>",7,html-button-response,117,595749,0.0-14.0-10.0,67824,List1A,black,man,,TRUE,7,,,,,
null,CORRECT,,html-keyboard-response,118,597250,0.0-14.0-11.0-0.0,67824,List1A,black,man,,,,null,,,,
1171,"<img src=""portrait/BM1.jpg""style=""width:400px;height:400px;""></img>",4,html-button-response,119,598423,0.0-14.0-13.0,67824,List1A,black,man,,TRUE,4,,,,,
null,CORRECT,,html-keyboard-response,120,599924,0.0-14.0-14.0-0.0,67824,List1A,black,man,,,,null,,,,
1231,"<img src=""portrait/BW2.jpg""style=""width:400px;height:400px;""></img>",2,html-button-response,121,601157,0.0-14.0-16.0,67824,List1A,black,man,,TRUE,2,,,,,
null,CORRECT,,html-keyboard-response,122,602661,0.0-14.0-17.0-0.0,67824,List1A,black,man,,,,null,,,,
1753,"<img src=""portrait/BM2.jpg""style=""width:400px;height:400px;""></img>",5,html-button-response,123,604414,0.0-14.0-19.0,67824,List1A,black,man,,TRUE,5,,,,,
null,CORRECT,,html-keyboard-response,124,605918,0.0-14.0-20.0-0.0,67824,List1A,black,man,,,,null,,,,
1378,"<img src=""portrait/WW2.jpg""style=""width:400px;height:400px;""></img>",3,html-button-response,125,607296,0.0-14.0-22.0,67824,List1A,black,man,,TRUE,3,,,,,
null,CORRECT,,html-keyboard-response,126,608798,0.0-14.0-23.0-0.0,67824,List1A,black,man,,,,null,,,,
1492,<p>You got 8 out of 8 right first time. Press Continue.</p>,0,html-button-response,127,610290,0.0-14.0-25.0,67824,List1A,black,man,,,,,,,,
null,"<div style=""font-size:60px;"">+</div>",,html-keyboard-response,128,611793,0.0-15.0-0.0,67824,List1A,black,man,,,,null,,,,
null,"<img src=""stim_listA/dance4.gif""</stim_listA>",,html-keyboard-response,129,613795,0.0-15.0-1.0,67824,List1A,black,man,,,,null,,,,
null,are dancing with each other,,html-keyboard-response,130,615795,0.0-15.0-2.0,67824,List1A,black,man,,,,null,,,,
6946,,,survey-text,131,622743,0.0-15.0-3.0,67824,List1A,black,man,,,,,"{""Q0"":""ruth and dave are dancing with each other""}","<img src=""stim_listA/dance4.gif""</stim_listA>",are dancing with each other,
null,"<div style=""font-size:60px;"">+</div>",,html-keyboard-response,132,623244,0.0-15.0-0.1,67824,List1A,black,man,,,,null,,,,
null,"<img src=""stim_listA/touch4.gif""</stim_listA>",,html-keyboard-response,133,625247,0.0-15.0-1.1,67824,List1A,black,man,,,,null,,,,
null,are touching each other,,html-keyboard-response,134,627248,0.0-15.0-2.1,67824,List1A,black,man,,,,null,,,,
6152,,,survey-text,135,633400,0.0-15.0-3.1,67824,List1A,black,man,,,,,"{""Q0"":""ruth and luke are touching each other""}","<img src=""stim_listA/touch4.gif""</stim_listA>",are touching each other,
null,"<div style=""font-size:60px;"">+</div>",,html-keyboard-response,136,633901,0.0-15.0-0.2,67824,List1A,black,man,,,,null,,,,
null,"<img src=""stim_listA/kiss6.gif""</stim_listA>",,html-keyboard-response,137,635904,0.0-15.0-1.2,67824,List1A,black,man,,,,null,,,,
null,are kissing each other,,html-keyboard-response,138,637905,0.0-15.0-2.2,67824,List1A,black,man,,,,null,,,,
6028,,,survey-text,139,643934,0.0-15.0-3.2,67824,List1A,black,man,,,,,"{""Q0"":""dave and mike are kissing each other""}","<img src=""stim_listA/kiss6.gif""</stim_listA>",are kissing each other,
null,"<div style=""font-size:60px;"">+</div>",,html-keyboard-response,140,644435,0.0-15.0-0.3,67824,List1A,black,man,,,,null,,,,
null,"<img src=""stim_listA/marry4.gif""</stim_listA>",,html-keyboard-response,141,646438,0.0-15.0-1.3,67824,List1A,black,man,,,,null,,,,
null,are marrying each other,,html-keyboard-response,142,648439,0.0-15.0-2.3,67824,List1A,black,man,,,,null,,,,
6907,,,survey-text,143,655347,0.0-15.0-3.3,67824,List1A,black,man,,,,,"{""Q0"":""jane and luke are marrying each other""}","<img src=""stim_listA/marry4.gif""</stim_listA>",are marrying each other,
null,"<div style=""font-size:60px;"">+</div>",,html-keyboard-response,144,655849,0.0-15.0-0.4,67824,List1A,black,man,,,,null,,,,
null,"<img src=""stim_listA/touch6.gif""</stim_listA>",,html-keyboard-response,145,657852,0.0-15.0-1.4,67824,List1A,black,man,,,,null,,,,
null,are touching each other,,html-keyboard-response,146,659852,0.0-15.0-2.4,67824,List1A,black,man,,,,null,,,,
7336,,,survey-text,147,667190,0.0-15.0-3.4,67824,List1A,black,man,,,,,"{""Q0"":""luke and fred are touching each other""}","<img src=""stim_listA/touch6.gif""</stim_listA>",are touching each other,
null,"<div style=""font-size:60px;"">+</div>",,html-keyboard-response,148,667691,0.0-15.0-0.5,67824,List1A,black,man,,,,null,,,,
null,"<img src=""stim_listA/marry7.gif""</stim_listA>",,html-keyboard-response,149,669694,0.0-15.0-1.5,67824,List1A,black,man,,,,null,,,,
null,is marrying,,html-keyboard-response,150,671695,0.0-15.0-2.5,67824,List1A,black,man,,,,null,,,,
5383,,,survey-text,151,677079,0.0-15.0-3.5,67824,List1A,black,man,,,,,"{""Q0"":""kate is marrying ruth""}","<img src=""stim_listA/marry7.gif""</stim_listA>",is marrying,
null,"<div style=""font-size:60px;"">+</div>",,html-keyboard-response,152,677580,0.0-15.0-0.6,67824,List1A,black,man,,,,null,,,,
null,"<img src=""stim_listA/argue1.gif""</stim_listA>",,html-keyboard-response,153,679582,0.0-15.0-1.6,67824,List1A,black,man,,,,null,,,,
null,is arguing with,,html-keyboard-response,154,681584,0.0-15.0-2.6,67824,List1A,black,man,,,,null,,,,
6091,,,survey-text,155,687675,0.0-15.0-3.6,67824,List1A,black,man,,,,,"{""Q0"":""mike is arguing with beth""}","<img src=""stim_listA/argue1.gif""</stim_listA>",is arguing with,
null,"<div style=""font-size:60px;"">+</div>",,html-keyboard-response,156,688177,0.0-15.0-0.7,67824,List1A,black,man,,,,null,,,,
null,"<img src=""stim_listA/touch2.gif""</stim_listA>",,html-keyboard-response,157,690179,0.0-15.0-1.7,67824,List1A,black,man,,,,null,,,,
null,are touching each other,,html-keyboard-response,158,692181,0.0-15.0-2.7,67824,List1A,black,man,,,,null,,,,
7512,,,survey-text,159,699694,0.0-15.0-3.7,67824,List1A,black,man,,,,,"{""Q0"":""beth and fred are touching each other""}","<img src=""stim_listA/touch2.gif""</stim_listA>",are touching each other,
null,"<div style=""font-size:60px;"">+</div>",,html-keyboard-response,160,700196,0.0-15.0-0.8,67824,List1A,black,man,,,,null,,,,
null,"<img src=""stim_listA/hug3.gif""</stim_listA>",,html-keyboard-response,161,702199,0.0-15.0-1.8,67824,List1A,black,man,,,,null,,,,
null,is hugging,,html-keyboard-response,162,704201,0.0-15.0-2.8,67824,List1A,black,man,,,,null,,,,
5112,,,survey-text,163,709313,0.0-15.0-3.8,67824,List1A,black,man,,,,,"{""Q0"":""luke is hugging ruth""}","<img src=""stim_listA/hug3.gif""</stim_listA>",is hugging,
null,"<div style=""font-size:60px;"">+</div>",,html-keyboard-response,164,709815,0.0-15.0-0.9,67824,List1A,black,man,,,,null,,,,
null,"<img src=""stim_listA/kiss2.gif""</stim_listA>",,html-keyboard-response,165,711817,0.0-15.0-1.9,67824,List1A,black,man,,,,null,,,,
null,are kissing each other,,html-keyboard-response,166,713818,0.0-15.0-2.9,67824,List1A,black,man,,,,null,,,,
6647,,,survey-text,167,720465,0.0-15.0-3.9,67824,List1A,black,man,,,,,"{""Q0"":""kate and mike are kissing each other""}","<img src=""stim_listA/kiss2.gif""</stim_listA>",are kissing each other,
null,"<div style=""font-size:60px;"">+</div>",,html-keyboard-response,168,720966,0.0-15.0-0.10,67824,List1A,black,man,,,,null,,,,
null,"<img src=""stim_listA/shout6.gif""</stim_listA>",,html-keyboard-response,169,722968,0.0-15.0-1.10,67824,List1A,black,man,,,,null,,,,
null,are shouting at each other,,html-keyboard-response,170,724970,0.0-15.0-2.10,67824,List1A,black,man,,,,null,,,,
7178,,,survey-text,171,732149,0.0-15.0-3.10,67824,List1A,black,man,,,,,"{""Q0"":""dave and mike are shouting at each other""}","<img src=""stim_listA/shout6.gif""</stim_listA>",are shouting at each other,
null,"<div style=""font-size:60px;"">+</div>",,html-keyboard-response,172,732650,0.0-15.0-0.11,67824,List1A,black,man,,,,null,,,,
null,"<img src=""stim_listA/kiss5.gif""</stim_listA>",,html-keyboard-response,173,734653,0.0-15.0-1.11,67824,List1A,black,man,,,,null,,,,
null,is kissing,,html-keyboard-response,174,736654,0.0-15.0-2.11,67824,List1A,black,man,,,,null,,,,
5271,,,survey-text,175,741927,0.0-15.0-3.11,67824,List1A,black,man,,,,,"{""Q0"":""fred is kissing luke""}","<img src=""stim_listA/kiss5.gif""</stim_listA>",is kissing,
null,"<div style=""font-size:60px;"">+</div>",,html-keyboard-response,176,742428,0.0-15.0-0.12,67824,List1A,black,man,,,,null,,,,
null,"<img src=""stim_listA/meet3.gif""</stim_listA>",,html-keyboard-response,177,744431,0.0-15.0-1.12,67824,List1A,black,man,,,,null,,,,
null,is meeting,,html-keyboard-response,178,746432,0.0-15.0-2.12,67824,List1A,black,man,,,,null,,,,
4132,,,survey-text,179,750564,0.0-15.0-3.12,67824,List1A,black,man,,,,,"{""Q0"":""dave is meeting jane""}","<img src=""stim_listA/meet3.gif""</stim_listA>",is meeting,
null,"<div style=""font-size:60px;"">+</div>",,html-keyboard-response,180,751066,0.0-15.0-0.13,67824,List1A,black,man,,,,null,,,,
null,"<img src=""stim_listA/meet2.gif""</stim_listA>",,html-keyboard-response,181,753069,0.0-15.0-1.13,67824,List1A,black,man,,,,null,,,,
null,are meeting each other,,html-keyboard-response,182,755071,0.0-15.0-2.13,67824,List1A,black,man,,,,null,,,,
8157,,,survey-text,183,763228,0.0-15.0-3.13,67824,List1A,black,man,,,,,"{""Q0"":""beth and fred are meeting each other""}","<img src=""stim_listA/meet2.gif""</stim_listA>",are meeting each other,
null,"<div style=""font-size:60px;"">+</div>",,html-keyboard-response,184,763729,0.0-15.0-0.14,67824,List1A,black,man,,,,null,,,,
null,"<img src=""stim_listA/kiss3.gif""</stim_listA>",,html-keyboard-response,185,765732,0.0-15.0-1.14,67824,List1A,black,man,,,,null,,,,
null,is kissing,,html-keyboard-response,186,767733,0.0-15.0-2.14,67824,List1A,black,man,,,,null,,,,
5288,,,survey-text,187,773023,0.0-15.0-3.14,67824,List1A,black,man,,,,,"{""Q0"":""luke is kissing ruth""}","<img src=""stim_listA/kiss3.gif""</stim_listA>",is kissing,
null,"<div style=""font-size:60px;"">+</div>",,html-keyboard-response,188,773524,0.0-15.0-0.15,67824,List1A,black,man,,,,null,,,,
null,"<img src=""stim_listA/hug4.gif""</stim_listA>",,html-keyboard-response,189,775527,0.0-15.0-1.15,67824,List1A,black,man,,,,null,,,,
null,are hugging each other,,html-keyboard-response,190,777527,0.0-15.0-2.15,67824,List1A,black,man,,,,null,,,,
6523,,,survey-text,191,784052,0.0-15.0-3.15,67824,List1A,black,man,,,,,"{""Q0"":""jane and dave are hugging each other""}","<img src=""stim_listA/hug4.gif""</stim_listA>",are hugging each other,
null,"<div style=""font-size:60px;"">+</div>",,html-keyboard-response,192,784553,0.0-15.0-0.16,67824,List1A,black,man,,,,null,,,,
null,"<img src=""stim_listA/fight4.gif""</stim_listA>",,html-keyboard-response,193,786554,0.0-15.0-1.16,67824,List1A,black,man,,,,null,,,,
null,are fighting each other,,html-keyboard-response,194,788555,0.0-15.0-2.16,67824,List1A,black,man,,,,null,,,,
7026,,,survey-text,195,795581,0.0-15.0-3.16,67824,List1A,black,man,,,,,"{""Q0"":""ruth and luke are fighting each other""}","<img src=""stim_listA/fight4.gif""</stim_listA>",are fighting each other,
null,"<div style=""font-size:60px;"">+</div>",,html-keyboard-response,196,796083,0.0-15.0-0.17,67824,List1A,black,man,,,,null,,,,
null,"<img src=""stim_listA/hug8.gif""</stim_listA>",,html-keyboard-response,197,798084,0.0-15.0-1.17,67824,List1A,black,man,,,,null,,,,
null,are hugging each other,,html-keyboard-response,198,800085,0.0-15.0-2.17,67824,List1A,black,man,,,,null,,,,
6555,,,survey-text,199,806641,0.0-15.0-3.17,67824,List1A,black,man,,,,,"{""Q0"":""jane and kate are hugging each other""}","<img src=""stim_listA/hug8.gif""</stim_listA>",are hugging each other,
null,"<div style=""font-size:60px;"">+</div>",,html-keyboard-response,200,807143,0.0-15.0-0.18,67824,List1A,black,man,,,,null,,,,
null,"<img src=""stim_listA/touch1.gif""</stim_listA>",,html-keyboard-response,201,809145,0.0-15.0-1.18,67824,List1A,black,man,,,,null,,,,
null,is touching,,html-keyboard-response,202,811146,0.0-15.0-2.18,67824,List1A,black,man,,,,null,,,,
5258,,,survey-text,203,816405,0.0-15.0-3.18,67824,List1A,black,man,,,,,"{""Q0"":""mike is touching kate""}","<img src=""stim_listA/touch1.gif""</stim_listA>",is touching,
null,"<div style=""font-size:60px;"">+</div>",,html-keyboard-response,204,816907,0.0-15.0-0.19,67824,List1A,black,man,,,,null,,,,
null,"<img src=""stim_listA/hug1.gif""</stim_listA>",,html-keyboard-response,205,818910,0.0-15.0-1.19,67824,List1A,black,man,,,,null,,,,
null,is hugging,,html-keyboard-response,206,820911,0.0-15.0-2.19,67824,List1A,black,man,,,,null,,,,
4826,,,survey-text,207,825737,0.0-15.0-3.19,67824,List1A,black,man,,,,,"{""Q0"":""fred is hugging beth""}","<img src=""stim_listA/hug1.gif""</stim_listA>",is hugging,
18526,"<img src='img/portrait_matrix_list1.JPG' style='width:900px;height:500px;''></img><p>If you have memorised all the portraits and names and are ready to start, press Continue.</p><p><strong>Please note: Your memory of these faces will be tested 4 times during this experiment.</strong></p>",0,html-button-response,208,844263,0.0-16.0-0.0,67824,List1A,black,man,,,,,,,,
1931,"<img src=""portrait/WW2.jpg""style=""width:400px;height:400px;""></img>",3,html-button-response,209,847197,0.0-16.0-1.0,67824,List1A,black,man,,TRUE,3,,,,,
null,CORRECT,,html-keyboard-response,210,848700,0.0-16.0-2.0-0.0,67824,List1A,black,man,,,,null,,,,
1541,"<img src=""portrait/WW1.jpg""style=""width:400px;height:400px;""></img>",1,html-button-response,211,850243,0.0-16.0-4.0,67824,List1A,black,man,,TRUE,1,,,,,
null,CORRECT,,html-keyboard-response,212,851744,0.0-16.0-5.0-0.0,67824,List1A,black,man,,,,null,,,,
1861,"<img src=""portrait/BM2.jpg""style=""width:400px;height:400px;""></img>",5,html-button-response,213,853607,0.0-16.0-7.0,67824,List1A,black,man,,TRUE,5,,,,,
null,CORRECT,,html-keyboard-response,214,855110,0.0-16.0-8.0-0.0,67824,List1A,black,man,,,,null,,,,
2250,"<img src=""portrait/BW1.jpg""style=""width:400px;height:400px;""></img>",0,html-button-response,215,857361,0.0-16.0-10.0,67824,List1A,black,man,,TRUE,0,,,,,
null,CORRECT,,html-keyboard-response,216,858864,0.0-16.0-11.0-0.0,67824,List1A,black,man,,,,null,,,,
1205,"<img src=""portrait/BM1.jpg""style=""width:400px;height:400px;""></img>",4,html-button-response,217,860069,0.0-16.0-13.0,67824,List1A,black,man,,TRUE,4,,,,,
null,CORRECT,,html-keyboard-response,218,861571,0.0-16.0-14.0-0.0,67824,List1A,black,man,,,,null,,,,
1728,"<img src=""portrait/WM1.jpg""style=""width:400px;height:400px;""></img>",6,html-button-response,219,863301,0.0-16.0-16.0,67824,List1A,black,man,,TRUE,6,,,,,
null,CORRECT,,html-keyboard-response,220,864805,0.0-16.0-17.0-0.0,67824,List1A,black,man,,,,null,,,,
2491,"<img src=""portrait/BW2.jpg""style=""width:400px;height:400px;""></img>",2,html-button-response,221,867297,0.0-16.0-19.0,67824,List1A,black,man,,TRUE,2,,,,,
null,CORRECT,,html-keyboard-response,222,868798,0.0-16.0-20.0-0.0,67824,List1A,black,man,,,,null,,,,
1266,"<img src=""portrait/WM2.jpg""style=""width:400px;height:400px;""></img>",7,html-button-response,223,870065,0.0-16.0-22.0,67824,List1A,black,man,,TRUE,7,,,,,
null,CORRECT,,html-keyboard-response,224,871570,0.0-16.0-23.0-0.0,67824,List1A,black,man,,,,null,,,,
1620,<p>You got 8 out of 8 right first time. Press Continue.</p>,0,html-button-response,225,873191,0.0-16.0-25.0,67824,List1A,black,man,,,,,,,,
null,"<div style=""font-size:60px;"">+</div>",,html-keyboard-response,226,874696,0.0-17.0-0.0,67824,List1A,black,man,,,,null,,,,
null,"<img src=""stim_listA/fight1.gif""</stim_listA>",,html-keyboard-response,227,876699,0.0-17.0-1.0,67824,List1A,black,man,,,,null,,,,
null,is fighting,,html-keyboard-response,228,878699,0.0-17.0-2.0,67824,List1A,black,man,,,,null,,,,
4600,,,survey-text,229,883301,0.0-17.0-3.0,67824,List1A,black,man,,,,,"{""Q0"":""mike is fighting kate""}","<img src=""stim_listA/fight1.gif""</stim_listA>",is fighting,
null,"<div style=""font-size:60px;"">+</div>",,html-keyboard-response,230,883801,0.0-17.0-0.1,67824,List1A,black,man,,,,null,,,,
null,"<img src=""stim_listA/kiss4.gif""</stim_listA>",,html-keyboard-response,231,885804,0.0-17.0-1.1,67824,List1A,black,man,,,,null,,,,
null,are kissing each other,,html-keyboard-response,232,887805,0.0-17.0-2.1,67824,List1A,black,man,,,,null,,,,
7961,,,survey-text,233,895766,0.0-17.0-3.1,67824,List1A,black,man,,,,,"{""Q0"":""jane and dave are kissing each other""}","<img src=""stim_listA/kiss4.gif""</stim_listA>",are kissing each other,
null,"<div style=""font-size:60px;"">+</div>",,html-keyboard-response,234,896268,0.0-17.0-0.2,67824,List1A,black,man,,,,null,,,,
null,"<img src=""stim_listA/dance7.gif""</stim_listA>",,html-keyboard-response,235,898270,0.0-17.0-1.2,67824,List1A,black,man,,,,null,,,,
null,is dancing with,,html-keyboard-response,236,900272,0.0-17.0-2.2,67824,List1A,black,man,,,,null,,,,
6336,,,survey-text,237,906608,0.0-17.0-3.2,67824,List1A,black,man,,,,,"{""Q0"":""beth is dancing with jane""}","<img src=""stim_listA/dance7.gif""</stim_listA>",is dancing with,
null,"<div style=""font-size:60px;"">+</div>",,html-keyboard-response,238,907110,0.0-17.0-0.3,67824,List1A,black,man,,,,null,,,,
null,"<img src=""stim_listA/marry1.gif""</stim_listA>",,html-keyboard-response,239,909111,0.0-17.0-1.3,67824,List1A,black,man,,,,null,,,,
null,is marrying,,html-keyboard-response,240,911113,0.0-17.0-2.3,67824,List1A,black,man,,,,null,,,,
5707,,,survey-text,241,916820,0.0-17.0-3.3,67824,List1A,black,man,,,,,"{""Q0"":""mike is marrying beth""}","<img src=""stim_listA/marry1.gif""</stim_listA>",is marrying,
null,"<div style=""font-size:60px;"">+</div>",,html-keyboard-response,242,917321,0.0-17.0-0.4,67824,List1A,black,man,,,,null,,,,
null,"<img src=""stim_listA/kiss7.gif""</stim_listA>",,html-keyboard-response,243,919324,0.0-17.0-1.4,67824,List1A,black,man,,,,null,,,,
null,is kissing,,html-keyboard-response,244,921326,0.0-17.0-2.4,67824,List1A,black,man,,,,null,,,,
5362,,,survey-text,245,926689,0.0-17.0-3.4,67824,List1A,black,man,,,,,"{""Q0"":""beth is kissing ruth""}","<img src=""stim_listA/kiss7.gif""</stim_listA>",is kissing,
null,"<div style=""font-size:60px;"">+</div>",,html-keyboard-response,246,927190,0.0-17.0-0.5,67824,List1A,black,man,,,,null,,,,
null,"<img src=""stim_listA/argue4.gif""</stim_listA>",,html-keyboard-response,247,929193,0.0-17.0-1.5,67824,List1A,black,man,,,,null,,,,
null,are arguing with each other,,html-keyboard-response,248,931193,0.0-17.0-2.5,67824,List1A,black,man,,,,null,,,,
7504,,,survey-text,249,938698,0.0-17.0-3.5,67824,List1A,black,man,,,,,"{""Q0"":""jane and luke are arguing with each other""}","<img src=""stim_listA/argue4.gif""</stim_listA>",are arguing with each other,
null,"<div style=""font-size:60px;"">+</div>",,html-keyboard-response,250,939199,0.0-17.0-0.6,67824,List1A,black,man,,,,null,,,,
null,"<img src=""stim_listA/dance1.gif""</stim_listA>",,html-keyboard-response,251,941201,0.0-17.0-1.6,67824,List1A,black,man,,,,null,,,,
null,is dancing with,,html-keyboard-response,252,943203,0.0-17.0-2.6,67824,List1A,black,man,,,,null,,,,
5893,,,survey-text,253,949096,0.0-17.0-3.6,67824,List1A,black,man,,,,,"{""Q0"":""fred is dancing with kate""}","<img src=""stim_listA/dance1.gif""</stim_listA>",is dancing with,
null,"<div style=""font-size:60px;"">+</div>",,html-keyboard-response,254,949597,0.0-17.0-0.7,67824,List1A,black,man,,,,null,,,,
null,"<img src=""stim_listA/shout3.gif""</stim_listA>",,html-keyboard-response,255,951599,0.0-17.0-1.7,67824,List1A,black,man,,,,null,,,,
null,is shouting at,,html-keyboard-response,256,953601,0.0-17.0-2.7,67824,List1A,black,man,,,,null,,,,
6508,,,survey-text,257,960110,0.0-17.0-3.7,67824,List1A,black,man,,,,,"{""Q0"":""luke is shouting at ruth""}","<img src=""stim_listA/shout3.gif""</stim_listA>",is shouting at,
null,"<div style=""font-size:60px;"">+</div>",,html-keyboard-response,258,960611,0.0-17.0-0.8,67824,List1A,black,man,,,,null,,,,
null,"<img src=""stim_listA/hug6.gif""</stim_listA>",,html-keyboard-response,259,962614,0.0-17.0-1.8,67824,List1A,black,man,,,,null,,,,
null,are hugging each other,,html-keyboard-response,260,964615,0.0-17.0-2.8,67824,List1A,black,man,,,,null,,,,
6498,,,survey-text,261,971113,0.0-17.0-3.8,67824,List1A,black,man,,,,,"{""Q0"":""dave and mike are hugging each other""}","<img src=""stim_listA/hug6.gif""</stim_listA>",are hugging each other,
null,"<div style=""font-size:60px;"">+</div>",,html-keyboard-response,262,971616,0.0-17.0-0.9,67824,List1A,black,man,,,,null,,,,
null,"<img src=""stim_listA/hug7.gif""</stim_listA>",,html-keyboard-response,263,973619,0.0-17.0-1.9,67824,List1A,black,man,,,,null,,,,
null,is hugging,,html-keyboard-response,264,975621,0.0-17.0-2.9,67824,List1A,black,man,,,,null,,,,
5308,,,survey-text,265,980930,0.0-17.0-3.9,67824,List1A,black,man,,,,,"{""Q0"":""beth is hugging ruth""}","<img src=""stim_listA/hug7.gif""</stim_listA>",is hugging,
null,"<div style=""font-size:60px;"">+</div>",,html-keyboard-response,266,981432,0.0-17.0-0.10,67824,List1A,black,man,,,,null,,,,
null,"<img src=""stim_listA/meet4.gif""</stim_listA>",,html-keyboard-response,267,983434,0.0-17.0-1.10,67824,List1A,black,man,,,,null,,,,
null,are meeting each other,,html-keyboard-response,268,985435,0.0-17.0-2.10,67824,List1A,black,man,,,,null,,,,
6821,,,survey-text,269,992258,0.0-17.0-3.10,67824,List1A,black,man,,,,,"{""Q0"":""ruth and luke are meeting each other""}","<img src=""stim_listA/meet4.gif""</stim_listA>",are meeting each other,
null,"<div style=""font-size:60px;"">+</div>",,html-keyboard-response,270,992759,0.0-17.0-0.11,67824,List1A,black,man,,,,null,,,,
null,"<img src=""stim_listA/argue3.gif""</stim_listA>",,html-keyboard-response,271,994762,0.0-17.0-1.11,67824,List1A,black,man,,,,null,,,,
null,is arguing with,,html-keyboard-response,272,996763,0.0-17.0-2.11,67824,List1A,black,man,,,,null,,,,
7915,,,survey-text,273,1004679,0.0-17.0-3.11,67824,List1A,black,man,,,,,"{""Q0"":""dave is arguing with ruth""}","<img src=""stim_listA/argue3.gif""</stim_listA>",is arguing with,
null,"<div style=""font-size:60px;"">+</div>",,html-keyboard-response,274,1005181,0.0-17.0-0.12,67824,List1A,black,man,,,,null,,,,
null,"<img src=""stim_listA/meet5.gif""</stim_listA>",,html-keyboard-response,275,1007184,0.0-17.0-1.12,67824,List1A,black,man,,,,null,,,,
null,is meeting,,html-keyboard-response,276,1009185,0.0-17.0-2.12,67824,List1A,black,man,,,,null,,,,
10203,,,survey-text,277,1019389,0.0-17.0-3.12,67824,List1A,black,man,,,,,"{""Q0"":""mike is meeting dave""}","<img src=""stim_listA/meet5.gif""</stim_listA>",is meeting,
null,"<div style=""font-size:60px;"">+</div>",,html-keyboard-response,278,1019891,0.0-17.0-0.13,67824,List1A,black,man,,,,null,,,,
null,"<img src=""stim_listA/fight5.gif""</stim_listA>",,html-keyboard-response,279,1021892,0.0-17.0-1.13,67824,List1A,black,man,,,,null,,,,
null,is fighting,,html-keyboard-response,280,1023894,0.0-17.0-2.13,67824,List1A,black,man,,,,null,,,,
5033,,,survey-text,281,1028927,0.0-17.0-3.13,67824,List1A,black,man,,,,,"{""Q0"":""mike is fighting dave""}","<img src=""stim_listA/fight5.gif""</stim_listA>",is fighting,
null,"<div style=""font-size:60px;"">+</div>",,html-keyboard-response,282,1029428,0.0-17.0-0.14,67824,List1A,black,man,,,,null,,,,
null,"<img src=""stim_listA/fight3.gif""</stim_listA>",,html-keyboard-response,283,1031431,0.0-17.0-1.14,67824,List1A,black,man,,,,null,,,,
null,is fighting,,html-keyboard-response,284,1033432,0.0-17.0-2.14,67824,List1A,black,man,,,,null,,,,
5766,,,survey-text,285,1039199,0.0-17.0-3.14,67824,List1A,black,man,,,,,"{""Q0"":""dave is fighting jane""}","<img src=""stim_listA/fight3.gif""</stim_listA>",is fighting,
null,"<div style=""font-size:60px;"">+</div>",,html-keyboard-response,286,1039699,0.0-17.0-0.15,67824,List1A,black,man,,,,null,,,,
null,"<img src=""stim_listA/marry2.gif""</stim_listA>",,html-keyboard-response,287,1041701,0.0-17.0-1.15,67824,List1A,black,man,,,,null,,,,
null,are marrying each other,,html-keyboard-response,288,1043703,0.0-17.0-2.15,67824,List1A,black,man,,,,null,,,,
7239,,,survey-text,289,1050942,0.0-17.0-3.15,67824,List1A,black,man,,,,,"{""Q0"":""kate and fred are marrying each other""}","<img src=""stim_listA/marry2.gif""</stim_listA>",are marrying each other,
null,"<div style=""font-size:60px;"">+</div>",,html-keyboard-response,290,1051445,0.0-17.0-0.16,67824,List1A,black,man,,,,null,,,,
null,"<img src=""stim_listA/argue6.gif""</stim_listA>",,html-keyboard-response,291,1053448,0.0-17.0-1.16,67824,List1A,black,man,,,,null,,,,
null,are arguing with each other,,html-keyboard-response,292,1055450,0.0-17.0-2.16,67824,List1A,black,man,,,,null,,,,
8168,,,survey-text,293,1063618,0.0-17.0-3.16,67824,List1A,black,man,,,,,"{""Q0"":""dave and fred are arguing with each other""}","<img src=""stim_listA/argue6.gif""</stim_listA>",are arguing with each other,
null,"<div style=""font-size:60px;"">+</div>",,html-keyboard-response,294,1064119,0.0-17.0-0.17,67824,List1A,black,man,,,,null,,,,
null,"<img src=""stim_listA/dance6.gif""</stim_listA>",,html-keyboard-response,295,1066122,0.0-17.0-1.17,67824,List1A,black,man,,,,null,,,,
null,are dancing with each other,,html-keyboard-response,296,1068123,0.0-17.0-2.17,67824,List1A,black,man,,,,null,,,,
7681,,,survey-text,297,1075804,0.0-17.0-3.17,67824,List1A,black,man,,,,,"{""Q0"":""luke and mike are dancing with each other""}","<img src=""stim_listA/dance6.gif""</stim_listA>",are dancing with each other,
null,"<div style=""font-size:60px;"">+</div>",,html-keyboard-response,298,1076306,0.0-17.0-0.18,67824,List1A,black,man,,,,null,,,,
null,"<img src=""stim_listA/talk4.gif""</stim_listA>",,html-keyboard-response,299,1078308,0.0-17.0-1.18,67824,List1A,black,man,,,,null,,,,
null,are talking to each other,,html-keyboard-response,300,1080310,0.0-17.0-2.18,67824,List1A,black,man,,,,null,,,,
7545,,,survey-text,301,1087856,0.0-17.0-3.18,67824,List1A,black,man,,,,,"{""Q0"":""ruth and dave are talking to each other""}","<img src=""stim_listA/talk4.gif""</stim_listA>",are talking to each other,
null,"<div style=""font-size:60px;"">+</div>",,html-keyboard-response,302,1088358,0.0-17.0-0.19,67824,List1A,black,man,,,,null,,,,
null,"<img src=""stim_listA/talk1.gif""</stim_listA>",,html-keyboard-response,303,1090360,0.0-17.0-1.19,67824,List1A,black,man,,,,null,,,,
null,is talking to,,html-keyboard-response,304,1092361,0.0-17.0-2.19,67824,List1A,black,man,,,,null,,,,
4851,,,survey-text,305,1097212,0.0-17.0-3.19,67824,List1A,black,man,,,,,"{""Q0"":""fred is talking to kate""}","<img src=""stim_listA/talk1.gif""</stim_listA>",is talking to,
45618,"<img src='img/portrait_matrix_list1.JPG' style='width:900px;height:500px;''></img><p>If you have memorised all the portraits and names and are ready to start, press Continue.</p><p><strong>Please note: Your memory of these faces will be tested 4 times during this experiment.</strong></p>",0,html-button-response,306,1142831,0.0-18.0-0.0,67824,List1A,black,man,,,,,,,,
2658,"<img src=""portrait/BM1.jpg""style=""width:400px;height:400px;""></img>",4,html-button-response,307,1146492,0.0-18.0-1.0,67824,List1A,black,man,,TRUE,4,,,,,
null,CORRECT,,html-keyboard-response,308,1147994,0.0-18.0-2.0-0.0,67824,List1A,black,man,,,,null,,,,
1729,"<img src=""portrait/WM1.jpg""style=""width:400px;height:400px;""></img>",6,html-button-response,309,1149724,0.0-18.0-4.0,67824,List1A,black,man,,TRUE,6,,,,,
null,CORRECT,,html-keyboard-response,310,1151226,0.0-18.0-5.0-0.0,67824,List1A,black,man,,,,null,,,,
1442,"<img src=""portrait/WW1.jpg""style=""width:400px;height:400px;""></img>",1,html-button-response,311,1152669,0.0-18.0-7.0,67824,List1A,black,man,,TRUE,1,,,,,
null,CORRECT,,html-keyboard-response,312,1154171,0.0-18.0-8.0-0.0,67824,List1A,black,man,,,,null,,,,
2098,"<img src=""portrait/BM2.jpg""style=""width:400px;height:400px;""></img>",5,html-button-response,313,1156270,0.0-18.0-10.0,67824,List1A,black,man,,TRUE,5,,,,,
null,CORRECT,,html-keyboard-response,314,1157771,0.0-18.0-11.0-0.0,67824,List1A,black,man,,,,null,,,,
1619,"<img src=""portrait/BW1.jpg""style=""width:400px;height:400px;""></img>",0,html-button-response,315,1159391,0.0-18.0-13.0,67824,List1A,black,man,,TRUE,0,,,,,
null,CORRECT,,html-keyboard-response,316,1160893,0.0-18.0-14.0-0.0,67824,List1A,black,man,,,,null,,,,
1622,"<img src=""portrait/WW2.jpg""style=""width:400px;height:400px;""></img>",3,html-button-response,317,1162516,0.0-18.0-16.0,67824,List1A,black,man,,TRUE,3,,,,,
null,CORRECT,,html-keyboard-response,318,1164019,0.0-18.0-17.0-0.0,67824,List1A,black,man,,,,null,,,,
1262,"<img src=""portrait/WM2.jpg""style=""width:400px;height:400px;""></img>",7,html-button-response,319,1165281,0.0-18.0-19.0,67824,List1A,black,man,,TRUE,7,,,,,
null,CORRECT,,html-keyboard-response,320,1166783,0.0-18.0-20.0-0.0,67824,List1A,black,man,,,,null,,,,
1982,"<img src=""portrait/BW2.jpg""style=""width:400px;height:400px;""></img>",2,html-button-response,321,1168766,0.0-18.0-22.0,67824,List1A,black,man,,TRUE,2,,,,,
null,CORRECT,,html-keyboard-response,322,1170269,0.0-18.0-23.0-0.0,67824,List1A,black,man,,,,null,,,,
1524,<p>You got 8 out of 8 right first time. Press Continue.</p>,0,html-button-response,323,1171793,0.0-18.0-25.0,67824,List1A,black,man,,,,,,,,
null,"<div style=""font-size:60px;"">+</div>",,html-keyboard-response,324,1173296,0.0-19.0-0.0,67824,List1A,black,man,,,,null,,,,
null,"<img src=""stim_listA/shout5.gif""</stim_listA>",,html-keyboard-response,325,1175303,0.0-19.0-1.0,67824,List1A,black,man,,,,null,,,,
null,is shouting at,,html-keyboard-response,326,1177304,0.0-19.0-2.0,67824,List1A,black,man,,,,null,,,,
6722,,,survey-text,327,1184027,0.0-19.0-3.0,67824,List1A,black,man,,,,,"{""Q0"":""fred is shouting at luke""}","<img src=""stim_listA/shout5.gif""</stim_listA>",is shouting at,
null,"<div style=""font-size:60px;"">+</div>",,html-keyboard-response,328,1184528,0.0-19.0-0.1,67824,List1A,black,man,,,,null,,,,
null,"<img src=""stim_listA/argue5.gif""</stim_listA>",,html-keyboard-response,329,1186531,0.0-19.0-1.1,67824,List1A,black,man,,,,null,,,,
null,is arguing with,,html-keyboard-response,330,1188531,0.0-19.0-2.1,67824,List1A,black,man,,,,null,,,,
6992,,,survey-text,331,1195525,0.0-19.0-3.1,67824,List1A,black,man,,,,,"{""Q0"":""mike is arguing with luke""}","<img src=""stim_listA/argue5.gif""</stim_listA>",is arguing with,
null,"<div style=""font-size:60px;"">+</div>",,html-keyboard-response,332,1196026,0.0-19.0-0.2,67824,List1A,black,man,,,,null,,,,
null,"<img src=""stim_listA/argue7.gif""</stim_listA>",,html-keyboard-response,333,1198028,0.0-19.0-1.2,67824,List1A,black,man,,,,null,,,,
null,is arguing with,,html-keyboard-response,334,1200029,0.0-19.0-2.2,67824,List1A,black,man,,,,null,,,,
11597,,,survey-text,335,1211627,0.0-19.0-3.2,67824,List1A,black,man,,,,,"{""Q0"":""kate is arguing with ruth""}","<img src=""stim_listA/argue7.gif""</stim_listA>",is arguing with,
null,"<div style=""font-size:60px;"">+</div>",,html-keyboard-response,336,1212128,0.0-19.0-0.3,67824,List1A,black,man,,,,null,,,,
null,"<img src=""stim_listA/argue2.gif""</stim_listA>",,html-keyboard-response,337,1214131,0.0-19.0-1.3,67824,List1A,black,man,,,,null,,,,
null,are arguing with each other,,html-keyboard-response,338,1216131,0.0-19.0-2.3,67824,List1A,black,man,,,,null,,,,
8149,,,survey-text,339,1224281,0.0-19.0-3.3,67824,List1A,black,man,,,,,"{""Q0"":""kate and fred are arguing with each other""}","<img src=""stim_listA/argue2.gif""</stim_listA>",are arguing with each other,
null,"<div style=""font-size:60px;"">+</div>",,html-keyboard-response,340,1224782,0.0-19.0-0.4,67824,List1A,black,man,,,,null,,,,
null,"<img src=""stim_listA/dance2.gif""</stim_listA>",,html-keyboard-response,341,1226785,0.0-19.0-1.4,67824,List1A,black,man,,,,null,,,,
null,are dancing with each other,,html-keyboard-response,342,1228787,0.0-19.0-2.4,67824,List1A,black,man,,,,null,,,,
7570,,,survey-text,343,1236357,0.0-19.0-3.4,67824,List1A,black,man,,,,,"{""Q0"":""beth and mike are dancing with each other""}","<img src=""stim_listA/dance2.gif""</stim_listA>",are dancing with each other,
null,"<div style=""font-size:60px;"">+</div>",,html-keyboard-response,344,1236859,0.0-19.0-0.5,67824,List1A,black,man,,,,null,,,,
null,"<img src=""stim_listA/kiss8.gif""</stim_listA>",,html-keyboard-response,345,1238860,0.0-19.0-1.5,67824,List1A,black,man,,,,null,,,,
null,are kissing each other,,html-keyboard-response,346,1240861,0.0-19.0-2.5,67824,List1A,black,man,,,,null,,,,
7840,,,survey-text,347,1248702,0.0-19.0-3.5,67824,List1A,black,man,,,,,"{""Q0"":""jane and kate are kissing each other""}","<img src=""stim_listA/kiss8.gif""</stim_listA>",are kissing each other,
null,"<div style=""font-size:60px;"">+</div>",,html-keyboard-response,348,1249205,0.0-19.0-0.6,67824,List1A,black,man,,,,null,,,,
null,"<img src=""stim_listA/touch3.gif""</stim_listA>",,html-keyboard-response,349,1251207,0.0-19.0-1.6,67824,List1A,black,man,,,,null,,,,
null,is touching,,html-keyboard-response,350,1253208,0.0-19.0-2.6,67824,List1A,black,man,,,,null,,,,
6896,,,survey-text,351,1260104,0.0-19.0-3.6,67824,List1A,black,man,,,,,"{""Q0"":""dave is touching jane""}","<img src=""stim_listA/touch3.gif""</stim_listA>",is touching,
null,"<div style=""font-size:60px;"">+</div>",,html-keyboard-response,352,1260605,0.0-19.0-0.7,67824,List1A,black,man,,,,null,,,,
null,"<img src=""stim_listA/meet6.gif""</stim_listA>",,html-keyboard-response,353,1262608,0.0-19.0-1.7,67824,List1A,black,man,,,,null,,,,
null,are meeting each other,,html-keyboard-response,354,1264609,0.0-19.0-2.7,67824,List1A,black,man,,,,null,,,,
7290,,,survey-text,355,1271899,0.0-19.0-3.7,67824,List1A,black,man,,,,,"{""Q0"":""luke and fred are meeting each other""}","<img src=""stim_listA/meet6.gif""</stim_listA>",are meeting each other,
null,"<div style=""font-size:60px;"">+</div>",,html-keyboard-response,356,1272400,0.0-19.0-0.8,67824,List1A,black,man,,,,null,,,,
null,"<img src=""stim_listA/talk7.gif""</stim_listA>",,html-keyboard-response,357,1274403,0.0-19.0-1.8,67824,List1A,black,man,,,,null,,,,
null,is talking to,,html-keyboard-response,358,1276405,0.0-19.0-2.8,67824,List1A,black,man,,,,null,,,,
5744,,,survey-text,359,1282149,0.0-19.0-3.8,67824,List1A,black,man,,,,,"{""Q0"":""beth is talking to jane""}","<img src=""stim_listA/talk7.gif""</stim_listA>",is talking to,
null,"<div style=""font-size:60px;"">+</div>",,html-keyboard-response,360,1282650,0.0-19.0-0.9,67824,List1A,black,man,,,,null,,,,
null,"<img src=""stim_listA/meet1.gif""</stim_listA>",,html-keyboard-response,361,1284652,0.0-19.0-1.9,67824,List1A,black,man,,,,null,,,,
null,is meeting,,html-keyboard-response,362,1286653,0.0-19.0-2.9,67824,List1A,black,man,,,,null,,,,
4924,,,survey-text,363,1291578,0.0-19.0-3.9,67824,List1A,black,man,,,,,"{""Q0"":""mike is meeting kate""}","<img src=""stim_listA/meet1.gif""</stim_listA>",is meeting,
null,"<div style=""font-size:60px;"">+</div>",,html-keyboard-response,364,1292079,0.0-19.0-0.10,67824,List1A,black,man,,,,null,,,,
null,"<img src=""stim_listA/marry6.gif""</stim_listA>",,html-keyboard-response,365,1294080,0.0-19.0-1.10,67824,List1A,black,man,,,,null,,,,
null,are marrying each other,,html-keyboard-response,366,1296081,0.0-19.0-2.10,67824,List1A,black,man,,,,null,,,,
8372,,,survey-text,367,1304453,0.0-19.0-3.10,67824,List1A,black,man,,,,,"{""Q0"":""dave and fred are marrying each other""}","<img src=""stim_listA/marry6.gif""</stim_listA>",are marrying each other,
null,"<div style=""font-size:60px;"">+</div>",,html-keyboard-response,368,1304956,0.0-19.0-0.11,67824,List1A,black,man,,,,null,,,,
null,"<img src=""stim_listA/shout2.gif""</stim_listA>",,html-keyboard-response,369,1306958,0.0-19.0-1.11,67824,List1A,black,man,,,,null,,,,
null,are shouting at each other,,html-keyboard-response,370,1308960,0.0-19.0-2.11,67824,List1A,black,man,,,,null,,,,
7836,,,survey-text,371,1316797,0.0-19.0-3.11,67824,List1A,black,man,,,,,"{""Q0"":""kate and mike are shouting at each other""}","<img src=""stim_listA/shout2.gif""</stim_listA>",are shouting at each other,
null,"<div style=""font-size:60px;"">+</div>",,html-keyboard-response,372,1317298,0.0-19.0-0.12,67824,List1A,black,man,,,,null,,,,
null,"<img src=""stim_listA/talk3.gif""</stim_listA>",,html-keyboard-response,373,1319299,0.0-19.0-1.12,67824,List1A,black,man,,,,null,,,,
null,is talking to,,html-keyboard-response,374,1321301,0.0-19.0-2.12,67824,List1A,black,man,,,,null,,,,
5682,,,survey-text,375,1326983,0.0-19.0-3.12,67824,List1A,black,man,,,,,"{""Q0"":""luke is talking to jane""}","<img src=""stim_listA/talk3.gif""</stim_listA>",is talking to,
null,"<div style=""font-size:60px;"">+</div>",,html-keyboard-response,376,1327484,0.0-19.0-0.13,67824,List1A,black,man,,,,null,,,,
null,"<img src=""stim_listA/fight7.gif""</stim_listA>",,html-keyboard-response,377,1329487,0.0-19.0-1.13,67824,List1A,black,man,,,,null,,,,
null,is fighting,,html-keyboard-response,378,1331489,0.0-19.0-2.13,67824,List1A,black,man,,,,null,,,,
6158,,,survey-text,379,1337649,0.0-19.0-3.13,67824,List1A,black,man,,,,,"{""Q0"":""kate is fighting jane""}","<img src=""stim_listA/fight7.gif""</stim_listA>",is fighting,
null,"<div style=""font-size:60px;"">+</div>",,html-keyboard-response,380,1338150,0.0-19.0-0.14,67824,List1A,black,man,,,,null,,,,
null,"<img src=""stim_listA/meet7.gif""</stim_listA>",,html-keyboard-response,381,1340152,0.0-19.0-1.14,67824,List1A,black,man,,,,null,,,,
null,is meeting,,html-keyboard-response,382,1342153,0.0-19.0-2.14,67824,List1A,black,man,,,,null,,,,
4848,,,survey-text,383,1347002,0.0-19.0-3.14,67824,List1A,black,man,,,,,"{""Q0"":""kate is meeting jane""}","<img src=""stim_listA/meet7.gif""</stim_listA>",is meeting,
null,"<div style=""font-size:60px;"">+</div>",,html-keyboard-response,384,1347504,0.0-19.0-0.15,67824,List1A,black,man,,,,null,,,,
null,"<img src=""stim_listA/marry5.gif""</stim_listA>",,html-keyboard-response,385,1349507,0.0-19.0-1.15,67824,List1A,black,man,,,,null,,,,
null,is marrying,,html-keyboard-response,386,1351507,0.0-19.0-2.15,67824,List1A,black,man,,,,null,,,,
5140,,,survey-text,387,1356648,0.0-19.0-3.15,67824,List1A,black,man,,,,,"{""Q0"":""mike is marrying luke""}","<img src=""stim_listA/marry5.gif""</stim_listA>",is marrying,
null,"<div style=""font-size:60px;"">+</div>",,html-keyboard-response,388,1357150,0.0-19.0-0.16,67824,List1A,black,man,,,,null,,,,
null,"<img src=""stim_listA/touch8.gif""</stim_listA>",,html-keyboard-response,389,1359151,0.0-19.0-1.16,67824,List1A,black,man,,,,null,,,,
null,are touching each other,,html-keyboard-response,390,1361152,0.0-19.0-2.16,67824,List1A,black,man,,,,null,,,,
11405,,,survey-text,391,1372558,0.0-19.0-3.16,67824,List1A,black,man,,,,,"{""Q0"":""ruth and beth are touching each other""}","<img src=""stim_listA/touch8.gif""</stim_listA>",are touching each other,
null,"<div style=""font-size:60px;"">+</div>",,html-keyboard-response,392,1373059,0.0-19.0-0.17,67824,List1A,black,man,,,,null,,,,
null,"<img src=""stim_listA/shout7.gif""</stim_listA>",,html-keyboard-response,393,1375062,0.0-19.0-1.17,67824,List1A,black,man,,,,null,,,,
null,is shouting at,,html-keyboard-response,394,1377064,0.0-19.0-2.17,67824,List1A,black,man,,,,null,,,,
6444,,,survey-text,395,1383508,0.0-19.0-3.17,67824,List1A,black,man,,,,,"{""Q0"":""ruth is shouting at beth""}","<img src=""stim_listA/shout7.gif""</stim_listA>",is shouting at,
null,"<div style=""font-size:60px;"">+</div>",,html-keyboard-response,396,1384010,0.0-19.0-0.18,67824,List1A,black,man,,,,null,,,,
null,"<img src=""stim_listA/meet8.gif""</stim_listA>",,html-keyboard-response,397,1386013,0.0-19.0-1.18,67824,List1A,black,man,,,,null,,,,
null,are meeting each other,,html-keyboard-response,398,1388015,0.0-19.0-2.18,67824,List1A,black,man,,,,null,,,,
8441,,,survey-text,399,1396456,0.0-19.0-3.18,67824,List1A,black,man,,,,,"{""Q0"":""ruth and beth are meeting each other""}","<img src=""stim_listA/meet8.gif""</stim_listA>",are meeting each other,
null,"<div style=""font-size:60px;"">+</div>",,html-keyboard-response,400,1396959,0.0-19.0-0.19,67824,List1A,black,man,,,,null,,,,
null,"<img src=""stim_listA/argue8.gif""</stim_listA>",,html-keyboard-response,401,1398961,0.0-19.0-1.19,67824,List1A,black,man,,,,null,,,,
null,are arguing with each other,,html-keyboard-response,402,1400963,0.0-19.0-2.19,67824,List1A,black,man,,,,null,,,,
10185,,,survey-text,403,1411149,0.0-19.0-3.19,67824,List1A,black,man,,,,,"{""Q0"":""jane and beth are arguing with each other""}","<img src=""stim_listA/argue8.gif""</stim_listA>",are arguing with each other,
2619,<p>Thank you for completing that task.</p><p>The final part of this session is a short questionnaire.</p><p>Press Continue.</p>,0,html-button-response,404,1413768,0.0-20.0,67824,List1A,black,man,,,,,,,,
26543,,,survey-text,405,1441314,0.0-21.0,67824,List1A,black,man,,,,,"{""Q0"":""20"",""Q1"":""English"",""Q2"":""English"",""Q3"":""United States of America"",""Q4"":""Black"",""Q5"":""Male""}",,,demographics
113061,,,survey-likert,406,1554380,0.0-22.0,67824,List1A,black,man,,,,,"{""Q0"":3,""Q1"":2,""Q2"":3,""Q3"":3,""Q4"":6,""Q5"":2,""Q6"":3,""Q7"":2,""Q8"":2,""Q9"":2,""Q10"":3,""Q11"":3,""Q12"":4,""Q13"":2}",,,likert_race
57644,,,survey-likert,407,1612029,0.0-23.0,67824,List1A,black,man,,,,,"{""Q0"":3,""Q1"":3,""Q2"":1,""Q3"":3,""Q4"":3,""Q5"":4,""Q6"":3,""Q7"":2,""Q8"":1,""Q9"":1,""Q10"":2,""Q11"":2,""Q12"":3,""Q13"":1}",,,likert_gender
6624,,,survey-text,408,1618654,0.0-24.0,67824,List1A,black,man,,,,,"{""Q0"":""ccc""}",,,worker_id
99456,,,external-html,409,1718570,0.0-25.0,67824,List1A,black,man,debrief.html,,,,,,,
