rt,stimulus,button_pressed,trial_type,trial_index,time_elapsed,internal_node_id,subject,list,ppt_race,ppt_gender,url,first_guess,correct,key_press,responses,image_type,phrase_type,test_part
2339,Welcome to the experiment. Press Continue to begin.,0,html-button-response,0,2343,0.0-0.0,67921,List2B,white,woman,,,,,,,,
39601,,,external-html,1,43065,0.0-1.0,67921,List2B,white,woman,consent.html,,,,,,,
18975,"<p>On the next page, you will see portraits of 8 people and their names.</p><p>Your first task is to take a few minutes to memorise the names of these people.</p><p>You will have to recall their names during the rest of the experiment, so it is</p><p>essential that you try to memorise these people and their names as best as you can.</p><br><p><strong>You will then be tested on your memory of these names and portraits.</strong></p><br><p>The experiment will start after you have completed this memory test.</p><br><p>Ready?</p>",0,html-button-response,2,62042,0.0-2.0,67921,List2B,white,woman,,,,,,,,
170104,"<img src='img/portrait_matrix_list2.JPG' style='width:900px;height:500px;''></img><p>If you have memorised all the portraits and names and are ready to start, press Continue.</p><p><strong>Please note: Your memory of these faces will be tested 4 times during this experiment.</strong></p>",0,html-button-response,3,233149,0.0-3.0-0.0,67921,List2B,white,woman,,,,,,,,
3952,"<img src=""portrait/WM1.jpg""style=""width:400px;height:400px;""></img>",6,html-button-response,4,238105,0.0-3.0-1.0,67921,List2B,white,woman,,TRUE,6,,,,,
null,CORRECT,,html-keyboard-response,5,239609,0.0-3.0-2.0-0.0,67921,List2B,white,woman,,,,null,,,,
6446,"<img src=""portrait/BM1.jpg""style=""width:400px;height:400px;""></img>",4,html-button-response,6,246057,0.0-3.0-4.0,67921,List2B,white,woman,,TRUE,4,,,,,
null,CORRECT,,html-keyboard-response,7,247562,0.0-3.0-5.0-0.0,67921,List2B,white,woman,,,,null,,,,
7545,"<img src=""portrait/WW1.jpg""style=""width:400px;height:400px;""></img>",1,html-button-response,8,255108,0.0-3.0-7.0,67921,List2B,white,woman,,TRUE,1,,,,,
null,CORRECT,,html-keyboard-response,9,256612,0.0-3.0-8.0-0.0,67921,List2B,white,woman,,,,null,,,,
4433,"<img src=""portrait/BW2.jpg""style=""width:400px;height:400px;""></img>",2,html-button-response,10,261047,0.0-3.0-10.0,67921,List2B,white,woman,,TRUE,2,,,,,
null,CORRECT,,html-keyboard-response,11,262550,0.0-3.0-11.0-0.0,67921,List2B,white,woman,,,,null,,,,
15552,"<img src=""portrait/BM2.jpg""style=""width:400px;height:400px;""></img>",5,html-button-response,12,278104,0.0-3.0-13.0,67921,List2B,white,woman,,TRUE,5,,,,,
null,CORRECT,,html-keyboard-response,13,279607,0.0-3.0-14.0-0.0,67921,List2B,white,woman,,,,null,,,,
5694,"<img src=""portrait/BW1.jpg""style=""width:400px;height:400px;""></img>",0,html-button-response,14,285302,0.0-3.0-16.0,67921,List2B,white,woman,,TRUE,0,,,,,
null,CORRECT,,html-keyboard-response,15,286806,0.0-3.0-17.0-0.0,67921,List2B,white,woman,,,,null,,,,
5405,"<img src=""portrait/WM2.jpg""style=""width:400px;height:400px;""></img>",7,html-button-response,16,292212,0.0-3.0-19.0,67921,List2B,white,woman,,TRUE,7,,,,,
null,CORRECT,,html-keyboard-response,17,293714,0.0-3.0-20.0-0.0,67921,List2B,white,woman,,,,null,,,,
5059,"<img src=""portrait/WW2.jpg""style=""width:400px;height:400px;""></img>",3,html-button-response,18,298774,0.0-3.0-22.0,67921,List2B,white,woman,,TRUE,3,,,,,
null,CORRECT,,html-keyboard-response,19,300277,0.0-3.0-23.0-0.0,67921,List2B,white,woman,,,,null,,,,
2240,<p>You got 8 out of 8 right first time. Press Continue.</p>,0,html-button-response,20,302518,0.0-3.0-25.0,67921,List2B,white,woman,,,,,,,,
56894,"<p>In this experiment, you will view photographs of the people from the memory game interacting.</p><p>By using the <strong>exact</strong> phrase given <i>after</i> the photograph appears and recalling the correct names of the people in the photographs, form a sentence describing the interaction. You do not need to capitalise names.</p><p>Type your answer in the space provided. Please complete every sentence before moving onto the next trial.</p><p>You will only have a few seconds to memorise each given photograph and phrase before you can respond, so try your best to focus.</p><p>An example is given below. Press 'Continue' when you are ready.</p><img src='img/speaking_example_v2.jpg' style='width:800px;height:460px;''></img>",0,html-button-response,21,360418,0.0-4.0,67921,List2B,white,woman,,,,,,,,
3323,"<p>Before the experiment starts, you will watch two example trials. Press 'Continue'.</p>",0,html-button-response,22,364744,0.0-5.0,67921,List2B,white,woman,,,,,,,,
null,<img src='img/speaking_WW.gif'></img>,,html-keyboard-response,23,367747,0.0-6.0,67921,List2B,white,woman,,,,null,,,,
null,<p>is speaking to</p>,,html-keyboard-response,24,369748,0.0-7.0,67921,List2B,white,woman,,,,null,,,,
6438,<p><b>Answer:</b> jane is speaking to ruth</p>,0,html-button-response,25,376186,0.0-8.0,67921,List2B,white,woman,,,,,,,,
null,<img src='img/pointing_BM.gif'></img>,,html-keyboard-response,26,379190,0.0-9.0,67921,List2B,white,woman,,,,null,,,,
null,<p>are pointing at each other</p>,,html-keyboard-response,27,381191,0.0-10.0,67921,List2B,white,woman,,,,null,,,,
8149,<p><b>Answer:</b> fred and mike are pointing at each other</p>,0,html-button-response,28,389342,0.0-11.0,67921,List2B,white,woman,,,,,,,,
14308,"<p>Ready to start the experiment?</p><br><p><strong>Remember to describe the picture using a full sentence,</strong></p><p><strong>that combines the names of the people with the given phrase.</strong></p><p><strong>If you do not do this correctly you will not be paid.</strong></p><p><strong> You do not need to capitalise names or use punctuation.</strong></p><br><p>Press 'Continue' to begin.</p>",0,html-button-response,29,404653,0.0-12.0,67921,List2B,white,woman,,,,,,,,
null,"<div style=""font-size:60px;"">+</div>",,html-keyboard-response,30,406156,0.0-13.0-0.0,67921,List2B,white,woman,,,,null,,,,
null,"<img src=""stim_listB/marry8.gif""</stim_listB>",,html-keyboard-response,31,408158,0.0-13.0-1.0,67921,List2B,white,woman,,,,null,,,,
null,are marrying each other,,html-keyboard-response,32,410160,0.0-13.0-2.0,67921,List2B,white,woman,,,,null,,,,
28835,,,survey-text,33,438996,0.0-13.0-3.0,67921,List2B,white,woman,,,,,"{""Q0"":""beth and jane are marrying each other""}","<img src=""stim_listB/marry8.gif""</stim_listB>",are marrying each other,
null,"<div style=""font-size:60px;"">+</div>",,html-keyboard-response,34,439498,0.0-13.0-0.1,67921,List2B,white,woman,,,,null,,,,
null,"<img src=""stim_listB/shout7.gif""</stim_listB>",,html-keyboard-response,35,441501,0.0-13.0-1.1,67921,List2B,white,woman,,,,null,,,,
null,is shouting at,,html-keyboard-response,36,443502,0.0-13.0-2.1,67921,List2B,white,woman,,,,null,,,,
14269,,,survey-text,37,457773,0.0-13.0-3.1,67921,List2B,white,woman,,,,,"{""Q0"":""kate and ruth are shouting at each other""}","<img src=""stim_listB/shout7.gif""</stim_listB>",is shouting at,
null,"<div style=""font-size:60px;"">+</div>",,html-keyboard-response,38,458276,0.0-13.0-0.2,67921,List2B,white,woman,,,,null,,,,
null,"<img src=""stim_listB/meet1.gif""</stim_listB>",,html-keyboard-response,39,460280,0.0-13.0-1.2,67921,List2B,white,woman,,,,null,,,,
null,is meeting,,html-keyboard-response,40,462281,0.0-13.0-2.2,67921,List2B,white,woman,,,,null,,,,
11181,,,survey-text,41,473463,0.0-13.0-3.2,67921,List2B,white,woman,,,,,"{""Q0"":""dave and ruth are meeting""}","<img src=""stim_listB/meet1.gif""</stim_listB>",is meeting,
null,"<div style=""font-size:60px;"">+</div>",,html-keyboard-response,42,473965,0.0-13.0-0.3,67921,List2B,white,woman,,,,null,,,,
null,"<img src=""stim_listB/kiss7.gif""</stim_listB>",,html-keyboard-response,43,475967,0.0-13.0-1.3,67921,List2B,white,woman,,,,null,,,,
null,is kissing,,html-keyboard-response,44,477968,0.0-13.0-2.3,67921,List2B,white,woman,,,,null,,,,
8124,,,survey-text,45,486095,0.0-13.0-3.3,67921,List2B,white,woman,,,,,"{""Q0"":""ruth and kate are kissing""}","<img src=""stim_listB/kiss7.gif""</stim_listB>",is kissing,
null,"<div style=""font-size:60px;"">+</div>",,html-keyboard-response,46,486596,0.0-13.0-0.4,67921,List2B,white,woman,,,,null,,,,
null,"<img src=""stim_listB/fight2.gif""</stim_listB>",,html-keyboard-response,47,488598,0.0-13.0-1.4,67921,List2B,white,woman,,,,null,,,,
null,are fighting each other,,html-keyboard-response,48,490601,0.0-13.0-2.4,67921,List2B,white,woman,,,,null,,,,
16865,,,survey-text,49,507468,0.0-13.0-3.4,67921,List2B,white,woman,,,,,"{""Q0"":""luke and ruth are fighting each other.""}","<img src=""stim_listB/fight2.gif""</stim_listB>",are fighting each other,
null,"<div style=""font-size:60px;"">+</div>",,html-keyboard-response,50,507970,0.0-13.0-0.5,67921,List2B,white,woman,,,,null,,,,
null,"<img src=""stim_listB/shout6.gif""</stim_listB>",,html-keyboard-response,51,509972,0.0-13.0-1.5,67921,List2B,white,woman,,,,null,,,,
null,are shouting at each other,,html-keyboard-response,52,511973,0.0-13.0-2.5,67921,List2B,white,woman,,,,null,,,,
16541,,,survey-text,53,528516,0.0-13.0-3.5,67921,List2B,white,woman,,,,,"{""Q0"":""dave and fred are shouting at each other.""}","<img src=""stim_listB/shout6.gif""</stim_listB>",are shouting at each other,
null,"<div style=""font-size:60px;"">+</div>",,html-keyboard-response,54,529018,0.0-13.0-0.6,67921,List2B,white,woman,,,,null,,,,
null,"<img src=""stim_listB/fight3.gif""</stim_listB>",,html-keyboard-response,55,531020,0.0-13.0-1.6,67921,List2B,white,woman,,,,null,,,,
null,is fighting,,html-keyboard-response,56,533022,0.0-13.0-2.6,67921,List2B,white,woman,,,,null,,,,
15968,,,survey-text,57,548990,0.0-13.0-3.6,67921,List2B,white,woman,,,,,"{""Q0"":""beth is fighting mike""}","<img src=""stim_listB/fight3.gif""</stim_listB>",is fighting,
null,"<div style=""font-size:60px;"">+</div>",,html-keyboard-response,58,549492,0.0-13.0-0.7,67921,List2B,white,woman,,,,null,,,,
null,"<img src=""stim_listB/argue5.gif""</stim_listB>",,html-keyboard-response,59,551495,0.0-13.0-1.7,67921,List2B,white,woman,,,,null,,,,
null,is arguing with,,html-keyboard-response,60,553497,0.0-13.0-2.7,67921,List2B,white,woman,,,,null,,,,
21846,,,survey-text,61,575345,0.0-13.0-3.7,67921,List2B,white,woman,,,,,"{""Q0"":""luke is talking to fred""}","<img src=""stim_listB/argue5.gif""</stim_listB>",is arguing with,
null,"<div style=""font-size:60px;"">+</div>",,html-keyboard-response,62,575846,0.0-13.0-0.8,67921,List2B,white,woman,,,,null,,,,
null,"<img src=""stim_listB/touch6.gif""</stim_listB>",,html-keyboard-response,63,577849,0.0-13.0-1.8,67921,List2B,white,woman,,,,null,,,,
null,are touching each other,,html-keyboard-response,64,579850,0.0-13.0-2.8,67921,List2B,white,woman,,,,null,,,,
10778,,,survey-text,65,590630,0.0-13.0-3.8,67921,List2B,white,woman,,,,,"{""Q0"":""fred and luke are touching each other""}","<img src=""stim_listB/touch6.gif""</stim_listB>",are touching each other,
null,"<div style=""font-size:60px;"">+</div>",,html-keyboard-response,66,591135,0.0-13.0-0.9,67921,List2B,white,woman,,,,null,,,,
null,"<img src=""stim_listB/argue6.gif""</stim_listB>",,html-keyboard-response,67,593138,0.0-13.0-1.9,67921,List2B,white,woman,,,,null,,,,
null,are arguing with each other,,html-keyboard-response,68,595141,0.0-13.0-2.9,67921,List2B,white,woman,,,,null,,,,
8007,,,survey-text,69,603148,0.0-13.0-3.9,67921,List2B,white,woman,,,,,"{""Q0"":""luke and mike are arguing with each other""}","<img src=""stim_listB/argue6.gif""</stim_listB>",are arguing with each other,
null,"<div style=""font-size:60px;"">+</div>",,html-keyboard-response,70,603651,0.0-13.0-0.10,67921,List2B,white,woman,,,,null,,,,
null,"<img src=""stim_listB/dance1.gif""</stim_listB>",,html-keyboard-response,71,605652,0.0-13.0-1.10,67921,List2B,white,woman,,,,null,,,,
null,is dancing with,,html-keyboard-response,72,607654,0.0-13.0-2.10,67921,List2B,white,woman,,,,null,,,,
4972,,,survey-text,73,612628,0.0-13.0-3.10,67921,List2B,white,woman,,,,,"{""Q0"":""jane is dancing with luke""}","<img src=""stim_listB/dance1.gif""</stim_listB>",is dancing with,
null,"<div style=""font-size:60px;"">+</div>",,html-keyboard-response,74,613130,0.0-13.0-0.11,67921,List2B,white,woman,,,,null,,,,
null,"<img src=""stim_listB/touch4.gif""</stim_listB>",,html-keyboard-response,75,615133,0.0-13.0-1.11,67921,List2B,white,woman,,,,null,,,,
null,are touching each other,,html-keyboard-response,76,617136,0.0-13.0-2.11,67921,List2B,white,woman,,,,null,,,,
7491,,,survey-text,77,624627,0.0-13.0-3.11,67921,List2B,white,woman,,,,,"{""Q0"":""mike and kate are touching each other""}","<img src=""stim_listB/touch4.gif""</stim_listB>",are touching each other,
null,"<div style=""font-size:60px;"">+</div>",,html-keyboard-response,78,625129,0.0-13.0-0.12,67921,List2B,white,woman,,,,null,,,,
null,"<img src=""stim_listB/marry4.gif""</stim_listB>",,html-keyboard-response,79,627131,0.0-13.0-1.12,67921,List2B,white,woman,,,,null,,,,
null,are marrying each other,,html-keyboard-response,80,629132,0.0-13.0-2.12,67921,List2B,white,woman,,,,null,,,,
6883,,,survey-text,81,636016,0.0-13.0-3.12,67921,List2B,white,woman,,,,,"{""Q0"":""fred and beth are marrying each other""}","<img src=""stim_listB/marry4.gif""</stim_listB>",are marrying each other,
null,"<div style=""font-size:60px;"">+</div>",,html-keyboard-response,82,636517,0.0-13.0-0.13,67921,List2B,white,woman,,,,null,,,,
null,"<img src=""stim_listB/talk6.gif""</stim_listB>",,html-keyboard-response,83,638518,0.0-13.0-1.13,67921,List2B,white,woman,,,,null,,,,
null,are talking to each other,,html-keyboard-response,84,640520,0.0-13.0-2.13,67921,List2B,white,woman,,,,null,,,,
7239,,,survey-text,85,647760,0.0-13.0-3.13,67921,List2B,white,woman,,,,,"{""Q0"":""luke and fred are talking to each other""}","<img src=""stim_listB/talk6.gif""</stim_listB>",are talking to each other,
null,"<div style=""font-size:60px;"">+</div>",,html-keyboard-response,86,648261,0.0-13.0-0.14,67921,List2B,white,woman,,,,null,,,,
null,"<img src=""stim_listB/kiss3.gif""</stim_listB>",,html-keyboard-response,87,650262,0.0-13.0-1.14,67921,List2B,white,woman,,,,null,,,,
null,is kissing,,html-keyboard-response,88,652264,0.0-13.0-2.14,67921,List2B,white,woman,,,,null,,,,
5389,,,survey-text,89,657655,0.0-13.0-3.14,67921,List2B,white,woman,,,,,"{""Q0"":""fred is kissing kate""}","<img src=""stim_listB/kiss3.gif""</stim_listB>",is kissing,
null,"<div style=""font-size:60px;"">+</div>",,html-keyboard-response,90,658157,0.0-13.0-0.15,67921,List2B,white,woman,,,,null,,,,
null,"<img src=""stim_listB/touch3.gif""</stim_listB>",,html-keyboard-response,91,660160,0.0-13.0-1.15,67921,List2B,white,woman,,,,null,,,,
null,is touching,,html-keyboard-response,92,662163,0.0-13.0-2.15,67921,List2B,white,woman,,,,null,,,,
5447,,,survey-text,93,667611,0.0-13.0-3.15,67921,List2B,white,woman,,,,,"{""Q0"":""beth is touching mike""}","<img src=""stim_listB/touch3.gif""</stim_listB>",is touching,
null,"<div style=""font-size:60px;"">+</div>",,html-keyboard-response,94,668113,0.0-13.0-0.16,67921,List2B,white,woman,,,,null,,,,
null,"<img src=""stim_listB/fight5.gif""</stim_listB>",,html-keyboard-response,95,670115,0.0-13.0-1.16,67921,List2B,white,woman,,,,null,,,,
null,is fighting,,html-keyboard-response,96,672117,0.0-13.0-2.16,67921,List2B,white,woman,,,,null,,,,
14081,,,survey-text,97,686199,0.0-13.0-3.16,67921,List2B,white,woman,,,,,"{""Q0"":""mike is fighting dave""}","<img src=""stim_listB/fight5.gif""</stim_listB>",is fighting,
null,"<div style=""font-size:60px;"">+</div>",,html-keyboard-response,98,686701,0.0-13.0-0.17,67921,List2B,white,woman,,,,null,,,,
null,"<img src=""stim_listB/marry7.gif""</stim_listB>",,html-keyboard-response,99,688703,0.0-13.0-1.17,67921,List2B,white,woman,,,,null,,,,
null,is marrying,,html-keyboard-response,100,690705,0.0-13.0-2.17,67921,List2B,white,woman,,,,null,,,,
10640,,,survey-text,101,701346,0.0-13.0-3.17,67921,List2B,white,woman,,,,,"{""Q0"":""jane is marrying kate""}","<img src=""stim_listB/marry7.gif""</stim_listB>",is marrying,
null,"<div style=""font-size:60px;"">+</div>",,html-keyboard-response,102,701847,0.0-13.0-0.18,67921,List2B,white,woman,,,,null,,,,
null,"<img src=""stim_listB/fight7.gif""</stim_listB>",,html-keyboard-response,103,703848,0.0-13.0-1.18,67921,List2B,white,woman,,,,null,,,,
null,is fighting,,html-keyboard-response,104,705850,0.0-13.0-2.18,67921,List2B,white,woman,,,,null,,,,
6919,,,survey-text,105,712770,0.0-13.0-3.18,67921,List2B,white,woman,,,,,"{""Q0"":""beth is fighting ruth""}","<img src=""stim_listB/fight7.gif""</stim_listB>",is fighting,
null,"<div style=""font-size:60px;"">+</div>",,html-keyboard-response,106,713271,0.0-13.0-0.19,67921,List2B,white,woman,,,,null,,,,
null,"<img src=""stim_listB/dance7.gif""</stim_listB>",,html-keyboard-response,107,715273,0.0-13.0-1.19,67921,List2B,white,woman,,,,null,,,,
null,is dancing with,,html-keyboard-response,108,717275,0.0-13.0-2.19,67921,List2B,white,woman,,,,null,,,,
5395,,,survey-text,109,722672,0.0-13.0-3.19,67921,List2B,white,woman,,,,,"{""Q0"":""beth is dancing with ruth""}","<img src=""stim_listB/dance7.gif""</stim_listB>",is dancing with,
86290,"<img src='img/portrait_matrix_list2.JPG' style='width:900px;height:500px;''></img><p>If you have memorised all the portraits and names and are ready to start, press Continue.</p><p><strong>Please note: Your memory of these faces will be tested 4 times during this experiment.</strong></p>",0,html-button-response,110,808962,0.0-14.0-0.0,67921,List2B,white,woman,,,,,,,,
4864,"<img src=""portrait/WM1.jpg""style=""width:400px;height:400px;""></img>",6,html-button-response,111,814829,0.0-14.0-1.0,67921,List2B,white,woman,,TRUE,6,,,,,
null,CORRECT,,html-keyboard-response,112,816331,0.0-14.0-2.0-0.0,67921,List2B,white,woman,,,,null,,,,
5032,"<img src=""portrait/WW1.jpg""style=""width:400px;height:400px;""></img>",1,html-button-response,113,821365,0.0-14.0-4.0,67921,List2B,white,woman,,TRUE,1,,,,,
null,CORRECT,,html-keyboard-response,114,822868,0.0-14.0-5.0-0.0,67921,List2B,white,woman,,,,null,,,,
2877,"<img src=""portrait/WM2.jpg""style=""width:400px;height:400px;""></img>",7,html-button-response,115,825746,0.0-14.0-7.0,67921,List2B,white,woman,,TRUE,7,,,,,
null,CORRECT,,html-keyboard-response,116,827248,0.0-14.0-8.0-0.0,67921,List2B,white,woman,,,,null,,,,
3532,"<img src=""portrait/BW2.jpg""style=""width:400px;height:400px;""></img>",2,html-button-response,117,830782,0.0-14.0-10.0,67921,List2B,white,woman,,TRUE,2,,,,,
null,CORRECT,,html-keyboard-response,118,832285,0.0-14.0-11.0-0.0,67921,List2B,white,woman,,,,null,,,,
2069,"<img src=""portrait/BM1.jpg""style=""width:400px;height:400px;""></img>",4,html-button-response,119,834356,0.0-14.0-13.0,67921,List2B,white,woman,,TRUE,4,,,,,
null,CORRECT,,html-keyboard-response,120,835858,0.0-14.0-14.0-0.0,67921,List2B,white,woman,,,,null,,,,
5475,"<img src=""portrait/BW1.jpg""style=""width:400px;height:400px;""></img>",0,html-button-response,121,841335,0.0-14.0-16.0,67921,List2B,white,woman,,TRUE,0,,,,,
null,CORRECT,,html-keyboard-response,122,842838,0.0-14.0-17.0-0.0,67921,List2B,white,woman,,,,null,,,,
2419,"<img src=""portrait/BM2.jpg""style=""width:400px;height:400px;""></img>",5,html-button-response,123,845259,0.0-14.0-19.0,67921,List2B,white,woman,,TRUE,5,,,,,
null,CORRECT,,html-keyboard-response,124,846761,0.0-14.0-20.0-0.0,67921,List2B,white,woman,,,,null,,,,
2117,"<img src=""portrait/WW2.jpg""style=""width:400px;height:400px;""></img>",3,html-button-response,125,848880,0.0-14.0-22.0,67921,List2B,white,woman,,TRUE,3,,,,,
null,CORRECT,,html-keyboard-response,126,850382,0.0-14.0-23.0-0.0,67921,List2B,white,woman,,,,null,,,,
2972,<p>You got 8 out of 8 right first time. Press Continue.</p>,0,html-button-response,127,853358,0.0-14.0-25.0,67921,List2B,white,woman,,,,,,,,
null,"<div style=""font-size:60px;"">+</div>",,html-keyboard-response,128,854862,0.0-15.0-0.0,67921,List2B,white,woman,,,,null,,,,
null,"<img src=""stim_listB/meet6.gif""</stim_listB>",,html-keyboard-response,129,856866,0.0-15.0-1.0,67921,List2B,white,woman,,,,null,,,,
null,are meeting each other,,html-keyboard-response,130,858867,0.0-15.0-2.0,67921,List2B,white,woman,,,,null,,,,
7430,,,survey-text,131,866298,0.0-15.0-3.0,67921,List2B,white,woman,,,,,"{""Q0"":""luke and fred are meeting each other""}","<img src=""stim_listB/meet6.gif""</stim_listB>",are meeting each other,
null,"<div style=""font-size:60px;"">+</div>",,html-keyboard-response,132,866800,0.0-15.0-0.1,67921,List2B,white,woman,,,,null,,,,
null,"<img src=""stim_listB/hug4.gif""</stim_listB>",,html-keyboard-response,133,868802,0.0-15.0-1.1,67921,List2B,white,woman,,,,null,,,,
null,are hugging each other,,html-keyboard-response,134,870805,0.0-15.0-2.1,67921,List2B,white,woman,,,,null,,,,
11464,,,survey-text,135,882270,0.0-15.0-3.1,67921,List2B,white,woman,,,,,"{""Q0"":""mike and kate are hugging each other""}","<img src=""stim_listB/hug4.gif""</stim_listB>",are hugging each other,
null,"<div style=""font-size:60px;"">+</div>",,html-keyboard-response,136,882771,0.0-15.0-0.2,67921,List2B,white,woman,,,,null,,,,
null,"<img src=""stim_listB/meet3.gif""</stim_listB>",,html-keyboard-response,137,884774,0.0-15.0-1.2,67921,List2B,white,woman,,,,null,,,,
null,is meeting,,html-keyboard-response,138,886775,0.0-15.0-2.2,67921,List2B,white,woman,,,,null,,,,
4759,,,survey-text,139,891536,0.0-15.0-3.2,67921,List2B,white,woman,,,,,"{""Q0"":""kate is meeting mike""}","<img src=""stim_listB/meet3.gif""</stim_listB>",is meeting,
null,"<div style=""font-size:60px;"">+</div>",,html-keyboard-response,140,892037,0.0-15.0-0.3,67921,List2B,white,woman,,,,null,,,,
null,"<img src=""stim_listB/touch1.gif""</stim_listB>",,html-keyboard-response,141,894040,0.0-15.0-1.3,67921,List2B,white,woman,,,,null,,,,
null,is touching,,html-keyboard-response,142,896041,0.0-15.0-2.3,67921,List2B,white,woman,,,,null,,,,
11014,,,survey-text,143,907056,0.0-15.0-3.3,67921,List2B,white,woman,,,,,"{""Q0"":""jane is touching dave""}","<img src=""stim_listB/touch1.gif""</stim_listB>",is touching,
null,"<div style=""font-size:60px;"">+</div>",,html-keyboard-response,144,907558,0.0-15.0-0.4,67921,List2B,white,woman,,,,null,,,,
null,"<img src=""stim_listB/kiss1.gif""</stim_listB>",,html-keyboard-response,145,909561,0.0-15.0-1.4,67921,List2B,white,woman,,,,null,,,,
null,is kissing,,html-keyboard-response,146,911562,0.0-15.0-2.4,67921,List2B,white,woman,,,,null,,,,
8213,,,survey-text,147,919776,0.0-15.0-3.4,67921,List2B,white,woman,,,,,"{""Q0"":""ruth is kissing luke""}","<img src=""stim_listB/kiss1.gif""</stim_listB>",is kissing,
null,"<div style=""font-size:60px;"">+</div>",,html-keyboard-response,148,920279,0.0-15.0-0.5,67921,List2B,white,woman,,,,null,,,,
null,"<img src=""stim_listB/argue1.gif""</stim_listB>",,html-keyboard-response,149,922282,0.0-15.0-1.5,67921,List2B,white,woman,,,,null,,,,
null,is arguing with,,html-keyboard-response,150,924282,0.0-15.0-2.5,67921,List2B,white,woman,,,,null,,,,
7300,,,survey-text,151,931584,0.0-15.0-3.5,67921,List2B,white,woman,,,,,"{""Q0"":""ruth is arguing with dave""}","<img src=""stim_listB/argue1.gif""</stim_listB>",is arguing with,
null,"<div style=""font-size:60px;"">+</div>",,html-keyboard-response,152,932085,0.0-15.0-0.6,67921,List2B,white,woman,,,,null,,,,
null,"<img src=""stim_listB/shout4.gif""</stim_listB>",,html-keyboard-response,153,934087,0.0-15.0-1.6,67921,List2B,white,woman,,,,null,,,,
null,are shouting at each other,,html-keyboard-response,154,936090,0.0-15.0-2.6,67921,List2B,white,woman,,,,null,,,,
7092,,,survey-text,155,943183,0.0-15.0-3.6,67921,List2B,white,woman,,,,,"{""Q0"":""mike and kate are yelling at each other""}","<img src=""stim_listB/shout4.gif""</stim_listB>",are shouting at each other,
null,"<div style=""font-size:60px;"">+</div>",,html-keyboard-response,156,943685,0.0-15.0-0.7,67921,List2B,white,woman,,,,null,,,,
null,"<img src=""stim_listB/argue8.gif""</stim_listB>",,html-keyboard-response,157,945687,0.0-15.0-1.7,67921,List2B,white,woman,,,,null,,,,
null,are arguing with each other,,html-keyboard-response,158,947688,0.0-15.0-2.7,67921,List2B,white,woman,,,,null,,,,
8525,,,survey-text,159,956215,0.0-15.0-3.7,67921,List2B,white,woman,,,,,"{""Q0"":""ruth and kate are arguing with each other""}","<img src=""stim_listB/argue8.gif""</stim_listB>",are arguing with each other,
null,"<div style=""font-size:60px;"">+</div>",,html-keyboard-response,160,956718,0.0-15.0-0.8,67921,List2B,white,woman,,,,null,,,,
null,"<img src=""stim_listB/shout2.gif""</stim_listB>",,html-keyboard-response,161,958722,0.0-15.0-1.8,67921,List2B,white,woman,,,,null,,,,
null,are shouting at each other,,html-keyboard-response,162,960723,0.0-15.0-2.8,67921,List2B,white,woman,,,,null,,,,
6397,,,survey-text,163,967120,0.0-15.0-3.8,67921,List2B,white,woman,,,,,"{""Q0"":""dave and jane are shouting at each other""}","<img src=""stim_listB/shout2.gif""</stim_listB>",are shouting at each other,
null,"<div style=""font-size:60px;"">+</div>",,html-keyboard-response,164,967623,0.0-15.0-0.9,67921,List2B,white,woman,,,,null,,,,
null,"<img src=""stim_listB/hug7.gif""</stim_listB>",,html-keyboard-response,165,969627,0.0-15.0-1.9,67921,List2B,white,woman,,,,null,,,,
null,is hugging,,html-keyboard-response,166,971629,0.0-15.0-2.9,67921,List2B,white,woman,,,,null,,,,
5659,,,survey-text,167,977290,0.0-15.0-3.9,67921,List2B,white,woman,,,,,"{""Q0"":""beth is hugging ruth""}","<img src=""stim_listB/hug7.gif""</stim_listB>",is hugging,
null,"<div style=""font-size:60px;"">+</div>",,html-keyboard-response,168,977792,0.0-15.0-0.10,67921,List2B,white,woman,,,,null,,,,
null,"<img src=""stim_listB/hug8.gif""</stim_listB>",,html-keyboard-response,169,979795,0.0-15.0-1.10,67921,List2B,white,woman,,,,null,,,,
null,are hugging each other,,html-keyboard-response,170,981797,0.0-15.0-2.10,67921,List2B,white,woman,,,,null,,,,
6499,,,survey-text,171,988296,0.0-15.0-3.10,67921,List2B,white,woman,,,,,"{""Q0"":""jane and kate are hugging each other""}","<img src=""stim_listB/hug8.gif""</stim_listB>",are hugging each other,
null,"<div style=""font-size:60px;"">+</div>",,html-keyboard-response,172,988798,0.0-15.0-0.11,67921,List2B,white,woman,,,,null,,,,
null,"<img src=""stim_listB/marry5.gif""</stim_listB>",,html-keyboard-response,173,990801,0.0-15.0-1.11,67921,List2B,white,woman,,,,null,,,,
null,is marrying,,html-keyboard-response,174,992804,0.0-15.0-2.11,67921,List2B,white,woman,,,,null,,,,
4770,,,survey-text,175,997574,0.0-15.0-3.11,67921,List2B,white,woman,,,,,"{""Q0"":""fred is marrying dave""}","<img src=""stim_listB/marry5.gif""</stim_listB>",is marrying,
null,"<div style=""font-size:60px;"">+</div>",,html-keyboard-response,176,998076,0.0-15.0-0.12,67921,List2B,white,woman,,,,null,,,,
null,"<img src=""stim_listB/meet2.gif""</stim_listB>",,html-keyboard-response,177,1000079,0.0-15.0-1.12,67921,List2B,white,woman,,,,null,,,,
null,are meeting each other,,html-keyboard-response,178,1002081,0.0-15.0-2.12,67921,List2B,white,woman,,,,null,,,,
21682,,,survey-text,179,1023765,0.0-15.0-3.12,67921,List2B,white,woman,,,,,"{""Q0"":""ruth and luke are meeting each other""}","<img src=""stim_listB/meet2.gif""</stim_listB>",are meeting each other,
null,"<div style=""font-size:60px;"">+</div>",,html-keyboard-response,180,1024266,0.0-15.0-0.13,67921,List2B,white,woman,,,,null,,,,
null,"<img src=""stim_listB/touch8.gif""</stim_listB>",,html-keyboard-response,181,1026268,0.0-15.0-1.13,67921,List2B,white,woman,,,,null,,,,
null,are touching each other,,html-keyboard-response,182,1028270,0.0-15.0-2.13,67921,List2B,white,woman,,,,null,,,,
6819,,,survey-text,183,1035089,0.0-15.0-3.13,67921,List2B,white,woman,,,,,"{""Q0"":""ruth and beth are touching each other""}","<img src=""stim_listB/touch8.gif""</stim_listB>",are touching each other,
null,"<div style=""font-size:60px;"">+</div>",,html-keyboard-response,184,1035591,0.0-15.0-0.14,67921,List2B,white,woman,,,,null,,,,
null,"<img src=""stim_listB/touch5.gif""</stim_listB>",,html-keyboard-response,185,1037592,0.0-15.0-1.14,67921,List2B,white,woman,,,,null,,,,
null,is touching,,html-keyboard-response,186,1039594,0.0-15.0-2.14,67921,List2B,white,woman,,,,null,,,,
9817,,,survey-text,187,1049412,0.0-15.0-3.14,67921,List2B,white,woman,,,,,"{""Q0"":""mike is touching dave""}","<img src=""stim_listB/touch5.gif""</stim_listB>",is touching,
null,"<div style=""font-size:60px;"">+</div>",,html-keyboard-response,188,1049914,0.0-15.0-0.15,67921,List2B,white,woman,,,,null,,,,
null,"<img src=""stim_listB/talk3.gif""</stim_listB>",,html-keyboard-response,189,1051916,0.0-15.0-1.15,67921,List2B,white,woman,,,,null,,,,
null,is talking to,,html-keyboard-response,190,1053918,0.0-15.0-2.15,67921,List2B,white,woman,,,,null,,,,
6827,,,survey-text,191,1060745,0.0-15.0-3.15,67921,List2B,white,woman,,,,,"{""Q0"":""kate is talking to fred""}","<img src=""stim_listB/talk3.gif""</stim_listB>",is talking to,
null,"<div style=""font-size:60px;"">+</div>",,html-keyboard-response,192,1061248,0.0-15.0-0.16,67921,List2B,white,woman,,,,null,,,,
null,"<img src=""stim_listB/marry1.gif""</stim_listB>",,html-keyboard-response,193,1063250,0.0-15.0-1.16,67921,List2B,white,woman,,,,null,,,,
null,is marrying,,html-keyboard-response,194,1065251,0.0-15.0-2.16,67921,List2B,white,woman,,,,null,,,,
4966,,,survey-text,195,1070218,0.0-15.0-3.16,67921,List2B,white,woman,,,,,"{""Q0"":""ruth is marrying dave""}","<img src=""stim_listB/marry1.gif""</stim_listB>",is marrying,
null,"<div style=""font-size:60px;"">+</div>",,html-keyboard-response,196,1070719,0.0-15.0-0.17,67921,List2B,white,woman,,,,null,,,,
null,"<img src=""stim_listB/hug1.gif""</stim_listB>",,html-keyboard-response,197,1072723,0.0-15.0-1.17,67921,List2B,white,woman,,,,null,,,,
null,is hugging,,html-keyboard-response,198,1074725,0.0-15.0-2.17,67921,List2B,white,woman,,,,null,,,,
6126,,,survey-text,199,1080852,0.0-15.0-3.17,67921,List2B,white,woman,,,,,"{""Q0"":""ruth is hugging luke""}","<img src=""stim_listB/hug1.gif""</stim_listB>",is hugging,
null,"<div style=""font-size:60px;"">+</div>",,html-keyboard-response,200,1081353,0.0-15.0-0.18,67921,List2B,white,woman,,,,null,,,,
null,"<img src=""stim_listB/argue3.gif""</stim_listB>",,html-keyboard-response,201,1083356,0.0-15.0-1.18,67921,List2B,white,woman,,,,null,,,,
null,is arguing with,,html-keyboard-response,202,1085357,0.0-15.0-2.18,67921,List2B,white,woman,,,,null,,,,
5631,,,survey-text,203,1090989,0.0-15.0-3.18,67921,List2B,white,woman,,,,,"{""Q0"":""beth is arguing with mike""}","<img src=""stim_listB/argue3.gif""</stim_listB>",is arguing with,
null,"<div style=""font-size:60px;"">+</div>",,html-keyboard-response,204,1091492,0.0-15.0-0.19,67921,List2B,white,woman,,,,null,,,,
null,"<img src=""stim_listB/dance5.gif""</stim_listB>",,html-keyboard-response,205,1093494,0.0-15.0-1.19,67921,List2B,white,woman,,,,null,,,,
null,is dancing with,,html-keyboard-response,206,1095495,0.0-15.0-2.19,67921,List2B,white,woman,,,,null,,,,
6656,,,survey-text,207,1102153,0.0-15.0-3.19,67921,List2B,white,woman,,,,,"{""Q0"":""mike is dancing with luke""}","<img src=""stim_listB/dance5.gif""</stim_listB>",is dancing with,
3288,"<img src='img/portrait_matrix_list2.JPG' style='width:900px;height:500px;''></img><p>If you have memorised all the portraits and names and are ready to start, press Continue.</p><p><strong>Please note: Your memory of these faces will be tested 4 times during this experiment.</strong></p>",0,html-button-response,208,1105442,0.0-16.0-0.0,67921,List2B,white,woman,,,,,,,,
2190,"<img src=""portrait/WM2.jpg""style=""width:400px;height:400px;""></img>",7,html-button-response,209,1108633,0.0-16.0-1.0,67921,List2B,white,woman,,TRUE,7,,,,,
null,CORRECT,,html-keyboard-response,210,1110137,0.0-16.0-2.0-0.0,67921,List2B,white,woman,,,,null,,,,
2157,"<img src=""portrait/WM1.jpg""style=""width:400px;height:400px;""></img>",6,html-button-response,211,1112296,0.0-16.0-4.0,67921,List2B,white,woman,,TRUE,6,,,,,
null,CORRECT,,html-keyboard-response,212,1113801,0.0-16.0-5.0-0.0,67921,List2B,white,woman,,,,null,,,,
2085,"<img src=""portrait/BW2.jpg""style=""width:400px;height:400px;""></img>",2,html-button-response,213,1115888,0.0-16.0-7.0,67921,List2B,white,woman,,TRUE,2,,,,,
null,CORRECT,,html-keyboard-response,214,1117392,0.0-16.0-8.0-0.0,67921,List2B,white,woman,,,,null,,,,
2287,"<img src=""portrait/BW1.jpg""style=""width:400px;height:400px;""></img>",0,html-button-response,215,1119680,0.0-16.0-10.0,67921,List2B,white,woman,,TRUE,0,,,,,
null,CORRECT,,html-keyboard-response,216,1121182,0.0-16.0-11.0-0.0,67921,List2B,white,woman,,,,null,,,,
2097,"<img src=""portrait/BM1.jpg""style=""width:400px;height:400px;""></img>",4,html-button-response,217,1123281,0.0-16.0-13.0,67921,List2B,white,woman,,TRUE,4,,,,,
null,CORRECT,,html-keyboard-response,218,1124782,0.0-16.0-14.0-0.0,67921,List2B,white,woman,,,,null,,,,
1779,"<img src=""portrait/WW2.jpg""style=""width:400px;height:400px;""></img>",3,html-button-response,219,1126563,0.0-16.0-16.0,67921,List2B,white,woman,,TRUE,3,,,,,
null,CORRECT,,html-keyboard-response,220,1128067,0.0-16.0-17.0-0.0,67921,List2B,white,woman,,,,null,,,,
2251,"<img src=""portrait/WW1.jpg""style=""width:400px;height:400px;""></img>",1,html-button-response,221,1130321,0.0-16.0-19.0,67921,List2B,white,woman,,TRUE,1,,,,,
null,CORRECT,,html-keyboard-response,222,1131823,0.0-16.0-20.0-0.0,67921,List2B,white,woman,,,,null,,,,
2350,"<img src=""portrait/BM2.jpg""style=""width:400px;height:400px;""></img>",5,html-button-response,223,1134174,0.0-16.0-22.0,67921,List2B,white,woman,,TRUE,5,,,,,
null,CORRECT,,html-keyboard-response,224,1135677,0.0-16.0-23.0-0.0,67921,List2B,white,woman,,,,null,,,,
2206,<p>You got 8 out of 8 right first time. Press Continue.</p>,0,html-button-response,225,1137885,0.0-16.0-25.0,67921,List2B,white,woman,,,,,,,,
null,"<div style=""font-size:60px;"">+</div>",,html-keyboard-response,226,1139387,0.0-17.0-0.0,67921,List2B,white,woman,,,,null,,,,
null,"<img src=""stim_listB/dance6.gif""</stim_listB>",,html-keyboard-response,227,1141389,0.0-17.0-1.0,67921,List2B,white,woman,,,,null,,,,
null,are dancing with each other,,html-keyboard-response,228,1143391,0.0-17.0-2.0,67921,List2B,white,woman,,,,null,,,,
8233,,,survey-text,229,1151625,0.0-17.0-3.0,67921,List2B,white,woman,,,,,"{""Q0"":""dave and fred are dancing with each other""}","<img src=""stim_listB/dance6.gif""</stim_listB>",are dancing with each other,
null,"<div style=""font-size:60px;"">+</div>",,html-keyboard-response,230,1152127,0.0-17.0-0.1,67921,List2B,white,woman,,,,null,,,,
null,"<img src=""stim_listB/hug6.gif""</stim_listB>",,html-keyboard-response,231,1154130,0.0-17.0-1.1,67921,List2B,white,woman,,,,null,,,,
null,are hugging each other,,html-keyboard-response,232,1156132,0.0-17.0-2.1,67921,List2B,white,woman,,,,null,,,,
6630,,,survey-text,233,1162763,0.0-17.0-3.1,67921,List2B,white,woman,,,,,"{""Q0"":""dave and mike are hugging each other""}","<img src=""stim_listB/hug6.gif""</stim_listB>",are hugging each other,
null,"<div style=""font-size:60px;"">+</div>",,html-keyboard-response,234,1163265,0.0-17.0-0.2,67921,List2B,white,woman,,,,null,,,,
null,"<img src=""stim_listB/fight1.gif""</stim_listB>",,html-keyboard-response,235,1165267,0.0-17.0-1.2,67921,List2B,white,woman,,,,null,,,,
null,is fighting,,html-keyboard-response,236,1167268,0.0-17.0-2.2,67921,List2B,white,woman,,,,null,,,,
6125,,,survey-text,237,1173394,0.0-17.0-3.2,67921,List2B,white,woman,,,,,"{""Q0"":""jane is fighing dave""}","<img src=""stim_listB/fight1.gif""</stim_listB>",is fighting,
null,"<div style=""font-size:60px;"">+</div>",,html-keyboard-response,238,1173897,0.0-17.0-0.3,67921,List2B,white,woman,,,,null,,,,
null,"<img src=""stim_listB/talk4.gif""</stim_listB>",,html-keyboard-response,239,1175899,0.0-17.0-1.3,67921,List2B,white,woman,,,,null,,,,
null,are talking to each other,,html-keyboard-response,240,1177901,0.0-17.0-2.3,67921,List2B,white,woman,,,,null,,,,
5947,,,survey-text,241,1183849,0.0-17.0-3.3,67921,List2B,white,woman,,,,,"{""Q0"":""mike and beth are talking to each other""}","<img src=""stim_listB/talk4.gif""</stim_listB>",are talking to each other,
null,"<div style=""font-size:60px;"">+</div>",,html-keyboard-response,242,1184351,0.0-17.0-0.4,67921,List2B,white,woman,,,,null,,,,
null,"<img src=""stim_listB/touch7.gif""</stim_listB>",,html-keyboard-response,243,1186354,0.0-17.0-1.4,67921,List2B,white,woman,,,,null,,,,
null,is touching,,html-keyboard-response,244,1188355,0.0-17.0-2.4,67921,List2B,white,woman,,,,null,,,,
4378,,,survey-text,245,1192735,0.0-17.0-3.4,67921,List2B,white,woman,,,,,"{""Q0"":""kate is touching jane""}","<img src=""stim_listB/touch7.gif""</stim_listB>",is touching,
null,"<div style=""font-size:60px;"">+</div>",,html-keyboard-response,246,1193236,0.0-17.0-0.5,67921,List2B,white,woman,,,,null,,,,
null,"<img src=""stim_listB/meet4.gif""</stim_listB>",,html-keyboard-response,247,1195237,0.0-17.0-1.5,67921,List2B,white,woman,,,,null,,,,
null,are meeting each other,,html-keyboard-response,248,1197239,0.0-17.0-2.5,67921,List2B,white,woman,,,,null,,,,
6668,,,survey-text,249,1203908,0.0-17.0-3.5,67921,List2B,white,woman,,,,,"{""Q0"":""fred and beth are meeting each other""}","<img src=""stim_listB/meet4.gif""</stim_listB>",are meeting each other,
null,"<div style=""font-size:60px;"">+</div>",,html-keyboard-response,250,1204410,0.0-17.0-0.6,67921,List2B,white,woman,,,,null,,,,
null,"<img src=""stim_listB/marry2.gif""</stim_listB>",,html-keyboard-response,251,1206411,0.0-17.0-1.6,67921,List2B,white,woman,,,,null,,,,
null,are marrying each other,,html-keyboard-response,252,1208413,0.0-17.0-2.6,67921,List2B,white,woman,,,,null,,,,
6307,,,survey-text,253,1214720,0.0-17.0-3.6,67921,List2B,white,woman,,,,,"{""Q0"":""luke and jane are marrying each other""}","<img src=""stim_listB/marry2.gif""</stim_listB>",are marrying each other,
null,"<div style=""font-size:60px;"">+</div>",,html-keyboard-response,254,1215222,0.0-17.0-0.7,67921,List2B,white,woman,,,,null,,,,
null,"<img src=""stim_listB/dance2.gif""</stim_listB>",,html-keyboard-response,255,1217225,0.0-17.0-1.7,67921,List2B,white,woman,,,,null,,,,
null,are dancing with each other,,html-keyboard-response,256,1219226,0.0-17.0-2.7,67921,List2B,white,woman,,,,null,,,,
6259,,,survey-text,257,1225487,0.0-17.0-3.7,67921,List2B,white,woman,,,,,"{""Q0"":""dave and ruth are dancing with each other""}","<img src=""stim_listB/dance2.gif""</stim_listB>",are dancing with each other,
null,"<div style=""font-size:60px;"">+</div>",,html-keyboard-response,258,1225988,0.0-17.0-0.8,67921,List2B,white,woman,,,,null,,,,
null,"<img src=""stim_listB/hug2.gif""</stim_listB>",,html-keyboard-response,259,1227990,0.0-17.0-1.8,67921,List2B,white,woman,,,,null,,,,
null,are hugging each other,,html-keyboard-response,260,1229992,0.0-17.0-2.8,67921,List2B,white,woman,,,,null,,,,
5760,,,survey-text,261,1235753,0.0-17.0-3.8,67921,List2B,white,woman,,,,,"{""Q0"":""dave and jane are hugging each other""}","<img src=""stim_listB/hug2.gif""</stim_listB>",are hugging each other,
null,"<div style=""font-size:60px;"">+</div>",,html-keyboard-response,262,1236255,0.0-17.0-0.9,67921,List2B,white,woman,,,,null,,,,
null,"<img src=""stim_listB/hug5.gif""</stim_listB>",,html-keyboard-response,263,1238256,0.0-17.0-1.9,67921,List2B,white,woman,,,,null,,,,
null,is hugging,,html-keyboard-response,264,1240257,0.0-17.0-2.9,67921,List2B,white,woman,,,,null,,,,
4438,,,survey-text,265,1244696,0.0-17.0-3.9,67921,List2B,white,woman,,,,,"{""Q0"":""fred is hugging luke""}","<img src=""stim_listB/hug5.gif""</stim_listB>",is hugging,
null,"<div style=""font-size:60px;"">+</div>",,html-keyboard-response,266,1245197,0.0-17.0-0.10,67921,List2B,white,woman,,,,null,,,,
null,"<img src=""stim_listB/touch2.gif""</stim_listB>",,html-keyboard-response,267,1247198,0.0-17.0-1.10,67921,List2B,white,woman,,,,null,,,,
null,are touching each other,,html-keyboard-response,268,1249201,0.0-17.0-2.10,67921,List2B,white,woman,,,,null,,,,
6564,,,survey-text,269,1255766,0.0-17.0-3.10,67921,List2B,white,woman,,,,,"{""Q0"":""luke and ruth are touching each other""}","<img src=""stim_listB/touch2.gif""</stim_listB>",are touching each other,
null,"<div style=""font-size:60px;"">+</div>",,html-keyboard-response,270,1256268,0.0-17.0-0.11,67921,List2B,white,woman,,,,null,,,,
null,"<img src=""stim_listB/meet5.gif""</stim_listB>",,html-keyboard-response,271,1258270,0.0-17.0-1.11,67921,List2B,white,woman,,,,null,,,,
null,is meeting,,html-keyboard-response,272,1260271,0.0-17.0-2.11,67921,List2B,white,woman,,,,null,,,,
4961,,,survey-text,273,1265233,0.0-17.0-3.11,67921,List2B,white,woman,,,,,"{""Q0"":""mike is meeting dave""}","<img src=""stim_listB/meet5.gif""</stim_listB>",is meeting,
null,"<div style=""font-size:60px;"">+</div>",,html-keyboard-response,274,1265735,0.0-17.0-0.12,67921,List2B,white,woman,,,,null,,,,
null,"<img src=""stim_listB/argue7.gif""</stim_listB>",,html-keyboard-response,275,1267737,0.0-17.0-1.12,67921,List2B,white,woman,,,,null,,,,
null,is arguing with,,html-keyboard-response,276,1269740,0.0-17.0-2.12,67921,List2B,white,woman,,,,null,,,,
4854,,,survey-text,277,1274596,0.0-17.0-3.12,67921,List2B,white,woman,,,,,"{""Q0"":""beth is arguing with jane""}","<img src=""stim_listB/argue7.gif""</stim_listB>",is arguing with,
null,"<div style=""font-size:60px;"">+</div>",,html-keyboard-response,278,1275097,0.0-17.0-0.13,67921,List2B,white,woman,,,,null,,,,
null,"<img src=""stim_listB/dance4.gif""</stim_listB>",,html-keyboard-response,279,1277099,0.0-17.0-1.13,67921,List2B,white,woman,,,,null,,,,
null,are dancing with each other,,html-keyboard-response,280,1279101,0.0-17.0-2.13,67921,List2B,white,woman,,,,null,,,,
7621,,,survey-text,281,1286723,0.0-17.0-3.13,67921,List2B,white,woman,,,,,"{""Q0"":""mike and beth are dancing with each other""}","<img src=""stim_listB/dance4.gif""</stim_listB>",are dancing with each other,
null,"<div style=""font-size:60px;"">+</div>",,html-keyboard-response,282,1287225,0.0-17.0-0.14,67921,List2B,white,woman,,,,null,,,,
null,"<img src=""stim_listB/shout3.gif""</stim_listB>",,html-keyboard-response,283,1289227,0.0-17.0-1.14,67921,List2B,white,woman,,,,null,,,,
null,is shouting at,,html-keyboard-response,284,1291229,0.0-17.0-2.14,67921,List2B,white,woman,,,,null,,,,
6803,,,survey-text,285,1298034,0.0-17.0-3.14,67921,List2B,white,woman,,,,,"{""Q0"":""beth is shouting at fred""}","<img src=""stim_listB/shout3.gif""</stim_listB>",is shouting at,
null,"<div style=""font-size:60px;"">+</div>",,html-keyboard-response,286,1298535,0.0-17.0-0.15,67921,List2B,white,woman,,,,null,,,,
null,"<img src=""stim_listB/shout5.gif""</stim_listB>",,html-keyboard-response,287,1300538,0.0-17.0-1.15,67921,List2B,white,woman,,,,null,,,,
null,is shouting at,,html-keyboard-response,288,1302539,0.0-17.0-2.15,67921,List2B,white,woman,,,,null,,,,
5229,,,survey-text,289,1307769,0.0-17.0-3.15,67921,List2B,white,woman,,,,,"{""Q0"":""fred is shouting at luke""}","<img src=""stim_listB/shout5.gif""</stim_listB>",is shouting at,
null,"<div style=""font-size:60px;"">+</div>",,html-keyboard-response,290,1308272,0.0-17.0-0.16,67921,List2B,white,woman,,,,null,,,,
null,"<img src=""stim_listB/marry6.gif""</stim_listB>",,html-keyboard-response,291,1310276,0.0-17.0-1.16,67921,List2B,white,woman,,,,null,,,,
null,are marrying each other,,html-keyboard-response,292,1312278,0.0-17.0-2.16,67921,List2B,white,woman,,,,null,,,,
6946,,,survey-text,293,1319226,0.0-17.0-3.16,67921,List2B,white,woman,,,,,"{""Q0"":""luke and mike are marrying each other""}","<img src=""stim_listB/marry6.gif""</stim_listB>",are marrying each other,
null,"<div style=""font-size:60px;"">+</div>",,html-keyboard-response,294,1319728,0.0-17.0-0.17,67921,List2B,white,woman,,,,null,,,,
null,"<img src=""stim_listB/marry3.gif""</stim_listB>",,html-keyboard-response,295,1321731,0.0-17.0-1.17,67921,List2B,white,woman,,,,null,,,,
null,is marrying,,html-keyboard-response,296,1323732,0.0-17.0-2.17,67921,List2B,white,woman,,,,null,,,,
4758,,,survey-text,297,1328491,0.0-17.0-3.17,67921,List2B,white,woman,,,,,"{""Q0"":""beth is marrying mike""}","<img src=""stim_listB/marry3.gif""</stim_listB>",is marrying,
null,"<div style=""font-size:60px;"">+</div>",,html-keyboard-response,298,1328994,0.0-17.0-0.18,67921,List2B,white,woman,,,,null,,,,
null,"<img src=""stim_listB/kiss2.gif""</stim_listB>",,html-keyboard-response,299,1330996,0.0-17.0-1.18,67921,List2B,white,woman,,,,null,,,,
null,are kissing each other,,html-keyboard-response,300,1332998,0.0-17.0-2.18,67921,List2B,white,woman,,,,null,,,,
7300,,,survey-text,301,1340299,0.0-17.0-3.18,67921,List2B,white,woman,,,,,"{""Q0"":""dave and jane are kissing each other""}","<img src=""stim_listB/kiss2.gif""</stim_listB>",are kissing each other,
null,"<div style=""font-size:60px;"">+</div>",,html-keyboard-response,302,1340800,0.0-17.0-0.19,67921,List2B,white,woman,,,,null,,,,
null,"<img src=""stim_listB/fight8.gif""</stim_listB>",,html-keyboard-response,303,1342803,0.0-17.0-1.19,67921,List2B,white,woman,,,,null,,,,
null,are fighting each other,,html-keyboard-response,304,1344805,0.0-17.0-2.19,67921,List2B,white,woman,,,,null,,,,
5747,,,survey-text,305,1350553,0.0-17.0-3.19,67921,List2B,white,woman,,,,,"{""Q0"":""ruth and beth are fighting each other""}","<img src=""stim_listB/fight8.gif""</stim_listB>",are fighting each other,
2018,"<img src='img/portrait_matrix_list2.JPG' style='width:900px;height:500px;''></img><p>If you have memorised all the portraits and names and are ready to start, press Continue.</p><p><strong>Please note: Your memory of these faces will be tested 4 times during this experiment.</strong></p>",0,html-button-response,306,1352572,0.0-18.0-0.0,67921,List2B,white,woman,,,,,,,,
2245,"<img src=""portrait/BW2.jpg""style=""width:400px;height:400px;""></img>",2,html-button-response,307,1355820,0.0-18.0-1.0,67921,List2B,white,woman,,TRUE,2,,,,,
null,CORRECT,,html-keyboard-response,308,1357323,0.0-18.0-2.0-0.0,67921,List2B,white,woman,,,,null,,,,
2408,"<img src=""portrait/WM1.jpg""style=""width:400px;height:400px;""></img>",6,html-button-response,309,1359733,0.0-18.0-4.0,67921,List2B,white,woman,,TRUE,6,,,,,
null,CORRECT,,html-keyboard-response,310,1361235,0.0-18.0-5.0-0.0,67921,List2B,white,woman,,,,null,,,,
2088,"<img src=""portrait/BM2.jpg""style=""width:400px;height:400px;""></img>",5,html-button-response,311,1363325,0.0-18.0-7.0,67921,List2B,white,woman,,TRUE,5,,,,,
null,CORRECT,,html-keyboard-response,312,1364828,0.0-18.0-8.0-0.0,67921,List2B,white,woman,,,,null,,,,
2081,"<img src=""portrait/WW2.jpg""style=""width:400px;height:400px;""></img>",3,html-button-response,313,1366911,0.0-18.0-10.0,67921,List2B,white,woman,,TRUE,3,,,,,
null,CORRECT,,html-keyboard-response,314,1368413,0.0-18.0-11.0-0.0,67921,List2B,white,woman,,,,null,,,,
2710,"<img src=""portrait/BW1.jpg""style=""width:400px;height:400px;""></img>",0,html-button-response,315,1371126,0.0-18.0-13.0,67921,List2B,white,woman,,TRUE,0,,,,,
null,CORRECT,,html-keyboard-response,316,1372629,0.0-18.0-14.0-0.0,67921,List2B,white,woman,,,,null,,,,
1813,"<img src=""portrait/WW1.jpg""style=""width:400px;height:400px;""></img>",1,html-button-response,317,1374444,0.0-18.0-16.0,67921,List2B,white,woman,,TRUE,1,,,,,
null,CORRECT,,html-keyboard-response,318,1375948,0.0-18.0-17.0-0.0,67921,List2B,white,woman,,,,null,,,,
3070,"<img src=""portrait/WM2.jpg""style=""width:400px;height:400px;""></img>",7,html-button-response,319,1379021,0.0-18.0-19.0,67921,List2B,white,woman,,TRUE,7,,,,,
null,CORRECT,,html-keyboard-response,320,1380524,0.0-18.0-20.0-0.0,67921,List2B,white,woman,,,,null,,,,
2205,"<img src=""portrait/BM1.jpg""style=""width:400px;height:400px;""></img>",4,html-button-response,321,1382731,0.0-18.0-22.0,67921,List2B,white,woman,,TRUE,4,,,,,
null,CORRECT,,html-keyboard-response,322,1384234,0.0-18.0-23.0-0.0,67921,List2B,white,woman,,,,null,,,,
1389,<p>You got 8 out of 8 right first time. Press Continue.</p>,0,html-button-response,323,1385625,0.0-18.0-25.0,67921,List2B,white,woman,,,,,,,,
null,"<div style=""font-size:60px;"">+</div>",,html-keyboard-response,324,1387128,0.0-19.0-0.0,67921,List2B,white,woman,,,,null,,,,
null,"<img src=""stim_listB/fight6.gif""</stim_listB>",,html-keyboard-response,325,1389131,0.0-19.0-1.0,67921,List2B,white,woman,,,,null,,,,
null,are fighting each other,,html-keyboard-response,326,1391132,0.0-19.0-2.0,67921,List2B,white,woman,,,,null,,,,
6489,,,survey-text,327,1397621,0.0-19.0-3.0,67921,List2B,white,woman,,,,,"{""Q0"":""luke and fred are fighting each other""}","<img src=""stim_listB/fight6.gif""</stim_listB>",are fighting each other,
null,"<div style=""font-size:60px;"">+</div>",,html-keyboard-response,328,1398124,0.0-19.0-0.1,67921,List2B,white,woman,,,,null,,,,
null,"<img src=""stim_listB/fight4.gif""</stim_listB>",,html-keyboard-response,329,1400126,0.0-19.0-1.1,67921,List2B,white,woman,,,,null,,,,
null,are fighting each other,,html-keyboard-response,330,1402129,0.0-19.0-2.1,67921,List2B,white,woman,,,,null,,,,
5630,,,survey-text,331,1407759,0.0-19.0-3.1,67921,List2B,white,woman,,,,,"{""Q0"":""fred and beth are fighting each other""}","<img src=""stim_listB/fight4.gif""</stim_listB>",are fighting each other,
null,"<div style=""font-size:60px;"">+</div>",,html-keyboard-response,332,1408260,0.0-19.0-0.2,67921,List2B,white,woman,,,,null,,,,
null,"<img src=""stim_listB/shout1.gif""</stim_listB>",,html-keyboard-response,333,1410262,0.0-19.0-1.2,67921,List2B,white,woman,,,,null,,,,
null,is shouting at,,html-keyboard-response,334,1412264,0.0-19.0-2.2,67921,List2B,white,woman,,,,null,,,,
4974,,,survey-text,335,1417240,0.0-19.0-3.2,67921,List2B,white,woman,,,,,"{""Q0"":""ruth is shouting at luke""}","<img src=""stim_listB/shout1.gif""</stim_listB>",is shouting at,
null,"<div style=""font-size:60px;"">+</div>",,html-keyboard-response,336,1417741,0.0-19.0-0.3,67921,List2B,white,woman,,,,null,,,,
null,"<img src=""stim_listB/shout8.gif""</stim_listB>",,html-keyboard-response,337,1419743,0.0-19.0-1.3,67921,List2B,white,woman,,,,null,,,,
null,are shouting at each other,,html-keyboard-response,338,1421744,0.0-19.0-2.3,67921,List2B,white,woman,,,,null,,,,
7324,,,survey-text,339,1429070,0.0-19.0-3.3,67921,List2B,white,woman,,,,,"{""Q0"":""jane and kate are shouting at each other""}","<img src=""stim_listB/shout8.gif""</stim_listB>",are shouting at each other,
null,"<div style=""font-size:60px;"">+</div>",,html-keyboard-response,340,1429572,0.0-19.0-0.4,67921,List2B,white,woman,,,,null,,,,
null,"<img src=""stim_listB/talk5.gif""</stim_listB>",,html-keyboard-response,341,1431575,0.0-19.0-1.4,67921,List2B,white,woman,,,,null,,,,
null,is talking to,,html-keyboard-response,342,1433576,0.0-19.0-2.4,67921,List2B,white,woman,,,,null,,,,
4800,,,survey-text,343,1438377,0.0-19.0-3.4,67921,List2B,white,woman,,,,,"{""Q0"":""mike is talking to luke""}","<img src=""stim_listB/talk5.gif""</stim_listB>",is talking to,
null,"<div style=""font-size:60px;"">+</div>",,html-keyboard-response,344,1438879,0.0-19.0-0.5,67921,List2B,white,woman,,,,null,,,,
null,"<img src=""stim_listB/argue2.gif""</stim_listB>",,html-keyboard-response,345,1440881,0.0-19.0-1.5,67921,List2B,white,woman,,,,null,,,,
null,are arguing with each other,,html-keyboard-response,346,1442883,0.0-19.0-2.5,67921,List2B,white,woman,,,,null,,,,
6665,,,survey-text,347,1449550,0.0-19.0-3.5,67921,List2B,white,woman,,,,,"{""Q0"":""luke and jane are arguing with each other""}","<img src=""stim_listB/argue2.gif""</stim_listB>",are arguing with each other,
null,"<div style=""font-size:60px;"">+</div>",,html-keyboard-response,348,1450053,0.0-19.0-0.6,67921,List2B,white,woman,,,,null,,,,
null,"<img src=""stim_listB/kiss6.gif""</stim_listB>",,html-keyboard-response,349,1452054,0.0-19.0-1.6,67921,List2B,white,woman,,,,null,,,,
null,are kissing each other,,html-keyboard-response,350,1454056,0.0-19.0-2.6,67921,List2B,white,woman,,,,null,,,,
6588,,,survey-text,351,1460646,0.0-19.0-3.6,67921,List2B,white,woman,,,,,"{""Q0"":""dave and mike are kissing each other""}","<img src=""stim_listB/kiss6.gif""</stim_listB>",are kissing each other,
null,"<div style=""font-size:60px;"">+</div>",,html-keyboard-response,352,1461147,0.0-19.0-0.7,67921,List2B,white,woman,,,,null,,,,
null,"<img src=""stim_listB/talk1.gif""</stim_listB>",,html-keyboard-response,353,1463150,0.0-19.0-1.7,67921,List2B,white,woman,,,,null,,,,
null,is talking to,,html-keyboard-response,354,1465153,0.0-19.0-2.7,67921,List2B,white,woman,,,,null,,,,
4909,,,survey-text,355,1470063,0.0-19.0-3.7,67921,List2B,white,woman,,,,,"{""Q0"":""jane is talking to luke""}","<img src=""stim_listB/talk1.gif""</stim_listB>",is talking to,
null,"<div style=""font-size:60px;"">+</div>",,html-keyboard-response,356,1470566,0.0-19.0-0.8,67921,List2B,white,woman,,,,null,,,,
null,"<img src=""stim_listB/talk2.gif""</stim_listB>",,html-keyboard-response,357,1472567,0.0-19.0-1.8,67921,List2B,white,woman,,,,null,,,,
null,are talking to each other,,html-keyboard-response,358,1474568,0.0-19.0-2.8,67921,List2B,white,woman,,,,null,,,,
6524,,,survey-text,359,1481094,0.0-19.0-3.8,67921,List2B,white,woman,,,,,"{""Q0"":""dave and ruth are talking to each other""}","<img src=""stim_listB/talk2.gif""</stim_listB>",are talking to each other,
null,"<div style=""font-size:60px;"">+</div>",,html-keyboard-response,360,1481596,0.0-19.0-0.9,67921,List2B,white,woman,,,,null,,,,
null,"<img src=""stim_listB/kiss8.gif""</stim_listB>",,html-keyboard-response,361,1483599,0.0-19.0-1.9,67921,List2B,white,woman,,,,null,,,,
null,are kissing each other,,html-keyboard-response,362,1485599,0.0-19.0-2.9,67921,List2B,white,woman,,,,null,,,,
6050,,,survey-text,363,1491651,0.0-19.0-3.9,67921,List2B,white,woman,,,,,"{""Q0"":""jane and kate are kissing each other""}","<img src=""stim_listB/kiss8.gif""</stim_listB>",are kissing each other,
null,"<div style=""font-size:60px;"">+</div>",,html-keyboard-response,364,1492153,0.0-19.0-0.10,67921,List2B,white,woman,,,,null,,,,
null,"<img src=""stim_listB/talk8.gif""</stim_listB>",,html-keyboard-response,365,1494156,0.0-19.0-1.10,67921,List2B,white,woman,,,,null,,,,
null,are talking to each other,,html-keyboard-response,366,1496157,0.0-19.0-2.10,67921,List2B,white,woman,,,,null,,,,
5574,,,survey-text,367,1501732,0.0-19.0-3.10,67921,List2B,white,woman,,,,,"{""Q0"":""jane and beth are talking to each other""}","<img src=""stim_listB/talk8.gif""</stim_listB>",are talking to each other,
null,"<div style=""font-size:60px;"">+</div>",,html-keyboard-response,368,1502234,0.0-19.0-0.11,67921,List2B,white,woman,,,,null,,,,
null,"<img src=""stim_listB/kiss4.gif""</stim_listB>",,html-keyboard-response,369,1504236,0.0-19.0-1.11,67921,List2B,white,woman,,,,null,,,,
null,are kissing each other,,html-keyboard-response,370,1506238,0.0-19.0-2.11,67921,List2B,white,woman,,,,null,,,,
6826,,,survey-text,371,1513066,0.0-19.0-3.11,67921,List2B,white,woman,,,,,"{""Q0"":""mike and kate are kissing each other""}","<img src=""stim_listB/kiss4.gif""</stim_listB>",are kissing each other,
null,"<div style=""font-size:60px;"">+</div>",,html-keyboard-response,372,1513567,0.0-19.0-0.12,67921,List2B,white,woman,,,,null,,,,
null,"<img src=""stim_listB/talk7.gif""</stim_listB>",,html-keyboard-response,373,1515569,0.0-19.0-1.12,67921,List2B,white,woman,,,,null,,,,
null,is talking to,,html-keyboard-response,374,1517570,0.0-19.0-2.12,67921,List2B,white,woman,,,,null,,,,
4373,,,survey-text,375,1521944,0.0-19.0-3.12,67921,List2B,white,woman,,,,,"{""Q0"":""kate is talking to ruth""}","<img src=""stim_listB/talk7.gif""</stim_listB>",is talking to,
null,"<div style=""font-size:60px;"">+</div>",,html-keyboard-response,376,1522445,0.0-19.0-0.13,67921,List2B,white,woman,,,,null,,,,
null,"<img src=""stim_listB/hug3.gif""</stim_listB>",,html-keyboard-response,377,1524448,0.0-19.0-1.13,67921,List2B,white,woman,,,,null,,,,
null,is hugging,,html-keyboard-response,378,1526450,0.0-19.0-2.13,67921,List2B,white,woman,,,,null,,,,
4544,,,survey-text,379,1530995,0.0-19.0-3.13,67921,List2B,white,woman,,,,,"{""Q0"":""beth is hugging fred""}","<img src=""stim_listB/hug3.gif""</stim_listB>",is hugging,
null,"<div style=""font-size:60px;"">+</div>",,html-keyboard-response,380,1531496,0.0-19.0-0.14,67921,List2B,white,woman,,,,null,,,,
null,"<img src=""stim_listB/dance3.gif""</stim_listB>",,html-keyboard-response,381,1533499,0.0-19.0-1.14,67921,List2B,white,woman,,,,null,,,,
null,is dancing with,,html-keyboard-response,382,1535500,0.0-19.0-2.14,67921,List2B,white,woman,,,,null,,,,
5270,,,survey-text,383,1540771,0.0-19.0-3.14,67921,List2B,white,woman,,,,,"{""Q0"":""kate is dancing with fred""}","<img src=""stim_listB/dance3.gif""</stim_listB>",is dancing with,
null,"<div style=""font-size:60px;"">+</div>",,html-keyboard-response,384,1541273,0.0-19.0-0.15,67921,List2B,white,woman,,,,null,,,,
null,"<img src=""stim_listB/kiss5.gif""</stim_listB>",,html-keyboard-response,385,1543276,0.0-19.0-1.15,67921,List2B,white,woman,,,,null,,,,
null,is kissing,,html-keyboard-response,386,1545278,0.0-19.0-2.15,67921,List2B,white,woman,,,,null,,,,
4632,,,survey-text,387,1549912,0.0-19.0-3.15,67921,List2B,white,woman,,,,,"{""Q0"":""fred is kissing luke""}","<img src=""stim_listB/kiss5.gif""</stim_listB>",is kissing,
null,"<div style=""font-size:60px;"">+</div>",,html-keyboard-response,388,1550413,0.0-19.0-0.16,67921,List2B,white,woman,,,,null,,,,
null,"<img src=""stim_listB/dance8.gif""</stim_listB>",,html-keyboard-response,389,1552415,0.0-19.0-1.16,67921,List2B,white,woman,,,,null,,,,
null,are dancing with each other,,html-keyboard-response,390,1554417,0.0-19.0-2.16,67921,List2B,white,woman,,,,null,,,,
6957,,,survey-text,391,1561374,0.0-19.0-3.16,67921,List2B,white,woman,,,,,"{""Q0"":""jane and beth are dancing with each other""}","<img src=""stim_listB/dance8.gif""</stim_listB>",are dancing with each other,
null,"<div style=""font-size:60px;"">+</div>",,html-keyboard-response,392,1561876,0.0-19.0-0.17,67921,List2B,white,woman,,,,null,,,,
null,"<img src=""stim_listB/argue4.gif""</stim_listB>",,html-keyboard-response,393,1563880,0.0-19.0-1.17,67921,List2B,white,woman,,,,null,,,,
null,are arguing with each other,,html-keyboard-response,394,1565881,0.0-19.0-2.17,67921,List2B,white,woman,,,,null,,,,
7207,,,survey-text,395,1573088,0.0-19.0-3.17,67921,List2B,white,woman,,,,,"{""Q0"":""fred and kate are arguing with each other""}","<img src=""stim_listB/argue4.gif""</stim_listB>",are arguing with each other,
null,"<div style=""font-size:60px;"">+</div>",,html-keyboard-response,396,1573590,0.0-19.0-0.18,67921,List2B,white,woman,,,,null,,,,
null,"<img src=""stim_listB/meet8.gif""</stim_listB>",,html-keyboard-response,397,1575593,0.0-19.0-1.18,67921,List2B,white,woman,,,,null,,,,
null,are meeting each other,,html-keyboard-response,398,1577596,0.0-19.0-2.18,67921,List2B,white,woman,,,,null,,,,
5511,,,survey-text,399,1583108,0.0-19.0-3.18,67921,List2B,white,woman,,,,,"{""Q0"":""ruth and beth are meeting each other""}","<img src=""stim_listB/meet8.gif""</stim_listB>",are meeting each other,
null,"<div style=""font-size:60px;"">+</div>",,html-keyboard-response,400,1583609,0.0-19.0-0.19,67921,List2B,white,woman,,,,null,,,,
null,"<img src=""stim_listB/meet7.gif""</stim_listB>",,html-keyboard-response,401,1585612,0.0-19.0-1.19,67921,List2B,white,woman,,,,null,,,,
null,is meeting,,html-keyboard-response,402,1587614,0.0-19.0-2.19,67921,List2B,white,woman,,,,null,,,,
4283,,,survey-text,403,1591899,0.0-19.0-3.19,67921,List2B,white,woman,,,,,"{""Q0"":""kate is meeting jane""}","<img src=""stim_listB/meet7.gif""</stim_listB>",is meeting,
3853,<p>Thank you for completing that task.</p><p>The final part of this session is a short questionnaire.</p><p>Press Continue.</p>,0,html-button-response,404,1595753,0.0-20.0,67921,List2B,white,woman,,,,,,,,
13812,,,survey-text,405,1610569,0.0-21.0,67921,List2B,white,woman,,,,,"{""Q0"":""30"",""Q1"":""English"",""Q2"":""English"",""Q3"":""USA"",""Q4"":""White"",""Q5"":""Female""}",,,demographics
111766,,,survey-likert,406,1722341,0.0-22.0,67921,List2B,white,woman,,,,,"{""Q0"":4,""Q1"":2,""Q2"":2,""Q3"":4,""Q4"":2,""Q5"":2,""Q6"":2,""Q7"":5,""Q8"":2,""Q9"":4,""Q10"":2,""Q11"":2,""Q12"":3,""Q13"":2}",,,likert_race
55302,,,survey-likert,407,1777649,0.0-23.0,67921,List2B,white,woman,,,,,"{""Q0"":6,""Q1"":6,""Q2"":6,""Q3"":5,""Q4"":6,""Q5"":4,""Q6"":5,""Q7"":6,""Q8"":6,""Q9"":6,""Q10"":4,""Q11"":3,""Q12"":4,""Q13"":1}",,,likert_gender
12307,,,survey-text,408,1789957,0.0-24.0,67921,List2B,white,woman,,,,,"{""Q0"":""ccc""}",,,worker_id
56849,,,external-html,409,1847026,0.0-25.0,67921,List2B,white,woman,debrief.html,,,,,,,
