rt,stimulus,button_pressed,trial_type,trial_index,time_elapsed,internal_node_id,subject,list,ppt_race,ppt_gender,url,first_guess,correct,key_press,responses,image_type,phrase_type,test_part
6756,Welcome to the experiment. Press Continue to begin.,0,html-button-response,0,6790,0.0-0.0,69449,List1B,white,woman,,,,,,,,
6870,,,external-html,1,14914,0.0-1.0,69449,List1B,white,woman,consent.html,,,,,,,
7690,"<p>On the next page, you will see portraits of 8 people and their names.</p><p>Your first task is to take a few minutes to memorise the names of these people.</p><p>You will have to recall their names during the rest of the experiment, so it is</p><p>essential that you try to memorise these people and their names as best as you can.</p><br><p><strong>You will then be tested on your memory of these names and portraits.</strong></p><br><p>The experiment will start after you have completed this memory test.</p><br><p>Ready?</p>",0,html-button-response,2,22606,0.0-2.0,69449,List1B,white,woman,,,,,,,,
35279,"<img src='img/portrait_matrix_list1.JPG' style='width:900px;height:500px;''></img><p>If you have memorised all the portraits and names and are ready to start, press Continue.</p><p><strong>Please note: Your memory of these faces will be tested 4 times during this experiment.</strong></p>",0,html-button-response,3,58902,0.0-3.0-0.0,69449,List1B,white,woman,,,,,,,,
11907,"<img src=""portrait/BW1.jpg""style=""width:400px;height:400px;""></img>",0,html-button-response,4,71813,0.0-3.0-1.0,69449,List1B,white,woman,,TRUE,0,,,,,
null,CORRECT,,html-keyboard-response,5,73315,0.0-3.0-2.0-0.0,69449,List1B,white,woman,,,,null,,,,
2111,"<img src=""portrait/WW2.jpg""style=""width:400px;height:400px;""></img>",3,html-button-response,6,75428,0.0-3.0-4.0,69449,List1B,white,woman,,TRUE,3,,,,,
null,CORRECT,,html-keyboard-response,7,76931,0.0-3.0-5.0-0.0,69449,List1B,white,woman,,,,null,,,,
1872,"<img src=""portrait/BM2.jpg""style=""width:400px;height:400px;""></img>",5,html-button-response,8,78804,0.0-3.0-7.0,69449,List1B,white,woman,,TRUE,5,,,,,
null,CORRECT,,html-keyboard-response,9,80308,0.0-3.0-8.0-0.0,69449,List1B,white,woman,,,,null,,,,
2272,"<img src=""portrait/BW2.jpg""style=""width:400px;height:400px;""></img>",0,html-button-response,10,82582,0.0-3.0-10.0,69449,List1B,white,woman,,TRUE,2,,,,,
2232,"<img src=""portrait/BW2.jpg""style=""width:400px;height:400px;""></img>",2,html-button-response,11,85816,0.0-3.0-12.0-0.0,69449,List1B,white,woman,,FALSE,2,,,,,
null,CORRECT,,html-keyboard-response,12,87319,0.0-3.0-12.0-1.0-0.0,69449,List1B,white,woman,,,,null,,,,
5257,"<img src=""portrait/BM1.jpg""style=""width:400px;height:400px;""></img>",4,html-button-response,13,92577,0.0-3.0-13.0,69449,List1B,white,woman,,TRUE,4,,,,,
null,CORRECT,,html-keyboard-response,14,94080,0.0-3.0-14.0-0.0,69449,List1B,white,woman,,,,null,,,,
2449,"<img src=""portrait/WW1.jpg""style=""width:400px;height:400px;""></img>",3,html-button-response,15,96531,0.0-3.0-16.0,69449,List1B,white,woman,,TRUE,1,,,,,
1873,"<img src=""portrait/WW1.jpg""style=""width:400px;height:400px;""></img>",1,html-button-response,16,99405,0.0-3.0-18.0-0.0,69449,List1B,white,woman,,FALSE,1,,,,,
null,CORRECT,,html-keyboard-response,17,100908,0.0-3.0-18.0-1.0-0.0,69449,List1B,white,woman,,,,null,,,,
6044,"<img src=""portrait/WM1.jpg""style=""width:400px;height:400px;""></img>",6,html-button-response,18,106952,0.0-3.0-19.0,69449,List1B,white,woman,,TRUE,6,,,,,
null,CORRECT,,html-keyboard-response,19,108454,0.0-3.0-20.0-0.0,69449,List1B,white,woman,,,,null,,,,
1765,"<img src=""portrait/WM2.jpg""style=""width:400px;height:400px;""></img>",7,html-button-response,20,110221,0.0-3.0-22.0,69449,List1B,white,woman,,TRUE,7,,,,,
null,CORRECT,,html-keyboard-response,21,111722,0.0-3.0-23.0-0.0,69449,List1B,white,woman,,,,null,,,,
1426,<p>You got 6 out of 8 right first time. Press Continue.</p>,0,html-button-response,22,113150,0.0-3.0-25.0,69449,List1B,white,woman,,,,,,,,
2381,"As you did not score 100%, the memory game will repeat. Press Continue.",0,html-button-response,23,116534,0.0-3.0-26.0-0.0,69449,List1B,white,woman,,,,,,,,
9690,"<img src='img/portrait_matrix_list1.JPG' style='width:900px;height:500px;''></img><p>If you have memorised all the portraits and names and are ready to start, press Continue.</p><p><strong>Please note: Your memory of these faces will be tested 4 times during this experiment.</strong></p>",0,html-button-response,24,127227,0.0-3.1-0.1,69449,List1B,white,woman,,,,,,,,
3643,"<img src=""portrait/BW1.jpg""style=""width:400px;height:400px;""></img>",0,html-button-response,25,131872,0.0-3.1-1.1,69449,List1B,white,woman,,TRUE,0,,,,,
null,CORRECT,,html-keyboard-response,26,133373,0.0-3.1-2.1-0.1,69449,List1B,white,woman,,,,null,,,,
3941,"<img src=""portrait/WW2.jpg""style=""width:400px;height:400px;""></img>",3,html-button-response,27,137316,0.0-3.1-4.1,69449,List1B,white,woman,,TRUE,3,,,,,
null,CORRECT,,html-keyboard-response,28,138818,0.0-3.1-5.1-0.1,69449,List1B,white,woman,,,,null,,,,
1515,"<img src=""portrait/BM2.jpg""style=""width:400px;height:400px;""></img>",5,html-button-response,29,140333,0.0-3.1-7.1,69449,List1B,white,woman,,TRUE,5,,,,,
null,CORRECT,,html-keyboard-response,30,141836,0.0-3.1-8.1-0.1,69449,List1B,white,woman,,,,null,,,,
1927,"<img src=""portrait/BW2.jpg""style=""width:400px;height:400px;""></img>",2,html-button-response,31,143764,0.0-3.1-10.1,69449,List1B,white,woman,,TRUE,2,,,,,
null,CORRECT,,html-keyboard-response,32,145267,0.0-3.1-11.1-0.1,69449,List1B,white,woman,,,,null,,,,
3216,"<img src=""portrait/BM1.jpg""style=""width:400px;height:400px;""></img>",4,html-button-response,33,148483,0.0-3.1-13.1,69449,List1B,white,woman,,TRUE,4,,,,,
null,CORRECT,,html-keyboard-response,34,149985,0.0-3.1-14.1-0.1,69449,List1B,white,woman,,,,null,,,,
1541,"<img src=""portrait/WW1.jpg""style=""width:400px;height:400px;""></img>",1,html-button-response,35,151528,0.0-3.1-16.1,69449,List1B,white,woman,,TRUE,1,,,,,
null,CORRECT,,html-keyboard-response,36,153029,0.0-3.1-17.1-0.1,69449,List1B,white,woman,,,,null,,,,
1731,"<img src=""portrait/WM1.jpg""style=""width:400px;height:400px;""></img>",6,html-button-response,37,154762,0.0-3.1-19.1,69449,List1B,white,woman,,TRUE,6,,,,,
null,CORRECT,,html-keyboard-response,38,156263,0.0-3.1-20.1-0.1,69449,List1B,white,woman,,,,null,,,,
1101,"<img src=""portrait/WM2.jpg""style=""width:400px;height:400px;""></img>",7,html-button-response,39,157365,0.0-3.1-22.1,69449,List1B,white,woman,,TRUE,7,,,,,
null,CORRECT,,html-keyboard-response,40,158867,0.0-3.1-23.1-0.1,69449,List1B,white,woman,,,,null,,,,
14364,<p>You got 8 out of 8 right first time. Press Continue.</p>,0,html-button-response,41,173232,0.0-3.1-25.1,69449,List1B,white,woman,,,,,,,,
93025,"<p>In this experiment, you will view photographs of the people from the memory game interacting.</p><p>By using the <strong>exact</strong> phrase given <i>after</i> the photograph appears and recalling the correct names of the people in the photographs, form a sentence describing the interaction. You do not need to capitalise names.</p><p>Type your answer in the space provided. Please complete every sentence before moving onto the next trial.</p><p>You will only have a few seconds to memorise each given photograph and phrase before you can respond, so try your best to focus.</p><p>An example is given below. Press 'Continue' when you are ready.</p><img src='img/speaking_example_v2.jpg' style='width:800px;height:460px;''></img>",0,html-button-response,42,267260,0.0-4.0,69449,List1B,white,woman,,,,,,,,
2625,"<p>Before the experiment starts, you will watch two example trials. Press 'Continue'.</p>",0,html-button-response,43,270888,0.0-5.0,69449,List1B,white,woman,,,,,,,,
null,<img src='img/speaking_WW.gif'></img>,,html-keyboard-response,44,273895,0.0-6.0,69449,List1B,white,woman,,,,null,,,,
null,<p>is speaking to</p>,,html-keyboard-response,45,275896,0.0-7.0,69449,List1B,white,woman,,,,null,,,,
2449,<p><b>Answer:</b> kate is speaking to beth</p>,0,html-button-response,46,278347,0.0-8.0,69449,List1B,white,woman,,,,,,,,
null,<img src='img/pointing_BM.gif'></img>,,html-keyboard-response,47,281350,0.0-9.0,69449,List1B,white,woman,,,,null,,,,
null,<p>are pointing at each other</p>,,html-keyboard-response,48,283353,0.0-10.0,69449,List1B,white,woman,,,,null,,,,
2510,<p><b>Answer:</b> luke and dave are pointing at each other</p>,0,html-button-response,49,285865,0.0-11.0,69449,List1B,white,woman,,,,,,,,
3608,"<p>Ready to start the experiment?</p><br><p><strong>Remember to describe the picture using a full sentence,</strong></p><p><strong>that combines the names of the people with the given phrase.</strong></p><p><strong>If you do not do this correctly you will not be paid.</strong></p><p><strong> You do not need to capitalise names or use punctuation.</strong></p><br><p>Press 'Continue' to begin.</p>",0,html-button-response,50,290476,0.0-12.0,69449,List1B,white,woman,,,,,,,,
null,"<div style=""font-size:60px;"">+</div>",,html-keyboard-response,51,291978,0.0-13.0-0.0,69449,List1B,white,woman,,,,null,,,,
null,"<img src=""stim_listB/marry4.gif""</stim_listB>",,html-keyboard-response,52,293982,0.0-13.0-1.0,69449,List1B,white,woman,,,,null,,,,
null,are marrying each other,,html-keyboard-response,53,295984,0.0-13.0-2.0,69449,List1B,white,woman,,,,null,,,,
8443,,,survey-text,54,304430,0.0-13.0-3.0,69449,List1B,white,woman,,,,,"{""Q0"":""Luke and Jane are marrying each other. ""}","<img src=""stim_listB/marry4.gif""</stim_listB>",are marrying each other,
null,"<div style=""font-size:60px;"">+</div>",,html-keyboard-response,55,304934,0.0-13.0-0.1,69449,List1B,white,woman,,,,null,,,,
null,"<img src=""stim_listB/hug1.gif""</stim_listB>",,html-keyboard-response,56,306935,0.0-13.0-1.1,69449,List1B,white,woman,,,,null,,,,
null,is hugging,,html-keyboard-response,57,308938,0.0-13.0-2.1,69449,List1B,white,woman,,,,null,,,,
6258,,,survey-text,58,315203,0.0-13.0-3.1,69449,List1B,white,woman,,,,,"{""Q0"":""Beth and Dave is hugging. ""}","<img src=""stim_listB/hug1.gif""</stim_listB>",is hugging,
null,"<div style=""font-size:60px;"">+</div>",,html-keyboard-response,59,315705,0.0-13.0-0.2,69449,List1B,white,woman,,,,null,,,,
null,"<img src=""stim_listB/talk5.gif""</stim_listB>",,html-keyboard-response,60,317709,0.0-13.0-1.2,69449,List1B,white,woman,,,,null,,,,
null,is talking to,,html-keyboard-response,61,319710,0.0-13.0-2.2,69449,List1B,white,woman,,,,null,,,,
11845,,,survey-text,62,331557,0.0-13.0-3.2,69449,List1B,white,woman,,,,,"{""Q0"":""Dave is talking to Fred. ""}","<img src=""stim_listB/talk5.gif""</stim_listB>",is talking to,
null,"<div style=""font-size:60px;"">+</div>",,html-keyboard-response,63,332060,0.0-13.0-0.3,69449,List1B,white,woman,,,,null,,,,
null,"<img src=""stim_listB/shout8.gif""</stim_listB>",,html-keyboard-response,64,334063,0.0-13.0-1.3,69449,List1B,white,woman,,,,null,,,,
null,are shouting at each other,,html-keyboard-response,65,336065,0.0-13.0-2.3,69449,List1B,white,woman,,,,null,,,,
6806,,,survey-text,66,342873,0.0-13.0-3.3,69449,List1B,white,woman,,,,,"{""Q0"":""Beth and Jane are shouting at each other. ""}","<img src=""stim_listB/shout8.gif""</stim_listB>",are shouting at each other,
null,"<div style=""font-size:60px;"">+</div>",,html-keyboard-response,67,343375,0.0-13.0-0.4,69449,List1B,white,woman,,,,null,,,,
null,"<img src=""stim_listB/kiss3.gif""</stim_listB>",,html-keyboard-response,68,345379,0.0-13.0-1.4,69449,List1B,white,woman,,,,null,,,,
null,is kissing,,html-keyboard-response,69,347382,0.0-13.0-2.4,69449,List1B,white,woman,,,,null,,,,
7671,,,survey-text,70,355055,0.0-13.0-3.4,69449,List1B,white,woman,,,,,"{""Q0"":""Ruth is kissing Luke. ""}","<img src=""stim_listB/kiss3.gif""</stim_listB>",is kissing,
null,"<div style=""font-size:60px;"">+</div>",,html-keyboard-response,71,355557,0.0-13.0-0.5,69449,List1B,white,woman,,,,null,,,,
null,"<img src=""stim_listB/shout3.gif""</stim_listB>",,html-keyboard-response,72,357560,0.0-13.0-1.5,69449,List1B,white,woman,,,,null,,,,
null,is shouting at,,html-keyboard-response,73,359563,0.0-13.0-2.5,69449,List1B,white,woman,,,,null,,,,
5815,,,survey-text,74,365380,0.0-13.0-3.5,69449,List1B,white,woman,,,,,"{""Q0"":""Ruth is shouting at Luke. ""}","<img src=""stim_listB/shout3.gif""</stim_listB>",is shouting at,
null,"<div style=""font-size:60px;"">+</div>",,html-keyboard-response,75,365883,0.0-13.0-0.6,69449,List1B,white,woman,,,,null,,,,
null,"<img src=""stim_listB/fight6.gif""</stim_listB>",,html-keyboard-response,76,367886,0.0-13.0-1.6,69449,List1B,white,woman,,,,null,,,,
null,are fighting each other,,html-keyboard-response,77,369889,0.0-13.0-2.6,69449,List1B,white,woman,,,,null,,,,
21144,,,survey-text,78,391035,0.0-13.0-3.6,69449,List1B,white,woman,,,,,"{""Q0"":""Fred and Luke are fighting each other. ""}","<img src=""stim_listB/fight6.gif""</stim_listB>",are fighting each other,
null,"<div style=""font-size:60px;"">+</div>",,html-keyboard-response,79,391537,0.0-13.0-0.7,69449,List1B,white,woman,,,,null,,,,
null,"<img src=""stim_listB/meet4.gif""</stim_listB>",,html-keyboard-response,80,393539,0.0-13.0-1.7,69449,List1B,white,woman,,,,null,,,,
null,are meeting each other,,html-keyboard-response,81,395542,0.0-13.0-2.7,69449,List1B,white,woman,,,,null,,,,
9136,,,survey-text,82,404679,0.0-13.0-3.7,69449,List1B,white,woman,,,,,"{""Q0"":""Ruth and Luke are meeting each other. ""}","<img src=""stim_listB/meet4.gif""</stim_listB>",are meeting each other,
null,"<div style=""font-size:60px;"">+</div>",,html-keyboard-response,83,405181,0.0-13.0-0.8,69449,List1B,white,woman,,,,null,,,,
null,"<img src=""stim_listB/shout1.gif""</stim_listB>",,html-keyboard-response,84,407184,0.0-13.0-1.8,69449,List1B,white,woman,,,,null,,,,
null,is shouting at,,html-keyboard-response,85,409186,0.0-13.0-2.8,69449,List1B,white,woman,,,,null,,,,
4821,,,survey-text,86,414009,0.0-13.0-3.8,69449,List1B,white,woman,,,,,"{""Q0"":""Beth is shouting at Fred. ""}","<img src=""stim_listB/shout1.gif""</stim_listB>",is shouting at,
null,"<div style=""font-size:60px;"">+</div>",,html-keyboard-response,87,414512,0.0-13.0-0.9,69449,List1B,white,woman,,,,null,,,,
null,"<img src=""stim_listB/talk3.gif""</stim_listB>",,html-keyboard-response,88,416515,0.0-13.0-1.9,69449,List1B,white,woman,,,,null,,,,
null,is talking to,,html-keyboard-response,89,418517,0.0-13.0-2.9,69449,List1B,white,woman,,,,null,,,,
4371,,,survey-text,90,422889,0.0-13.0-3.9,69449,List1B,white,woman,,,,,"{""Q0"":""Luke is talking to Jane. ""}","<img src=""stim_listB/talk3.gif""</stim_listB>",is talking to,
null,"<div style=""font-size:60px;"">+</div>",,html-keyboard-response,91,423391,0.0-13.0-0.10,69449,List1B,white,woman,,,,null,,,,
null,"<img src=""stim_listB/shout6.gif""</stim_listB>",,html-keyboard-response,92,425393,0.0-13.0-1.10,69449,List1B,white,woman,,,,null,,,,
null,are shouting at each other,,html-keyboard-response,93,427395,0.0-13.0-2.10,69449,List1B,white,woman,,,,null,,,,
5634,,,survey-text,94,433031,0.0-13.0-3.10,69449,List1B,white,woman,,,,,"{""Q0"":""Mike and Dave are shouting at each other. ""}","<img src=""stim_listB/shout6.gif""</stim_listB>",are shouting at each other,
null,"<div style=""font-size:60px;"">+</div>",,html-keyboard-response,95,433534,0.0-13.0-0.11,69449,List1B,white,woman,,,,null,,,,
null,"<img src=""stim_listB/hug3.gif""</stim_listB>",,html-keyboard-response,96,435538,0.0-13.0-1.11,69449,List1B,white,woman,,,,null,,,,
null,is hugging,,html-keyboard-response,97,437540,0.0-13.0-2.11,69449,List1B,white,woman,,,,null,,,,
5277,,,survey-text,98,442819,0.0-13.0-3.11,69449,List1B,white,woman,,,,,"{""Q0"":""Ruth is hugging Luke. ""}","<img src=""stim_listB/hug3.gif""</stim_listB>",is hugging,
null,"<div style=""font-size:60px;"">+</div>",,html-keyboard-response,99,443321,0.0-13.0-0.12,69449,List1B,white,woman,,,,null,,,,
null,"<img src=""stim_listB/dance2.gif""</stim_listB>",,html-keyboard-response,100,445325,0.0-13.0-1.12,69449,List1B,white,woman,,,,null,,,,
null,are dancing with each other,,html-keyboard-response,101,447326,0.0-13.0-2.12,69449,List1B,white,woman,,,,null,,,,
7083,,,survey-text,102,454411,0.0-13.0-3.12,69449,List1B,white,woman,,,,,"{""Q0"":""Mike and Beth are dancing with each other. ""}","<img src=""stim_listB/dance2.gif""</stim_listB>",are dancing with each other,
null,"<div style=""font-size:60px;"">+</div>",,html-keyboard-response,103,454913,0.0-13.0-0.13,69449,List1B,white,woman,,,,null,,,,
null,"<img src=""stim_listB/touch4.gif""</stim_listB>",,html-keyboard-response,104,456916,0.0-13.0-1.13,69449,List1B,white,woman,,,,null,,,,
null,are touching each other,,html-keyboard-response,105,458919,0.0-13.0-2.13,69449,List1B,white,woman,,,,null,,,,
7008,,,survey-text,106,465930,0.0-13.0-3.13,69449,List1B,white,woman,,,,,"{""Q0"":""Luke and Ruth are touching each other. ""}","<img src=""stim_listB/touch4.gif""</stim_listB>",are touching each other,
null,"<div style=""font-size:60px;"">+</div>",,html-keyboard-response,107,466431,0.0-13.0-0.14,69449,List1B,white,woman,,,,null,,,,
null,"<img src=""stim_listB/hug5.gif""</stim_listB>",,html-keyboard-response,108,468435,0.0-13.0-1.14,69449,List1B,white,woman,,,,null,,,,
null,is hugging,,html-keyboard-response,109,470436,0.0-13.0-2.14,69449,List1B,white,woman,,,,null,,,,
4445,,,survey-text,110,474883,0.0-13.0-3.14,69449,List1B,white,woman,,,,,"{""Q0"":""Luke is hugging Fred. ""}","<img src=""stim_listB/hug5.gif""</stim_listB>",is hugging,
null,"<div style=""font-size:60px;"">+</div>",,html-keyboard-response,111,475385,0.0-13.0-0.15,69449,List1B,white,woman,,,,null,,,,
null,"<img src=""stim_listB/meet8.gif""</stim_listB>",,html-keyboard-response,112,477388,0.0-13.0-1.15,69449,List1B,white,woman,,,,null,,,,
null,are meeting each other,,html-keyboard-response,113,479390,0.0-13.0-2.15,69449,List1B,white,woman,,,,null,,,,
5368,,,survey-text,114,484760,0.0-13.0-3.15,69449,List1B,white,woman,,,,,"{""Q0"":""Beth and Ruth are meeting each other. ""}","<img src=""stim_listB/meet8.gif""</stim_listB>",are meeting each other,
null,"<div style=""font-size:60px;"">+</div>",,html-keyboard-response,115,485263,0.0-13.0-0.16,69449,List1B,white,woman,,,,null,,,,
null,"<img src=""stim_listB/touch7.gif""</stim_listB>",,html-keyboard-response,116,487267,0.0-13.0-1.16,69449,List1B,white,woman,,,,null,,,,
null,is touching,,html-keyboard-response,117,489269,0.0-13.0-2.16,69449,List1B,white,woman,,,,null,,,,
4539,,,survey-text,118,493810,0.0-13.0-3.16,69449,List1B,white,woman,,,,,"{""Q0"":""Jane is touching Kate. ""}","<img src=""stim_listB/touch7.gif""</stim_listB>",is touching,
null,"<div style=""font-size:60px;"">+</div>",,html-keyboard-response,119,494312,0.0-13.0-0.17,69449,List1B,white,woman,,,,null,,,,
null,"<img src=""stim_listB/shout5.gif""</stim_listB>",,html-keyboard-response,120,496316,0.0-13.0-1.17,69449,List1B,white,woman,,,,null,,,,
null,is shouting at,,html-keyboard-response,121,498319,0.0-13.0-2.17,69449,List1B,white,woman,,,,null,,,,
6246,,,survey-text,122,504567,0.0-13.0-3.17,69449,List1B,white,woman,,,,,"{""Q0"":""Luke is shouting at Fred. ""}","<img src=""stim_listB/shout5.gif""</stim_listB>",is shouting at,
null,"<div style=""font-size:60px;"">+</div>",,html-keyboard-response,123,505069,0.0-13.0-0.18,69449,List1B,white,woman,,,,null,,,,
null,"<img src=""stim_listB/argue7.gif""</stim_listB>",,html-keyboard-response,124,507072,0.0-13.0-1.18,69449,List1B,white,woman,,,,null,,,,
null,is arguing with,,html-keyboard-response,125,509073,0.0-13.0-2.18,69449,List1B,white,woman,,,,null,,,,
6203,,,survey-text,126,515278,0.0-13.0-3.18,69449,List1B,white,woman,,,,,"{""Q0"":""Ruth is arguing with Kate. ""}","<img src=""stim_listB/argue7.gif""</stim_listB>",is arguing with,
null,"<div style=""font-size:60px;"">+</div>",,html-keyboard-response,127,515780,0.0-13.0-0.19,69449,List1B,white,woman,,,,null,,,,
null,"<img src=""stim_listB/kiss5.gif""</stim_listB>",,html-keyboard-response,128,517782,0.0-13.0-1.19,69449,List1B,white,woman,,,,null,,,,
null,is kissing,,html-keyboard-response,129,519784,0.0-13.0-2.19,69449,List1B,white,woman,,,,null,,,,
5087,,,survey-text,130,524875,0.0-13.0-3.19,69449,List1B,white,woman,,,,,"{""Q0"":""Luke is kissing Fred. ""}","<img src=""stim_listB/kiss5.gif""</stim_listB>",is kissing,
10727,"<img src='img/portrait_matrix_list1.JPG' style='width:900px;height:500px;''></img><p>If you have memorised all the portraits and names and are ready to start, press Continue.</p><p><strong>Please note: Your memory of these faces will be tested 4 times during this experiment.</strong></p>",0,html-button-response,131,535604,0.0-14.0-0.0,69449,List1B,white,woman,,,,,,,,
1939,"<img src=""portrait/WW1.jpg""style=""width:400px;height:400px;""></img>",1,html-button-response,132,538546,0.0-14.0-1.0,69449,List1B,white,woman,,TRUE,1,,,,,
null,CORRECT,,html-keyboard-response,133,540049,0.0-14.0-2.0-0.0,69449,List1B,white,woman,,,,null,,,,
2127,"<img src=""portrait/BM2.jpg""style=""width:400px;height:400px;""></img>",5,html-button-response,134,542180,0.0-14.0-4.0,69449,List1B,white,woman,,TRUE,5,,,,,
null,CORRECT,,html-keyboard-response,135,543683,0.0-14.0-5.0-0.0,69449,List1B,white,woman,,,,null,,,,
1585,"<img src=""portrait/WM1.jpg""style=""width:400px;height:400px;""></img>",6,html-button-response,136,545271,0.0-14.0-7.0,69449,List1B,white,woman,,TRUE,6,,,,,
null,CORRECT,,html-keyboard-response,137,546773,0.0-14.0-8.0-0.0,69449,List1B,white,woman,,,,null,,,,
1286,"<img src=""portrait/BM1.jpg""style=""width:400px;height:400px;""></img>",4,html-button-response,138,548062,0.0-14.0-10.0,69449,List1B,white,woman,,TRUE,4,,,,,
null,CORRECT,,html-keyboard-response,139,549566,0.0-14.0-11.0-0.0,69449,List1B,white,woman,,,,null,,,,
1191,"<img src=""portrait/BW2.jpg""style=""width:400px;height:400px;""></img>",2,html-button-response,140,550759,0.0-14.0-13.0,69449,List1B,white,woman,,TRUE,2,,,,,
null,CORRECT,,html-keyboard-response,141,552262,0.0-14.0-14.0-0.0,69449,List1B,white,woman,,,,null,,,,
1357,"<img src=""portrait/WM2.jpg""style=""width:400px;height:400px;""></img>",7,html-button-response,142,553622,0.0-14.0-16.0,69449,List1B,white,woman,,TRUE,7,,,,,
null,CORRECT,,html-keyboard-response,143,555124,0.0-14.0-17.0-0.0,69449,List1B,white,woman,,,,null,,,,
1429,"<img src=""portrait/WW2.jpg""style=""width:400px;height:400px;""></img>",3,html-button-response,144,556556,0.0-14.0-19.0,69449,List1B,white,woman,,TRUE,3,,,,,
null,CORRECT,,html-keyboard-response,145,558060,0.0-14.0-20.0-0.0,69449,List1B,white,woman,,,,null,,,,
2189,"<img src=""portrait/BW1.jpg""style=""width:400px;height:400px;""></img>",0,html-button-response,146,560250,0.0-14.0-22.0,69449,List1B,white,woman,,TRUE,0,,,,,
null,CORRECT,,html-keyboard-response,147,561755,0.0-14.0-23.0-0.0,69449,List1B,white,woman,,,,null,,,,
1325,<p>You got 8 out of 8 right first time. Press Continue.</p>,0,html-button-response,148,563083,0.0-14.0-25.0,69449,List1B,white,woman,,,,,,,,
null,"<div style=""font-size:60px;"">+</div>",,html-keyboard-response,149,564587,0.0-15.0-0.0,69449,List1B,white,woman,,,,null,,,,
null,"<img src=""stim_listB/touch6.gif""</stim_listB>",,html-keyboard-response,150,566590,0.0-15.0-1.0,69449,List1B,white,woman,,,,null,,,,
null,are touching each other,,html-keyboard-response,151,568592,0.0-15.0-2.0,69449,List1B,white,woman,,,,null,,,,
6196,,,survey-text,152,574790,0.0-15.0-3.0,69449,List1B,white,woman,,,,,"{""Q0"":""Fred and Luke are touching each other. ""}","<img src=""stim_listB/touch6.gif""</stim_listB>",are touching each other,
null,"<div style=""font-size:60px;"">+</div>",,html-keyboard-response,153,575293,0.0-15.0-0.1,69449,List1B,white,woman,,,,null,,,,
null,"<img src=""stim_listB/meet5.gif""</stim_listB>",,html-keyboard-response,154,577296,0.0-15.0-1.1,69449,List1B,white,woman,,,,null,,,,
null,is meeting,,html-keyboard-response,155,579297,0.0-15.0-2.1,69449,List1B,white,woman,,,,null,,,,
5395,,,survey-text,156,584693,0.0-15.0-3.1,69449,List1B,white,woman,,,,,"{""Q0"":""Dave is meeting Mike. ""}","<img src=""stim_listB/meet5.gif""</stim_listB>",is meeting,
null,"<div style=""font-size:60px;"">+</div>",,html-keyboard-response,157,585195,0.0-15.0-0.2,69449,List1B,white,woman,,,,null,,,,
null,"<img src=""stim_listB/shout7.gif""</stim_listB>",,html-keyboard-response,158,587199,0.0-15.0-1.2,69449,List1B,white,woman,,,,null,,,,
null,is shouting at,,html-keyboard-response,159,589201,0.0-15.0-2.2,69449,List1B,white,woman,,,,null,,,,
5298,,,survey-text,160,594501,0.0-15.0-3.2,69449,List1B,white,woman,,,,,"{""Q0"":""Ruth is shouting at Beth. ""}","<img src=""stim_listB/shout7.gif""</stim_listB>",is shouting at,
null,"<div style=""font-size:60px;"">+</div>",,html-keyboard-response,161,595004,0.0-15.0-0.3,69449,List1B,white,woman,,,,null,,,,
null,"<img src=""stim_listB/marry1.gif""</stim_listB>",,html-keyboard-response,162,597007,0.0-15.0-1.3,69449,List1B,white,woman,,,,null,,,,
null,is marrying,,html-keyboard-response,163,599008,0.0-15.0-2.3,69449,List1B,white,woman,,,,null,,,,
5408,,,survey-text,164,604418,0.0-15.0-3.3,69449,List1B,white,woman,,,,,"{""Q0"":""Beth is marrying Mike. ""}","<img src=""stim_listB/marry1.gif""</stim_listB>",is marrying,
null,"<div style=""font-size:60px;"">+</div>",,html-keyboard-response,165,604920,0.0-15.0-0.4,69449,List1B,white,woman,,,,null,,,,
null,"<img src=""stim_listB/fight5.gif""</stim_listB>",,html-keyboard-response,166,606924,0.0-15.0-1.4,69449,List1B,white,woman,,,,null,,,,
null,is fighting,,html-keyboard-response,167,608926,0.0-15.0-2.4,69449,List1B,white,woman,,,,null,,,,
5223,,,survey-text,168,614151,0.0-15.0-3.4,69449,List1B,white,woman,,,,,"{""Q0"":""Dave is fighting Mike. ""}","<img src=""stim_listB/fight5.gif""</stim_listB>",is fighting,
null,"<div style=""font-size:60px;"">+</div>",,html-keyboard-response,169,614656,0.0-15.0-0.5,69449,List1B,white,woman,,,,null,,,,
null,"<img src=""stim_listB/touch5.gif""</stim_listB>",,html-keyboard-response,170,616660,0.0-15.0-1.5,69449,List1B,white,woman,,,,null,,,,
null,is touching,,html-keyboard-response,171,618663,0.0-15.0-2.5,69449,List1B,white,woman,,,,null,,,,
5233,,,survey-text,172,623898,0.0-15.0-3.5,69449,List1B,white,woman,,,,,"{""Q0"":""Dave is touching Mike. ""}","<img src=""stim_listB/touch5.gif""</stim_listB>",is touching,
null,"<div style=""font-size:60px;"">+</div>",,html-keyboard-response,173,624401,0.0-15.0-0.6,69449,List1B,white,woman,,,,null,,,,
null,"<img src=""stim_listB/dance6.gif""</stim_listB>",,html-keyboard-response,174,626404,0.0-15.0-1.6,69449,List1B,white,woman,,,,null,,,,
null,are dancing with each other,,html-keyboard-response,175,628405,0.0-15.0-2.6,69449,List1B,white,woman,,,,null,,,,
5942,,,survey-text,176,634349,0.0-15.0-3.6,69449,List1B,white,woman,,,,,"{""Q0"":""Mike and Luke are dancing with each other. ""}","<img src=""stim_listB/dance6.gif""</stim_listB>",are dancing with each other,
null,"<div style=""font-size:60px;"">+</div>",,html-keyboard-response,177,634851,0.0-15.0-0.7,69449,List1B,white,woman,,,,null,,,,
null,"<img src=""stim_listB/argue2.gif""</stim_listB>",,html-keyboard-response,178,636855,0.0-15.0-1.7,69449,List1B,white,woman,,,,null,,,,
null,are arguing with each other,,html-keyboard-response,179,638856,0.0-15.0-2.7,69449,List1B,white,woman,,,,null,,,,
6497,,,survey-text,180,645355,0.0-15.0-3.7,69449,List1B,white,woman,,,,,"{""Q0"":""Fred and Kate are arguing with each other. ""}","<img src=""stim_listB/argue2.gif""</stim_listB>",are arguing with each other,
null,"<div style=""font-size:60px;"">+</div>",,html-keyboard-response,181,645856,0.0-15.0-0.8,69449,List1B,white,woman,,,,null,,,,
null,"<img src=""stim_listB/argue4.gif""</stim_listB>",,html-keyboard-response,182,647859,0.0-15.0-1.8,69449,List1B,white,woman,,,,null,,,,
null,are arguing with each other,,html-keyboard-response,183,649860,0.0-15.0-2.8,69449,List1B,white,woman,,,,null,,,,
8292,,,survey-text,184,658155,0.0-15.0-3.8,69449,List1B,white,woman,,,,,"{""Q0"":""Luke and Jane are arguing with each other. ""}","<img src=""stim_listB/argue4.gif""</stim_listB>",are arguing with each other,
null,"<div style=""font-size:60px;"">+</div>",,html-keyboard-response,185,658658,0.0-15.0-0.9,69449,List1B,white,woman,,,,null,,,,
null,"<img src=""stim_listB/dance1.gif""</stim_listB>",,html-keyboard-response,186,660661,0.0-15.0-1.9,69449,List1B,white,woman,,,,null,,,,
null,is dancing with,,html-keyboard-response,187,662664,0.0-15.0-2.9,69449,List1B,white,woman,,,,null,,,,
5071,,,survey-text,188,667737,0.0-15.0-3.9,69449,List1B,white,woman,,,,,"{""Q0"":""Fred is dancing with Kate. ""}","<img src=""stim_listB/dance1.gif""</stim_listB>",is dancing with,
null,"<div style=""font-size:60px;"">+</div>",,html-keyboard-response,189,668240,0.0-15.0-0.10,69449,List1B,white,woman,,,,null,,,,
null,"<img src=""stim_listB/touch2.gif""</stim_listB>",,html-keyboard-response,190,670244,0.0-15.0-1.10,69449,List1B,white,woman,,,,null,,,,
null,are touching each other,,html-keyboard-response,191,672246,0.0-15.0-2.10,69449,List1B,white,woman,,,,null,,,,
6462,,,survey-text,192,678710,0.0-15.0-3.10,69449,List1B,white,woman,,,,,"{""Q0"":""Fred and Kate are touching each other. ""}","<img src=""stim_listB/touch2.gif""</stim_listB>",are touching each other,
null,"<div style=""font-size:60px;"">+</div>",,html-keyboard-response,193,679214,0.0-15.0-0.11,69449,List1B,white,woman,,,,null,,,,
null,"<img src=""stim_listB/shout2.gif""</stim_listB>",,html-keyboard-response,194,681217,0.0-15.0-1.11,69449,List1B,white,woman,,,,null,,,,
null,are shouting at each other,,html-keyboard-response,195,683218,0.0-15.0-2.11,69449,List1B,white,woman,,,,null,,,,
5630,,,survey-text,196,688850,0.0-15.0-3.11,69449,List1B,white,woman,,,,,"{""Q0"":""Mike and Beth are shouting at each other. ""}","<img src=""stim_listB/shout2.gif""</stim_listB>",are shouting at each other,
null,"<div style=""font-size:60px;"">+</div>",,html-keyboard-response,197,689354,0.0-15.0-0.12,69449,List1B,white,woman,,,,null,,,,
null,"<img src=""stim_listB/kiss6.gif""</stim_listB>",,html-keyboard-response,198,691358,0.0-15.0-1.12,69449,List1B,white,woman,,,,null,,,,
null,are kissing each other,,html-keyboard-response,199,693362,0.0-15.0-2.12,69449,List1B,white,woman,,,,null,,,,
5319,,,survey-text,200,698683,0.0-15.0-3.12,69449,List1B,white,woman,,,,,"{""Q0"":""Dave and Mike are kissing each other. ""}","<img src=""stim_listB/kiss6.gif""</stim_listB>",are kissing each other,
null,"<div style=""font-size:60px;"">+</div>",,html-keyboard-response,201,699187,0.0-15.0-0.13,69449,List1B,white,woman,,,,null,,,,
null,"<img src=""stim_listB/touch3.gif""</stim_listB>",,html-keyboard-response,202,701192,0.0-15.0-1.13,69449,List1B,white,woman,,,,null,,,,
null,is touching,,html-keyboard-response,203,703193,0.0-15.0-2.13,69449,List1B,white,woman,,,,null,,,,
4346,,,survey-text,204,707542,0.0-15.0-3.13,69449,List1B,white,woman,,,,,"{""Q0"":""Jane is touching Dave. ""}","<img src=""stim_listB/touch3.gif""</stim_listB>",is touching,
null,"<div style=""font-size:60px;"">+</div>",,html-keyboard-response,205,708045,0.0-15.0-0.14,69449,List1B,white,woman,,,,null,,,,
null,"<img src=""stim_listB/talk1.gif""</stim_listB>",,html-keyboard-response,206,710049,0.0-15.0-1.14,69449,List1B,white,woman,,,,null,,,,
null,is talking to,,html-keyboard-response,207,712051,0.0-15.0-2.14,69449,List1B,white,woman,,,,null,,,,
5736,,,survey-text,208,717790,0.0-15.0-3.14,69449,List1B,white,woman,,,,,"{""Q0"":""Fred is talking to Kate. ""}","<img src=""stim_listB/talk1.gif""</stim_listB>",is talking to,
null,"<div style=""font-size:60px;"">+</div>",,html-keyboard-response,209,718292,0.0-15.0-0.15,69449,List1B,white,woman,,,,null,,,,
null,"<img src=""stim_listB/fight7.gif""</stim_listB>",,html-keyboard-response,210,720294,0.0-15.0-1.15,69449,List1B,white,woman,,,,null,,,,
null,is fighting,,html-keyboard-response,211,722297,0.0-15.0-2.15,69449,List1B,white,woman,,,,null,,,,
6511,,,survey-text,212,728810,0.0-15.0-3.15,69449,List1B,white,woman,,,,,"{""Q0"":""Jane is fighting Kate. ""}","<img src=""stim_listB/fight7.gif""</stim_listB>",is fighting,
null,"<div style=""font-size:60px;"">+</div>",,html-keyboard-response,213,729313,0.0-15.0-0.16,69449,List1B,white,woman,,,,null,,,,
null,"<img src=""stim_listB/hug6.gif""</stim_listB>",,html-keyboard-response,214,731317,0.0-15.0-1.16,69449,List1B,white,woman,,,,null,,,,
null,are hugging each other,,html-keyboard-response,215,733318,0.0-15.0-2.16,69449,List1B,white,woman,,,,null,,,,
5094,,,survey-text,216,738414,0.0-15.0-3.16,69449,List1B,white,woman,,,,,"{""Q0"":""Dave and Mike are hugging each other. ""}","<img src=""stim_listB/hug6.gif""</stim_listB>",are hugging each other,
null,"<div style=""font-size:60px;"">+</div>",,html-keyboard-response,217,738918,0.0-15.0-0.17,69449,List1B,white,woman,,,,null,,,,
null,"<img src=""stim_listB/dance7.gif""</stim_listB>",,html-keyboard-response,218,740921,0.0-15.0-1.17,69449,List1B,white,woman,,,,null,,,,
null,is dancing with,,html-keyboard-response,219,742924,0.0-15.0-2.17,69449,List1B,white,woman,,,,null,,,,
4517,,,survey-text,220,747443,0.0-15.0-3.17,69449,List1B,white,woman,,,,,"{""Q0"":""Jane is dancing with Beth. ""}","<img src=""stim_listB/dance7.gif""</stim_listB>",is dancing with,
null,"<div style=""font-size:60px;"">+</div>",,html-keyboard-response,221,747946,0.0-15.0-0.18,69449,List1B,white,woman,,,,null,,,,
null,"<img src=""stim_listB/dance4.gif""</stim_listB>",,html-keyboard-response,222,749948,0.0-15.0-1.18,69449,List1B,white,woman,,,,null,,,,
null,are dancing with each other,,html-keyboard-response,223,751951,0.0-15.0-2.18,69449,List1B,white,woman,,,,null,,,,
6545,,,survey-text,224,758499,0.0-15.0-3.18,69449,List1B,white,woman,,,,,"{""Q0"":""Dave and Ruth are dancing with each other. ""}","<img src=""stim_listB/dance4.gif""</stim_listB>",are dancing with each other,
null,"<div style=""font-size:60px;"">+</div>",,html-keyboard-response,225,759001,0.0-15.0-0.19,69449,List1B,white,woman,,,,null,,,,
null,"<img src=""stim_listB/fight3.gif""</stim_listB>",,html-keyboard-response,226,761004,0.0-15.0-1.19,69449,List1B,white,woman,,,,null,,,,
null,is fighting,,html-keyboard-response,227,763006,0.0-15.0-2.19,69449,List1B,white,woman,,,,null,,,,
4599,,,survey-text,228,767606,0.0-15.0-3.19,69449,List1B,white,woman,,,,,"{""Q0"":""Jane is fighting Dave. ""}","<img src=""stim_listB/fight3.gif""</stim_listB>",is fighting,
9468,"<img src='img/portrait_matrix_list1.JPG' style='width:900px;height:500px;''></img><p>If you have memorised all the portraits and names and are ready to start, press Continue.</p><p><strong>Please note: Your memory of these faces will be tested 4 times during this experiment.</strong></p>",0,html-button-response,229,777076,0.0-16.0-0.0,69449,List1B,white,woman,,,,,,,,
1591,"<img src=""portrait/WW2.jpg""style=""width:400px;height:400px;""></img>",3,html-button-response,230,779672,0.0-16.0-1.0,69449,List1B,white,woman,,TRUE,3,,,,,
null,CORRECT,,html-keyboard-response,231,781178,0.0-16.0-2.0-0.0,69449,List1B,white,woman,,,,null,,,,
1651,"<img src=""portrait/BW1.jpg""style=""width:400px;height:400px;""></img>",0,html-button-response,232,782831,0.0-16.0-4.0,69449,List1B,white,woman,,TRUE,0,,,,,
null,CORRECT,,html-keyboard-response,233,784334,0.0-16.0-5.0-0.0,69449,List1B,white,woman,,,,null,,,,
1407,"<img src=""portrait/BM2.jpg""style=""width:400px;height:400px;""></img>",5,html-button-response,234,785745,0.0-16.0-7.0,69449,List1B,white,woman,,TRUE,5,,,,,
null,CORRECT,,html-keyboard-response,235,787249,0.0-16.0-8.0-0.0,69449,List1B,white,woman,,,,null,,,,
1122,"<img src=""portrait/WM1.jpg""style=""width:400px;height:400px;""></img>",6,html-button-response,236,788376,0.0-16.0-10.0,69449,List1B,white,woman,,TRUE,6,,,,,
null,CORRECT,,html-keyboard-response,237,789878,0.0-16.0-11.0-0.0,69449,List1B,white,woman,,,,null,,,,
1070,"<img src=""portrait/WM2.jpg""style=""width:400px;height:400px;""></img>",7,html-button-response,238,790950,0.0-16.0-13.0,69449,List1B,white,woman,,TRUE,7,,,,,
null,CORRECT,,html-keyboard-response,239,792456,0.0-16.0-14.0-0.0,69449,List1B,white,woman,,,,null,,,,
1174,"<img src=""portrait/BM1.jpg""style=""width:400px;height:400px;""></img>",4,html-button-response,240,793634,0.0-16.0-16.0,69449,List1B,white,woman,,TRUE,4,,,,,
null,CORRECT,,html-keyboard-response,241,795138,0.0-16.0-17.0-0.0,69449,List1B,white,woman,,,,null,,,,
1834,"<img src=""portrait/WW1.jpg""style=""width:400px;height:400px;""></img>",1,html-button-response,242,796975,0.0-16.0-19.0,69449,List1B,white,woman,,TRUE,1,,,,,
null,CORRECT,,html-keyboard-response,243,798478,0.0-16.0-20.0-0.0,69449,List1B,white,woman,,,,null,,,,
3162,"<img src=""portrait/BW2.jpg""style=""width:400px;height:400px;""></img>",2,html-button-response,244,801643,0.0-16.0-22.0,69449,List1B,white,woman,,TRUE,2,,,,,
null,CORRECT,,html-keyboard-response,245,803146,0.0-16.0-23.0-0.0,69449,List1B,white,woman,,,,null,,,,
1225,<p>You got 8 out of 8 right first time. Press Continue.</p>,0,html-button-response,246,804374,0.0-16.0-25.0,69449,List1B,white,woman,,,,,,,,
null,"<div style=""font-size:60px;"">+</div>",,html-keyboard-response,247,805878,0.0-17.0-0.0,69449,List1B,white,woman,,,,null,,,,
null,"<img src=""stim_listB/hug4.gif""</stim_listB>",,html-keyboard-response,248,807882,0.0-17.0-1.0,69449,List1B,white,woman,,,,null,,,,
null,are hugging each other,,html-keyboard-response,249,809884,0.0-17.0-2.0,69449,List1B,white,woman,,,,null,,,,
5372,,,survey-text,250,815259,0.0-17.0-3.0,69449,List1B,white,woman,,,,,"{""Q0"":""Dave and Jane are hugging each other. ""}","<img src=""stim_listB/hug4.gif""</stim_listB>",are hugging each other,
null,"<div style=""font-size:60px;"">+</div>",,html-keyboard-response,251,815762,0.0-17.0-0.1,69449,List1B,white,woman,,,,null,,,,
null,"<img src=""stim_listB/talk6.gif""</stim_listB>",,html-keyboard-response,252,817766,0.0-17.0-1.1,69449,List1B,white,woman,,,,null,,,,
null,are talking to each other,,html-keyboard-response,253,819769,0.0-17.0-2.1,69449,List1B,white,woman,,,,null,,,,
6231,,,survey-text,254,826002,0.0-17.0-3.1,69449,List1B,white,woman,,,,,"{""Q0"":""Mike and Luke are talking to each other. ""}","<img src=""stim_listB/talk6.gif""</stim_listB>",are talking to each other,
null,"<div style=""font-size:60px;"">+</div>",,html-keyboard-response,255,826504,0.0-17.0-0.2,69449,List1B,white,woman,,,,null,,,,
null,"<img src=""stim_listB/kiss7.gif""</stim_listB>",,html-keyboard-response,256,828507,0.0-17.0-1.2,69449,List1B,white,woman,,,,null,,,,
null,is kissing,,html-keyboard-response,257,830508,0.0-17.0-2.2,69449,List1B,white,woman,,,,null,,,,
4391,,,survey-text,258,834902,0.0-17.0-3.2,69449,List1B,white,woman,,,,,"{""Q0"":""Ruth is  kissing Beth. ""}","<img src=""stim_listB/kiss7.gif""</stim_listB>",is kissing,
null,"<div style=""font-size:60px;"">+</div>",,html-keyboard-response,259,835404,0.0-17.0-0.3,69449,List1B,white,woman,,,,null,,,,
null,"<img src=""stim_listB/fight2.gif""</stim_listB>",,html-keyboard-response,260,837406,0.0-17.0-1.3,69449,List1B,white,woman,,,,null,,,,
null,are fighting each other,,html-keyboard-response,261,839410,0.0-17.0-2.3,69449,List1B,white,woman,,,,null,,,,
6123,,,survey-text,262,845535,0.0-17.0-3.3,69449,List1B,white,woman,,,,,"{""Q0"":""Fred and Beth are fighting each other. ""}","<img src=""stim_listB/fight2.gif""</stim_listB>",are fighting each other,
null,"<div style=""font-size:60px;"">+</div>",,html-keyboard-response,263,846037,0.0-17.0-0.4,69449,List1B,white,woman,,,,null,,,,
null,"<img src=""stim_listB/fight1.gif""</stim_listB>",,html-keyboard-response,264,848040,0.0-17.0-1.4,69449,List1B,white,woman,,,,null,,,,
null,is fighting,,html-keyboard-response,265,850041,0.0-17.0-2.4,69449,List1B,white,woman,,,,null,,,,
4697,,,survey-text,266,854740,0.0-17.0-3.4,69449,List1B,white,woman,,,,,"{""Q0"":""Kate is fighting Mike. ""}","<img src=""stim_listB/fight1.gif""</stim_listB>",is fighting,
null,"<div style=""font-size:60px;"">+</div>",,html-keyboard-response,267,855243,0.0-17.0-0.5,69449,List1B,white,woman,,,,null,,,,
null,"<img src=""stim_listB/hug7.gif""</stim_listB>",,html-keyboard-response,268,857248,0.0-17.0-1.5,69449,List1B,white,woman,,,,null,,,,
null,is hugging,,html-keyboard-response,269,859254,0.0-17.0-2.5,69449,List1B,white,woman,,,,null,,,,
4783,,,survey-text,270,864039,0.0-17.0-3.5,69449,List1B,white,woman,,,,,"{""Q0"":""Ruth is hugging Beth. ""}","<img src=""stim_listB/hug7.gif""</stim_listB>",is hugging,
null,"<div style=""font-size:60px;"">+</div>",,html-keyboard-response,271,864543,0.0-17.0-0.6,69449,List1B,white,woman,,,,null,,,,
null,"<img src=""stim_listB/argue6.gif""</stim_listB>",,html-keyboard-response,272,866546,0.0-17.0-1.6,69449,List1B,white,woman,,,,null,,,,
null,are arguing with each other,,html-keyboard-response,273,868548,0.0-17.0-2.6,69449,List1B,white,woman,,,,null,,,,
5953,,,survey-text,274,874504,0.0-17.0-3.6,69449,List1B,white,woman,,,,,"{""Q0"":""Fred and Dave are arguing with each other. ""}","<img src=""stim_listB/argue6.gif""</stim_listB>",are arguing with each other,
null,"<div style=""font-size:60px;"">+</div>",,html-keyboard-response,275,875006,0.0-17.0-0.7,69449,List1B,white,woman,,,,null,,,,
null,"<img src=""stim_listB/marry5.gif""</stim_listB>",,html-keyboard-response,276,877009,0.0-17.0-1.7,69449,List1B,white,woman,,,,null,,,,
null,is marrying,,html-keyboard-response,277,879011,0.0-17.0-2.7,69449,List1B,white,woman,,,,null,,,,
4940,,,survey-text,278,883952,0.0-17.0-3.7,69449,List1B,white,woman,,,,,"{""Q0"":""Luke is marrying Mike. ""}","<img src=""stim_listB/marry5.gif""</stim_listB>",is marrying,
null,"<div style=""font-size:60px;"">+</div>",,html-keyboard-response,279,884457,0.0-17.0-0.8,69449,List1B,white,woman,,,,null,,,,
null,"<img src=""stim_listB/meet6.gif""</stim_listB>",,html-keyboard-response,280,886460,0.0-17.0-1.8,69449,List1B,white,woman,,,,null,,,,
null,are meeting each other,,html-keyboard-response,281,888462,0.0-17.0-2.8,69449,List1B,white,woman,,,,null,,,,
5356,,,survey-text,282,893820,0.0-17.0-3.8,69449,List1B,white,woman,,,,,"{""Q0"":""Luke and Fred are meeting each other. ""}","<img src=""stim_listB/meet6.gif""</stim_listB>",are meeting each other,
null,"<div style=""font-size:60px;"">+</div>",,html-keyboard-response,283,894322,0.0-17.0-0.9,69449,List1B,white,woman,,,,null,,,,
null,"<img src=""stim_listB/talk8.gif""</stim_listB>",,html-keyboard-response,284,896327,0.0-17.0-1.9,69449,List1B,white,woman,,,,null,,,,
null,are talking to each other,,html-keyboard-response,285,898329,0.0-17.0-2.9,69449,List1B,white,woman,,,,null,,,,
7345,,,survey-text,286,905676,0.0-17.0-3.9,69449,List1B,white,woman,,,,,"{""Q0"":""< and > are meeting each other. ""}","<img src=""stim_listB/talk8.gif""</stim_listB>",are talking to each other,
null,"<div style=""font-size:60px;"">+</div>",,html-keyboard-response,287,906185,0.0-17.0-0.10,69449,List1B,white,woman,,,,null,,,,
null,"<img src=""stim_listB/meet1.gif""</stim_listB>",,html-keyboard-response,288,908189,0.0-17.0-1.10,69449,List1B,white,woman,,,,null,,,,
null,is meeting,,html-keyboard-response,289,910191,0.0-17.0-2.10,69449,List1B,white,woman,,,,null,,,,
3799,,,survey-text,290,913992,0.0-17.0-3.10,69449,List1B,white,woman,,,,,"{""Q0"":""Kate is meeting Mike. ""}","<img src=""stim_listB/meet1.gif""</stim_listB>",is meeting,
null,"<div style=""font-size:60px;"">+</div>",,html-keyboard-response,291,914495,0.0-17.0-0.11,69449,List1B,white,woman,,,,null,,,,
null,"<img src=""stim_listB/kiss8.gif""</stim_listB>",,html-keyboard-response,292,916497,0.0-17.0-1.11,69449,List1B,white,woman,,,,null,,,,
null,are kissing each other,,html-keyboard-response,293,918499,0.0-17.0-2.11,69449,List1B,white,woman,,,,null,,,,
7577,,,survey-text,294,926078,0.0-17.0-3.11,69449,List1B,white,woman,,,,,"{""Q0"":""Jane and Kate are kissing each other. ""}","<img src=""stim_listB/kiss8.gif""</stim_listB>",are kissing each other,
null,"<div style=""font-size:60px;"">+</div>",,html-keyboard-response,295,926581,0.0-17.0-0.12,69449,List1B,white,woman,,,,null,,,,
null,"<img src=""stim_listB/kiss4.gif""</stim_listB>",,html-keyboard-response,296,928583,0.0-17.0-1.12,69449,List1B,white,woman,,,,null,,,,
null,are kissing each other,,html-keyboard-response,297,930585,0.0-17.0-2.12,69449,List1B,white,woman,,,,null,,,,
7269,,,survey-text,298,937856,0.0-17.0-3.12,69449,List1B,white,woman,,,,,"{""Q0"":""Jane and Dave are kissing each other. ""}","<img src=""stim_listB/kiss4.gif""</stim_listB>",are kissing each other,
null,"<div style=""font-size:60px;"">+</div>",,html-keyboard-response,299,938357,0.0-17.0-0.13,69449,List1B,white,woman,,,,null,,,,
null,"<img src=""stim_listB/dance5.gif""</stim_listB>",,html-keyboard-response,300,940359,0.0-17.0-1.13,69449,List1B,white,woman,,,,null,,,,
null,is dancing with,,html-keyboard-response,301,942361,0.0-17.0-2.13,69449,List1B,white,woman,,,,null,,,,
5199,,,survey-text,302,947562,0.0-17.0-3.13,69449,List1B,white,woman,,,,,"{""Q0"":""Dave is dancing with Fred. ""}","<img src=""stim_listB/dance5.gif""</stim_listB>",is dancing with,
null,"<div style=""font-size:60px;"">+</div>",,html-keyboard-response,303,948065,0.0-17.0-0.14,69449,List1B,white,woman,,,,null,,,,
null,"<img src=""stim_listB/marry7.gif""</stim_listB>",,html-keyboard-response,304,950069,0.0-17.0-1.14,69449,List1B,white,woman,,,,null,,,,
null,is marrying,,html-keyboard-response,305,952071,0.0-17.0-2.14,69449,List1B,white,woman,,,,null,,,,
5053,,,survey-text,306,957126,0.0-17.0-3.14,69449,List1B,white,woman,,,,,"{""Q0"":""Kate is marrying Ruth. ""}","<img src=""stim_listB/marry7.gif""</stim_listB>",is marrying,
null,"<div style=""font-size:60px;"">+</div>",,html-keyboard-response,307,957629,0.0-17.0-0.15,69449,List1B,white,woman,,,,null,,,,
null,"<img src=""stim_listB/hug8.gif""</stim_listB>",,html-keyboard-response,308,959632,0.0-17.0-1.15,69449,List1B,white,woman,,,,null,,,,
null,are hugging each other,,html-keyboard-response,309,961634,0.0-17.0-2.15,69449,List1B,white,woman,,,,null,,,,
7717,,,survey-text,310,969353,0.0-17.0-3.15,69449,List1B,white,woman,,,,,"{""Q0"":""Jane and Kate are hugging each other. ""}","<img src=""stim_listB/hug8.gif""</stim_listB>",are hugging each other,
null,"<div style=""font-size:60px;"">+</div>",,html-keyboard-response,311,969856,0.0-17.0-0.16,69449,List1B,white,woman,,,,null,,,,
null,"<img src=""stim_listB/fight8.gif""</stim_listB>",,html-keyboard-response,312,971858,0.0-17.0-1.16,69449,List1B,white,woman,,,,null,,,,
null,are fighting each other,,html-keyboard-response,313,973860,0.0-17.0-2.16,69449,List1B,white,woman,,,,null,,,,
5589,,,survey-text,314,979451,0.0-17.0-3.16,69449,List1B,white,woman,,,,,"{""Q0"":""Ruth and Beth are fighting each other. ""}","<img src=""stim_listB/fight8.gif""</stim_listB>",are fighting each other,
null,"<div style=""font-size:60px;"">+</div>",,html-keyboard-response,315,979954,0.0-17.0-0.17,69449,List1B,white,woman,,,,null,,,,
null,"<img src=""stim_listB/argue3.gif""</stim_listB>",,html-keyboard-response,316,981958,0.0-17.0-1.17,69449,List1B,white,woman,,,,null,,,,
null,is arguing with,,html-keyboard-response,317,983962,0.0-17.0-2.17,69449,List1B,white,woman,,,,null,,,,
5828,,,survey-text,318,989793,0.0-17.0-3.17,69449,List1B,white,woman,,,,,"{""Q0"":""Ruth is arguing with Dave. ""}","<img src=""stim_listB/argue3.gif""</stim_listB>",is arguing with,
null,"<div style=""font-size:60px;"">+</div>",,html-keyboard-response,319,990296,0.0-17.0-0.18,69449,List1B,white,woman,,,,null,,,,
null,"<img src=""stim_listB/touch1.gif""</stim_listB>",,html-keyboard-response,320,992299,0.0-17.0-1.18,69449,List1B,white,woman,,,,null,,,,
null,is touching,,html-keyboard-response,321,994301,0.0-17.0-2.18,69449,List1B,white,woman,,,,null,,,,
5040,,,survey-text,322,999343,0.0-17.0-3.18,69449,List1B,white,woman,,,,,"{""Q0"":""Kate is touching Mike. ""}","<img src=""stim_listB/touch1.gif""</stim_listB>",is touching,
null,"<div style=""font-size:60px;"">+</div>",,html-keyboard-response,323,999845,0.0-17.0-0.19,69449,List1B,white,woman,,,,null,,,,
null,"<img src=""stim_listB/shout4.gif""</stim_listB>",,html-keyboard-response,324,1001848,0.0-17.0-1.19,69449,List1B,white,woman,,,,null,,,,
null,are shouting at each other,,html-keyboard-response,325,1003850,0.0-17.0-2.19,69449,List1B,white,woman,,,,null,,,,
5582,,,survey-text,326,1009434,0.0-17.0-3.19,69449,List1B,white,woman,,,,,"{""Q0"":""Jane and Dave are shouting at each other. ""}","<img src=""stim_listB/shout4.gif""</stim_listB>",are shouting at each other,
4835,"<img src='img/portrait_matrix_list1.JPG' style='width:900px;height:500px;''></img><p>If you have memorised all the portraits and names and are ready to start, press Continue.</p><p><strong>Please note: Your memory of these faces will be tested 4 times during this experiment.</strong></p>",0,html-button-response,327,1014272,0.0-18.0-0.0,69449,List1B,white,woman,,,,,,,,
1558,"<img src=""portrait/BM1.jpg""style=""width:400px;height:400px;""></img>",4,html-button-response,328,1016835,0.0-18.0-1.0,69449,List1B,white,woman,,TRUE,4,,,,,
null,CORRECT,,html-keyboard-response,329,1018338,0.0-18.0-2.0-0.0,69449,List1B,white,woman,,,,null,,,,
1211,"<img src=""portrait/WM2.jpg""style=""width:400px;height:400px;""></img>",7,html-button-response,330,1019553,0.0-18.0-4.0,69449,List1B,white,woman,,TRUE,7,,,,,
null,CORRECT,,html-keyboard-response,331,1021057,0.0-18.0-5.0-0.0,69449,List1B,white,woman,,,,null,,,,
1359,"<img src=""portrait/WW1.jpg""style=""width:400px;height:400px;""></img>",1,html-button-response,332,1022420,0.0-18.0-7.0,69449,List1B,white,woman,,TRUE,1,,,,,
null,CORRECT,,html-keyboard-response,333,1023923,0.0-18.0-8.0-0.0,69449,List1B,white,woman,,,,null,,,,
1218,"<img src=""portrait/BW2.jpg""style=""width:400px;height:400px;""></img>",2,html-button-response,334,1025144,0.0-18.0-10.0,69449,List1B,white,woman,,TRUE,2,,,,,
null,CORRECT,,html-keyboard-response,335,1026647,0.0-18.0-11.0-0.0,69449,List1B,white,woman,,,,null,,,,
1280,"<img src=""portrait/WW2.jpg""style=""width:400px;height:400px;""></img>",3,html-button-response,336,1027929,0.0-18.0-13.0,69449,List1B,white,woman,,TRUE,3,,,,,
null,CORRECT,,html-keyboard-response,337,1029433,0.0-18.0-14.0-0.0,69449,List1B,white,woman,,,,null,,,,
1034,"<img src=""portrait/BW1.jpg""style=""width:400px;height:400px;""></img>",0,html-button-response,338,1030471,0.0-18.0-16.0,69449,List1B,white,woman,,TRUE,0,,,,,
null,CORRECT,,html-keyboard-response,339,1031974,0.0-18.0-17.0-0.0,69449,List1B,white,woman,,,,null,,,,
1448,"<img src=""portrait/BM2.jpg""style=""width:400px;height:400px;""></img>",5,html-button-response,340,1033426,0.0-18.0-19.0,69449,List1B,white,woman,,TRUE,5,,,,,
null,CORRECT,,html-keyboard-response,341,1034930,0.0-18.0-20.0-0.0,69449,List1B,white,woman,,,,null,,,,
1013,"<img src=""portrait/WM1.jpg""style=""width:400px;height:400px;""></img>",6,html-button-response,342,1035947,0.0-18.0-22.0,69449,List1B,white,woman,,TRUE,6,,,,,
null,CORRECT,,html-keyboard-response,343,1037451,0.0-18.0-23.0-0.0,69449,List1B,white,woman,,,,null,,,,
1163,<p>You got 8 out of 8 right first time. Press Continue.</p>,0,html-button-response,344,1038617,0.0-18.0-25.0,69449,List1B,white,woman,,,,,,,,
null,"<div style=""font-size:60px;"">+</div>",,html-keyboard-response,345,1040122,0.0-19.0-0.0,69449,List1B,white,woman,,,,null,,,,
null,"<img src=""stim_listB/dance8.gif""</stim_listB>",,html-keyboard-response,346,1042125,0.0-19.0-1.0,69449,List1B,white,woman,,,,null,,,,
null,are dancing with each other,,html-keyboard-response,347,1044127,0.0-19.0-2.0,69449,List1B,white,woman,,,,null,,,,
7555,,,survey-text,348,1051683,0.0-19.0-3.0,69449,List1B,white,woman,,,,,"{""Q0"":""Ruth and Kate are dancing with each other. ""}","<img src=""stim_listB/dance8.gif""</stim_listB>",are dancing with each other,
null,"<div style=""font-size:60px;"">+</div>",,html-keyboard-response,349,1052188,0.0-19.0-0.1,69449,List1B,white,woman,,,,null,,,,
null,"<img src=""stim_listB/meet3.gif""</stim_listB>",,html-keyboard-response,350,1054192,0.0-19.0-1.1,69449,List1B,white,woman,,,,null,,,,
null,is meeting,,html-keyboard-response,351,1056193,0.0-19.0-2.1,69449,List1B,white,woman,,,,null,,,,
5727,,,survey-text,352,1061922,0.0-19.0-3.1,69449,List1B,white,woman,,,,,"{""Q0"":""Jane is meeting Dave. ""}","<img src=""stim_listB/meet3.gif""</stim_listB>",is meeting,
null,"<div style=""font-size:60px;"">+</div>",,html-keyboard-response,353,1062425,0.0-19.0-0.2,69449,List1B,white,woman,,,,null,,,,
null,"<img src=""stim_listB/meet7.gif""</stim_listB>",,html-keyboard-response,354,1064428,0.0-19.0-1.2,69449,List1B,white,woman,,,,null,,,,
null,is meeting,,html-keyboard-response,355,1066430,0.0-19.0-2.2,69449,List1B,white,woman,,,,null,,,,
4287,,,survey-text,356,1070719,0.0-19.0-3.2,69449,List1B,white,woman,,,,,"{""Q0"":""Ruth is meeting Kate. ""}","<img src=""stim_listB/meet7.gif""</stim_listB>",is meeting,
null,"<div style=""font-size:60px;"">+</div>",,html-keyboard-response,357,1071221,0.0-19.0-0.3,69449,List1B,white,woman,,,,null,,,,
null,"<img src=""stim_listB/marry6.gif""</stim_listB>",,html-keyboard-response,358,1073225,0.0-19.0-1.3,69449,List1B,white,woman,,,,null,,,,
null,are marrying each other,,html-keyboard-response,359,1075226,0.0-19.0-2.3,69449,List1B,white,woman,,,,null,,,,
8517,,,survey-text,360,1083745,0.0-19.0-3.3,69449,List1B,white,woman,,,,,"{""Q0"":""Fred and Dave are marrying each other. ""}","<img src=""stim_listB/marry6.gif""</stim_listB>",are marrying each other,
null,"<div style=""font-size:60px;"">+</div>",,html-keyboard-response,361,1084247,0.0-19.0-0.4,69449,List1B,white,woman,,,,null,,,,
null,"<img src=""stim_listB/marry2.gif""</stim_listB>",,html-keyboard-response,362,1086250,0.0-19.0-1.4,69449,List1B,white,woman,,,,null,,,,
null,are marrying each other,,html-keyboard-response,363,1088252,0.0-19.0-2.4,69449,List1B,white,woman,,,,null,,,,
5923,,,survey-text,364,1094176,0.0-19.0-3.4,69449,List1B,white,woman,,,,,"{""Q0"":""Fred and Kate are marrying each other. ""}","<img src=""stim_listB/marry2.gif""</stim_listB>",are marrying each other,
null,"<div style=""font-size:60px;"">+</div>",,html-keyboard-response,365,1094680,0.0-19.0-0.5,69449,List1B,white,woman,,,,null,,,,
null,"<img src=""stim_listB/dance3.gif""</stim_listB>",,html-keyboard-response,366,1096682,0.0-19.0-1.5,69449,List1B,white,woman,,,,null,,,,
null,is dancing with,,html-keyboard-response,367,1098684,0.0-19.0-2.5,69449,List1B,white,woman,,,,null,,,,
5207,,,survey-text,368,1103894,0.0-19.0-3.5,69449,List1B,white,woman,,,,,"{""Q0"":""Jane is dancing with Luke. ""}","<img src=""stim_listB/dance3.gif""</stim_listB>",is dancing with,
null,"<div style=""font-size:60px;"">+</div>",,html-keyboard-response,369,1104396,0.0-19.0-0.6,69449,List1B,white,woman,,,,null,,,,
null,"<img src=""stim_listB/talk7.gif""</stim_listB>",,html-keyboard-response,370,1106400,0.0-19.0-1.6,69449,List1B,white,woman,,,,null,,,,
null,is talking to,,html-keyboard-response,371,1108403,0.0-19.0-2.6,69449,List1B,white,woman,,,,null,,,,
5125,,,survey-text,372,1113530,0.0-19.0-3.6,69449,List1B,white,woman,,,,,"{""Q0"":""Jane is talking to Beth. ""}","<img src=""stim_listB/talk7.gif""</stim_listB>",is talking to,
null,"<div style=""font-size:60px;"">+</div>",,html-keyboard-response,373,1114032,0.0-19.0-0.7,69449,List1B,white,woman,,,,null,,,,
null,"<img src=""stim_listB/fight4.gif""</stim_listB>",,html-keyboard-response,374,1116036,0.0-19.0-1.7,69449,List1B,white,woman,,,,null,,,,
null,are fighting each other,,html-keyboard-response,375,1118039,0.0-19.0-2.7,69449,List1B,white,woman,,,,null,,,,
7288,,,survey-text,376,1125329,0.0-19.0-3.7,69449,List1B,white,woman,,,,,"{""Q0"":""Luke and Ruth are fighting each other. ""}","<img src=""stim_listB/fight4.gif""</stim_listB>",are fighting each other,
null,"<div style=""font-size:60px;"">+</div>",,html-keyboard-response,377,1125832,0.0-19.0-0.8,69449,List1B,white,woman,,,,null,,,,
null,"<img src=""stim_listB/talk4.gif""</stim_listB>",,html-keyboard-response,378,1127835,0.0-19.0-1.8,69449,List1B,white,woman,,,,null,,,,
null,are talking to each other,,html-keyboard-response,379,1129837,0.0-19.0-2.8,69449,List1B,white,woman,,,,null,,,,
6028,,,survey-text,380,1135867,0.0-19.0-3.8,69449,List1B,white,woman,,,,,"{""Q0"":""Dave and Ruth are talking to each other. ""}","<img src=""stim_listB/talk4.gif""</stim_listB>",are talking to each other,
null,"<div style=""font-size:60px;"">+</div>",,html-keyboard-response,381,1136369,0.0-19.0-0.9,69449,List1B,white,woman,,,,null,,,,
null,"<img src=""stim_listB/argue8.gif""</stim_listB>",,html-keyboard-response,382,1138373,0.0-19.0-1.9,69449,List1B,white,woman,,,,null,,,,
null,are arguing with each other,,html-keyboard-response,383,1140375,0.0-19.0-2.9,69449,List1B,white,woman,,,,null,,,,
6190,,,survey-text,384,1146568,0.0-19.0-3.9,69449,List1B,white,woman,,,,,"{""Q0"":""Jane and Beth are arguing with each other. ""}","<img src=""stim_listB/argue8.gif""</stim_listB>",are arguing with each other,
null,"<div style=""font-size:60px;"">+</div>",,html-keyboard-response,385,1147071,0.0-19.0-0.10,69449,List1B,white,woman,,,,null,,,,
null,"<img src=""stim_listB/argue1.gif""</stim_listB>",,html-keyboard-response,386,1149074,0.0-19.0-1.10,69449,List1B,white,woman,,,,null,,,,
null,is arguing with,,html-keyboard-response,387,1151077,0.0-19.0-2.10,69449,List1B,white,woman,,,,null,,,,
6039,,,survey-text,388,1157119,0.0-19.0-3.10,69449,List1B,white,woman,,,,,"{""Q0"":""Beth is arguing with Mike. ""}","<img src=""stim_listB/argue1.gif""</stim_listB>",is arguing with,
null,"<div style=""font-size:60px;"">+</div>",,html-keyboard-response,389,1157621,0.0-19.0-0.11,69449,List1B,white,woman,,,,null,,,,
null,"<img src=""stim_listB/marry3.gif""</stim_listB>",,html-keyboard-response,390,1159624,0.0-19.0-1.11,69449,List1B,white,woman,,,,null,,,,
null,is marrying,,html-keyboard-response,391,1161628,0.0-19.0-2.11,69449,List1B,white,woman,,,,null,,,,
5353,,,survey-text,392,1166982,0.0-19.0-3.11,69449,List1B,white,woman,,,,,"{""Q0"":""Ruth is marrying Dave. ""}","<img src=""stim_listB/marry3.gif""</stim_listB>",is marrying,
null,"<div style=""font-size:60px;"">+</div>",,html-keyboard-response,393,1167484,0.0-19.0-0.12,69449,List1B,white,woman,,,,null,,,,
null,"<img src=""stim_listB/argue5.gif""</stim_listB>",,html-keyboard-response,394,1169487,0.0-19.0-1.12,69449,List1B,white,woman,,,,null,,,,
null,is arguing with,,html-keyboard-response,395,1171491,0.0-19.0-2.12,69449,List1B,white,woman,,,,null,,,,
5237,,,survey-text,396,1176731,0.0-19.0-3.12,69449,List1B,white,woman,,,,,"{""Q0"":""Luke is arguing with Mike. ""}","<img src=""stim_listB/argue5.gif""</stim_listB>",is arguing with,
null,"<div style=""font-size:60px;"">+</div>",,html-keyboard-response,397,1177233,0.0-19.0-0.13,69449,List1B,white,woman,,,,null,,,,
null,"<img src=""stim_listB/talk2.gif""</stim_listB>",,html-keyboard-response,398,1179236,0.0-19.0-1.13,69449,List1B,white,woman,,,,null,,,,
null,are talking to each other,,html-keyboard-response,399,1181238,0.0-19.0-2.13,69449,List1B,white,woman,,,,null,,,,
5900,,,survey-text,400,1187140,0.0-19.0-3.13,69449,List1B,white,woman,,,,,"{""Q0"":""Mike and Beth are talking to each other. ""}","<img src=""stim_listB/talk2.gif""</stim_listB>",are talking to each other,
null,"<div style=""font-size:60px;"">+</div>",,html-keyboard-response,401,1187642,0.0-19.0-0.14,69449,List1B,white,woman,,,,null,,,,
null,"<img src=""stim_listB/meet2.gif""</stim_listB>",,html-keyboard-response,402,1189646,0.0-19.0-1.14,69449,List1B,white,woman,,,,null,,,,
null,are meeting each other,,html-keyboard-response,403,1191648,0.0-19.0-2.14,69449,List1B,white,woman,,,,null,,,,
5161,,,survey-text,404,1196811,0.0-19.0-3.14,69449,List1B,white,woman,,,,,"{""Q0"":""Fred and Beth are meeting each other. ""}","<img src=""stim_listB/meet2.gif""</stim_listB>",are meeting each other,
null,"<div style=""font-size:60px;"">+</div>",,html-keyboard-response,405,1197313,0.0-19.0-0.15,69449,List1B,white,woman,,,,null,,,,
null,"<img src=""stim_listB/marry8.gif""</stim_listB>",,html-keyboard-response,406,1199318,0.0-19.0-1.15,69449,List1B,white,woman,,,,null,,,,
null,are marrying each other,,html-keyboard-response,407,1201321,0.0-19.0-2.15,69449,List1B,white,woman,,,,null,,,,
6744,,,survey-text,408,1208067,0.0-19.0-3.15,69449,List1B,white,woman,,,,,"{""Q0"":""Beth and Jane are marrying each other. ""}","<img src=""stim_listB/marry8.gif""</stim_listB>",are marrying each other,
null,"<div style=""font-size:60px;"">+</div>",,html-keyboard-response,409,1208570,0.0-19.0-0.16,69449,List1B,white,woman,,,,null,,,,
null,"<img src=""stim_listB/hug2.gif""</stim_listB>",,html-keyboard-response,410,1210573,0.0-19.0-1.16,69449,List1B,white,woman,,,,null,,,,
null,are hugging each other,,html-keyboard-response,411,1212574,0.0-19.0-2.16,69449,List1B,white,woman,,,,null,,,,
6538,,,survey-text,412,1219114,0.0-19.0-3.16,69449,List1B,white,woman,,,,,"{""Q0"":""Mike and Kate are hugging each other. ""}","<img src=""stim_listB/hug2.gif""</stim_listB>",are hugging each other,
null,"<div style=""font-size:60px;"">+</div>",,html-keyboard-response,413,1219618,0.0-19.0-0.17,69449,List1B,white,woman,,,,null,,,,
null,"<img src=""stim_listB/kiss2.gif""</stim_listB>",,html-keyboard-response,414,1221622,0.0-19.0-1.17,69449,List1B,white,woman,,,,null,,,,
null,are kissing each other,,html-keyboard-response,415,1223625,0.0-19.0-2.17,69449,List1B,white,woman,,,,null,,,,
5421,,,survey-text,416,1229047,0.0-19.0-3.17,69449,List1B,white,woman,,,,,"{""Q0"":""Mike and Kate are kissing each other. ""}","<img src=""stim_listB/kiss2.gif""</stim_listB>",are kissing each other,
null,"<div style=""font-size:60px;"">+</div>",,html-keyboard-response,417,1229550,0.0-19.0-0.18,69449,List1B,white,woman,,,,null,,,,
null,"<img src=""stim_listB/touch8.gif""</stim_listB>",,html-keyboard-response,418,1231554,0.0-19.0-1.18,69449,List1B,white,woman,,,,null,,,,
null,are touching each other,,html-keyboard-response,419,1233556,0.0-19.0-2.18,69449,List1B,white,woman,,,,null,,,,
10387,,,survey-text,420,1243945,0.0-19.0-3.18,69449,List1B,white,woman,,,,,"{""Q0"":""< and > are hugging each other. ""}","<img src=""stim_listB/touch8.gif""</stim_listB>",are touching each other,
null,"<div style=""font-size:60px;"">+</div>",,html-keyboard-response,421,1244447,0.0-19.0-0.19,69449,List1B,white,woman,,,,null,,,,
null,"<img src=""stim_listB/kiss1.gif""</stim_listB>",,html-keyboard-response,422,1246452,0.0-19.0-1.19,69449,List1B,white,woman,,,,null,,,,
null,is kissing,,html-keyboard-response,423,1248454,0.0-19.0-2.19,69449,List1B,white,woman,,,,null,,,,
4190,,,survey-text,424,1252646,0.0-19.0-3.19,69449,List1B,white,woman,,,,,"{""Q0"":""Beth is kissing Fred. ""}","<img src=""stim_listB/kiss1.gif""</stim_listB>",is kissing,
2674,<p>Thank you for completing that task.</p><p>The final part of this session is a short questionnaire.</p><p>Press Continue.</p>,0,html-button-response,425,1255323,0.0-20.0,69449,List1B,white,woman,,,,,,,,
15654,,,survey-text,426,1271982,0.0-21.0,69449,List1B,white,woman,,,,,"{""Q0"":""33"",""Q1"":""English"",""Q2"":""English"",""Q3"":""USA"",""Q4"":""Caucasion"",""Q5"":""Female""}",,,demographics
51508,,,survey-likert,427,1323506,0.0-22.0,69449,List1B,white,woman,,,,,"{""Q0"":0,""Q1"":0,""Q2"":0,""Q3"":5,""Q4"":0,""Q5"":4,""Q6"":0,""Q7"":5,""Q8"":0,""Q9"":0,""Q10"":1,""Q11"":1,""Q12"":1,""Q13"":0}",,,likert_race
39601,,,survey-likert,428,1363130,0.0-23.0,69449,List1B,white,woman,,,,,"{""Q0"":1,""Q1"":1,""Q2"":4,""Q3"":4,""Q4"":5,""Q5"":4,""Q6"":4,""Q7"":5,""Q8"":1,""Q9"":3,""Q10"":4,""Q11"":4,""Q12"":"""",""Q13"":3}",,,likert_gender
8533,,,survey-text,429,1371677,0.0-24.0,69449,List1B,white,woman,,,,,"{""Q0"":""ccc""}",,,worker_id
1898,,,external-html,430,1373845,0.0-25.0,69449,List1B,white,woman,debrief.html,,,,,,,
