rt,stimulus,button_pressed,trial_type,trial_index,time_elapsed,internal_node_id,subject,list,ppt_race,ppt_gender,url,first_guess,correct,key_press,responses,image_type,phrase_type,test_part
1405,Welcome to the experiment. Press Continue to begin.,0,html-button-response,0,1500,0.0-0.0,70165,List2B,black,man,,,,,,,,
48686,,,external-html,1,51202,0.0-1.0,70165,List2B,black,man,consent.html,,,,,,,
7740,"<p>On the next page, you will see portraits of 8 people and their names.</p><p>Your first task is to take a few minutes to memorise the names of these people.</p><p>You will have to recall their names during the rest of the experiment, so it is</p><p>essential that you try to memorise these people and their names as best as you can.</p><br><p><strong>You will then be tested on your memory of these names and portraits.</strong></p><br><p>The experiment will start after you have completed this memory test.</p><br><p>Ready?</p>",0,html-button-response,2,58945,0.0-2.0,70165,List2B,black,man,,,,,,,,
24420,"<img src='img/portrait_matrix_list2.JPG' style='width:900px;height:500px;''></img><p>If you have memorised all the portraits and names and are ready to start, press Continue.</p><p><strong>Please note: Your memory of these faces will be tested 4 times during this experiment.</strong></p>",0,html-button-response,3,84369,0.0-3.0-0.0,70165,List2B,black,man,,,,,,,,
9939,"<img src=""portrait/BW2.jpg""style=""width:400px;height:400px;""></img>",2,html-button-response,4,95312,0.0-3.0-1.0,70165,List2B,black,man,,TRUE,2,,,,,
null,CORRECT,,html-keyboard-response,5,96818,0.0-3.0-2.0-0.0,70165,List2B,black,man,,,,null,,,,
6300,"<img src=""portrait/WM2.jpg""style=""width:400px;height:400px;""></img>",7,html-button-response,6,103120,0.0-3.0-4.0,70165,List2B,black,man,,TRUE,7,,,,,
null,CORRECT,,html-keyboard-response,7,104623,0.0-3.0-5.0-0.0,70165,List2B,black,man,,,,null,,,,
5927,"<img src=""portrait/WW2.jpg""style=""width:400px;height:400px;""></img>",3,html-button-response,8,110552,0.0-3.0-7.0,70165,List2B,black,man,,TRUE,3,,,,,
null,CORRECT,,html-keyboard-response,9,112056,0.0-3.0-8.0-0.0,70165,List2B,black,man,,,,null,,,,
7070,"<img src=""portrait/BM1.jpg""style=""width:400px;height:400px;""></img>",4,html-button-response,10,119128,0.0-3.0-10.0,70165,List2B,black,man,,TRUE,4,,,,,
null,CORRECT,,html-keyboard-response,11,120632,0.0-3.0-11.0-0.0,70165,List2B,black,man,,,,null,,,,
5038,"<img src=""portrait/BW1.jpg""style=""width:400px;height:400px;""></img>",0,html-button-response,12,125672,0.0-3.0-13.0,70165,List2B,black,man,,TRUE,0,,,,,
null,CORRECT,,html-keyboard-response,13,127175,0.0-3.0-14.0-0.0,70165,List2B,black,man,,,,null,,,,
4671,"<img src=""portrait/WM1.jpg""style=""width:400px;height:400px;""></img>",6,html-button-response,14,131850,0.0-3.0-16.0,70165,List2B,black,man,,TRUE,6,,,,,
null,CORRECT,,html-keyboard-response,15,133352,0.0-3.0-17.0-0.0,70165,List2B,black,man,,,,null,,,,
3798,"<img src=""portrait/WW1.jpg""style=""width:400px;height:400px;""></img>",1,html-button-response,16,137152,0.0-3.0-19.0,70165,List2B,black,man,,TRUE,1,,,,,
null,CORRECT,,html-keyboard-response,17,138654,0.0-3.0-20.0-0.0,70165,List2B,black,man,,,,null,,,,
4880,"<img src=""portrait/BM2.jpg""style=""width:400px;height:400px;""></img>",5,html-button-response,18,143536,0.0-3.0-22.0,70165,List2B,black,man,,TRUE,5,,,,,
null,CORRECT,,html-keyboard-response,19,145039,0.0-3.0-23.0-0.0,70165,List2B,black,man,,,,null,,,,
2087,<p>You got 8 out of 8 right first time. Press Continue.</p>,0,html-button-response,20,147127,0.0-3.0-25.0,70165,List2B,black,man,,,,,,,,
37516,"<p>In this experiment, you will view photographs of the people from the memory game interacting.</p><p>By using the <strong>exact</strong> phrase given <i>after</i> the photograph appears and recalling the correct names of the people in the photographs, form a sentence describing the interaction. You do not need to capitalise names.</p><p>Type your answer in the space provided. Please complete every sentence before moving onto the next trial.</p><p>You will only have a few seconds to memorise each given photograph and phrase before you can respond, so try your best to focus.</p><p>An example is given below. Press 'Continue' when you are ready.</p><img src='img/speaking_example_v2.jpg' style='width:800px;height:460px;''></img>",0,html-button-response,21,185648,0.0-4.0,70165,List2B,black,man,,,,,,,,
1933,"<p>Before the experiment starts, you will watch two example trials. Press 'Continue'.</p>",0,html-button-response,22,188583,0.0-5.0,70165,List2B,black,man,,,,,,,,
null,<img src='img/speaking_WW.gif'></img>,,html-keyboard-response,23,191587,0.0-6.0,70165,List2B,black,man,,,,null,,,,
null,<p>is speaking to</p>,,html-keyboard-response,24,193587,0.0-7.0,70165,List2B,black,man,,,,null,,,,
7458,<p><b>Answer:</b> jane is speaking to ruth</p>,0,html-button-response,25,201047,0.0-8.0,70165,List2B,black,man,,,,,,,,
null,<img src='img/pointing_BM.gif'></img>,,html-keyboard-response,26,204050,0.0-9.0,70165,List2B,black,man,,,,null,,,,
null,<p>are pointing at each other</p>,,html-keyboard-response,27,206051,0.0-10.0,70165,List2B,black,man,,,,null,,,,
31731,<p><b>Answer:</b> fred and mike are pointing at each other</p>,0,html-button-response,28,237783,0.0-11.0,70165,List2B,black,man,,,,,,,,
26262,"<p>Ready to start the experiment?</p><br><p><strong>Remember to describe the picture using a full sentence,</strong></p><p><strong>that combines the names of the people with the given phrase.</strong></p><p><strong>If you do not do this correctly you will not be paid.</strong></p><p><strong> You do not need to capitalise names or use punctuation.</strong></p><br><p>Press 'Continue' to begin.</p>",0,html-button-response,29,265048,0.0-12.0,70165,List2B,black,man,,,,,,,,
null,"<div style=""font-size:60px;"">+</div>",,html-keyboard-response,30,266552,0.0-13.0-0.0,70165,List2B,black,man,,,,null,,,,
null,"<img src=""stim_listB/hug2.gif""</stim_listB>",,html-keyboard-response,31,268554,0.0-13.0-1.0,70165,List2B,black,man,,,,null,,,,
null,are hugging each other,,html-keyboard-response,32,270555,0.0-13.0-2.0,70165,List2B,black,man,,,,null,,,,
26074,,,survey-text,33,296632,0.0-13.0-3.0,70165,List2B,black,man,,,,,"{""Q0"":""you are hugging each other ""}","<img src=""stim_listB/hug2.gif""</stim_listB>",are hugging each other,
null,"<div style=""font-size:60px;"">+</div>",,html-keyboard-response,34,297135,0.0-13.0-0.1,70165,List2B,black,man,,,,null,,,,
null,"<img src=""stim_listB/argue8.gif""</stim_listB>",,html-keyboard-response,35,299136,0.0-13.0-1.1,70165,List2B,black,man,,,,null,,,,
null,are arguing with each other,,html-keyboard-response,36,301137,0.0-13.0-2.1,70165,List2B,black,man,,,,null,,,,
42028,,,survey-text,37,343165,0.0-13.0-3.1,70165,List2B,black,man,,,,,"{""Q0"":""are arguing with each other""}","<img src=""stim_listB/argue8.gif""</stim_listB>",are arguing with each other,
null,"<div style=""font-size:60px;"">+</div>",,html-keyboard-response,38,343667,0.0-13.0-0.2,70165,List2B,black,man,,,,null,,,,
null,"<img src=""stim_listB/fight3.gif""</stim_listB>",,html-keyboard-response,39,345669,0.0-13.0-1.2,70165,List2B,black,man,,,,null,,,,
null,is fighting,,html-keyboard-response,40,347670,0.0-13.0-2.2,70165,List2B,black,man,,,,null,,,,
24833,,,survey-text,41,372503,0.0-13.0-3.2,70165,List2B,black,man,,,,,"{""Q0"":""is fighting ""}","<img src=""stim_listB/fight3.gif""</stim_listB>",is fighting,
null,"<div style=""font-size:60px;"">+</div>",,html-keyboard-response,42,373005,0.0-13.0-0.3,70165,List2B,black,man,,,,null,,,,
null,"<img src=""stim_listB/fight5.gif""</stim_listB>",,html-keyboard-response,43,375007,0.0-13.0-1.3,70165,List2B,black,man,,,,null,,,,
null,is fighting,,html-keyboard-response,44,377008,0.0-13.0-2.3,70165,List2B,black,man,,,,null,,,,
10565,,,survey-text,45,387574,0.0-13.0-3.3,70165,List2B,black,man,,,,,"{""Q0"":""is fighting""}","<img src=""stim_listB/fight5.gif""</stim_listB>",is fighting,
null,"<div style=""font-size:60px;"">+</div>",,html-keyboard-response,46,388076,0.0-13.0-0.4,70165,List2B,black,man,,,,null,,,,
null,"<img src=""stim_listB/meet8.gif""</stim_listB>",,html-keyboard-response,47,390078,0.0-13.0-1.4,70165,List2B,black,man,,,,null,,,,
null,are meeting each other,,html-keyboard-response,48,392080,0.0-13.0-2.4,70165,List2B,black,man,,,,null,,,,
16516,,,survey-text,49,408598,0.0-13.0-3.4,70165,List2B,black,man,,,,,"{""Q0"":""are meeting each other""}","<img src=""stim_listB/meet8.gif""</stim_listB>",are meeting each other,
null,"<div style=""font-size:60px;"">+</div>",,html-keyboard-response,50,409100,0.0-13.0-0.5,70165,List2B,black,man,,,,null,,,,
null,"<img src=""stim_listB/meet2.gif""</stim_listB>",,html-keyboard-response,51,411102,0.0-13.0-1.5,70165,List2B,black,man,,,,null,,,,
null,are meeting each other,,html-keyboard-response,52,413104,0.0-13.0-2.5,70165,List2B,black,man,,,,null,,,,
6549,,,survey-text,53,419654,0.0-13.0-3.5,70165,List2B,black,man,,,,,"{""Q0"":""are meeting each other""}","<img src=""stim_listB/meet2.gif""</stim_listB>",are meeting each other,
null,"<div style=""font-size:60px;"">+</div>",,html-keyboard-response,54,420156,0.0-13.0-0.6,70165,List2B,black,man,,,,null,,,,
null,"<img src=""stim_listB/meet7.gif""</stim_listB>",,html-keyboard-response,55,422158,0.0-13.0-1.6,70165,List2B,black,man,,,,null,,,,
null,is meeting,,html-keyboard-response,56,424159,0.0-13.0-2.6,70165,List2B,black,man,,,,null,,,,
4869,,,survey-text,57,429031,0.0-13.0-3.6,70165,List2B,black,man,,,,,"{""Q0"":""is meeting""}","<img src=""stim_listB/meet7.gif""</stim_listB>",is meeting,
null,"<div style=""font-size:60px;"">+</div>",,html-keyboard-response,58,429534,0.0-13.0-0.7,70165,List2B,black,man,,,,null,,,,
null,"<img src=""stim_listB/touch5.gif""</stim_listB>",,html-keyboard-response,59,431536,0.0-13.0-1.7,70165,List2B,black,man,,,,null,,,,
null,is touching,,html-keyboard-response,60,433537,0.0-13.0-2.7,70165,List2B,black,man,,,,null,,,,
62555,,,survey-text,61,496092,0.0-13.0-3.7,70165,List2B,black,man,,,,,"{""Q0"":""is touching""}","<img src=""stim_listB/touch5.gif""</stim_listB>",is touching,
null,"<div style=""font-size:60px;"">+</div>",,html-keyboard-response,62,496595,0.0-13.0-0.8,70165,List2B,black,man,,,,null,,,,
null,"<img src=""stim_listB/shout4.gif""</stim_listB>",,html-keyboard-response,63,498597,0.0-13.0-1.8,70165,List2B,black,man,,,,null,,,,
null,are shouting at each other,,html-keyboard-response,64,500599,0.0-13.0-2.8,70165,List2B,black,man,,,,null,,,,
34253,,,survey-text,65,534854,0.0-13.0-3.8,70165,List2B,black,man,,,,,"{""Q0"":""are shouting at each other""}","<img src=""stim_listB/shout4.gif""</stim_listB>",are shouting at each other,
null,"<div style=""font-size:60px;"">+</div>",,html-keyboard-response,66,535358,0.0-13.0-0.9,70165,List2B,black,man,,,,null,,,,
null,"<img src=""stim_listB/fight4.gif""</stim_listB>",,html-keyboard-response,67,537360,0.0-13.0-1.9,70165,List2B,black,man,,,,null,,,,
null,are fighting each other,,html-keyboard-response,68,539361,0.0-13.0-2.9,70165,List2B,black,man,,,,null,,,,
17090,,,survey-text,69,556453,0.0-13.0-3.9,70165,List2B,black,man,,,,,"{""Q0"":""are fighting each other ""}","<img src=""stim_listB/fight4.gif""</stim_listB>",are fighting each other,
null,"<div style=""font-size:60px;"">+</div>",,html-keyboard-response,70,556955,0.0-13.0-0.10,70165,List2B,black,man,,,,null,,,,
null,"<img src=""stim_listB/marry6.gif""</stim_listB>",,html-keyboard-response,71,558957,0.0-13.0-1.10,70165,List2B,black,man,,,,null,,,,
null,are marrying each other,,html-keyboard-response,72,560958,0.0-13.0-2.10,70165,List2B,black,man,,,,null,,,,
17237,,,survey-text,73,578197,0.0-13.0-3.10,70165,List2B,black,man,,,,,"{""Q0"":""are marrying each other""}","<img src=""stim_listB/marry6.gif""</stim_listB>",are marrying each other,
null,"<div style=""font-size:60px;"">+</div>",,html-keyboard-response,74,578699,0.0-13.0-0.11,70165,List2B,black,man,,,,null,,,,
null,"<img src=""stim_listB/fight2.gif""</stim_listB>",,html-keyboard-response,75,580701,0.0-13.0-1.11,70165,List2B,black,man,,,,null,,,,
null,are fighting each other,,html-keyboard-response,76,582702,0.0-13.0-2.11,70165,List2B,black,man,,,,null,,,,
11286,,,survey-text,77,593988,0.0-13.0-3.11,70165,List2B,black,man,,,,,"{""Q0"":""are fighting each other ""}","<img src=""stim_listB/fight2.gif""</stim_listB>",are fighting each other,
null,"<div style=""font-size:60px;"">+</div>",,html-keyboard-response,78,594491,0.0-13.0-0.12,70165,List2B,black,man,,,,null,,,,
null,"<img src=""stim_listB/dance7.gif""</stim_listB>",,html-keyboard-response,79,596497,0.0-13.0-1.12,70165,List2B,black,man,,,,null,,,,
null,is dancing with,,html-keyboard-response,80,598498,0.0-13.0-2.12,70165,List2B,black,man,,,,null,,,,
9017,,,survey-text,81,607517,0.0-13.0-3.12,70165,List2B,black,man,,,,,"{""Q0"":""is dancing each other""}","<img src=""stim_listB/dance7.gif""</stim_listB>",is dancing with,
null,"<div style=""font-size:60px;"">+</div>",,html-keyboard-response,82,608019,0.0-13.0-0.13,70165,List2B,black,man,,,,null,,,,
null,"<img src=""stim_listB/touch4.gif""</stim_listB>",,html-keyboard-response,83,610021,0.0-13.0-1.13,70165,List2B,black,man,,,,null,,,,
null,are touching each other,,html-keyboard-response,84,612022,0.0-13.0-2.13,70165,List2B,black,man,,,,null,,,,
7165,,,survey-text,85,619188,0.0-13.0-3.13,70165,List2B,black,man,,,,,"{""Q0"":""are touching each other ""}","<img src=""stim_listB/touch4.gif""</stim_listB>",are touching each other,
null,"<div style=""font-size:60px;"">+</div>",,html-keyboard-response,86,619690,0.0-13.0-0.14,70165,List2B,black,man,,,,null,,,,
null,"<img src=""stim_listB/talk7.gif""</stim_listB>",,html-keyboard-response,87,621692,0.0-13.0-1.14,70165,List2B,black,man,,,,null,,,,
null,is talking to,,html-keyboard-response,88,623694,0.0-13.0-2.14,70165,List2B,black,man,,,,null,,,,
15644,,,survey-text,89,639340,0.0-13.0-3.14,70165,List2B,black,man,,,,,"{""Q0"":""is talking to each other""}","<img src=""stim_listB/talk7.gif""</stim_listB>",is talking to,
null,"<div style=""font-size:60px;"">+</div>",,html-keyboard-response,90,639842,0.0-13.0-0.15,70165,List2B,black,man,,,,null,,,,
null,"<img src=""stim_listB/marry1.gif""</stim_listB>",,html-keyboard-response,91,641845,0.0-13.0-1.15,70165,List2B,black,man,,,,null,,,,
null,is marrying,,html-keyboard-response,92,643846,0.0-13.0-2.15,70165,List2B,black,man,,,,null,,,,
11740,,,survey-text,93,655588,0.0-13.0-3.15,70165,List2B,black,man,,,,,"{""Q0"":""is marrying""}","<img src=""stim_listB/marry1.gif""</stim_listB>",is marrying,
null,"<div style=""font-size:60px;"">+</div>",,html-keyboard-response,94,656090,0.0-13.0-0.16,70165,List2B,black,man,,,,null,,,,
null,"<img src=""stim_listB/meet3.gif""</stim_listB>",,html-keyboard-response,95,658092,0.0-13.0-1.16,70165,List2B,black,man,,,,null,,,,
null,is meeting,,html-keyboard-response,96,660093,0.0-13.0-2.16,70165,List2B,black,man,,,,null,,,,
3453,,,survey-text,97,663548,0.0-13.0-3.16,70165,List2B,black,man,,,,,"{""Q0"":""is meeting""}","<img src=""stim_listB/meet3.gif""</stim_listB>",is meeting,
null,"<div style=""font-size:60px;"">+</div>",,html-keyboard-response,98,664051,0.0-13.0-0.17,70165,List2B,black,man,,,,null,,,,
null,"<img src=""stim_listB/marry3.gif""</stim_listB>",,html-keyboard-response,99,666052,0.0-13.0-1.17,70165,List2B,black,man,,,,null,,,,
null,is marrying,,html-keyboard-response,100,668053,0.0-13.0-2.17,70165,List2B,black,man,,,,null,,,,
7253,,,survey-text,101,675308,0.0-13.0-3.17,70165,List2B,black,man,,,,,"{""Q0"":""is marrying""}","<img src=""stim_listB/marry3.gif""</stim_listB>",is marrying,
null,"<div style=""font-size:60px;"">+</div>",,html-keyboard-response,102,675810,0.0-13.0-0.18,70165,List2B,black,man,,,,null,,,,
null,"<img src=""stim_listB/touch7.gif""</stim_listB>",,html-keyboard-response,103,677812,0.0-13.0-1.18,70165,List2B,black,man,,,,null,,,,
null,is touching,,html-keyboard-response,104,679813,0.0-13.0-2.18,70165,List2B,black,man,,,,null,,,,
8629,,,survey-text,105,688444,0.0-13.0-3.18,70165,List2B,black,man,,,,,"{""Q0"":""is touching""}","<img src=""stim_listB/touch7.gif""</stim_listB>",is touching,
null,"<div style=""font-size:60px;"">+</div>",,html-keyboard-response,106,688946,0.0-13.0-0.19,70165,List2B,black,man,,,,null,,,,
null,"<img src=""stim_listB/dance3.gif""</stim_listB>",,html-keyboard-response,107,690948,0.0-13.0-1.19,70165,List2B,black,man,,,,null,,,,
null,is dancing with,,html-keyboard-response,108,692949,0.0-13.0-2.19,70165,List2B,black,man,,,,null,,,,
15957,,,survey-text,109,708907,0.0-13.0-3.19,70165,List2B,black,man,,,,,"{""Q0"":""is dancing with ""}","<img src=""stim_listB/dance3.gif""</stim_listB>",is dancing with,
17302,"<img src='img/portrait_matrix_list2.JPG' style='width:900px;height:500px;''></img><p>If you have memorised all the portraits and names and are ready to start, press Continue.</p><p><strong>Please note: Your memory of these faces will be tested 4 times during this experiment.</strong></p>",0,html-button-response,110,726212,0.0-14.0-0.0,70165,List2B,black,man,,,,,,,,
6181,"<img src=""portrait/BM1.jpg""style=""width:400px;height:400px;""></img>",4,html-button-response,111,733396,0.0-14.0-1.0,70165,List2B,black,man,,TRUE,4,,,,,
null,CORRECT,,html-keyboard-response,112,734900,0.0-14.0-2.0-0.0,70165,List2B,black,man,,,,null,,,,
6278,"<img src=""portrait/BW1.jpg""style=""width:400px;height:400px;""></img>",0,html-button-response,113,741180,0.0-14.0-4.0,70165,List2B,black,man,,TRUE,0,,,,,
null,CORRECT,,html-keyboard-response,114,742683,0.0-14.0-5.0-0.0,70165,List2B,black,man,,,,null,,,,
4694,"<img src=""portrait/WM2.jpg""style=""width:400px;height:400px;""></img>",7,html-button-response,115,747380,0.0-14.0-7.0,70165,List2B,black,man,,TRUE,7,,,,,
null,CORRECT,,html-keyboard-response,116,748883,0.0-14.0-8.0-0.0,70165,List2B,black,man,,,,null,,,,
3246,"<img src=""portrait/BW2.jpg""style=""width:400px;height:400px;""></img>",2,html-button-response,117,752131,0.0-14.0-10.0,70165,List2B,black,man,,TRUE,2,,,,,
null,CORRECT,,html-keyboard-response,118,753634,0.0-14.0-11.0-0.0,70165,List2B,black,man,,,,null,,,,
9919,"<img src=""portrait/WM1.jpg""style=""width:400px;height:400px;""></img>",6,html-button-response,119,763555,0.0-14.0-13.0,70165,List2B,black,man,,TRUE,6,,,,,
null,CORRECT,,html-keyboard-response,120,765059,0.0-14.0-14.0-0.0,70165,List2B,black,man,,,,null,,,,
4054,"<img src=""portrait/BM2.jpg""style=""width:400px;height:400px;""></img>",5,html-button-response,121,769115,0.0-14.0-16.0,70165,List2B,black,man,,TRUE,5,,,,,
null,CORRECT,,html-keyboard-response,122,770618,0.0-14.0-17.0-0.0,70165,List2B,black,man,,,,null,,,,
4872,"<img src=""portrait/WW1.jpg""style=""width:400px;height:400px;""></img>",1,html-button-response,123,775492,0.0-14.0-19.0,70165,List2B,black,man,,TRUE,1,,,,,
null,CORRECT,,html-keyboard-response,124,776995,0.0-14.0-20.0-0.0,70165,List2B,black,man,,,,null,,,,
5310,"<img src=""portrait/WW2.jpg""style=""width:400px;height:400px;""></img>",3,html-button-response,125,782308,0.0-14.0-22.0,70165,List2B,black,man,,TRUE,3,,,,,
null,CORRECT,,html-keyboard-response,126,783811,0.0-14.0-23.0-0.0,70165,List2B,black,man,,,,null,,,,
2382,<p>You got 8 out of 8 right first time. Press Continue.</p>,0,html-button-response,127,786195,0.0-14.0-25.0,70165,List2B,black,man,,,,,,,,
null,"<div style=""font-size:60px;"">+</div>",,html-keyboard-response,128,787698,0.0-15.0-0.0,70165,List2B,black,man,,,,null,,,,
null,"<img src=""stim_listB/dance6.gif""</stim_listB>",,html-keyboard-response,129,789700,0.0-15.0-1.0,70165,List2B,black,man,,,,null,,,,
null,are dancing with each other,,html-keyboard-response,130,791701,0.0-15.0-2.0,70165,List2B,black,man,,,,null,,,,
26956,,,survey-text,131,818658,0.0-15.0-3.0,70165,List2B,black,man,,,,,"{""Q0"":""are dancing each other""}","<img src=""stim_listB/dance6.gif""</stim_listB>",are dancing with each other,
null,"<div style=""font-size:60px;"">+</div>",,html-keyboard-response,132,819161,0.0-15.0-0.1,70165,List2B,black,man,,,,null,,,,
null,"<img src=""stim_listB/kiss8.gif""</stim_listB>",,html-keyboard-response,133,821163,0.0-15.0-1.1,70165,List2B,black,man,,,,null,,,,
null,are kissing each other,,html-keyboard-response,134,823164,0.0-15.0-2.1,70165,List2B,black,man,,,,null,,,,
19085,,,survey-text,135,842251,0.0-15.0-3.1,70165,List2B,black,man,,,,,"{""Q0"":""are kissing each other ""}","<img src=""stim_listB/kiss8.gif""</stim_listB>",are kissing each other,
null,"<div style=""font-size:60px;"">+</div>",,html-keyboard-response,136,842754,0.0-15.0-0.2,70165,List2B,black,man,,,,null,,,,
null,"<img src=""stim_listB/kiss4.gif""</stim_listB>",,html-keyboard-response,137,844756,0.0-15.0-1.2,70165,List2B,black,man,,,,null,,,,
null,are kissing each other,,html-keyboard-response,138,846757,0.0-15.0-2.2,70165,List2B,black,man,,,,null,,,,
20828,,,survey-text,139,867587,0.0-15.0-3.2,70165,List2B,black,man,,,,,"{""Q0"":""mike and Kate are kissing each other ""}","<img src=""stim_listB/kiss4.gif""</stim_listB>",are kissing each other,
null,"<div style=""font-size:60px;"">+</div>",,html-keyboard-response,140,868089,0.0-15.0-0.3,70165,List2B,black,man,,,,null,,,,
null,"<img src=""stim_listB/shout6.gif""</stim_listB>",,html-keyboard-response,141,870092,0.0-15.0-1.3,70165,List2B,black,man,,,,null,,,,
null,are shouting at each other,,html-keyboard-response,142,872093,0.0-15.0-2.3,70165,List2B,black,man,,,,null,,,,
27700,,,survey-text,143,899795,0.0-15.0-3.3,70165,List2B,black,man,,,,,"{""Q0"":""mike and Dave are shouting each other""}","<img src=""stim_listB/shout6.gif""</stim_listB>",are shouting at each other,
null,"<div style=""font-size:60px;"">+</div>",,html-keyboard-response,144,900298,0.0-15.0-0.4,70165,List2B,black,man,,,,null,,,,
null,"<img src=""stim_listB/talk4.gif""</stim_listB>",,html-keyboard-response,145,902301,0.0-15.0-1.4,70165,List2B,black,man,,,,null,,,,
null,are talking to each other,,html-keyboard-response,146,904302,0.0-15.0-2.4,70165,List2B,black,man,,,,null,,,,
21802,,,survey-text,147,926106,0.0-15.0-3.4,70165,List2B,black,man,,,,,"{""Q0"":""mike and Beth are talking to each other""}","<img src=""stim_listB/talk4.gif""</stim_listB>",are talking to each other,
null,"<div style=""font-size:60px;"">+</div>",,html-keyboard-response,148,926609,0.0-15.0-0.5,70165,List2B,black,man,,,,null,,,,
null,"<img src=""stim_listB/fight7.gif""</stim_listB>",,html-keyboard-response,149,928611,0.0-15.0-1.5,70165,List2B,black,man,,,,null,,,,
null,is fighting,,html-keyboard-response,150,930612,0.0-15.0-2.5,70165,List2B,black,man,,,,null,,,,
5093,,,survey-text,151,935706,0.0-15.0-3.5,70165,List2B,black,man,,,,,"{""Q0"":""is fighting ""}","<img src=""stim_listB/fight7.gif""</stim_listB>",is fighting,
null,"<div style=""font-size:60px;"">+</div>",,html-keyboard-response,152,936208,0.0-15.0-0.6,70165,List2B,black,man,,,,null,,,,
null,"<img src=""stim_listB/touch3.gif""</stim_listB>",,html-keyboard-response,153,938210,0.0-15.0-1.6,70165,List2B,black,man,,,,null,,,,
null,is touching,,html-keyboard-response,154,940211,0.0-15.0-2.6,70165,List2B,black,man,,,,null,,,,
6357,,,survey-text,155,946570,0.0-15.0-3.6,70165,List2B,black,man,,,,,"{""Q0"":""is touching""}","<img src=""stim_listB/touch3.gif""</stim_listB>",is touching,
null,"<div style=""font-size:60px;"">+</div>",,html-keyboard-response,156,947071,0.0-15.0-0.7,70165,List2B,black,man,,,,null,,,,
null,"<img src=""stim_listB/touch8.gif""</stim_listB>",,html-keyboard-response,157,949073,0.0-15.0-1.7,70165,List2B,black,man,,,,null,,,,
null,are touching each other,,html-keyboard-response,158,951076,0.0-15.0-2.7,70165,List2B,black,man,,,,null,,,,
27974,,,survey-text,159,979051,0.0-15.0-3.7,70165,List2B,black,man,,,,,"{""Q0"":""Beth and Jane are touching each other ""}","<img src=""stim_listB/touch8.gif""</stim_listB>",are touching each other,
null,"<div style=""font-size:60px;"">+</div>",,html-keyboard-response,160,979553,0.0-15.0-0.8,70165,List2B,black,man,,,,null,,,,
null,"<img src=""stim_listB/shout8.gif""</stim_listB>",,html-keyboard-response,161,981555,0.0-15.0-1.8,70165,List2B,black,man,,,,null,,,,
null,are shouting at each other,,html-keyboard-response,162,983556,0.0-15.0-2.8,70165,List2B,black,man,,,,null,,,,
34861,,,survey-text,163,1018418,0.0-15.0-3.8,70165,List2B,black,man,,,,,"{""Q0"":""Kate and Jane are shouting each other ""}","<img src=""stim_listB/shout8.gif""</stim_listB>",are shouting at each other,
null,"<div style=""font-size:60px;"">+</div>",,html-keyboard-response,164,1018920,0.0-15.0-0.9,70165,List2B,black,man,,,,null,,,,
null,"<img src=""stim_listB/dance2.gif""</stim_listB>",,html-keyboard-response,165,1020922,0.0-15.0-1.9,70165,List2B,black,man,,,,null,,,,
null,are dancing with each other,,html-keyboard-response,166,1022923,0.0-15.0-2.9,70165,List2B,black,man,,,,null,,,,
56581,,,survey-text,167,1079506,0.0-15.0-3.9,70165,List2B,black,man,,,,,"{""Q0"":""Dave and Ruth are dancing with each other ""}","<img src=""stim_listB/dance2.gif""</stim_listB>",are dancing with each other,
null,"<div style=""font-size:60px;"">+</div>",,html-keyboard-response,168,1080008,0.0-15.0-0.10,70165,List2B,black,man,,,,null,,,,
null,"<img src=""stim_listB/shout7.gif""</stim_listB>",,html-keyboard-response,169,1082010,0.0-15.0-1.10,70165,List2B,black,man,,,,null,,,,
null,is shouting at,,html-keyboard-response,170,1084011,0.0-15.0-2.10,70165,List2B,black,man,,,,null,,,,
41932,,,survey-text,171,1125945,0.0-15.0-3.10,70165,List2B,black,man,,,,,"{""Q0"":""Beth is shouting  at Jane ""}","<img src=""stim_listB/shout7.gif""</stim_listB>",is shouting at,
null,"<div style=""font-size:60px;"">+</div>",,html-keyboard-response,172,1126447,0.0-15.0-0.11,70165,List2B,black,man,,,,null,,,,
null,"<img src=""stim_listB/marry7.gif""</stim_listB>",,html-keyboard-response,173,1128449,0.0-15.0-1.11,70165,List2B,black,man,,,,null,,,,
null,is marrying,,html-keyboard-response,174,1130451,0.0-15.0-2.11,70165,List2B,black,man,,,,null,,,,
25396,,,survey-text,175,1155849,0.0-15.0-3.11,70165,List2B,black,man,,,,,"{""Q0"":""Beth is dancing with Jane ""}","<img src=""stim_listB/marry7.gif""</stim_listB>",is marrying,
null,"<div style=""font-size:60px;"">+</div>",,html-keyboard-response,176,1156351,0.0-15.0-0.12,70165,List2B,black,man,,,,null,,,,
null,"<img src=""stim_listB/marry5.gif""</stim_listB>",,html-keyboard-response,177,1158353,0.0-15.0-1.12,70165,List2B,black,man,,,,null,,,,
null,is marrying,,html-keyboard-response,178,1160355,0.0-15.0-2.12,70165,List2B,black,man,,,,null,,,,
9148,,,survey-text,179,1169505,0.0-15.0-3.12,70165,List2B,black,man,,,,,"{""Q0"":""is marrying ""}","<img src=""stim_listB/marry5.gif""</stim_listB>",is marrying,
null,"<div style=""font-size:60px;"">+</div>",,html-keyboard-response,180,1170007,0.0-15.0-0.13,70165,List2B,black,man,,,,null,,,,
null,"<img src=""stim_listB/meet4.gif""</stim_listB>",,html-keyboard-response,181,1172009,0.0-15.0-1.13,70165,List2B,black,man,,,,null,,,,
null,are meeting each other,,html-keyboard-response,182,1174010,0.0-15.0-2.13,70165,List2B,black,man,,,,null,,,,
21822,,,survey-text,183,1195833,0.0-15.0-3.13,70165,List2B,black,man,,,,,"{""Q0"":""Fred and Beth are meeting each other""}","<img src=""stim_listB/meet4.gif""</stim_listB>",are meeting each other,
null,"<div style=""font-size:60px;"">+</div>",,html-keyboard-response,184,1196335,0.0-15.0-0.14,70165,List2B,black,man,,,,null,,,,
null,"<img src=""stim_listB/talk3.gif""</stim_listB>",,html-keyboard-response,185,1198338,0.0-15.0-1.14,70165,List2B,black,man,,,,null,,,,
null,is talking to,,html-keyboard-response,186,1200339,0.0-15.0-2.14,70165,List2B,black,man,,,,null,,,,
18884,,,survey-text,187,1219225,0.0-15.0-3.14,70165,List2B,black,man,,,,,"{""Q0"":""Kate is talking to Fred ""}","<img src=""stim_listB/talk3.gif""</stim_listB>",is talking to,
null,"<div style=""font-size:60px;"">+</div>",,html-keyboard-response,188,1219727,0.0-15.0-0.15,70165,List2B,black,man,,,,null,,,,
null,"<img src=""stim_listB/hug7.gif""</stim_listB>",,html-keyboard-response,189,1221729,0.0-15.0-1.15,70165,List2B,black,man,,,,null,,,,
null,is hugging,,html-keyboard-response,190,1223730,0.0-15.0-2.15,70165,List2B,black,man,,,,null,,,,
23404,,,survey-text,191,1247136,0.0-15.0-3.15,70165,List2B,black,man,,,,,"{""Q0"":""Beth is hugging Kate ""}","<img src=""stim_listB/hug7.gif""</stim_listB>",is hugging,
null,"<div style=""font-size:60px;"">+</div>",,html-keyboard-response,192,1247638,0.0-15.0-0.16,70165,List2B,black,man,,,,null,,,,
null,"<img src=""stim_listB/shout2.gif""</stim_listB>",,html-keyboard-response,193,1249640,0.0-15.0-1.16,70165,List2B,black,man,,,,null,,,,
null,are shouting at each other,,html-keyboard-response,194,1251641,0.0-15.0-2.16,70165,List2B,black,man,,,,null,,,,
34949,,,survey-text,195,1286592,0.0-15.0-3.16,70165,List2B,black,man,,,,,"{""Q0"":""Dave and Jane are shouting at each other ""}","<img src=""stim_listB/shout2.gif""</stim_listB>",are shouting at each other,
null,"<div style=""font-size:60px;"">+</div>",,html-keyboard-response,196,1287094,0.0-15.0-0.17,70165,List2B,black,man,,,,null,,,,
null,"<img src=""stim_listB/talk2.gif""</stim_listB>",,html-keyboard-response,197,1289096,0.0-15.0-1.17,70165,List2B,black,man,,,,null,,,,
null,are talking to each other,,html-keyboard-response,198,1291098,0.0-15.0-2.17,70165,List2B,black,man,,,,null,,,,
23355,,,survey-text,199,1314455,0.0-15.0-3.17,70165,List2B,black,man,,,,,"{""Q0"":""Dave and Jane are talking to each other ""}","<img src=""stim_listB/talk2.gif""</stim_listB>",are talking to each other,
null,"<div style=""font-size:60px;"">+</div>",,html-keyboard-response,200,1314958,0.0-15.0-0.18,70165,List2B,black,man,,,,null,,,,
null,"<img src=""stim_listB/hug4.gif""</stim_listB>",,html-keyboard-response,201,1316960,0.0-15.0-1.18,70165,List2B,black,man,,,,null,,,,
null,are hugging each other,,html-keyboard-response,202,1318962,0.0-15.0-2.18,70165,List2B,black,man,,,,null,,,,
24835,,,survey-text,203,1343799,0.0-15.0-3.18,70165,List2B,black,man,,,,,"{""Q0"":""mike and kate are hugging each other ""}","<img src=""stim_listB/hug4.gif""</stim_listB>",are hugging each other,
null,"<div style=""font-size:60px;"">+</div>",,html-keyboard-response,204,1344302,0.0-15.0-0.19,70165,List2B,black,man,,,,null,,,,
null,"<img src=""stim_listB/fight8.gif""</stim_listB>",,html-keyboard-response,205,1346304,0.0-15.0-1.19,70165,List2B,black,man,,,,null,,,,
null,are fighting each other,,html-keyboard-response,206,1348306,0.0-15.0-2.19,70165,List2B,black,man,,,,null,,,,
30268,,,survey-text,207,1378575,0.0-15.0-3.19,70165,List2B,black,man,,,,,"{""Q0"":""Beth and Ruth are fighting each other ""}","<img src=""stim_listB/fight8.gif""</stim_listB>",are fighting each other,
59564,"<img src='img/portrait_matrix_list2.JPG' style='width:900px;height:500px;''></img><p>If you have memorised all the portraits and names and are ready to start, press Continue.</p><p><strong>Please note: Your memory of these faces will be tested 4 times during this experiment.</strong></p>",0,html-button-response,208,1438142,0.0-16.0-0.0,70165,List2B,black,man,,,,,,,,
5140,"<img src=""portrait/BM1.jpg""style=""width:400px;height:400px;""></img>",4,html-button-response,209,1444287,0.0-16.0-1.0,70165,List2B,black,man,,TRUE,4,,,,,
null,CORRECT,,html-keyboard-response,210,1445790,0.0-16.0-2.0-0.0,70165,List2B,black,man,,,,null,,,,
4871,"<img src=""portrait/BW1.jpg""style=""width:400px;height:400px;""></img>",0,html-button-response,211,1450663,0.0-16.0-4.0,70165,List2B,black,man,,TRUE,0,,,,,
null,CORRECT,,html-keyboard-response,212,1452167,0.0-16.0-5.0-0.0,70165,List2B,black,man,,,,null,,,,
4246,"<img src=""portrait/BW2.jpg""style=""width:400px;height:400px;""></img>",2,html-button-response,213,1456415,0.0-16.0-7.0,70165,List2B,black,man,,TRUE,2,,,,,
null,CORRECT,,html-keyboard-response,214,1457918,0.0-16.0-8.0-0.0,70165,List2B,black,man,,,,null,,,,
3271,"<img src=""portrait/WW1.jpg""style=""width:400px;height:400px;""></img>",1,html-button-response,215,1461191,0.0-16.0-10.0,70165,List2B,black,man,,TRUE,1,,,,,
null,CORRECT,,html-keyboard-response,216,1462694,0.0-16.0-11.0-0.0,70165,List2B,black,man,,,,null,,,,
2542,"<img src=""portrait/WW2.jpg""style=""width:400px;height:400px;""></img>",3,html-button-response,217,1465240,0.0-16.0-13.0,70165,List2B,black,man,,TRUE,3,,,,,
null,CORRECT,,html-keyboard-response,218,1466742,0.0-16.0-14.0-0.0,70165,List2B,black,man,,,,null,,,,
4566,"<img src=""portrait/WM2.jpg""style=""width:400px;height:400px;""></img>",7,html-button-response,219,1471311,0.0-16.0-16.0,70165,List2B,black,man,,TRUE,7,,,,,
null,CORRECT,,html-keyboard-response,220,1472815,0.0-16.0-17.0-0.0,70165,List2B,black,man,,,,null,,,,
5285,"<img src=""portrait/WM1.jpg""style=""width:400px;height:400px;""></img>",6,html-button-response,221,1478103,0.0-16.0-19.0,70165,List2B,black,man,,TRUE,6,,,,,
null,CORRECT,,html-keyboard-response,222,1479607,0.0-16.0-20.0-0.0,70165,List2B,black,man,,,,null,,,,
3757,"<img src=""portrait/BM2.jpg""style=""width:400px;height:400px;""></img>",5,html-button-response,223,1483367,0.0-16.0-22.0,70165,List2B,black,man,,TRUE,5,,,,,
null,CORRECT,,html-keyboard-response,224,1484872,0.0-16.0-23.0-0.0,70165,List2B,black,man,,,,null,,,,
2636,<p>You got 8 out of 8 right first time. Press Continue.</p>,0,html-button-response,225,1487510,0.0-16.0-25.0,70165,List2B,black,man,,,,,,,,
null,"<div style=""font-size:60px;"">+</div>",,html-keyboard-response,226,1489014,0.0-17.0-0.0,70165,List2B,black,man,,,,null,,,,
null,"<img src=""stim_listB/hug3.gif""</stim_listB>",,html-keyboard-response,227,1491016,0.0-17.0-1.0,70165,List2B,black,man,,,,null,,,,
null,is hugging,,html-keyboard-response,228,1493018,0.0-17.0-2.0,70165,List2B,black,man,,,,null,,,,
23554,,,survey-text,229,1516574,0.0-17.0-3.0,70165,List2B,black,man,,,,,"{""Q0"":""Beth is hugging Fred ""}","<img src=""stim_listB/hug3.gif""</stim_listB>",is hugging,
null,"<div style=""font-size:60px;"">+</div>",,html-keyboard-response,230,1517075,0.0-17.0-0.1,70165,List2B,black,man,,,,null,,,,
null,"<img src=""stim_listB/talk5.gif""</stim_listB>",,html-keyboard-response,231,1519078,0.0-17.0-1.1,70165,List2B,black,man,,,,null,,,,
null,is talking to,,html-keyboard-response,232,1521079,0.0-17.0-2.1,70165,List2B,black,man,,,,null,,,,
14100,,,survey-text,233,1535182,0.0-17.0-3.1,70165,List2B,black,man,,,,,"{""Q0"":""Luke is talking to mike ""}","<img src=""stim_listB/talk5.gif""</stim_listB>",is talking to,
null,"<div style=""font-size:60px;"">+</div>",,html-keyboard-response,234,1535684,0.0-17.0-0.2,70165,List2B,black,man,,,,null,,,,
null,"<img src=""stim_listB/dance8.gif""</stim_listB>",,html-keyboard-response,235,1537686,0.0-17.0-1.2,70165,List2B,black,man,,,,null,,,,
null,are dancing with each other,,html-keyboard-response,236,1539688,0.0-17.0-2.2,70165,List2B,black,man,,,,null,,,,
27045,,,survey-text,237,1566736,0.0-17.0-3.2,70165,List2B,black,man,,,,,"{""Q0"":""Jane and Beth are dancing with each other ""}","<img src=""stim_listB/dance8.gif""</stim_listB>",are dancing with each other,
null,"<div style=""font-size:60px;"">+</div>",,html-keyboard-response,238,1567239,0.0-17.0-0.3,70165,List2B,black,man,,,,null,,,,
null,"<img src=""stim_listB/argue5.gif""</stim_listB>",,html-keyboard-response,239,1569241,0.0-17.0-1.3,70165,List2B,black,man,,,,null,,,,
null,is arguing with,,html-keyboard-response,240,1571243,0.0-17.0-2.3,70165,List2B,black,man,,,,null,,,,
30497,,,survey-text,241,1601741,0.0-17.0-3.3,70165,List2B,black,man,,,,,"{""Q0"":""Dave is arguing with Fred ""}","<img src=""stim_listB/argue5.gif""</stim_listB>",is arguing with,
null,"<div style=""font-size:60px;"">+</div>",,html-keyboard-response,242,1602244,0.0-17.0-0.4,70165,List2B,black,man,,,,null,,,,
null,"<img src=""stim_listB/marry8.gif""</stim_listB>",,html-keyboard-response,243,1604246,0.0-17.0-1.4,70165,List2B,black,man,,,,null,,,,
null,are marrying each other,,html-keyboard-response,244,1606248,0.0-17.0-2.4,70165,List2B,black,man,,,,null,,,,
13116,,,survey-text,245,1619365,0.0-17.0-3.4,70165,List2B,black,man,,,,,"{""Q0"":""are marring with each other""}","<img src=""stim_listB/marry8.gif""</stim_listB>",are marrying each other,
null,"<div style=""font-size:60px;"">+</div>",,html-keyboard-response,246,1619867,0.0-17.0-0.5,70165,List2B,black,man,,,,null,,,,
null,"<img src=""stim_listB/shout5.gif""</stim_listB>",,html-keyboard-response,247,1621870,0.0-17.0-1.5,70165,List2B,black,man,,,,null,,,,
null,is shouting at,,html-keyboard-response,248,1623871,0.0-17.0-2.5,70165,List2B,black,man,,,,null,,,,
7692,,,survey-text,249,1631565,0.0-17.0-3.5,70165,List2B,black,man,,,,,"{""Q0"":""is shouting at""}","<img src=""stim_listB/shout5.gif""</stim_listB>",is shouting at,
null,"<div style=""font-size:60px;"">+</div>",,html-keyboard-response,250,1632068,0.0-17.0-0.6,70165,List2B,black,man,,,,null,,,,
null,"<img src=""stim_listB/dance4.gif""</stim_listB>",,html-keyboard-response,251,1634070,0.0-17.0-1.6,70165,List2B,black,man,,,,null,,,,
null,are dancing with each other,,html-keyboard-response,252,1636072,0.0-17.0-2.6,70165,List2B,black,man,,,,null,,,,
11387,,,survey-text,253,1647461,0.0-17.0-3.6,70165,List2B,black,man,,,,,"{""Q0"":""are dancing with each other""}","<img src=""stim_listB/dance4.gif""</stim_listB>",are dancing with each other,
null,"<div style=""font-size:60px;"">+</div>",,html-keyboard-response,254,1647965,0.0-17.0-0.7,70165,List2B,black,man,,,,null,,,,
null,"<img src=""stim_listB/talk1.gif""</stim_listB>",,html-keyboard-response,255,1649967,0.0-17.0-1.7,70165,List2B,black,man,,,,null,,,,
null,is talking to,,html-keyboard-response,256,1651969,0.0-17.0-2.7,70165,List2B,black,man,,,,null,,,,
17668,,,survey-text,257,1669640,0.0-17.0-3.7,70165,List2B,black,man,,,,,"{""Q0"":""is talking to ""}","<img src=""stim_listB/talk1.gif""</stim_listB>",is talking to,
null,"<div style=""font-size:60px;"">+</div>",,html-keyboard-response,258,1670142,0.0-17.0-0.8,70165,List2B,black,man,,,,null,,,,
null,"<img src=""stim_listB/shout3.gif""</stim_listB>",,html-keyboard-response,259,1672145,0.0-17.0-1.8,70165,List2B,black,man,,,,null,,,,
null,is shouting at,,html-keyboard-response,260,1674147,0.0-17.0-2.8,70165,List2B,black,man,,,,null,,,,
17360,,,survey-text,261,1691509,0.0-17.0-3.8,70165,List2B,black,man,,,,,"{""Q0"":""Beth is shouting at Fred ""}","<img src=""stim_listB/shout3.gif""</stim_listB>",is shouting at,
null,"<div style=""font-size:60px;"">+</div>",,html-keyboard-response,262,1692012,0.0-17.0-0.9,70165,List2B,black,man,,,,null,,,,
null,"<img src=""stim_listB/argue4.gif""</stim_listB>",,html-keyboard-response,263,1694014,0.0-17.0-1.9,70165,List2B,black,man,,,,null,,,,
null,are arguing with each other,,html-keyboard-response,264,1696016,0.0-17.0-2.9,70165,List2B,black,man,,,,null,,,,
25451,,,survey-text,265,1721468,0.0-17.0-3.9,70165,List2B,black,man,,,,,"{""Q0"":""Kate and Fred are arguing with each other""}","<img src=""stim_listB/argue4.gif""</stim_listB>",are arguing with each other,
null,"<div style=""font-size:60px;"">+</div>",,html-keyboard-response,266,1721971,0.0-17.0-0.10,70165,List2B,black,man,,,,null,,,,
null,"<img src=""stim_listB/fight6.gif""</stim_listB>",,html-keyboard-response,267,1723973,0.0-17.0-1.10,70165,List2B,black,man,,,,null,,,,
null,are fighting each other,,html-keyboard-response,268,1725975,0.0-17.0-2.10,70165,List2B,black,man,,,,null,,,,
19188,,,survey-text,269,1745164,0.0-17.0-3.10,70165,List2B,black,man,,,,,"{""Q0"":""Luke and Fred are fighting each other""}","<img src=""stim_listB/fight6.gif""</stim_listB>",are fighting each other,
null,"<div style=""font-size:60px;"">+</div>",,html-keyboard-response,270,1745666,0.0-17.0-0.11,70165,List2B,black,man,,,,null,,,,
null,"<img src=""stim_listB/argue1.gif""</stim_listB>",,html-keyboard-response,271,1747669,0.0-17.0-1.11,70165,List2B,black,man,,,,null,,,,
null,is arguing with,,html-keyboard-response,272,1749670,0.0-17.0-2.11,70165,List2B,black,man,,,,null,,,,
23052,,,survey-text,273,1772724,0.0-17.0-3.11,70165,List2B,black,man,,,,,"{""Q0"":""Dave is arguing with Ruth ""}","<img src=""stim_listB/argue1.gif""</stim_listB>",is arguing with,
null,"<div style=""font-size:60px;"">+</div>",,html-keyboard-response,274,1773226,0.0-17.0-0.12,70165,List2B,black,man,,,,null,,,,
null,"<img src=""stim_listB/hug1.gif""</stim_listB>",,html-keyboard-response,275,1775228,0.0-17.0-1.12,70165,List2B,black,man,,,,null,,,,
null,is hugging,,html-keyboard-response,276,1777229,0.0-17.0-2.12,70165,List2B,black,man,,,,null,,,,
16278,,,survey-text,277,1793507,0.0-17.0-3.12,70165,List2B,black,man,,,,,"{""Q0"":""Luke is hugging Ruth""}","<img src=""stim_listB/hug1.gif""</stim_listB>",is hugging,
null,"<div style=""font-size:60px;"">+</div>",,html-keyboard-response,278,1794009,0.0-17.0-0.13,70165,List2B,black,man,,,,null,,,,
null,"<img src=""stim_listB/argue7.gif""</stim_listB>",,html-keyboard-response,279,1796012,0.0-17.0-1.13,70165,List2B,black,man,,,,null,,,,
null,is arguing with,,html-keyboard-response,280,1798014,0.0-17.0-2.13,70165,List2B,black,man,,,,null,,,,
33109,,,survey-text,281,1831124,0.0-17.0-3.13,70165,List2B,black,man,,,,,"{""Q0"":""Beth is arguing with Jane ""}","<img src=""stim_listB/argue7.gif""</stim_listB>",is arguing with,
null,"<div style=""font-size:60px;"">+</div>",,html-keyboard-response,282,1831626,0.0-17.0-0.14,70165,List2B,black,man,,,,null,,,,
null,"<img src=""stim_listB/talk6.gif""</stim_listB>",,html-keyboard-response,283,1833628,0.0-17.0-1.14,70165,List2B,black,man,,,,null,,,,
null,are talking to each other,,html-keyboard-response,284,1835630,0.0-17.0-2.14,70165,List2B,black,man,,,,null,,,,
21773,,,survey-text,285,1857404,0.0-17.0-3.14,70165,List2B,black,man,,,,,"{""Q0"":""Dave and Fred are talking to each other ""}","<img src=""stim_listB/talk6.gif""</stim_listB>",are talking to each other,
null,"<div style=""font-size:60px;"">+</div>",,html-keyboard-response,286,1857906,0.0-17.0-0.15,70165,List2B,black,man,,,,null,,,,
null,"<img src=""stim_listB/marry4.gif""</stim_listB>",,html-keyboard-response,287,1859909,0.0-17.0-1.15,70165,List2B,black,man,,,,null,,,,
null,are marrying each other,,html-keyboard-response,288,1861911,0.0-17.0-2.15,70165,List2B,black,man,,,,null,,,,
16628,,,survey-text,289,1878540,0.0-17.0-3.15,70165,List2B,black,man,,,,,"{""Q0"":""Fred and Kate are marrying each other ""}","<img src=""stim_listB/marry4.gif""</stim_listB>",are marrying each other,
null,"<div style=""font-size:60px;"">+</div>",,html-keyboard-response,290,1879042,0.0-17.0-0.16,70165,List2B,black,man,,,,null,,,,
null,"<img src=""stim_listB/shout1.gif""</stim_listB>",,html-keyboard-response,291,1881044,0.0-17.0-1.16,70165,List2B,black,man,,,,null,,,,
null,is shouting at,,html-keyboard-response,292,1883046,0.0-17.0-2.16,70165,List2B,black,man,,,,null,,,,
30613,,,survey-text,293,1913660,0.0-17.0-3.16,70165,List2B,black,man,,,,,"{""Q0"":""Luke is shouting at Ruth ""}","<img src=""stim_listB/shout1.gif""</stim_listB>",is shouting at,
null,"<div style=""font-size:60px;"">+</div>",,html-keyboard-response,294,1914162,0.0-17.0-0.17,70165,List2B,black,man,,,,null,,,,
null,"<img src=""stim_listB/meet6.gif""</stim_listB>",,html-keyboard-response,295,1916164,0.0-17.0-1.17,70165,List2B,black,man,,,,null,,,,
null,are meeting each other,,html-keyboard-response,296,1918165,0.0-17.0-2.17,70165,List2B,black,man,,,,null,,,,
13725,,,survey-text,297,1931892,0.0-17.0-3.17,70165,List2B,black,man,,,,,"{""Q0"":""Fred and Luke are meeting each other ""}","<img src=""stim_listB/meet6.gif""</stim_listB>",are meeting each other,
null,"<div style=""font-size:60px;"">+</div>",,html-keyboard-response,298,1932395,0.0-17.0-0.18,70165,List2B,black,man,,,,null,,,,
null,"<img src=""stim_listB/meet5.gif""</stim_listB>",,html-keyboard-response,299,1934397,0.0-17.0-1.18,70165,List2B,black,man,,,,null,,,,
null,is meeting,,html-keyboard-response,300,1936398,0.0-17.0-2.18,70165,List2B,black,man,,,,null,,,,
11516,,,survey-text,301,1947915,0.0-17.0-3.18,70165,List2B,black,man,,,,,"{""Q0"":""Dave is meeting mike ""}","<img src=""stim_listB/meet5.gif""</stim_listB>",is meeting,
null,"<div style=""font-size:60px;"">+</div>",,html-keyboard-response,302,1948418,0.0-17.0-0.19,70165,List2B,black,man,,,,null,,,,
null,"<img src=""stim_listB/touch2.gif""</stim_listB>",,html-keyboard-response,303,1950419,0.0-17.0-1.19,70165,List2B,black,man,,,,null,,,,
null,are touching each other,,html-keyboard-response,304,1952421,0.0-17.0-2.19,70165,List2B,black,man,,,,null,,,,
24636,,,survey-text,305,1977059,0.0-17.0-3.19,70165,List2B,black,man,,,,,"{""Q0"":""Luke and Jane are touching each other ""}","<img src=""stim_listB/touch2.gif""</stim_listB>",are touching each other,
10950,"<img src='img/portrait_matrix_list2.JPG' style='width:900px;height:500px;''></img><p>If you have memorised all the portraits and names and are ready to start, press Continue.</p><p><strong>Please note: Your memory of these faces will be tested 4 times during this experiment.</strong></p>",0,html-button-response,306,1988011,0.0-18.0-0.0,70165,List2B,black,man,,,,,,,,
2364,"<img src=""portrait/WM1.jpg""style=""width:400px;height:400px;""></img>",6,html-button-response,307,1991380,0.0-18.0-1.0,70165,List2B,black,man,,TRUE,6,,,,,
null,CORRECT,,html-keyboard-response,308,1992883,0.0-18.0-2.0-0.0,70165,List2B,black,man,,,,null,,,,
5701,"<img src=""portrait/WW1.jpg""style=""width:400px;height:400px;""></img>",1,html-button-response,309,1998588,0.0-18.0-4.0,70165,List2B,black,man,,TRUE,1,,,,,
null,CORRECT,,html-keyboard-response,310,2000090,0.0-18.0-5.0-0.0,70165,List2B,black,man,,,,null,,,,
4111,"<img src=""portrait/BW1.jpg""style=""width:400px;height:400px;""></img>",0,html-button-response,311,2004203,0.0-18.0-7.0,70165,List2B,black,man,,TRUE,0,,,,,
null,CORRECT,,html-keyboard-response,312,2005707,0.0-18.0-8.0-0.0,70165,List2B,black,man,,,,null,,,,
2198,"<img src=""portrait/BW2.jpg""style=""width:400px;height:400px;""></img>",2,html-button-response,313,2007907,0.0-18.0-10.0,70165,List2B,black,man,,TRUE,2,,,,,
null,CORRECT,,html-keyboard-response,314,2009411,0.0-18.0-11.0-0.0,70165,List2B,black,man,,,,null,,,,
3005,"<img src=""portrait/WW2.jpg""style=""width:400px;height:400px;""></img>",3,html-button-response,315,2012419,0.0-18.0-13.0,70165,List2B,black,man,,TRUE,3,,,,,
null,CORRECT,,html-keyboard-response,316,2013922,0.0-18.0-14.0-0.0,70165,List2B,black,man,,,,null,,,,
2343,"<img src=""portrait/BM2.jpg""style=""width:400px;height:400px;""></img>",5,html-button-response,317,2016267,0.0-18.0-16.0,70165,List2B,black,man,,TRUE,5,,,,,
null,CORRECT,,html-keyboard-response,318,2017770,0.0-18.0-17.0-0.0,70165,List2B,black,man,,,,null,,,,
3647,"<img src=""portrait/BM1.jpg""style=""width:400px;height:400px;""></img>",4,html-button-response,319,2021419,0.0-18.0-19.0,70165,List2B,black,man,,TRUE,4,,,,,
null,CORRECT,,html-keyboard-response,320,2022923,0.0-18.0-20.0-0.0,70165,List2B,black,man,,,,null,,,,
1198,"<img src=""portrait/WM2.jpg""style=""width:400px;height:400px;""></img>",7,html-button-response,321,2024123,0.0-18.0-22.0,70165,List2B,black,man,,TRUE,7,,,,,
null,CORRECT,,html-keyboard-response,322,2025626,0.0-18.0-23.0-0.0,70165,List2B,black,man,,,,null,,,,
1534,<p>You got 8 out of 8 right first time. Press Continue.</p>,0,html-button-response,323,2027162,0.0-18.0-25.0,70165,List2B,black,man,,,,,,,,
null,"<div style=""font-size:60px;"">+</div>",,html-keyboard-response,324,2028666,0.0-19.0-0.0,70165,List2B,black,man,,,,null,,,,
null,"<img src=""stim_listB/kiss1.gif""</stim_listB>",,html-keyboard-response,325,2030669,0.0-19.0-1.0,70165,List2B,black,man,,,,null,,,,
null,is kissing,,html-keyboard-response,326,2032670,0.0-19.0-2.0,70165,List2B,black,man,,,,null,,,,
27946,,,survey-text,327,2060618,0.0-19.0-3.0,70165,List2B,black,man,,,,,"{""Q0"":""Luke is kissing Ruth ""}","<img src=""stim_listB/kiss1.gif""</stim_listB>",is kissing,
null,"<div style=""font-size:60px;"">+</div>",,html-keyboard-response,328,2061121,0.0-19.0-0.1,70165,List2B,black,man,,,,null,,,,
null,"<img src=""stim_listB/touch1.gif""</stim_listB>",,html-keyboard-response,329,2063123,0.0-19.0-1.1,70165,List2B,black,man,,,,null,,,,
null,is touching,,html-keyboard-response,330,2065124,0.0-19.0-2.1,70165,List2B,black,man,,,,null,,,,
21660,,,survey-text,331,2086786,0.0-19.0-3.1,70165,List2B,black,man,,,,,"{""Q0"":""Dave is touching Jane ""}","<img src=""stim_listB/touch1.gif""</stim_listB>",is touching,
null,"<div style=""font-size:60px;"">+</div>",,html-keyboard-response,332,2087288,0.0-19.0-0.2,70165,List2B,black,man,,,,null,,,,
null,"<img src=""stim_listB/hug6.gif""</stim_listB>",,html-keyboard-response,333,2089290,0.0-19.0-1.2,70165,List2B,black,man,,,,null,,,,
null,are hugging each other,,html-keyboard-response,334,2091292,0.0-19.0-2.2,70165,List2B,black,man,,,,null,,,,
14829,,,survey-text,335,2106123,0.0-19.0-3.2,70165,List2B,black,man,,,,,"{""Q0"":""mike and Dave are hugging each other ""}","<img src=""stim_listB/hug6.gif""</stim_listB>",are hugging each other,
null,"<div style=""font-size:60px;"">+</div>",,html-keyboard-response,336,2106625,0.0-19.0-0.3,70165,List2B,black,man,,,,null,,,,
null,"<img src=""stim_listB/fight1.gif""</stim_listB>",,html-keyboard-response,337,2108627,0.0-19.0-1.3,70165,List2B,black,man,,,,null,,,,
null,is fighting,,html-keyboard-response,338,2110629,0.0-19.0-2.3,70165,List2B,black,man,,,,null,,,,
21803,,,survey-text,339,2132434,0.0-19.0-3.3,70165,List2B,black,man,,,,,"{""Q0"":""Dave is fighting  Jane""}","<img src=""stim_listB/fight1.gif""</stim_listB>",is fighting,
null,"<div style=""font-size:60px;"">+</div>",,html-keyboard-response,340,2132942,0.0-19.0-0.4,70165,List2B,black,man,,,,null,,,,
null,"<img src=""stim_listB/marry2.gif""</stim_listB>",,html-keyboard-response,341,2134947,0.0-19.0-1.4,70165,List2B,black,man,,,,null,,,,
null,are marrying each other,,html-keyboard-response,342,2136948,0.0-19.0-2.4,70165,List2B,black,man,,,,null,,,,
17458,,,survey-text,343,2154409,0.0-19.0-3.4,70165,List2B,black,man,,,,,"{""Q0"":""Luke and Jane are marrying each other ""}","<img src=""stim_listB/marry2.gif""</stim_listB>",are marrying each other,
null,"<div style=""font-size:60px;"">+</div>",,html-keyboard-response,344,2154911,0.0-19.0-0.5,70165,List2B,black,man,,,,null,,,,
null,"<img src=""stim_listB/talk8.gif""</stim_listB>",,html-keyboard-response,345,2156914,0.0-19.0-1.5,70165,List2B,black,man,,,,null,,,,
null,are talking to each other,,html-keyboard-response,346,2158917,0.0-19.0-2.5,70165,List2B,black,man,,,,null,,,,
24435,,,survey-text,347,2183354,0.0-19.0-3.5,70165,List2B,black,man,,,,,"{""Q0"":""Jane and Beth  are talking to each other ""}","<img src=""stim_listB/talk8.gif""</stim_listB>",are talking to each other,
null,"<div style=""font-size:60px;"">+</div>",,html-keyboard-response,348,2183856,0.0-19.0-0.6,70165,List2B,black,man,,,,null,,,,
null,"<img src=""stim_listB/kiss6.gif""</stim_listB>",,html-keyboard-response,349,2185859,0.0-19.0-1.6,70165,List2B,black,man,,,,null,,,,
null,are kissing each other,,html-keyboard-response,350,2187861,0.0-19.0-2.6,70165,List2B,black,man,,,,null,,,,
11915,,,survey-text,351,2199777,0.0-19.0-3.6,70165,List2B,black,man,,,,,"{""Q0"":""mike and Dave are kissing each other ""}","<img src=""stim_listB/kiss6.gif""</stim_listB>",are kissing each other,
null,"<div style=""font-size:60px;"">+</div>",,html-keyboard-response,352,2200279,0.0-19.0-0.7,70165,List2B,black,man,,,,null,,,,
null,"<img src=""stim_listB/touch6.gif""</stim_listB>",,html-keyboard-response,353,2202282,0.0-19.0-1.7,70165,List2B,black,man,,,,null,,,,
null,are touching each other,,html-keyboard-response,354,2204283,0.0-19.0-2.7,70165,List2B,black,man,,,,null,,,,
12692,,,survey-text,355,2216977,0.0-19.0-3.7,70165,List2B,black,man,,,,,"{""Q0"":""Fred and Luke are touching each other ""}","<img src=""stim_listB/touch6.gif""</stim_listB>",are touching each other,
null,"<div style=""font-size:60px;"">+</div>",,html-keyboard-response,356,2217480,0.0-19.0-0.8,70165,List2B,black,man,,,,null,,,,
null,"<img src=""stim_listB/hug5.gif""</stim_listB>",,html-keyboard-response,357,2219482,0.0-19.0-1.8,70165,List2B,black,man,,,,null,,,,
null,is hugging,,html-keyboard-response,358,2221484,0.0-19.0-2.8,70165,List2B,black,man,,,,null,,,,
17147,,,survey-text,359,2238633,0.0-19.0-3.8,70165,List2B,black,man,,,,,"{""Q0"":""Fred is hugging Luke ""}","<img src=""stim_listB/hug5.gif""</stim_listB>",is hugging,
null,"<div style=""font-size:60px;"">+</div>",,html-keyboard-response,360,2239135,0.0-19.0-0.9,70165,List2B,black,man,,,,null,,,,
null,"<img src=""stim_listB/dance5.gif""</stim_listB>",,html-keyboard-response,361,2241137,0.0-19.0-1.9,70165,List2B,black,man,,,,null,,,,
null,is dancing with,,html-keyboard-response,362,2243139,0.0-19.0-2.9,70165,List2B,black,man,,,,null,,,,
9380,,,survey-text,363,2252521,0.0-19.0-3.9,70165,List2B,black,man,,,,,"{""Q0"":""mike is dancing with Luke ""}","<img src=""stim_listB/dance5.gif""</stim_listB>",is dancing with,
null,"<div style=""font-size:60px;"">+</div>",,html-keyboard-response,364,2253023,0.0-19.0-0.10,70165,List2B,black,man,,,,null,,,,
null,"<img src=""stim_listB/hug8.gif""</stim_listB>",,html-keyboard-response,365,2255025,0.0-19.0-1.10,70165,List2B,black,man,,,,null,,,,
null,are hugging each other,,html-keyboard-response,366,2257027,0.0-19.0-2.10,70165,List2B,black,man,,,,null,,,,
20587,,,survey-text,367,2277615,0.0-19.0-3.10,70165,List2B,black,man,,,,,"{""Q0"":""kate and Jane are hugging each other ""}","<img src=""stim_listB/hug8.gif""</stim_listB>",are hugging each other,
null,"<div style=""font-size:60px;"">+</div>",,html-keyboard-response,368,2278117,0.0-19.0-0.11,70165,List2B,black,man,,,,null,,,,
null,"<img src=""stim_listB/kiss3.gif""</stim_listB>",,html-keyboard-response,369,2280120,0.0-19.0-1.11,70165,List2B,black,man,,,,null,,,,
null,is kissing,,html-keyboard-response,370,2282121,0.0-19.0-2.11,70165,List2B,black,man,,,,null,,,,
8702,,,survey-text,371,2290825,0.0-19.0-3.11,70165,List2B,black,man,,,,,"{""Q0"":""Fred is kissing Beth""}","<img src=""stim_listB/kiss3.gif""</stim_listB>",is kissing,
null,"<div style=""font-size:60px;"">+</div>",,html-keyboard-response,372,2291327,0.0-19.0-0.12,70165,List2B,black,man,,,,null,,,,
null,"<img src=""stim_listB/argue2.gif""</stim_listB>",,html-keyboard-response,373,2293329,0.0-19.0-1.12,70165,List2B,black,man,,,,null,,,,
null,are arguing with each other,,html-keyboard-response,374,2295331,0.0-19.0-2.12,70165,List2B,black,man,,,,null,,,,
23356,,,survey-text,375,2318689,0.0-19.0-3.12,70165,List2B,black,man,,,,,"{""Q0"":""Luke and Jane are arguing with each other ""}","<img src=""stim_listB/argue2.gif""</stim_listB>",are arguing with each other,
null,"<div style=""font-size:60px;"">+</div>",,html-keyboard-response,376,2319191,0.0-19.0-0.13,70165,List2B,black,man,,,,null,,,,
null,"<img src=""stim_listB/dance1.gif""</stim_listB>",,html-keyboard-response,377,2321195,0.0-19.0-1.13,70165,List2B,black,man,,,,null,,,,
null,is dancing with,,html-keyboard-response,378,2323197,0.0-19.0-2.13,70165,List2B,black,man,,,,null,,,,
10706,,,survey-text,379,2333905,0.0-19.0-3.13,70165,List2B,black,man,,,,,"{""Q0"":""luke is dancing with jane""}","<img src=""stim_listB/dance1.gif""</stim_listB>",is dancing with,
null,"<div style=""font-size:60px;"">+</div>",,html-keyboard-response,380,2334407,0.0-19.0-0.14,70165,List2B,black,man,,,,null,,,,
null,"<img src=""stim_listB/kiss7.gif""</stim_listB>",,html-keyboard-response,381,2336409,0.0-19.0-1.14,70165,List2B,black,man,,,,null,,,,
null,is kissing,,html-keyboard-response,382,2338411,0.0-19.0-2.14,70165,List2B,black,man,,,,null,,,,
10788,,,survey-text,383,2349201,0.0-19.0-3.14,70165,List2B,black,man,,,,,"{""Q0"":""Beth is kissing Ruth ""}","<img src=""stim_listB/kiss7.gif""</stim_listB>",is kissing,
null,"<div style=""font-size:60px;"">+</div>",,html-keyboard-response,384,2349703,0.0-19.0-0.15,70165,List2B,black,man,,,,null,,,,
null,"<img src=""stim_listB/kiss2.gif""</stim_listB>",,html-keyboard-response,385,2351705,0.0-19.0-1.15,70165,List2B,black,man,,,,null,,,,
null,are kissing each other,,html-keyboard-response,386,2353707,0.0-19.0-2.15,70165,List2B,black,man,,,,null,,,,
13899,,,survey-text,387,2367608,0.0-19.0-3.15,70165,List2B,black,man,,,,,"{""Q0"":""dave and jane are kissing each other""}","<img src=""stim_listB/kiss2.gif""</stim_listB>",are kissing each other,
null,"<div style=""font-size:60px;"">+</div>",,html-keyboard-response,388,2368111,0.0-19.0-0.16,70165,List2B,black,man,,,,null,,,,
null,"<img src=""stim_listB/meet1.gif""</stim_listB>",,html-keyboard-response,389,2370113,0.0-19.0-1.16,70165,List2B,black,man,,,,null,,,,
null,is meeting,,html-keyboard-response,390,2372115,0.0-19.0-2.16,70165,List2B,black,man,,,,null,,,,
11227,,,survey-text,391,2383344,0.0-19.0-3.16,70165,List2B,black,man,,,,,"{""Q0"":""dave is meeting jane""}","<img src=""stim_listB/meet1.gif""</stim_listB>",is meeting,
null,"<div style=""font-size:60px;"">+</div>",,html-keyboard-response,392,2383847,0.0-19.0-0.17,70165,List2B,black,man,,,,null,,,,
null,"<img src=""stim_listB/argue6.gif""</stim_listB>",,html-keyboard-response,393,2385850,0.0-19.0-1.17,70165,List2B,black,man,,,,null,,,,
null,are arguing with each other,,html-keyboard-response,394,2387852,0.0-19.0-2.17,70165,List2B,black,man,,,,null,,,,
13041,,,survey-text,395,2400895,0.0-19.0-3.17,70165,List2B,black,man,,,,,"{""Q0"":""mike are Luke are arguing with each other ""}","<img src=""stim_listB/argue6.gif""</stim_listB>",are arguing with each other,
null,"<div style=""font-size:60px;"">+</div>",,html-keyboard-response,396,2401397,0.0-19.0-0.18,70165,List2B,black,man,,,,null,,,,
null,"<img src=""stim_listB/kiss5.gif""</stim_listB>",,html-keyboard-response,397,2403399,0.0-19.0-1.18,70165,List2B,black,man,,,,null,,,,
null,is kissing,,html-keyboard-response,398,2405403,0.0-19.0-2.18,70165,List2B,black,man,,,,null,,,,
11236,,,survey-text,399,2416640,0.0-19.0-3.18,70165,List2B,black,man,,,,,"{""Q0"":""fred is kissing luke ""}","<img src=""stim_listB/kiss5.gif""</stim_listB>",is kissing,
null,"<div style=""font-size:60px;"">+</div>",,html-keyboard-response,400,2417142,0.0-19.0-0.19,70165,List2B,black,man,,,,null,,,,
null,"<img src=""stim_listB/argue3.gif""</stim_listB>",,html-keyboard-response,401,2419144,0.0-19.0-1.19,70165,List2B,black,man,,,,null,,,,
null,is arguing with,,html-keyboard-response,402,2421146,0.0-19.0-2.19,70165,List2B,black,man,,,,null,,,,
10244,,,survey-text,403,2431392,0.0-19.0-3.19,70165,List2B,black,man,,,,,"{""Q0"":""mike is arguing with Beth ""}","<img src=""stim_listB/argue3.gif""</stim_listB>",is arguing with,
8901,<p>Thank you for completing that task.</p><p>The final part of this session is a short questionnaire.</p><p>Press Continue.</p>,0,html-button-response,404,2440296,0.0-20.0,70165,List2B,black,man,,,,,,,,
40963,,,survey-text,405,2482265,0.0-21.0,70165,List2B,black,man,,,,,"{""Q0"":""34"",""Q1"":""twi"",""Q2"":""english"",""Q3"":""England"",""Q4"":""black African "",""Q5"":""male""}",,,demographics
84540,,,survey-likert,406,2566816,0.0-22.0,70165,List2B,black,man,,,,,"{""Q0"":5,""Q1"":5,""Q2"":5,""Q3"":5,""Q4"":4,""Q5"":4,""Q6"":3,""Q7"":4,""Q8"":4,""Q9"":4,""Q10"":5,""Q11"":2,""Q12"":5,""Q13"":5}",,,likert_race
82717,,,survey-likert,407,2649571,0.0-23.0,70165,List2B,black,man,,,,,"{""Q0"":5,""Q1"":5,""Q2"":4,""Q3"":5,""Q4"":5,""Q5"":5,""Q6"":6,""Q7"":3,""Q8"":5,""Q9"":5,""Q10"":5,""Q11"":4,""Q12"":5,""Q13"":5}",,,likert_gender
9364,,,survey-text,408,2658974,0.0-24.0,70165,List2B,black,man,,,,,"{""Q0"":""ccc""}",,,worker_id
67205,,,external-html,409,2726294,0.0-25.0,70165,List2B,black,man,debrief.html,,,,,,,
