rt,stimulus,button_pressed,trial_type,trial_index,time_elapsed,internal_node_id,subject,list,ppt_race,ppt_gender,url,first_guess,correct,key_press,responses,image_type,phrase_type,test_part
1970,Welcome to the experiment. Press Continue to begin.,0,html-button-response,0,1973,0.0-0.0,71303,List1B,white,man,,,,,,,,
43289,,,external-html,1,46355,0.0-1.0,71303,List1B,white,man,consent.html,,,,,,,
16971,"<p>On the next page, you will see portraits of 8 people and their names.</p><p>Your first task is to take a few minutes to memorise the names of these people.</p><p>You will have to recall their names during the rest of the experiment, so it is</p><p>essential that you try to memorise these people and their names as best as you can.</p><br><p><strong>You will then be tested on your memory of these names and portraits.</strong></p><br><p>The experiment will start after you have completed this memory test.</p><br><p>Ready?</p>",0,html-button-response,2,63328,0.0-2.0,71303,List1B,white,man,,,,,,,,
87859,"<img src='img/portrait_matrix_list1.JPG' style='width:900px;height:500px;''></img><p>If you have memorised all the portraits and names and are ready to start, press Continue.</p><p><strong>Please note: Your memory of these faces will be tested 4 times during this experiment.</strong></p>",0,html-button-response,3,152190,0.0-3.0-0.0,71303,List1B,white,man,,,,,,,,
8069,"<img src=""portrait/BW2.jpg""style=""width:400px;height:400px;""></img>",2,html-button-response,4,161261,0.0-3.0-1.0,71303,List1B,white,man,,TRUE,2,,,,,
null,CORRECT,,html-keyboard-response,5,162765,0.0-3.0-2.0-0.0,71303,List1B,white,man,,,,null,,,,
4243,"<img src=""portrait/WM2.jpg""style=""width:400px;height:400px;""></img>",7,html-button-response,6,167008,0.0-3.0-4.0,71303,List1B,white,man,,TRUE,7,,,,,
null,CORRECT,,html-keyboard-response,7,168511,0.0-3.0-5.0-0.0,71303,List1B,white,man,,,,null,,,,
2174,"<img src=""portrait/BM2.jpg""style=""width:400px;height:400px;""></img>",5,html-button-response,8,170686,0.0-3.0-7.0,71303,List1B,white,man,,TRUE,5,,,,,
null,CORRECT,,html-keyboard-response,9,172189,0.0-3.0-8.0-0.0,71303,List1B,white,man,,,,null,,,,
3178,"<img src=""portrait/WW2.jpg""style=""width:400px;height:400px;""></img>",3,html-button-response,10,175368,0.0-3.0-10.0,71303,List1B,white,man,,TRUE,3,,,,,
null,CORRECT,,html-keyboard-response,11,176871,0.0-3.0-11.0-0.0,71303,List1B,white,man,,,,null,,,,
2583,"<img src=""portrait/WM1.jpg""style=""width:400px;height:400px;""></img>",6,html-button-response,12,179456,0.0-3.0-13.0,71303,List1B,white,man,,TRUE,6,,,,,
null,CORRECT,,html-keyboard-response,13,180959,0.0-3.0-14.0-0.0,71303,List1B,white,man,,,,null,,,,
4120,"<img src=""portrait/WW1.jpg""style=""width:400px;height:400px;""></img>",1,html-button-response,14,185080,0.0-3.0-16.0,71303,List1B,white,man,,TRUE,1,,,,,
null,CORRECT,,html-keyboard-response,15,186582,0.0-3.0-17.0-0.0,71303,List1B,white,man,,,,null,,,,
7814,"<img src=""portrait/BM1.jpg""style=""width:400px;height:400px;""></img>",4,html-button-response,16,194398,0.0-3.0-19.0,71303,List1B,white,man,,TRUE,4,,,,,
null,CORRECT,,html-keyboard-response,17,195902,0.0-3.0-20.0-0.0,71303,List1B,white,man,,,,null,,,,
6834,"<img src=""portrait/BW1.jpg""style=""width:400px;height:400px;""></img>",0,html-button-response,18,202738,0.0-3.0-22.0,71303,List1B,white,man,,TRUE,0,,,,,
null,CORRECT,,html-keyboard-response,19,204241,0.0-3.0-23.0-0.0,71303,List1B,white,man,,,,null,,,,
1525,<p>You got 8 out of 8 right first time. Press Continue.</p>,0,html-button-response,20,205768,0.0-3.0-25.0,71303,List1B,white,man,,,,,,,,
37601,"<p>In this experiment, you will view photographs of the people from the memory game interacting.</p><p>By using the <strong>exact</strong> phrase given <i>after</i> the photograph appears and recalling the correct names of the people in the photographs, form a sentence describing the interaction. You do not need to capitalise names.</p><p>Type your answer in the space provided. Please complete every sentence before moving onto the next trial.</p><p>You will only have a few seconds to memorise each given photograph and phrase before you can respond, so try your best to focus.</p><p>An example is given below. Press 'Continue' when you are ready.</p><img src='img/speaking_example_v2.jpg' style='width:800px;height:460px;''></img>",0,html-button-response,21,244371,0.0-4.0,71303,List1B,white,man,,,,,,,,
2654,"<p>Before the experiment starts, you will watch two example trials. Press 'Continue'.</p>",0,html-button-response,22,248029,0.0-5.0,71303,List1B,white,man,,,,,,,,
null,<img src='img/speaking_WW.gif'></img>,,html-keyboard-response,23,251033,0.0-6.0,71303,List1B,white,man,,,,null,,,,
null,<p>is speaking to</p>,,html-keyboard-response,24,253035,0.0-7.0,71303,List1B,white,man,,,,null,,,,
3937,<p><b>Answer:</b> kate is speaking to beth</p>,0,html-button-response,25,256973,0.0-8.0,71303,List1B,white,man,,,,,,,,
null,<img src='img/pointing_BM.gif'></img>,,html-keyboard-response,26,259976,0.0-9.0,71303,List1B,white,man,,,,null,,,,
null,<p>are pointing at each other</p>,,html-keyboard-response,27,261978,0.0-10.0,71303,List1B,white,man,,,,null,,,,
5701,<p><b>Answer:</b> luke and dave are pointing at each other</p>,0,html-button-response,28,267680,0.0-11.0,71303,List1B,white,man,,,,,,,,
18455,"<p>Ready to start the experiment?</p><br><p><strong>Remember to describe the picture using a full sentence,</strong></p><p><strong>that combines the names of the people with the given phrase.</strong></p><p><strong>If you do not do this correctly you will not be paid.</strong></p><p><strong> You do not need to capitalise names or use punctuation.</strong></p><br><p>Press 'Continue' to begin.</p>",0,html-button-response,29,287138,0.0-12.0,71303,List1B,white,man,,,,,,,,
null,"<div style=""font-size:60px;"">+</div>",,html-keyboard-response,30,288640,0.0-13.0-0.0,71303,List1B,white,man,,,,null,,,,
null,"<img src=""stim_listB/hug5.gif""</stim_listB>",,html-keyboard-response,31,290642,0.0-13.0-1.0,71303,List1B,white,man,,,,null,,,,
null,is hugging,,html-keyboard-response,32,292644,0.0-13.0-2.0,71303,List1B,white,man,,,,null,,,,
10008,,,survey-text,33,302653,0.0-13.0-3.0,71303,List1B,white,man,,,,,"{""Q0"":""Fred is hugging Luke""}","<img src=""stim_listB/hug5.gif""</stim_listB>",is hugging,
null,"<div style=""font-size:60px;"">+</div>",,html-keyboard-response,34,303155,0.0-13.0-0.1,71303,List1B,white,man,,,,null,,,,
null,"<img src=""stim_listB/fight1.gif""</stim_listB>",,html-keyboard-response,35,305159,0.0-13.0-1.1,71303,List1B,white,man,,,,null,,,,
null,is fighting,,html-keyboard-response,36,307161,0.0-13.0-2.1,71303,List1B,white,man,,,,null,,,,
10508,,,survey-text,37,317670,0.0-13.0-3.1,71303,List1B,white,man,,,,,"{""Q0"":""mike is fighting kate""}","<img src=""stim_listB/fight1.gif""</stim_listB>",is fighting,
null,"<div style=""font-size:60px;"">+</div>",,html-keyboard-response,38,318171,0.0-13.0-0.2,71303,List1B,white,man,,,,null,,,,
null,"<img src=""stim_listB/talk1.gif""</stim_listB>",,html-keyboard-response,39,320174,0.0-13.0-1.2,71303,List1B,white,man,,,,null,,,,
null,is talking to,,html-keyboard-response,40,322175,0.0-13.0-2.2,71303,List1B,white,man,,,,null,,,,
7754,,,survey-text,41,329930,0.0-13.0-3.2,71303,List1B,white,man,,,,,"{""Q0"":""Fred is talking to Kate""}","<img src=""stim_listB/talk1.gif""</stim_listB>",is talking to,
null,"<div style=""font-size:60px;"">+</div>",,html-keyboard-response,42,330432,0.0-13.0-0.3,71303,List1B,white,man,,,,null,,,,
null,"<img src=""stim_listB/shout2.gif""</stim_listB>",,html-keyboard-response,43,332434,0.0-13.0-1.3,71303,List1B,white,man,,,,null,,,,
null,are shouting at each other,,html-keyboard-response,44,334435,0.0-13.0-2.3,71303,List1B,white,man,,,,null,,,,
11209,,,survey-text,45,345644,0.0-13.0-3.3,71303,List1B,white,man,,,,,"{""Q0"":""Mike and Kate are shouting at each other""}","<img src=""stim_listB/shout2.gif""</stim_listB>",are shouting at each other,
null,"<div style=""font-size:60px;"">+</div>",,html-keyboard-response,46,346146,0.0-13.0-0.4,71303,List1B,white,man,,,,null,,,,
null,"<img src=""stim_listB/talk5.gif""</stim_listB>",,html-keyboard-response,47,348149,0.0-13.0-1.4,71303,List1B,white,man,,,,null,,,,
null,is talking to,,html-keyboard-response,48,350150,0.0-13.0-2.4,71303,List1B,white,man,,,,null,,,,
9772,,,survey-text,49,359924,0.0-13.0-3.4,71303,List1B,white,man,,,,,"{""Q0"":""Fred is talking to dave""}","<img src=""stim_listB/talk5.gif""</stim_listB>",is talking to,
null,"<div style=""font-size:60px;"">+</div>",,html-keyboard-response,50,360425,0.0-13.0-0.5,71303,List1B,white,man,,,,null,,,,
null,"<img src=""stim_listB/shout1.gif""</stim_listB>",,html-keyboard-response,51,362428,0.0-13.0-1.5,71303,List1B,white,man,,,,null,,,,
null,is shouting at,,html-keyboard-response,52,364429,0.0-13.0-2.5,71303,List1B,white,man,,,,null,,,,
9718,,,survey-text,53,374148,0.0-13.0-3.5,71303,List1B,white,man,,,,,"{""Q0"":""Beth is shouting at fred""}","<img src=""stim_listB/shout1.gif""</stim_listB>",is shouting at,
null,"<div style=""font-size:60px;"">+</div>",,html-keyboard-response,54,374649,0.0-13.0-0.6,71303,List1B,white,man,,,,null,,,,
null,"<img src=""stim_listB/marry1.gif""</stim_listB>",,html-keyboard-response,55,376651,0.0-13.0-1.6,71303,List1B,white,man,,,,null,,,,
null,is marrying,,html-keyboard-response,56,378655,0.0-13.0-2.6,71303,List1B,white,man,,,,null,,,,
9042,,,survey-text,57,387697,0.0-13.0-3.6,71303,List1B,white,man,,,,,"{""Q0"":""mike is marrying beth""}","<img src=""stim_listB/marry1.gif""</stim_listB>",is marrying,
null,"<div style=""font-size:60px;"">+</div>",,html-keyboard-response,58,388198,0.0-13.0-0.7,71303,List1B,white,man,,,,null,,,,
null,"<img src=""stim_listB/shout7.gif""</stim_listB>",,html-keyboard-response,59,390201,0.0-13.0-1.7,71303,List1B,white,man,,,,null,,,,
null,is shouting at,,html-keyboard-response,60,392202,0.0-13.0-2.7,71303,List1B,white,man,,,,null,,,,
10421,,,survey-text,61,402623,0.0-13.0-3.7,71303,List1B,white,man,,,,,"{""Q0"":""beth is shouting at ruth""}","<img src=""stim_listB/shout7.gif""</stim_listB>",is shouting at,
null,"<div style=""font-size:60px;"">+</div>",,html-keyboard-response,62,403124,0.0-13.0-0.8,71303,List1B,white,man,,,,null,,,,
null,"<img src=""stim_listB/fight5.gif""</stim_listB>",,html-keyboard-response,63,405126,0.0-13.0-1.8,71303,List1B,white,man,,,,null,,,,
null,is fighting,,html-keyboard-response,64,407127,0.0-13.0-2.8,71303,List1B,white,man,,,,null,,,,
6818,,,survey-text,65,413945,0.0-13.0-3.8,71303,List1B,white,man,,,,,"{""Q0"":""mike is fighting dave""}","<img src=""stim_listB/fight5.gif""</stim_listB>",is fighting,
null,"<div style=""font-size:60px;"">+</div>",,html-keyboard-response,66,414448,0.0-13.0-0.9,71303,List1B,white,man,,,,null,,,,
null,"<img src=""stim_listB/kiss2.gif""</stim_listB>",,html-keyboard-response,67,416450,0.0-13.0-1.9,71303,List1B,white,man,,,,null,,,,
null,are kissing each other,,html-keyboard-response,68,418452,0.0-13.0-2.9,71303,List1B,white,man,,,,null,,,,
8973,,,survey-text,69,427426,0.0-13.0-3.9,71303,List1B,white,man,,,,,"{""Q0"":""mike and kate are kissing each other""}","<img src=""stim_listB/kiss2.gif""</stim_listB>",are kissing each other,
null,"<div style=""font-size:60px;"">+</div>",,html-keyboard-response,70,427928,0.0-13.0-0.10,71303,List1B,white,man,,,,null,,,,
null,"<img src=""stim_listB/talk3.gif""</stim_listB>",,html-keyboard-response,71,429929,0.0-13.0-1.10,71303,List1B,white,man,,,,null,,,,
null,is talking to,,html-keyboard-response,72,431930,0.0-13.0-2.10,71303,List1B,white,man,,,,null,,,,
13977,,,survey-text,73,445908,0.0-13.0-3.10,71303,List1B,white,man,,,,,"{""Q0"":""Luke is talking to jane""}","<img src=""stim_listB/talk3.gif""</stim_listB>",is talking to,
null,"<div style=""font-size:60px;"">+</div>",,html-keyboard-response,74,446410,0.0-13.0-0.11,71303,List1B,white,man,,,,null,,,,
null,"<img src=""stim_listB/hug2.gif""</stim_listB>",,html-keyboard-response,75,448411,0.0-13.0-1.11,71303,List1B,white,man,,,,null,,,,
null,are hugging each other,,html-keyboard-response,76,450412,0.0-13.0-2.11,71303,List1B,white,man,,,,null,,,,
11640,,,survey-text,77,462053,0.0-13.0-3.11,71303,List1B,white,man,,,,,"{""Q0"":""Mike and Kate are hugging each other""}","<img src=""stim_listB/hug2.gif""</stim_listB>",are hugging each other,
null,"<div style=""font-size:60px;"">+</div>",,html-keyboard-response,78,462555,0.0-13.0-0.12,71303,List1B,white,man,,,,null,,,,
null,"<img src=""stim_listB/kiss7.gif""</stim_listB>",,html-keyboard-response,79,464557,0.0-13.0-1.12,71303,List1B,white,man,,,,null,,,,
null,is kissing,,html-keyboard-response,80,466559,0.0-13.0-2.12,71303,List1B,white,man,,,,null,,,,
13682,,,survey-text,81,480242,0.0-13.0-3.12,71303,List1B,white,man,,,,,"{""Q0"":""Beth is kissing Ruth""}","<img src=""stim_listB/kiss7.gif""</stim_listB>",is kissing,
null,"<div style=""font-size:60px;"">+</div>",,html-keyboard-response,82,480744,0.0-13.0-0.13,71303,List1B,white,man,,,,null,,,,
null,"<img src=""stim_listB/shout6.gif""</stim_listB>",,html-keyboard-response,83,482745,0.0-13.0-1.13,71303,List1B,white,man,,,,null,,,,
null,are shouting at each other,,html-keyboard-response,84,484747,0.0-13.0-2.13,71303,List1B,white,man,,,,null,,,,
10636,,,survey-text,85,495383,0.0-13.0-3.13,71303,List1B,white,man,,,,,"{""Q0"":""Mike and Dave are shouting at each other""}","<img src=""stim_listB/shout6.gif""</stim_listB>",are shouting at each other,
null,"<div style=""font-size:60px;"">+</div>",,html-keyboard-response,86,495885,0.0-13.0-0.14,71303,List1B,white,man,,,,null,,,,
null,"<img src=""stim_listB/argue5.gif""</stim_listB>",,html-keyboard-response,87,497888,0.0-13.0-1.14,71303,List1B,white,man,,,,null,,,,
null,is arguing with,,html-keyboard-response,88,499888,0.0-13.0-2.14,71303,List1B,white,man,,,,null,,,,
7222,,,survey-text,89,507111,0.0-13.0-3.14,71303,List1B,white,man,,,,,"{""Q0"":""Mike is arguing with Luke""}","<img src=""stim_listB/argue5.gif""</stim_listB>",is arguing with,
null,"<div style=""font-size:60px;"">+</div>",,html-keyboard-response,90,507613,0.0-13.0-0.15,71303,List1B,white,man,,,,null,,,,
null,"<img src=""stim_listB/touch7.gif""</stim_listB>",,html-keyboard-response,91,509615,0.0-13.0-1.15,71303,List1B,white,man,,,,null,,,,
null,is touching,,html-keyboard-response,92,511616,0.0-13.0-2.15,71303,List1B,white,man,,,,null,,,,
6488,,,survey-text,93,518105,0.0-13.0-3.15,71303,List1B,white,man,,,,,"{""Q0"":""Kate is touching Jane""}","<img src=""stim_listB/touch7.gif""</stim_listB>",is touching,
null,"<div style=""font-size:60px;"">+</div>",,html-keyboard-response,94,518606,0.0-13.0-0.16,71303,List1B,white,man,,,,null,,,,
null,"<img src=""stim_listB/shout8.gif""</stim_listB>",,html-keyboard-response,95,520607,0.0-13.0-1.16,71303,List1B,white,man,,,,null,,,,
null,are shouting at each other,,html-keyboard-response,96,522609,0.0-13.0-2.16,71303,List1B,white,man,,,,null,,,,
8823,,,survey-text,97,531433,0.0-13.0-3.16,71303,List1B,white,man,,,,,"{""Q0"":""Kate and Jane are shouting at each other""}","<img src=""stim_listB/shout8.gif""</stim_listB>",are shouting at each other,
null,"<div style=""font-size:60px;"">+</div>",,html-keyboard-response,98,531934,0.0-13.0-0.17,71303,List1B,white,man,,,,null,,,,
null,"<img src=""stim_listB/kiss3.gif""</stim_listB>",,html-keyboard-response,99,533936,0.0-13.0-1.17,71303,List1B,white,man,,,,null,,,,
null,is kissing,,html-keyboard-response,100,535938,0.0-13.0-2.17,71303,List1B,white,man,,,,null,,,,
7651,,,survey-text,101,543589,0.0-13.0-3.17,71303,List1B,white,man,,,,,"{""Q0"":""Ruth is kissing Luke""}","<img src=""stim_listB/kiss3.gif""</stim_listB>",is kissing,
null,"<div style=""font-size:60px;"">+</div>",,html-keyboard-response,102,544092,0.0-13.0-0.18,71303,List1B,white,man,,,,null,,,,
null,"<img src=""stim_listB/talk4.gif""</stim_listB>",,html-keyboard-response,103,546095,0.0-13.0-1.18,71303,List1B,white,man,,,,null,,,,
null,are talking to each other,,html-keyboard-response,104,548097,0.0-13.0-2.18,71303,List1B,white,man,,,,null,,,,
16241,,,survey-text,105,564339,0.0-13.0-3.18,71303,List1B,white,man,,,,,"{""Q0"":""dave and ruth are talking to each other""}","<img src=""stim_listB/talk4.gif""</stim_listB>",are talking to each other,
null,"<div style=""font-size:60px;"">+</div>",,html-keyboard-response,106,564840,0.0-13.0-0.19,71303,List1B,white,man,,,,null,,,,
null,"<img src=""stim_listB/meet5.gif""</stim_listB>",,html-keyboard-response,107,566843,0.0-13.0-1.19,71303,List1B,white,man,,,,null,,,,
null,is meeting,,html-keyboard-response,108,568845,0.0-13.0-2.19,71303,List1B,white,man,,,,null,,,,
6373,,,survey-text,109,575220,0.0-13.0-3.19,71303,List1B,white,man,,,,,"{""Q0"":""Dave is meeting Mike""}","<img src=""stim_listB/meet5.gif""</stim_listB>",is meeting,
10453,"<img src='img/portrait_matrix_list1.JPG' style='width:900px;height:500px;''></img><p>If you have memorised all the portraits and names and are ready to start, press Continue.</p><p><strong>Please note: Your memory of these faces will be tested 4 times during this experiment.</strong></p>",0,html-button-response,110,585673,0.0-14.0-0.0,71303,List1B,white,man,,,,,,,,
2229,"<img src=""portrait/WM1.jpg""style=""width:400px;height:400px;""></img>",6,html-button-response,111,588906,0.0-14.0-1.0,71303,List1B,white,man,,TRUE,6,,,,,
null,CORRECT,,html-keyboard-response,112,590409,0.0-14.0-2.0-0.0,71303,List1B,white,man,,,,null,,,,
36447,"<img src=""portrait/BW1.jpg""style=""width:400px;height:400px;""></img>",0,html-button-response,113,626858,0.0-14.0-4.0,71303,List1B,white,man,,TRUE,0,,,,,
null,CORRECT,,html-keyboard-response,114,628360,0.0-14.0-5.0-0.0,71303,List1B,white,man,,,,null,,,,
7583,"<img src=""portrait/WW2.jpg""style=""width:400px;height:400px;""></img>",3,html-button-response,115,635944,0.0-14.0-7.0,71303,List1B,white,man,,TRUE,3,,,,,
null,CORRECT,,html-keyboard-response,116,637447,0.0-14.0-8.0-0.0,71303,List1B,white,man,,,,null,,,,
13607,"<img src=""portrait/WW1.jpg""style=""width:400px;height:400px;""></img>",1,html-button-response,117,651054,0.0-14.0-10.0,71303,List1B,white,man,,TRUE,1,,,,,
null,CORRECT,,html-keyboard-response,118,652556,0.0-14.0-11.0-0.0,71303,List1B,white,man,,,,null,,,,
2127,"<img src=""portrait/WM2.jpg""style=""width:400px;height:400px;""></img>",7,html-button-response,119,654684,0.0-14.0-13.0,71303,List1B,white,man,,TRUE,7,,,,,
null,CORRECT,,html-keyboard-response,120,656186,0.0-14.0-14.0-0.0,71303,List1B,white,man,,,,null,,,,
1740,"<img src=""portrait/BW2.jpg""style=""width:400px;height:400px;""></img>",2,html-button-response,121,657927,0.0-14.0-16.0,71303,List1B,white,man,,TRUE,2,,,,,
null,CORRECT,,html-keyboard-response,122,659431,0.0-14.0-17.0-0.0,71303,List1B,white,man,,,,null,,,,
2083,"<img src=""portrait/BM2.jpg""style=""width:400px;height:400px;""></img>",5,html-button-response,123,661515,0.0-14.0-19.0,71303,List1B,white,man,,TRUE,5,,,,,
null,CORRECT,,html-keyboard-response,124,663019,0.0-14.0-20.0-0.0,71303,List1B,white,man,,,,null,,,,
1389,"<img src=""portrait/BM1.jpg""style=""width:400px;height:400px;""></img>",4,html-button-response,125,664409,0.0-14.0-22.0,71303,List1B,white,man,,TRUE,4,,,,,
null,CORRECT,,html-keyboard-response,126,665911,0.0-14.0-23.0-0.0,71303,List1B,white,man,,,,null,,,,
1247,<p>You got 8 out of 8 right first time. Press Continue.</p>,0,html-button-response,127,667158,0.0-14.0-25.0,71303,List1B,white,man,,,,,,,,
null,"<div style=""font-size:60px;"">+</div>",,html-keyboard-response,128,668660,0.0-15.0-0.0,71303,List1B,white,man,,,,null,,,,
null,"<img src=""stim_listB/dance6.gif""</stim_listB>",,html-keyboard-response,129,670663,0.0-15.0-1.0,71303,List1B,white,man,,,,null,,,,
null,are dancing with each other,,html-keyboard-response,130,672666,0.0-15.0-2.0,71303,List1B,white,man,,,,null,,,,
8559,,,survey-text,131,681225,0.0-15.0-3.0,71303,List1B,white,man,,,,,"{""Q0"":""Mike and Luke are dancing with each other""}","<img src=""stim_listB/dance6.gif""</stim_listB>",are dancing with each other,
null,"<div style=""font-size:60px;"">+</div>",,html-keyboard-response,132,681726,0.0-15.0-0.1,71303,List1B,white,man,,,,null,,,,
null,"<img src=""stim_listB/argue3.gif""</stim_listB>",,html-keyboard-response,133,683728,0.0-15.0-1.1,71303,List1B,white,man,,,,null,,,,
null,is arguing with,,html-keyboard-response,134,685730,0.0-15.0-2.1,71303,List1B,white,man,,,,null,,,,
6440,,,survey-text,135,692171,0.0-15.0-3.1,71303,List1B,white,man,,,,,"{""Q0"":""Dave is arguing with Ruth""}","<img src=""stim_listB/argue3.gif""</stim_listB>",is arguing with,
null,"<div style=""font-size:60px;"">+</div>",,html-keyboard-response,136,692672,0.0-15.0-0.2,71303,List1B,white,man,,,,null,,,,
null,"<img src=""stim_listB/hug6.gif""</stim_listB>",,html-keyboard-response,137,694673,0.0-15.0-1.2,71303,List1B,white,man,,,,null,,,,
null,are hugging each other,,html-keyboard-response,138,696675,0.0-15.0-2.2,71303,List1B,white,man,,,,null,,,,
7528,,,survey-text,139,704204,0.0-15.0-3.2,71303,List1B,white,man,,,,,"{""Q0"":""Dave and Mike are hugging each other""}","<img src=""stim_listB/hug6.gif""</stim_listB>",are hugging each other,
null,"<div style=""font-size:60px;"">+</div>",,html-keyboard-response,140,704705,0.0-15.0-0.3,71303,List1B,white,man,,,,null,,,,
null,"<img src=""stim_listB/dance3.gif""</stim_listB>",,html-keyboard-response,141,706706,0.0-15.0-1.3,71303,List1B,white,man,,,,null,,,,
null,is dancing with,,html-keyboard-response,142,708708,0.0-15.0-2.3,71303,List1B,white,man,,,,null,,,,
8356,,,survey-text,143,717065,0.0-15.0-3.3,71303,List1B,white,man,,,,,"{""Q0"":""Luke is dancing with Jane""}","<img src=""stim_listB/dance3.gif""</stim_listB>",is dancing with,
null,"<div style=""font-size:60px;"">+</div>",,html-keyboard-response,144,717565,0.0-15.0-0.4,71303,List1B,white,man,,,,null,,,,
null,"<img src=""stim_listB/argue7.gif""</stim_listB>",,html-keyboard-response,145,719568,0.0-15.0-1.4,71303,List1B,white,man,,,,null,,,,
null,is arguing with,,html-keyboard-response,146,721569,0.0-15.0-2.4,71303,List1B,white,man,,,,null,,,,
8786,,,survey-text,147,730357,0.0-15.0-3.4,71303,List1B,white,man,,,,,"{""Q0"":""Kate is arguing with Ruth""}","<img src=""stim_listB/argue7.gif""</stim_listB>",is arguing with,
null,"<div style=""font-size:60px;"">+</div>",,html-keyboard-response,148,730859,0.0-15.0-0.5,71303,List1B,white,man,,,,null,,,,
null,"<img src=""stim_listB/touch8.gif""</stim_listB>",,html-keyboard-response,149,732861,0.0-15.0-1.5,71303,List1B,white,man,,,,null,,,,
null,are touching each other,,html-keyboard-response,150,734862,0.0-15.0-2.5,71303,List1B,white,man,,,,null,,,,
9512,,,survey-text,151,744375,0.0-15.0-3.5,71303,List1B,white,man,,,,,"{""Q0"":""Beth and Ruth are touching each other""}","<img src=""stim_listB/touch8.gif""</stim_listB>",are touching each other,
null,"<div style=""font-size:60px;"">+</div>",,html-keyboard-response,152,744876,0.0-15.0-0.6,71303,List1B,white,man,,,,null,,,,
null,"<img src=""stim_listB/fight7.gif""</stim_listB>",,html-keyboard-response,153,746878,0.0-15.0-1.6,71303,List1B,white,man,,,,null,,,,
null,is fighting,,html-keyboard-response,154,748880,0.0-15.0-2.6,71303,List1B,white,man,,,,null,,,,
7998,,,survey-text,155,756878,0.0-15.0-3.6,71303,List1B,white,man,,,,,"{""Q0"":""Jane is fighting Kate""}","<img src=""stim_listB/fight7.gif""</stim_listB>",is fighting,
null,"<div style=""font-size:60px;"">+</div>",,html-keyboard-response,156,757379,0.0-15.0-0.7,71303,List1B,white,man,,,,null,,,,
null,"<img src=""stim_listB/kiss1.gif""</stim_listB>",,html-keyboard-response,157,759381,0.0-15.0-1.7,71303,List1B,white,man,,,,null,,,,
null,is kissing,,html-keyboard-response,158,761383,0.0-15.0-2.7,71303,List1B,white,man,,,,null,,,,
7575,,,survey-text,159,768960,0.0-15.0-3.7,71303,List1B,white,man,,,,,"{""Q0"":""Fred is kissing Beth""}","<img src=""stim_listB/kiss1.gif""</stim_listB>",is kissing,
null,"<div style=""font-size:60px;"">+</div>",,html-keyboard-response,160,769461,0.0-15.0-0.8,71303,List1B,white,man,,,,null,,,,
null,"<img src=""stim_listB/talk2.gif""</stim_listB>",,html-keyboard-response,161,771462,0.0-15.0-1.8,71303,List1B,white,man,,,,null,,,,
null,are talking to each other,,html-keyboard-response,162,773464,0.0-15.0-2.8,71303,List1B,white,man,,,,null,,,,
13258,,,survey-text,163,786723,0.0-15.0-3.8,71303,List1B,white,man,,,,,"{""Q0"":""Mike and Beth are talking to each other""}","<img src=""stim_listB/talk2.gif""</stim_listB>",are talking to each other,
null,"<div style=""font-size:60px;"">+</div>",,html-keyboard-response,164,787226,0.0-15.0-0.9,71303,List1B,white,man,,,,null,,,,
null,"<img src=""stim_listB/fight4.gif""</stim_listB>",,html-keyboard-response,165,789228,0.0-15.0-1.9,71303,List1B,white,man,,,,null,,,,
null,are fighting each other,,html-keyboard-response,166,791229,0.0-15.0-2.9,71303,List1B,white,man,,,,null,,,,
13537,,,survey-text,167,804766,0.0-15.0-3.9,71303,List1B,white,man,,,,,"{""Q0"":""Luke and Ruth are fighting each other""}","<img src=""stim_listB/fight4.gif""</stim_listB>",are fighting each other,
null,"<div style=""font-size:60px;"">+</div>",,html-keyboard-response,168,805268,0.0-15.0-0.10,71303,List1B,white,man,,,,null,,,,
null,"<img src=""stim_listB/marry4.gif""</stim_listB>",,html-keyboard-response,169,807271,0.0-15.0-1.10,71303,List1B,white,man,,,,null,,,,
null,are marrying each other,,html-keyboard-response,170,809272,0.0-15.0-2.10,71303,List1B,white,man,,,,null,,,,
9451,,,survey-text,171,818723,0.0-15.0-3.10,71303,List1B,white,man,,,,,"{""Q0"":""Luke and Jane are marrying each other""}","<img src=""stim_listB/marry4.gif""</stim_listB>",are marrying each other,
null,"<div style=""font-size:60px;"">+</div>",,html-keyboard-response,172,819225,0.0-15.0-0.11,71303,List1B,white,man,,,,null,,,,
null,"<img src=""stim_listB/dance4.gif""</stim_listB>",,html-keyboard-response,173,821226,0.0-15.0-1.11,71303,List1B,white,man,,,,null,,,,
null,are dancing with each other,,html-keyboard-response,174,823228,0.0-15.0-2.11,71303,List1B,white,man,,,,null,,,,
10618,,,survey-text,175,833846,0.0-15.0-3.11,71303,List1B,white,man,,,,,"{""Q0"":""Dave and Ruth are dancing with each other""}","<img src=""stim_listB/dance4.gif""</stim_listB>",are dancing with each other,
null,"<div style=""font-size:60px;"">+</div>",,html-keyboard-response,176,834349,0.0-15.0-0.12,71303,List1B,white,man,,,,null,,,,
null,"<img src=""stim_listB/talk7.gif""</stim_listB>",,html-keyboard-response,177,836350,0.0-15.0-1.12,71303,List1B,white,man,,,,null,,,,
null,is talking to,,html-keyboard-response,178,838352,0.0-15.0-2.12,71303,List1B,white,man,,,,null,,,,
12428,,,survey-text,179,850781,0.0-15.0-3.12,71303,List1B,white,man,,,,,"{""Q0"":""Jane is talking to Beth""}","<img src=""stim_listB/talk7.gif""</stim_listB>",is talking to,
null,"<div style=""font-size:60px;"">+</div>",,html-keyboard-response,180,851282,0.0-15.0-0.13,71303,List1B,white,man,,,,null,,,,
null,"<img src=""stim_listB/meet6.gif""</stim_listB>",,html-keyboard-response,181,853285,0.0-15.0-1.13,71303,List1B,white,man,,,,null,,,,
null,are meeting each other,,html-keyboard-response,182,855287,0.0-15.0-2.13,71303,List1B,white,man,,,,null,,,,
9806,,,survey-text,183,865093,0.0-15.0-3.13,71303,List1B,white,man,,,,,"{""Q0"":""Luke and Mike are talking to each other""}","<img src=""stim_listB/meet6.gif""</stim_listB>",are meeting each other,
null,"<div style=""font-size:60px;"">+</div>",,html-keyboard-response,184,865594,0.0-15.0-0.14,71303,List1B,white,man,,,,null,,,,
null,"<img src=""stim_listB/dance7.gif""</stim_listB>",,html-keyboard-response,185,867597,0.0-15.0-1.14,71303,List1B,white,man,,,,null,,,,
null,is dancing with,,html-keyboard-response,186,869598,0.0-15.0-2.14,71303,List1B,white,man,,,,null,,,,
8117,,,survey-text,187,877715,0.0-15.0-3.14,71303,List1B,white,man,,,,,"{""Q0"":""Jane is dancing with Beth""}","<img src=""stim_listB/dance7.gif""</stim_listB>",is dancing with,
null,"<div style=""font-size:60px;"">+</div>",,html-keyboard-response,188,878218,0.0-15.0-0.15,71303,List1B,white,man,,,,null,,,,
null,"<img src=""stim_listB/touch3.gif""</stim_listB>",,html-keyboard-response,189,880220,0.0-15.0-1.15,71303,List1B,white,man,,,,null,,,,
null,is touching,,html-keyboard-response,190,882222,0.0-15.0-2.15,71303,List1B,white,man,,,,null,,,,
5929,,,survey-text,191,888152,0.0-15.0-3.15,71303,List1B,white,man,,,,,"{""Q0"":""Jane is touching Dave""}","<img src=""stim_listB/touch3.gif""</stim_listB>",is touching,
null,"<div style=""font-size:60px;"">+</div>",,html-keyboard-response,192,888655,0.0-15.0-0.16,71303,List1B,white,man,,,,null,,,,
null,"<img src=""stim_listB/shout5.gif""</stim_listB>",,html-keyboard-response,193,890658,0.0-15.0-1.16,71303,List1B,white,man,,,,null,,,,
null,is shouting at,,html-keyboard-response,194,892658,0.0-15.0-2.16,71303,List1B,white,man,,,,null,,,,
9184,,,survey-text,195,901843,0.0-15.0-3.16,71303,List1B,white,man,,,,,"{""Q0"":""Fred is shouting at Luke""}","<img src=""stim_listB/shout5.gif""</stim_listB>",is shouting at,
null,"<div style=""font-size:60px;"">+</div>",,html-keyboard-response,196,902345,0.0-15.0-0.17,71303,List1B,white,man,,,,null,,,,
null,"<img src=""stim_listB/fight3.gif""</stim_listB>",,html-keyboard-response,197,904347,0.0-15.0-1.17,71303,List1B,white,man,,,,null,,,,
null,is fighting,,html-keyboard-response,198,906348,0.0-15.0-2.17,71303,List1B,white,man,,,,null,,,,
6387,,,survey-text,199,912736,0.0-15.0-3.17,71303,List1B,white,man,,,,,"{""Q0"":""Jane is fighting Dave""}","<img src=""stim_listB/fight3.gif""</stim_listB>",is fighting,
null,"<div style=""font-size:60px;"">+</div>",,html-keyboard-response,200,913238,0.0-15.0-0.18,71303,List1B,white,man,,,,null,,,,
null,"<img src=""stim_listB/touch1.gif""</stim_listB>",,html-keyboard-response,201,915239,0.0-15.0-1.18,71303,List1B,white,man,,,,null,,,,
null,is touching,,html-keyboard-response,202,917241,0.0-15.0-2.18,71303,List1B,white,man,,,,null,,,,
6370,,,survey-text,203,923611,0.0-15.0-3.18,71303,List1B,white,man,,,,,"{""Q0"":""Kate is touching Mike""}","<img src=""stim_listB/touch1.gif""</stim_listB>",is touching,
null,"<div style=""font-size:60px;"">+</div>",,html-keyboard-response,204,924113,0.0-15.0-0.19,71303,List1B,white,man,,,,null,,,,
null,"<img src=""stim_listB/kiss8.gif""</stim_listB>",,html-keyboard-response,205,926115,0.0-15.0-1.19,71303,List1B,white,man,,,,null,,,,
null,are kissing each other,,html-keyboard-response,206,928116,0.0-15.0-2.19,71303,List1B,white,man,,,,null,,,,
9769,,,survey-text,207,937886,0.0-15.0-3.19,71303,List1B,white,man,,,,,"{""Q0"":""Kate and Jane are kissing each other""}","<img src=""stim_listB/kiss8.gif""</stim_listB>",are kissing each other,
7197,"<img src='img/portrait_matrix_list1.JPG' style='width:900px;height:500px;''></img><p>If you have memorised all the portraits and names and are ready to start, press Continue.</p><p><strong>Please note: Your memory of these faces will be tested 4 times during this experiment.</strong></p>",0,html-button-response,208,945084,0.0-16.0-0.0,71303,List1B,white,man,,,,,,,,
2093,"<img src=""portrait/WW1.jpg""style=""width:400px;height:400px;""></img>",1,html-button-response,209,948180,0.0-16.0-1.0,71303,List1B,white,man,,TRUE,1,,,,,
null,CORRECT,,html-keyboard-response,210,949683,0.0-16.0-2.0-0.0,71303,List1B,white,man,,,,null,,,,
1747,"<img src=""portrait/WW2.jpg""style=""width:400px;height:400px;""></img>",3,html-button-response,211,951432,0.0-16.0-4.0,71303,List1B,white,man,,TRUE,3,,,,,
null,CORRECT,,html-keyboard-response,212,952934,0.0-16.0-5.0-0.0,71303,List1B,white,man,,,,null,,,,
1576,"<img src=""portrait/BM1.jpg""style=""width:400px;height:400px;""></img>",4,html-button-response,213,954511,0.0-16.0-7.0,71303,List1B,white,man,,TRUE,4,,,,,
null,CORRECT,,html-keyboard-response,214,956014,0.0-16.0-8.0-0.0,71303,List1B,white,man,,,,null,,,,
1569,"<img src=""portrait/BW2.jpg""style=""width:400px;height:400px;""></img>",2,html-button-response,215,957584,0.0-16.0-10.0,71303,List1B,white,man,,TRUE,2,,,,,
null,CORRECT,,html-keyboard-response,216,959086,0.0-16.0-11.0-0.0,71303,List1B,white,man,,,,null,,,,
1391,"<img src=""portrait/WM2.jpg""style=""width:400px;height:400px;""></img>",7,html-button-response,217,960478,0.0-16.0-13.0,71303,List1B,white,man,,TRUE,7,,,,,
null,CORRECT,,html-keyboard-response,218,961980,0.0-16.0-14.0-0.0,71303,List1B,white,man,,,,null,,,,
2177,"<img src=""portrait/BW1.jpg""style=""width:400px;height:400px;""></img>",0,html-button-response,219,964158,0.0-16.0-16.0,71303,List1B,white,man,,TRUE,0,,,,,
null,CORRECT,,html-keyboard-response,220,965660,0.0-16.0-17.0-0.0,71303,List1B,white,man,,,,null,,,,
2154,"<img src=""portrait/BM2.jpg""style=""width:400px;height:400px;""></img>",5,html-button-response,221,967816,0.0-16.0-19.0,71303,List1B,white,man,,TRUE,5,,,,,
null,CORRECT,,html-keyboard-response,222,969319,0.0-16.0-20.0-0.0,71303,List1B,white,man,,,,null,,,,
1912,"<img src=""portrait/WM1.jpg""style=""width:400px;height:400px;""></img>",6,html-button-response,223,971232,0.0-16.0-22.0,71303,List1B,white,man,,TRUE,6,,,,,
null,CORRECT,,html-keyboard-response,224,972736,0.0-16.0-23.0-0.0,71303,List1B,white,man,,,,null,,,,
1178,<p>You got 8 out of 8 right first time. Press Continue.</p>,0,html-button-response,225,973914,0.0-16.0-25.0,71303,List1B,white,man,,,,,,,,
null,"<div style=""font-size:60px;"">+</div>",,html-keyboard-response,226,975416,0.0-17.0-0.0,71303,List1B,white,man,,,,null,,,,
null,"<img src=""stim_listB/talk6.gif""</stim_listB>",,html-keyboard-response,227,977418,0.0-17.0-1.0,71303,List1B,white,man,,,,null,,,,
null,are talking to each other,,html-keyboard-response,228,979420,0.0-17.0-2.0,71303,List1B,white,man,,,,null,,,,
10513,,,survey-text,229,989935,0.0-17.0-3.0,71303,List1B,white,man,,,,,"{""Q0"":""Mike and luke are talking to each other""}","<img src=""stim_listB/talk6.gif""</stim_listB>",are talking to each other,
null,"<div style=""font-size:60px;"">+</div>",,html-keyboard-response,230,990435,0.0-17.0-0.1,71303,List1B,white,man,,,,null,,,,
null,"<img src=""stim_listB/shout4.gif""</stim_listB>",,html-keyboard-response,231,992438,0.0-17.0-1.1,71303,List1B,white,man,,,,null,,,,
null,are shouting at each other,,html-keyboard-response,232,994439,0.0-17.0-2.1,71303,List1B,white,man,,,,null,,,,
7908,,,survey-text,233,1002347,0.0-17.0-3.1,71303,List1B,white,man,,,,,"{""Q0"":""Jane and Dave are shouting at each other""}","<img src=""stim_listB/shout4.gif""</stim_listB>",are shouting at each other,
null,"<div style=""font-size:60px;"">+</div>",,html-keyboard-response,234,1002848,0.0-17.0-0.2,71303,List1B,white,man,,,,null,,,,
null,"<img src=""stim_listB/argue1.gif""</stim_listB>",,html-keyboard-response,235,1004850,0.0-17.0-1.2,71303,List1B,white,man,,,,null,,,,
null,is arguing with,,html-keyboard-response,236,1006852,0.0-17.0-2.2,71303,List1B,white,man,,,,null,,,,
6042,,,survey-text,237,1012895,0.0-17.0-3.2,71303,List1B,white,man,,,,,"{""Q0"":""Beth is arguing with Mike""}","<img src=""stim_listB/argue1.gif""</stim_listB>",is arguing with,
null,"<div style=""font-size:60px;"">+</div>",,html-keyboard-response,238,1013396,0.0-17.0-0.3,71303,List1B,white,man,,,,null,,,,
null,"<img src=""stim_listB/meet3.gif""</stim_listB>",,html-keyboard-response,239,1015397,0.0-17.0-1.3,71303,List1B,white,man,,,,null,,,,
null,is meeting,,html-keyboard-response,240,1017398,0.0-17.0-2.3,71303,List1B,white,man,,,,null,,,,
4775,,,survey-text,241,1022174,0.0-17.0-3.3,71303,List1B,white,man,,,,,"{""Q0"":""Dave is meeting Jane""}","<img src=""stim_listB/meet3.gif""</stim_listB>",is meeting,
null,"<div style=""font-size:60px;"">+</div>",,html-keyboard-response,242,1022675,0.0-17.0-0.4,71303,List1B,white,man,,,,null,,,,
null,"<img src=""stim_listB/touch6.gif""</stim_listB>",,html-keyboard-response,243,1024676,0.0-17.0-1.4,71303,List1B,white,man,,,,null,,,,
null,are touching each other,,html-keyboard-response,244,1026678,0.0-17.0-2.4,71303,List1B,white,man,,,,null,,,,
7341,,,survey-text,245,1034021,0.0-17.0-3.4,71303,List1B,white,man,,,,,"{""Q0"":""Fred and Luke are touching each other""}","<img src=""stim_listB/touch6.gif""</stim_listB>",are touching each other,
null,"<div style=""font-size:60px;"">+</div>",,html-keyboard-response,246,1034523,0.0-17.0-0.5,71303,List1B,white,man,,,,null,,,,
null,"<img src=""stim_listB/hug1.gif""</stim_listB>",,html-keyboard-response,247,1036525,0.0-17.0-1.5,71303,List1B,white,man,,,,null,,,,
null,is hugging,,html-keyboard-response,248,1038527,0.0-17.0-2.5,71303,List1B,white,man,,,,null,,,,
7177,,,survey-text,249,1045704,0.0-17.0-3.5,71303,List1B,white,man,,,,,"{""Q0"":""Fred is hugging Beth""}","<img src=""stim_listB/hug1.gif""</stim_listB>",is hugging,
null,"<div style=""font-size:60px;"">+</div>",,html-keyboard-response,250,1046205,0.0-17.0-0.6,71303,List1B,white,man,,,,null,,,,
null,"<img src=""stim_listB/kiss6.gif""</stim_listB>",,html-keyboard-response,251,1048207,0.0-17.0-1.6,71303,List1B,white,man,,,,null,,,,
null,are kissing each other,,html-keyboard-response,252,1050209,0.0-17.0-2.6,71303,List1B,white,man,,,,null,,,,
7573,,,survey-text,253,1057783,0.0-17.0-3.6,71303,List1B,white,man,,,,,"{""Q0"":""Mike and Dave are kissing each other""}","<img src=""stim_listB/kiss6.gif""</stim_listB>",are kissing each other,
null,"<div style=""font-size:60px;"">+</div>",,html-keyboard-response,254,1058284,0.0-17.0-0.7,71303,List1B,white,man,,,,null,,,,
null,"<img src=""stim_listB/dance8.gif""</stim_listB>",,html-keyboard-response,255,1060285,0.0-17.0-1.7,71303,List1B,white,man,,,,null,,,,
null,are dancing with each other,,html-keyboard-response,256,1062287,0.0-17.0-2.7,71303,List1B,white,man,,,,null,,,,
10409,,,survey-text,257,1072697,0.0-17.0-3.7,71303,List1B,white,man,,,,,"{""Q0"":""Ruth and Kate are dancing with each other""}","<img src=""stim_listB/dance8.gif""</stim_listB>",are dancing with each other,
null,"<div style=""font-size:60px;"">+</div>",,html-keyboard-response,258,1073199,0.0-17.0-0.8,71303,List1B,white,man,,,,null,,,,
null,"<img src=""stim_listB/hug7.gif""</stim_listB>",,html-keyboard-response,259,1075200,0.0-17.0-1.8,71303,List1B,white,man,,,,null,,,,
null,is hugging,,html-keyboard-response,260,1077201,0.0-17.0-2.8,71303,List1B,white,man,,,,null,,,,
6538,,,survey-text,261,1083741,0.0-17.0-3.8,71303,List1B,white,man,,,,,"{""Q0"":""Ruth is hugging Beth""}","<img src=""stim_listB/hug7.gif""</stim_listB>",is hugging,
null,"<div style=""font-size:60px;"">+</div>",,html-keyboard-response,262,1084242,0.0-17.0-0.9,71303,List1B,white,man,,,,null,,,,
null,"<img src=""stim_listB/meet1.gif""</stim_listB>",,html-keyboard-response,263,1086244,0.0-17.0-1.9,71303,List1B,white,man,,,,null,,,,
null,is meeting,,html-keyboard-response,264,1088246,0.0-17.0-2.9,71303,List1B,white,man,,,,null,,,,
5713,,,survey-text,265,1093959,0.0-17.0-3.9,71303,List1B,white,man,,,,,"{""Q0"":""Kate is meeting Mike""}","<img src=""stim_listB/meet1.gif""</stim_listB>",is meeting,
null,"<div style=""font-size:60px;"">+</div>",,html-keyboard-response,266,1094460,0.0-17.0-0.10,71303,List1B,white,man,,,,null,,,,
null,"<img src=""stim_listB/kiss4.gif""</stim_listB>",,html-keyboard-response,267,1096462,0.0-17.0-1.10,71303,List1B,white,man,,,,null,,,,
null,are kissing each other,,html-keyboard-response,268,1098462,0.0-17.0-2.10,71303,List1B,white,man,,,,null,,,,
7899,,,survey-text,269,1106362,0.0-17.0-3.10,71303,List1B,white,man,,,,,"{""Q0"":""Dave and Jane are kissing each other""}","<img src=""stim_listB/kiss4.gif""</stim_listB>",are kissing each other,
null,"<div style=""font-size:60px;"">+</div>",,html-keyboard-response,270,1106865,0.0-17.0-0.11,71303,List1B,white,man,,,,null,,,,
null,"<img src=""stim_listB/meet7.gif""</stim_listB>",,html-keyboard-response,271,1108867,0.0-17.0-1.11,71303,List1B,white,man,,,,null,,,,
null,is meeting,,html-keyboard-response,272,1110868,0.0-17.0-2.11,71303,List1B,white,man,,,,null,,,,
7309,,,survey-text,273,1118177,0.0-17.0-3.11,71303,List1B,white,man,,,,,"{""Q0"":""Jane is meeting Kate""}","<img src=""stim_listB/meet7.gif""</stim_listB>",is meeting,
null,"<div style=""font-size:60px;"">+</div>",,html-keyboard-response,274,1118678,0.0-17.0-0.12,71303,List1B,white,man,,,,null,,,,
null,"<img src=""stim_listB/dance2.gif""</stim_listB>",,html-keyboard-response,275,1120681,0.0-17.0-1.12,71303,List1B,white,man,,,,null,,,,
null,are dancing with each other,,html-keyboard-response,276,1122683,0.0-17.0-2.12,71303,List1B,white,man,,,,null,,,,
9044,,,survey-text,277,1131727,0.0-17.0-3.12,71303,List1B,white,man,,,,,"{""Q0"":""Mike and Beth are dancing with each other""}","<img src=""stim_listB/dance2.gif""</stim_listB>",are dancing with each other,
null,"<div style=""font-size:60px;"">+</div>",,html-keyboard-response,278,1132229,0.0-17.0-0.13,71303,List1B,white,man,,,,null,,,,
null,"<img src=""stim_listB/argue2.gif""</stim_listB>",,html-keyboard-response,279,1134230,0.0-17.0-1.13,71303,List1B,white,man,,,,null,,,,
null,are arguing with each other,,html-keyboard-response,280,1136232,0.0-17.0-2.13,71303,List1B,white,man,,,,null,,,,
10705,,,survey-text,281,1146939,0.0-17.0-3.13,71303,List1B,white,man,,,,,"{""Q0"":""Fred and Kate are arguing with each other""}","<img src=""stim_listB/argue2.gif""</stim_listB>",are arguing with each other,
null,"<div style=""font-size:60px;"">+</div>",,html-keyboard-response,282,1147440,0.0-17.0-0.14,71303,List1B,white,man,,,,null,,,,
null,"<img src=""stim_listB/touch5.gif""</stim_listB>",,html-keyboard-response,283,1149442,0.0-17.0-1.14,71303,List1B,white,man,,,,null,,,,
null,is touching,,html-keyboard-response,284,1151444,0.0-17.0-2.14,71303,List1B,white,man,,,,null,,,,
5576,,,survey-text,285,1157021,0.0-17.0-3.14,71303,List1B,white,man,,,,,"{""Q0"":""Dave is touching Mike""}","<img src=""stim_listB/touch5.gif""</stim_listB>",is touching,
null,"<div style=""font-size:60px;"">+</div>",,html-keyboard-response,286,1157523,0.0-17.0-0.15,71303,List1B,white,man,,,,null,,,,
null,"<img src=""stim_listB/dance1.gif""</stim_listB>",,html-keyboard-response,287,1159525,0.0-17.0-1.15,71303,List1B,white,man,,,,null,,,,
null,is dancing with,,html-keyboard-response,288,1161526,0.0-17.0-2.15,71303,List1B,white,man,,,,null,,,,
5821,,,survey-text,289,1167347,0.0-17.0-3.15,71303,List1B,white,man,,,,,"{""Q0"":""Kate is dancing with Fred""}","<img src=""stim_listB/dance1.gif""</stim_listB>",is dancing with,
null,"<div style=""font-size:60px;"">+</div>",,html-keyboard-response,290,1167849,0.0-17.0-0.16,71303,List1B,white,man,,,,null,,,,
null,"<img src=""stim_listB/marry3.gif""</stim_listB>",,html-keyboard-response,291,1169850,0.0-17.0-1.16,71303,List1B,white,man,,,,null,,,,
null,is marrying,,html-keyboard-response,292,1171851,0.0-17.0-2.16,71303,List1B,white,man,,,,null,,,,
6161,,,survey-text,293,1178013,0.0-17.0-3.16,71303,List1B,white,man,,,,,"{""Q0"":""Ruth is marrying Dave""}","<img src=""stim_listB/marry3.gif""</stim_listB>",is marrying,
null,"<div style=""font-size:60px;"">+</div>",,html-keyboard-response,294,1178514,0.0-17.0-0.17,71303,List1B,white,man,,,,null,,,,
null,"<img src=""stim_listB/fight6.gif""</stim_listB>",,html-keyboard-response,295,1180516,0.0-17.0-1.17,71303,List1B,white,man,,,,null,,,,
null,are fighting each other,,html-keyboard-response,296,1182517,0.0-17.0-2.17,71303,List1B,white,man,,,,null,,,,
7703,,,survey-text,297,1190220,0.0-17.0-3.17,71303,List1B,white,man,,,,,"{""Q0"":""Fred and Luke are fighting each other""}","<img src=""stim_listB/fight6.gif""</stim_listB>",are fighting each other,
null,"<div style=""font-size:60px;"">+</div>",,html-keyboard-response,298,1190721,0.0-17.0-0.18,71303,List1B,white,man,,,,null,,,,
null,"<img src=""stim_listB/fight8.gif""</stim_listB>",,html-keyboard-response,299,1192723,0.0-17.0-1.18,71303,List1B,white,man,,,,null,,,,
null,are fighting each other,,html-keyboard-response,300,1194724,0.0-17.0-2.18,71303,List1B,white,man,,,,null,,,,
7923,,,survey-text,301,1202648,0.0-17.0-3.18,71303,List1B,white,man,,,,,"{""Q0"":""Beth and ruth are fighting each other""}","<img src=""stim_listB/fight8.gif""</stim_listB>",are fighting each other,
null,"<div style=""font-size:60px;"">+</div>",,html-keyboard-response,302,1203150,0.0-17.0-0.19,71303,List1B,white,man,,,,null,,,,
null,"<img src=""stim_listB/marry8.gif""</stim_listB>",,html-keyboard-response,303,1205152,0.0-17.0-1.19,71303,List1B,white,man,,,,null,,,,
null,are marrying each other,,html-keyboard-response,304,1207154,0.0-17.0-2.19,71303,List1B,white,man,,,,null,,,,
9875,,,survey-text,305,1217030,0.0-17.0-3.19,71303,List1B,white,man,,,,,"{""Q0"":""Beth and Jane are marrying each other""}","<img src=""stim_listB/marry8.gif""</stim_listB>",are marrying each other,
4085,"<img src='img/portrait_matrix_list1.JPG' style='width:900px;height:500px;''></img><p>If you have memorised all the portraits and names and are ready to start, press Continue.</p><p><strong>Please note: Your memory of these faces will be tested 4 times during this experiment.</strong></p>",0,html-button-response,306,1221115,0.0-18.0-0.0,71303,List1B,white,man,,,,,,,,
2248,"<img src=""portrait/WW1.jpg""style=""width:400px;height:400px;""></img>",1,html-button-response,307,1224365,0.0-18.0-1.0,71303,List1B,white,man,,TRUE,1,,,,,
null,CORRECT,,html-keyboard-response,308,1225867,0.0-18.0-2.0-0.0,71303,List1B,white,man,,,,null,,,,
1901,"<img src=""portrait/BM1.jpg""style=""width:400px;height:400px;""></img>",4,html-button-response,309,1227770,0.0-18.0-4.0,71303,List1B,white,man,,TRUE,4,,,,,
null,CORRECT,,html-keyboard-response,310,1229274,0.0-18.0-5.0-0.0,71303,List1B,white,man,,,,null,,,,
3898,"<img src=""portrait/BW1.jpg""style=""width:400px;height:400px;""></img>",0,html-button-response,311,1233172,0.0-18.0-7.0,71303,List1B,white,man,,TRUE,0,,,,,
null,CORRECT,,html-keyboard-response,312,1234675,0.0-18.0-8.0-0.0,71303,List1B,white,man,,,,null,,,,
1749,"<img src=""portrait/WW2.jpg""style=""width:400px;height:400px;""></img>",3,html-button-response,313,1236424,0.0-18.0-10.0,71303,List1B,white,man,,TRUE,3,,,,,
null,CORRECT,,html-keyboard-response,314,1237926,0.0-18.0-11.0-0.0,71303,List1B,white,man,,,,null,,,,
2160,"<img src=""portrait/WM2.jpg""style=""width:400px;height:400px;""></img>",7,html-button-response,315,1240086,0.0-18.0-13.0,71303,List1B,white,man,,TRUE,7,,,,,
null,CORRECT,,html-keyboard-response,316,1241589,0.0-18.0-14.0-0.0,71303,List1B,white,man,,,,null,,,,
1635,"<img src=""portrait/WM1.jpg""style=""width:400px;height:400px;""></img>",6,html-button-response,317,1243226,0.0-18.0-16.0,71303,List1B,white,man,,TRUE,6,,,,,
null,CORRECT,,html-keyboard-response,318,1244727,0.0-18.0-17.0-0.0,71303,List1B,white,man,,,,null,,,,
2206,"<img src=""portrait/BW2.jpg""style=""width:400px;height:400px;""></img>",2,html-button-response,319,1246934,0.0-18.0-19.0,71303,List1B,white,man,,TRUE,2,,,,,
null,CORRECT,,html-keyboard-response,320,1248436,0.0-18.0-20.0-0.0,71303,List1B,white,man,,,,null,,,,
2355,"<img src=""portrait/BM2.jpg""style=""width:400px;height:400px;""></img>",5,html-button-response,321,1250792,0.0-18.0-22.0,71303,List1B,white,man,,TRUE,5,,,,,
null,CORRECT,,html-keyboard-response,322,1252295,0.0-18.0-23.0-0.0,71303,List1B,white,man,,,,null,,,,
1197,<p>You got 8 out of 8 right first time. Press Continue.</p>,0,html-button-response,323,1253493,0.0-18.0-25.0,71303,List1B,white,man,,,,,,,,
null,"<div style=""font-size:60px;"">+</div>",,html-keyboard-response,324,1254996,0.0-19.0-0.0,71303,List1B,white,man,,,,null,,,,
null,"<img src=""stim_listB/hug4.gif""</stim_listB>",,html-keyboard-response,325,1256998,0.0-19.0-1.0,71303,List1B,white,man,,,,null,,,,
null,are hugging each other,,html-keyboard-response,326,1259000,0.0-19.0-2.0,71303,List1B,white,man,,,,null,,,,
12194,,,survey-text,327,1271196,0.0-19.0-3.0,71303,List1B,white,man,,,,,"{""Q0"":""Dave and Jane are hugging each other""}","<img src=""stim_listB/hug4.gif""</stim_listB>",are hugging each other,
null,"<div style=""font-size:60px;"">+</div>",,html-keyboard-response,328,1271697,0.0-19.0-0.1,71303,List1B,white,man,,,,null,,,,
null,"<img src=""stim_listB/meet2.gif""</stim_listB>",,html-keyboard-response,329,1273698,0.0-19.0-1.1,71303,List1B,white,man,,,,null,,,,
null,are meeting each other,,html-keyboard-response,330,1275701,0.0-19.0-2.1,71303,List1B,white,man,,,,null,,,,
8504,,,survey-text,331,1284206,0.0-19.0-3.1,71303,List1B,white,man,,,,,"{""Q0"":""fred and beth are meeting each other""}","<img src=""stim_listB/meet2.gif""</stim_listB>",are meeting each other,
null,"<div style=""font-size:60px;"">+</div>",,html-keyboard-response,332,1284707,0.0-19.0-0.2,71303,List1B,white,man,,,,null,,,,
null,"<img src=""stim_listB/touch2.gif""</stim_listB>",,html-keyboard-response,333,1286709,0.0-19.0-1.2,71303,List1B,white,man,,,,null,,,,
null,are touching each other,,html-keyboard-response,334,1288710,0.0-19.0-2.2,71303,List1B,white,man,,,,null,,,,
10101,,,survey-text,335,1298812,0.0-19.0-3.2,71303,List1B,white,man,,,,,"{""Q0"":""Fred and Beth are touching each other""}","<img src=""stim_listB/touch2.gif""</stim_listB>",are touching each other,
null,"<div style=""font-size:60px;"">+</div>",,html-keyboard-response,336,1299314,0.0-19.0-0.3,71303,List1B,white,man,,,,null,,,,
null,"<img src=""stim_listB/argue8.gif""</stim_listB>",,html-keyboard-response,337,1301315,0.0-19.0-1.3,71303,List1B,white,man,,,,null,,,,
null,are arguing with each other,,html-keyboard-response,338,1303318,0.0-19.0-2.3,71303,List1B,white,man,,,,null,,,,
8927,,,survey-text,339,1312246,0.0-19.0-3.3,71303,List1B,white,man,,,,,"{""Q0"":""Beth and Jane are arguing with each other""}","<img src=""stim_listB/argue8.gif""</stim_listB>",are arguing with each other,
null,"<div style=""font-size:60px;"">+</div>",,html-keyboard-response,340,1312747,0.0-19.0-0.4,71303,List1B,white,man,,,,null,,,,
null,"<img src=""stim_listB/marry2.gif""</stim_listB>",,html-keyboard-response,341,1314748,0.0-19.0-1.4,71303,List1B,white,man,,,,null,,,,
null,are marrying each other,,html-keyboard-response,342,1316749,0.0-19.0-2.4,71303,List1B,white,man,,,,null,,,,
8287,,,survey-text,343,1325038,0.0-19.0-3.4,71303,List1B,white,man,,,,,"{""Q0"":""Fred and Kate are marrying each other""}","<img src=""stim_listB/marry2.gif""</stim_listB>",are marrying each other,
null,"<div style=""font-size:60px;"">+</div>",,html-keyboard-response,344,1325540,0.0-19.0-0.5,71303,List1B,white,man,,,,null,,,,
null,"<img src=""stim_listB/meet4.gif""</stim_listB>",,html-keyboard-response,345,1327542,0.0-19.0-1.5,71303,List1B,white,man,,,,null,,,,
null,are meeting each other,,html-keyboard-response,346,1329544,0.0-19.0-2.5,71303,List1B,white,man,,,,null,,,,
7782,,,survey-text,347,1337328,0.0-19.0-3.5,71303,List1B,white,man,,,,,"{""Q0"":""Luke and Ruth are meeting each other""}","<img src=""stim_listB/meet4.gif""</stim_listB>",are meeting each other,
null,"<div style=""font-size:60px;"">+</div>",,html-keyboard-response,348,1337830,0.0-19.0-0.6,71303,List1B,white,man,,,,null,,,,
null,"<img src=""stim_listB/marry6.gif""</stim_listB>",,html-keyboard-response,349,1339831,0.0-19.0-1.6,71303,List1B,white,man,,,,null,,,,
null,are marrying each other,,html-keyboard-response,350,1341832,0.0-19.0-2.6,71303,List1B,white,man,,,,null,,,,
9622,,,survey-text,351,1351456,0.0-19.0-3.6,71303,List1B,white,man,,,,,"{""Q0"":""Fred and Dave are marrying each other""}","<img src=""stim_listB/marry6.gif""</stim_listB>",are marrying each other,
null,"<div style=""font-size:60px;"">+</div>",,html-keyboard-response,352,1351957,0.0-19.0-0.7,71303,List1B,white,man,,,,null,,,,
null,"<img src=""stim_listB/hug8.gif""</stim_listB>",,html-keyboard-response,353,1353959,0.0-19.0-1.7,71303,List1B,white,man,,,,null,,,,
null,are hugging each other,,html-keyboard-response,354,1355961,0.0-19.0-2.7,71303,List1B,white,man,,,,null,,,,
8139,,,survey-text,355,1364100,0.0-19.0-3.7,71303,List1B,white,man,,,,,"{""Q0"":""Jane and Kate are hugging each other""}","<img src=""stim_listB/hug8.gif""</stim_listB>",are hugging each other,
null,"<div style=""font-size:60px;"">+</div>",,html-keyboard-response,356,1364602,0.0-19.0-0.8,71303,List1B,white,man,,,,null,,,,
null,"<img src=""stim_listB/fight2.gif""</stim_listB>",,html-keyboard-response,357,1366604,0.0-19.0-1.8,71303,List1B,white,man,,,,null,,,,
null,are fighting each other,,html-keyboard-response,358,1368605,0.0-19.0-2.8,71303,List1B,white,man,,,,null,,,,
11522,,,survey-text,359,1380127,0.0-19.0-3.8,71303,List1B,white,man,,,,,"{""Q0"":""Fred and Beth are fighting each other""}","<img src=""stim_listB/fight2.gif""</stim_listB>",are fighting each other,
null,"<div style=""font-size:60px;"">+</div>",,html-keyboard-response,360,1380629,0.0-19.0-0.9,71303,List1B,white,man,,,,null,,,,
null,"<img src=""stim_listB/dance5.gif""</stim_listB>",,html-keyboard-response,361,1382630,0.0-19.0-1.9,71303,List1B,white,man,,,,null,,,,
null,is dancing with,,html-keyboard-response,362,1384632,0.0-19.0-2.9,71303,List1B,white,man,,,,null,,,,
8371,,,survey-text,363,1393005,0.0-19.0-3.9,71303,List1B,white,man,,,,,"{""Q0"":""Fred is dancing with Dave""}","<img src=""stim_listB/dance5.gif""</stim_listB>",is dancing with,
null,"<div style=""font-size:60px;"">+</div>",,html-keyboard-response,364,1393505,0.0-19.0-0.10,71303,List1B,white,man,,,,null,,,,
null,"<img src=""stim_listB/hug3.gif""</stim_listB>",,html-keyboard-response,365,1395506,0.0-19.0-1.10,71303,List1B,white,man,,,,null,,,,
null,is hugging,,html-keyboard-response,366,1397507,0.0-19.0-2.10,71303,List1B,white,man,,,,null,,,,
6030,,,survey-text,367,1403538,0.0-19.0-3.10,71303,List1B,white,man,,,,,"{""Q0"":""Luke is hugging Ruth""}","<img src=""stim_listB/hug3.gif""</stim_listB>",is hugging,
null,"<div style=""font-size:60px;"">+</div>",,html-keyboard-response,368,1404040,0.0-19.0-0.11,71303,List1B,white,man,,,,null,,,,
null,"<img src=""stim_listB/argue6.gif""</stim_listB>",,html-keyboard-response,369,1406042,0.0-19.0-1.11,71303,List1B,white,man,,,,null,,,,
null,are arguing with each other,,html-keyboard-response,370,1408043,0.0-19.0-2.11,71303,List1B,white,man,,,,null,,,,
10106,,,survey-text,371,1418150,0.0-19.0-3.11,71303,List1B,white,man,,,,,"{""Q0"":""Fred and Dave are arguing with each other""}","<img src=""stim_listB/argue6.gif""</stim_listB>",are arguing with each other,
null,"<div style=""font-size:60px;"">+</div>",,html-keyboard-response,372,1418652,0.0-19.0-0.12,71303,List1B,white,man,,,,null,,,,
null,"<img src=""stim_listB/talk8.gif""</stim_listB>",,html-keyboard-response,373,1420654,0.0-19.0-1.12,71303,List1B,white,man,,,,null,,,,
null,are talking to each other,,html-keyboard-response,374,1422656,0.0-19.0-2.12,71303,List1B,white,man,,,,null,,,,
15177,,,survey-text,375,1437834,0.0-19.0-3.12,71303,List1B,white,man,,,,,"{""Q0"":""Kate and Ruth are talking to each other""}","<img src=""stim_listB/talk8.gif""</stim_listB>",are talking to each other,
null,"<div style=""font-size:60px;"">+</div>",,html-keyboard-response,376,1438335,0.0-19.0-0.13,71303,List1B,white,man,,,,null,,,,
null,"<img src=""stim_listB/marry5.gif""</stim_listB>",,html-keyboard-response,377,1440337,0.0-19.0-1.13,71303,List1B,white,man,,,,null,,,,
null,is marrying,,html-keyboard-response,378,1442337,0.0-19.0-2.13,71303,List1B,white,man,,,,null,,,,
6334,,,survey-text,379,1448672,0.0-19.0-3.13,71303,List1B,white,man,,,,,"{""Q0"":""Mike is marrying Luke""}","<img src=""stim_listB/marry5.gif""</stim_listB>",is marrying,
null,"<div style=""font-size:60px;"">+</div>",,html-keyboard-response,380,1449173,0.0-19.0-0.14,71303,List1B,white,man,,,,null,,,,
null,"<img src=""stim_listB/kiss5.gif""</stim_listB>",,html-keyboard-response,381,1451175,0.0-19.0-1.14,71303,List1B,white,man,,,,null,,,,
null,is kissing,,html-keyboard-response,382,1453177,0.0-19.0-2.14,71303,List1B,white,man,,,,null,,,,
6580,,,survey-text,383,1459757,0.0-19.0-3.14,71303,List1B,white,man,,,,,"{""Q0"":""Luke is kissing Fred""}","<img src=""stim_listB/kiss5.gif""</stim_listB>",is kissing,
null,"<div style=""font-size:60px;"">+</div>",,html-keyboard-response,384,1460258,0.0-19.0-0.15,71303,List1B,white,man,,,,null,,,,
null,"<img src=""stim_listB/shout3.gif""</stim_listB>",,html-keyboard-response,385,1462259,0.0-19.0-1.15,71303,List1B,white,man,,,,null,,,,
null,is shouting at,,html-keyboard-response,386,1464261,0.0-19.0-2.15,71303,List1B,white,man,,,,null,,,,
6406,,,survey-text,387,1470668,0.0-19.0-3.15,71303,List1B,white,man,,,,,"{""Q0"":""Ruth is shouting at Luke""}","<img src=""stim_listB/shout3.gif""</stim_listB>",is shouting at,
null,"<div style=""font-size:60px;"">+</div>",,html-keyboard-response,388,1471170,0.0-19.0-0.16,71303,List1B,white,man,,,,null,,,,
null,"<img src=""stim_listB/touch4.gif""</stim_listB>",,html-keyboard-response,389,1473171,0.0-19.0-1.16,71303,List1B,white,man,,,,null,,,,
null,are touching each other,,html-keyboard-response,390,1475174,0.0-19.0-2.16,71303,List1B,white,man,,,,null,,,,
7862,,,survey-text,391,1483037,0.0-19.0-3.16,71303,List1B,white,man,,,,,"{""Q0"":""Luke and Ruth are shouting at each other""}","<img src=""stim_listB/touch4.gif""</stim_listB>",are touching each other,
null,"<div style=""font-size:60px;"">+</div>",,html-keyboard-response,392,1483538,0.0-19.0-0.17,71303,List1B,white,man,,,,null,,,,
null,"<img src=""stim_listB/argue4.gif""</stim_listB>",,html-keyboard-response,393,1485541,0.0-19.0-1.17,71303,List1B,white,man,,,,null,,,,
null,are arguing with each other,,html-keyboard-response,394,1487541,0.0-19.0-2.17,71303,List1B,white,man,,,,null,,,,
9146,,,survey-text,395,1496688,0.0-19.0-3.17,71303,List1B,white,man,,,,,"{""Q0"":""Luke and Jane are arguing with each other""}","<img src=""stim_listB/argue4.gif""</stim_listB>",are arguing with each other,
null,"<div style=""font-size:60px;"">+</div>",,html-keyboard-response,396,1497189,0.0-19.0-0.18,71303,List1B,white,man,,,,null,,,,
null,"<img src=""stim_listB/meet8.gif""</stim_listB>",,html-keyboard-response,397,1499191,0.0-19.0-1.18,71303,List1B,white,man,,,,null,,,,
null,are meeting each other,,html-keyboard-response,398,1501193,0.0-19.0-2.18,71303,List1B,white,man,,,,null,,,,
13324,,,survey-text,399,1514518,0.0-19.0-3.18,71303,List1B,white,man,,,,,"{""Q0"":""Beth and Ruth are meeting each other""}","<img src=""stim_listB/meet8.gif""</stim_listB>",are meeting each other,
null,"<div style=""font-size:60px;"">+</div>",,html-keyboard-response,400,1515019,0.0-19.0-0.19,71303,List1B,white,man,,,,null,,,,
null,"<img src=""stim_listB/marry7.gif""</stim_listB>",,html-keyboard-response,401,1517021,0.0-19.0-1.19,71303,List1B,white,man,,,,null,,,,
null,is marrying,,html-keyboard-response,402,1519023,0.0-19.0-2.19,71303,List1B,white,man,,,,null,,,,
5922,,,survey-text,403,1524946,0.0-19.0-3.19,71303,List1B,white,man,,,,,"{""Q0"":""Ruth is marrying Kate""}","<img src=""stim_listB/marry7.gif""</stim_listB>",is marrying,
2155,<p>Thank you for completing that task.</p><p>The final part of this session is a short questionnaire.</p><p>Press Continue.</p>,0,html-button-response,404,1527102,0.0-20.0,71303,List1B,white,man,,,,,,,,
27490,,,survey-text,405,1555595,0.0-21.0,71303,List1B,white,man,,,,,"{""Q0"":""38"",""Q1"":""English"",""Q2"":""English"",""Q3"":""England"",""Q4"":""White British"",""Q5"":""Male""}",,,demographics
81165,,,survey-likert,406,1636763,0.0-22.0,71303,List1B,white,man,,,,,"{""Q0"":3,""Q1"":2,""Q2"":3,""Q3"":"""",""Q4"":4,""Q5"":5,""Q6"":3,""Q7"":0,""Q8"":4,""Q9"":4,""Q10"":4,""Q11"":4,""Q12"":3,""Q13"":3}",,,likert_race
43169,,,survey-likert,407,1679937,0.0-23.0,71303,List1B,white,man,,,,,"{""Q0"":5,""Q1"":5,""Q2"":5,""Q3"":6,""Q4"":4,""Q5"":6,""Q6"":5,""Q7"":1,""Q8"":6,""Q9"":6,""Q10"":4,""Q11"":4,""Q12"":4,""Q13"":4}",,,likert_gender
5967,,,survey-text,408,1685906,0.0-24.0,71303,List1B,white,man,,,,,"{""Q0"":""ccc""}",,,worker_id
29520,,,external-html,409,1715549,0.0-25.0,71303,List1B,white,man,debrief.html,,,,,,,
