rt,stimulus,button_pressed,trial_type,trial_index,time_elapsed,internal_node_id,subject,list,ppt_race,ppt_gender,url,first_guess,correct,key_press,responses,image_type,phrase_type,test_part
3506,Welcome to the experiment. Press Continue to begin.,0,html-button-response,0,3508,0.0-0.0,72210,List2B,white,woman,,,,,,,,
27826,,,external-html,1,32494,0.0-1.0,72210,List2B,white,woman,consent.html,,,,,,,
6537,"<p>On the next page, you will see portraits of 8 people and their names.</p><p>Your first task is to take a few minutes to memorise the names of these people.</p><p>You will have to recall their names during the rest of the experiment, so it is</p><p>essential that you try to memorise these people and their names as best as you can.</p><br><p><strong>You will then be tested on your memory of these names and portraits.</strong></p><br><p>The experiment will start after you have completed this memory test.</p><br><p>Ready?</p>",0,html-button-response,2,39031,0.0-2.0,72210,List2B,white,woman,,,,,,,,
70351,"<img src='img/portrait_matrix_list2.JPG' style='width:900px;height:500px;''></img><p>If you have memorised all the portraits and names and are ready to start, press Continue.</p><p><strong>Please note: Your memory of these faces will be tested 4 times during this experiment.</strong></p>",0,html-button-response,3,110384,0.0-3.0-0.0,72210,List2B,white,woman,,,,,,,,
3130,"<img src=""portrait/WM2.jpg""style=""width:400px;height:400px;""></img>",7,html-button-response,4,114517,0.0-3.0-1.0,72210,List2B,white,woman,,TRUE,7,,,,,
null,CORRECT,,html-keyboard-response,5,116021,0.0-3.0-2.0-0.0,72210,List2B,white,woman,,,,null,,,,
2658,"<img src=""portrait/WM1.jpg""style=""width:400px;height:400px;""></img>",6,html-button-response,6,118682,0.0-3.0-4.0,72210,List2B,white,woman,,TRUE,6,,,,,
null,CORRECT,,html-keyboard-response,7,120188,0.0-3.0-5.0-0.0,72210,List2B,white,woman,,,,null,,,,
4043,"<img src=""portrait/BW2.jpg""style=""width:400px;height:400px;""></img>",2,html-button-response,8,124235,0.0-3.0-7.0,72210,List2B,white,woman,,TRUE,2,,,,,
null,CORRECT,,html-keyboard-response,9,125738,0.0-3.0-8.0-0.0,72210,List2B,white,woman,,,,null,,,,
2771,"<img src=""portrait/BM2.jpg""style=""width:400px;height:400px;""></img>",5,html-button-response,10,128510,0.0-3.0-10.0,72210,List2B,white,woman,,TRUE,5,,,,,
null,CORRECT,,html-keyboard-response,11,130014,0.0-3.0-11.0-0.0,72210,List2B,white,woman,,,,null,,,,
3734,"<img src=""portrait/WW1.jpg""style=""width:400px;height:400px;""></img>",1,html-button-response,12,133749,0.0-3.0-13.0,72210,List2B,white,woman,,TRUE,1,,,,,
null,CORRECT,,html-keyboard-response,13,135252,0.0-3.0-14.0-0.0,72210,List2B,white,woman,,,,null,,,,
3303,"<img src=""portrait/BM1.jpg""style=""width:400px;height:400px;""></img>",4,html-button-response,14,138556,0.0-3.0-16.0,72210,List2B,white,woman,,TRUE,4,,,,,
null,CORRECT,,html-keyboard-response,15,140058,0.0-3.0-17.0-0.0,72210,List2B,white,woman,,,,null,,,,
4716,"<img src=""portrait/BW1.jpg""style=""width:400px;height:400px;""></img>",0,html-button-response,16,144776,0.0-3.0-19.0,72210,List2B,white,woman,,TRUE,0,,,,,
null,CORRECT,,html-keyboard-response,17,146276,0.0-3.0-20.0-0.0,72210,List2B,white,woman,,,,null,,,,
3194,"<img src=""portrait/WW2.jpg""style=""width:400px;height:400px;""></img>",3,html-button-response,18,149472,0.0-3.0-22.0,72210,List2B,white,woman,,TRUE,3,,,,,
null,CORRECT,,html-keyboard-response,19,150974,0.0-3.0-23.0-0.0,72210,List2B,white,woman,,,,null,,,,
1554,<p>You got 8 out of 8 right first time. Press Continue.</p>,0,html-button-response,20,152530,0.0-3.0-25.0,72210,List2B,white,woman,,,,,,,,
16790,"<p>In this experiment, you will view photographs of the people from the memory game interacting.</p><p>By using the <strong>exact</strong> phrase given <i>after</i> the photograph appears and recalling the correct names of the people in the photographs, form a sentence describing the interaction. You do not need to capitalise names.</p><p>Type your answer in the space provided. Please complete every sentence before moving onto the next trial.</p><p>You will only have a few seconds to memorise each given photograph and phrase before you can respond, so try your best to focus.</p><p>An example is given below. Press 'Continue' when you are ready.</p><img src='img/speaking_example_v2.jpg' style='width:800px;height:460px;''></img>",0,html-button-response,21,170321,0.0-4.0,72210,List2B,white,woman,,,,,,,,
1644,"<p>Before the experiment starts, you will watch two example trials. Press 'Continue'.</p>",0,html-button-response,22,172967,0.0-5.0,72210,List2B,white,woman,,,,,,,,
null,<img src='img/speaking_WW.gif'></img>,,html-keyboard-response,23,175970,0.0-6.0,72210,List2B,white,woman,,,,null,,,,
null,<p>is speaking to</p>,,html-keyboard-response,24,177972,0.0-7.0,72210,List2B,white,woman,,,,null,,,,
2008,<p><b>Answer:</b> jane is speaking to ruth</p>,0,html-button-response,25,179980,0.0-8.0,72210,List2B,white,woman,,,,,,,,
null,<img src='img/pointing_BM.gif'></img>,,html-keyboard-response,26,182983,0.0-9.0,72210,List2B,white,woman,,,,null,,,,
null,<p>are pointing at each other</p>,,html-keyboard-response,27,184984,0.0-10.0,72210,List2B,white,woman,,,,null,,,,
1807,<p><b>Answer:</b> fred and mike are pointing at each other</p>,0,html-button-response,28,186792,0.0-11.0,72210,List2B,white,woman,,,,,,,,
1753,"<p>Ready to start the experiment?</p><br><p><strong>Remember to describe the picture using a full sentence,</strong></p><p><strong>that combines the names of the people with the given phrase.</strong></p><p><strong>If you do not do this correctly you will not be paid.</strong></p><p><strong> You do not need to capitalise names or use punctuation.</strong></p><br><p>Press 'Continue' to begin.</p>",0,html-button-response,29,189547,0.0-12.0,72210,List2B,white,woman,,,,,,,,
null,"<div style=""font-size:60px;"">+</div>",,html-keyboard-response,30,191049,0.0-13.0-0.0,72210,List2B,white,woman,,,,null,,,,
null,"<img src=""stim_listB/marry8.gif""</stim_listB>",,html-keyboard-response,31,193052,0.0-13.0-1.0,72210,List2B,white,woman,,,,null,,,,
null,are marrying each other,,html-keyboard-response,32,195053,0.0-13.0-2.0,72210,List2B,white,woman,,,,null,,,,
14790,,,survey-text,33,209844,0.0-13.0-3.0,72210,List2B,white,woman,,,,,"{""Q0"":""Ruth is marrying Kate""}","<img src=""stim_listB/marry8.gif""</stim_listB>",are marrying each other,
null,"<div style=""font-size:60px;"">+</div>",,html-keyboard-response,34,210346,0.0-13.0-0.1,72210,List2B,white,woman,,,,null,,,,
null,"<img src=""stim_listB/fight5.gif""</stim_listB>",,html-keyboard-response,35,212349,0.0-13.0-1.1,72210,List2B,white,woman,,,,null,,,,
null,is fighting,,html-keyboard-response,36,214350,0.0-13.0-2.1,72210,List2B,white,woman,,,,null,,,,
4923,,,survey-text,37,219274,0.0-13.0-3.1,72210,List2B,white,woman,,,,,"{""Q0"":""Mike is fighting Dave""}","<img src=""stim_listB/fight5.gif""</stim_listB>",is fighting,
null,"<div style=""font-size:60px;"">+</div>",,html-keyboard-response,38,219775,0.0-13.0-0.2,72210,List2B,white,woman,,,,null,,,,
null,"<img src=""stim_listB/touch1.gif""</stim_listB>",,html-keyboard-response,39,221778,0.0-13.0-1.2,72210,List2B,white,woman,,,,null,,,,
null,is touching,,html-keyboard-response,40,223780,0.0-13.0-2.2,72210,List2B,white,woman,,,,null,,,,
6655,,,survey-text,41,230436,0.0-13.0-3.2,72210,List2B,white,woman,,,,,"{""Q0"":""Jane is touching Dave""}","<img src=""stim_listB/touch1.gif""</stim_listB>",is touching,
null,"<div style=""font-size:60px;"">+</div>",,html-keyboard-response,42,230937,0.0-13.0-0.3,72210,List2B,white,woman,,,,null,,,,
null,"<img src=""stim_listB/argue3.gif""</stim_listB>",,html-keyboard-response,43,232939,0.0-13.0-1.3,72210,List2B,white,woman,,,,null,,,,
null,is arguing with,,html-keyboard-response,44,234941,0.0-13.0-2.3,72210,List2B,white,woman,,,,null,,,,
5222,,,survey-text,45,240165,0.0-13.0-3.3,72210,List2B,white,woman,,,,,"{""Q0"":""Mike is arguing with Beth""}","<img src=""stim_listB/argue3.gif""</stim_listB>",is arguing with,
null,"<div style=""font-size:60px;"">+</div>",,html-keyboard-response,46,240666,0.0-13.0-0.4,72210,List2B,white,woman,,,,null,,,,
null,"<img src=""stim_listB/marry2.gif""</stim_listB>",,html-keyboard-response,47,242667,0.0-13.0-1.4,72210,List2B,white,woman,,,,null,,,,
null,are marrying each other,,html-keyboard-response,48,244669,0.0-13.0-2.4,72210,List2B,white,woman,,,,null,,,,
8434,,,survey-text,49,253104,0.0-13.0-3.4,72210,List2B,white,woman,,,,,"{""Q0"":""Luke is marrying Jane""}","<img src=""stim_listB/marry2.gif""</stim_listB>",are marrying each other,
null,"<div style=""font-size:60px;"">+</div>",,html-keyboard-response,50,253606,0.0-13.0-0.5,72210,List2B,white,woman,,,,null,,,,
null,"<img src=""stim_listB/touch6.gif""</stim_listB>",,html-keyboard-response,51,255608,0.0-13.0-1.5,72210,List2B,white,woman,,,,null,,,,
null,are touching each other,,html-keyboard-response,52,257610,0.0-13.0-2.5,72210,List2B,white,woman,,,,null,,,,
5615,,,survey-text,53,263226,0.0-13.0-3.5,72210,List2B,white,woman,,,,,"{""Q0"":""Luke is touching Fred""}","<img src=""stim_listB/touch6.gif""</stim_listB>",are touching each other,
null,"<div style=""font-size:60px;"">+</div>",,html-keyboard-response,54,263728,0.0-13.0-0.6,72210,List2B,white,woman,,,,null,,,,
null,"<img src=""stim_listB/fight1.gif""</stim_listB>",,html-keyboard-response,55,265730,0.0-13.0-1.6,72210,List2B,white,woman,,,,null,,,,
null,is fighting,,html-keyboard-response,56,267731,0.0-13.0-2.6,72210,List2B,white,woman,,,,null,,,,
5331,,,survey-text,57,273062,0.0-13.0-3.6,72210,List2B,white,woman,,,,,"{""Q0"":""Jane is fighting Dave""}","<img src=""stim_listB/fight1.gif""</stim_listB>",is fighting,
null,"<div style=""font-size:60px;"">+</div>",,html-keyboard-response,58,273563,0.0-13.0-0.7,72210,List2B,white,woman,,,,null,,,,
null,"<img src=""stim_listB/dance1.gif""</stim_listB>",,html-keyboard-response,59,275565,0.0-13.0-1.7,72210,List2B,white,woman,,,,null,,,,
null,is dancing with,,html-keyboard-response,60,277566,0.0-13.0-2.7,72210,List2B,white,woman,,,,null,,,,
4724,,,survey-text,61,282291,0.0-13.0-3.7,72210,List2B,white,woman,,,,,"{""Q0"":""Jane is dancing with Luke""}","<img src=""stim_listB/dance1.gif""</stim_listB>",is dancing with,
null,"<div style=""font-size:60px;"">+</div>",,html-keyboard-response,62,282792,0.0-13.0-0.8,72210,List2B,white,woman,,,,null,,,,
null,"<img src=""stim_listB/talk3.gif""</stim_listB>",,html-keyboard-response,63,284795,0.0-13.0-1.8,72210,List2B,white,woman,,,,null,,,,
null,is talking to,,html-keyboard-response,64,286796,0.0-13.0-2.8,72210,List2B,white,woman,,,,null,,,,
9655,,,survey-text,65,296452,0.0-13.0-3.8,72210,List2B,white,woman,,,,,"{""Q0"":""Beth is talking to Fred""}","<img src=""stim_listB/talk3.gif""</stim_listB>",is talking to,
null,"<div style=""font-size:60px;"">+</div>",,html-keyboard-response,66,296956,0.0-13.0-0.9,72210,List2B,white,woman,,,,null,,,,
null,"<img src=""stim_listB/kiss8.gif""</stim_listB>",,html-keyboard-response,67,298958,0.0-13.0-1.9,72210,List2B,white,woman,,,,null,,,,
null,are kissing each other,,html-keyboard-response,68,300959,0.0-13.0-2.9,72210,List2B,white,woman,,,,null,,,,
5872,,,survey-text,69,306832,0.0-13.0-3.9,72210,List2B,white,woman,,,,,"{""Q0"":""Jane is kissing Kate""}","<img src=""stim_listB/kiss8.gif""</stim_listB>",are kissing each other,
null,"<div style=""font-size:60px;"">+</div>",,html-keyboard-response,70,307334,0.0-13.0-0.10,72210,List2B,white,woman,,,,null,,,,
null,"<img src=""stim_listB/meet5.gif""</stim_listB>",,html-keyboard-response,71,309336,0.0-13.0-1.10,72210,List2B,white,woman,,,,null,,,,
null,is meeting,,html-keyboard-response,72,311338,0.0-13.0-2.10,72210,List2B,white,woman,,,,null,,,,
4488,,,survey-text,73,315826,0.0-13.0-3.10,72210,List2B,white,woman,,,,,"{""Q0"":""Mike is meeting Dave""}","<img src=""stim_listB/meet5.gif""</stim_listB>",is meeting,
null,"<div style=""font-size:60px;"">+</div>",,html-keyboard-response,74,316329,0.0-13.0-0.11,72210,List2B,white,woman,,,,null,,,,
null,"<img src=""stim_listB/kiss7.gif""</stim_listB>",,html-keyboard-response,75,318334,0.0-13.0-1.11,72210,List2B,white,woman,,,,null,,,,
null,is kissing,,html-keyboard-response,76,320335,0.0-13.0-2.11,72210,List2B,white,woman,,,,null,,,,
7831,,,survey-text,77,328166,0.0-13.0-3.11,72210,List2B,white,woman,,,,,"{""Q0"":""Ruth is kissing Beth""}","<img src=""stim_listB/kiss7.gif""</stim_listB>",is kissing,
null,"<div style=""font-size:60px;"">+</div>",,html-keyboard-response,78,328667,0.0-13.0-0.12,72210,List2B,white,woman,,,,null,,,,
null,"<img src=""stim_listB/dance4.gif""</stim_listB>",,html-keyboard-response,79,330669,0.0-13.0-1.12,72210,List2B,white,woman,,,,null,,,,
null,are dancing with each other,,html-keyboard-response,80,332670,0.0-13.0-2.12,72210,List2B,white,woman,,,,null,,,,
4598,,,survey-text,81,337268,0.0-13.0-3.12,72210,List2B,white,woman,,,,,"{""Q0"":""Mike is dancing with Beth""}","<img src=""stim_listB/dance4.gif""</stim_listB>",are dancing with each other,
null,"<div style=""font-size:60px;"">+</div>",,html-keyboard-response,82,337771,0.0-13.0-0.13,72210,List2B,white,woman,,,,null,,,,
null,"<img src=""stim_listB/shout5.gif""</stim_listB>",,html-keyboard-response,83,339773,0.0-13.0-1.13,72210,List2B,white,woman,,,,null,,,,
null,is shouting at,,html-keyboard-response,84,341775,0.0-13.0-2.13,72210,List2B,white,woman,,,,null,,,,
4511,,,survey-text,85,346286,0.0-13.0-3.13,72210,List2B,white,woman,,,,,"{""Q0"":""Like is shouting at Fred""}","<img src=""stim_listB/shout5.gif""</stim_listB>",is shouting at,
null,"<div style=""font-size:60px;"">+</div>",,html-keyboard-response,86,346788,0.0-13.0-0.14,72210,List2B,white,woman,,,,null,,,,
null,"<img src=""stim_listB/shout1.gif""</stim_listB>",,html-keyboard-response,87,348791,0.0-13.0-1.14,72210,List2B,white,woman,,,,null,,,,
null,is shouting at,,html-keyboard-response,88,350793,0.0-13.0-2.14,72210,List2B,white,woman,,,,null,,,,
6622,,,survey-text,89,357416,0.0-13.0-3.14,72210,List2B,white,woman,,,,,"{""Q0"":""Luke is shouting at Ruth""}","<img src=""stim_listB/shout1.gif""</stim_listB>",is shouting at,
null,"<div style=""font-size:60px;"">+</div>",,html-keyboard-response,90,357918,0.0-13.0-0.15,72210,List2B,white,woman,,,,null,,,,
null,"<img src=""stim_listB/dance5.gif""</stim_listB>",,html-keyboard-response,91,359919,0.0-13.0-1.15,72210,List2B,white,woman,,,,null,,,,
null,is dancing with,,html-keyboard-response,92,361921,0.0-13.0-2.15,72210,List2B,white,woman,,,,null,,,,
7357,,,survey-text,93,369278,0.0-13.0-3.15,72210,List2B,white,woman,,,,,"{""Q0"":""Luke is dancing with Mike""}","<img src=""stim_listB/dance5.gif""</stim_listB>",is dancing with,
null,"<div style=""font-size:60px;"">+</div>",,html-keyboard-response,94,369780,0.0-13.0-0.16,72210,List2B,white,woman,,,,null,,,,
null,"<img src=""stim_listB/argue6.gif""</stim_listB>",,html-keyboard-response,95,371783,0.0-13.0-1.16,72210,List2B,white,woman,,,,null,,,,
null,are arguing with each other,,html-keyboard-response,96,373784,0.0-13.0-2.16,72210,List2B,white,woman,,,,null,,,,
5367,,,survey-text,97,379152,0.0-13.0-3.16,72210,List2B,white,woman,,,,,"{""Q0"":""Luke is arguing with Mike""}","<img src=""stim_listB/argue6.gif""</stim_listB>",are arguing with each other,
null,"<div style=""font-size:60px;"">+</div>",,html-keyboard-response,98,379653,0.0-13.0-0.17,72210,List2B,white,woman,,,,null,,,,
null,"<img src=""stim_listB/marry7.gif""</stim_listB>",,html-keyboard-response,99,381654,0.0-13.0-1.17,72210,List2B,white,woman,,,,null,,,,
null,is marrying,,html-keyboard-response,100,383657,0.0-13.0-2.17,72210,List2B,white,woman,,,,null,,,,
6182,,,survey-text,101,389840,0.0-13.0-3.17,72210,List2B,white,woman,,,,,"{""Q0"":""Jane is marrying Beth""}","<img src=""stim_listB/marry7.gif""</stim_listB>",is marrying,
null,"<div style=""font-size:60px;"">+</div>",,html-keyboard-response,102,390342,0.0-13.0-0.18,72210,List2B,white,woman,,,,null,,,,
null,"<img src=""stim_listB/touch8.gif""</stim_listB>",,html-keyboard-response,103,392344,0.0-13.0-1.18,72210,List2B,white,woman,,,,null,,,,
null,are touching each other,,html-keyboard-response,104,394345,0.0-13.0-2.18,72210,List2B,white,woman,,,,null,,,,
4598,,,survey-text,105,398944,0.0-13.0-3.18,72210,List2B,white,woman,,,,,"{""Q0"":""Ruth is touching Beth""}","<img src=""stim_listB/touch8.gif""</stim_listB>",are touching each other,
null,"<div style=""font-size:60px;"">+</div>",,html-keyboard-response,106,399445,0.0-13.0-0.19,72210,List2B,white,woman,,,,null,,,,
null,"<img src=""stim_listB/argue2.gif""</stim_listB>",,html-keyboard-response,107,401447,0.0-13.0-1.19,72210,List2B,white,woman,,,,null,,,,
null,are arguing with each other,,html-keyboard-response,108,403449,0.0-13.0-2.19,72210,List2B,white,woman,,,,null,,,,
5395,,,survey-text,109,408845,0.0-13.0-3.19,72210,List2B,white,woman,,,,,"{""Q0"":""Luke is arguing with Ruth""}","<img src=""stim_listB/argue2.gif""</stim_listB>",are arguing with each other,
6180,"<img src='img/portrait_matrix_list2.JPG' style='width:900px;height:500px;''></img><p>If you have memorised all the portraits and names and are ready to start, press Continue.</p><p><strong>Please note: Your memory of these faces will be tested 4 times during this experiment.</strong></p>",0,html-button-response,110,415026,0.0-14.0-0.0,72210,List2B,white,woman,,,,,,,,
1874,"<img src=""portrait/WW2.jpg""style=""width:400px;height:400px;""></img>",3,html-button-response,111,417902,0.0-14.0-1.0,72210,List2B,white,woman,,TRUE,3,,,,,
null,CORRECT,,html-keyboard-response,112,419404,0.0-14.0-2.0-0.0,72210,List2B,white,woman,,,,null,,,,
1627,"<img src=""portrait/WM1.jpg""style=""width:400px;height:400px;""></img>",6,html-button-response,113,421033,0.0-14.0-4.0,72210,List2B,white,woman,,TRUE,6,,,,,
null,CORRECT,,html-keyboard-response,114,422536,0.0-14.0-5.0-0.0,72210,List2B,white,woman,,,,null,,,,
1157,"<img src=""portrait/BM1.jpg""style=""width:400px;height:400px;""></img>",4,html-button-response,115,423694,0.0-14.0-7.0,72210,List2B,white,woman,,TRUE,4,,,,,
null,CORRECT,,html-keyboard-response,116,425196,0.0-14.0-8.0-0.0,72210,List2B,white,woman,,,,null,,,,
2753,"<img src=""portrait/WW1.jpg""style=""width:400px;height:400px;""></img>",1,html-button-response,117,427950,0.0-14.0-10.0,72210,List2B,white,woman,,TRUE,1,,,,,
null,CORRECT,,html-keyboard-response,118,429453,0.0-14.0-11.0-0.0,72210,List2B,white,woman,,,,null,,,,
1266,"<img src=""portrait/BM2.jpg""style=""width:400px;height:400px;""></img>",5,html-button-response,119,430721,0.0-14.0-13.0,72210,List2B,white,woman,,TRUE,5,,,,,
null,CORRECT,,html-keyboard-response,120,432223,0.0-14.0-14.0-0.0,72210,List2B,white,woman,,,,null,,,,
897,"<img src=""portrait/BW2.jpg""style=""width:400px;height:400px;""></img>",2,html-button-response,121,433121,0.0-14.0-16.0,72210,List2B,white,woman,,TRUE,2,,,,,
null,CORRECT,,html-keyboard-response,122,434625,0.0-14.0-17.0-0.0,72210,List2B,white,woman,,,,null,,,,
1154,"<img src=""portrait/BW1.jpg""style=""width:400px;height:400px;""></img>",0,html-button-response,123,435781,0.0-14.0-19.0,72210,List2B,white,woman,,TRUE,0,,,,,
null,CORRECT,,html-keyboard-response,124,437284,0.0-14.0-20.0-0.0,72210,List2B,white,woman,,,,null,,,,
1187,"<img src=""portrait/WM2.jpg""style=""width:400px;height:400px;""></img>",7,html-button-response,125,438473,0.0-14.0-22.0,72210,List2B,white,woman,,TRUE,7,,,,,
null,CORRECT,,html-keyboard-response,126,439976,0.0-14.0-23.0-0.0,72210,List2B,white,woman,,,,null,,,,
1509,<p>You got 8 out of 8 right first time. Press Continue.</p>,0,html-button-response,127,441486,0.0-14.0-25.0,72210,List2B,white,woman,,,,,,,,
null,"<div style=""font-size:60px;"">+</div>",,html-keyboard-response,128,442990,0.0-15.0-0.0,72210,List2B,white,woman,,,,null,,,,
null,"<img src=""stim_listB/kiss6.gif""</stim_listB>",,html-keyboard-response,129,444991,0.0-15.0-1.0,72210,List2B,white,woman,,,,null,,,,
null,are kissing each other,,html-keyboard-response,130,446992,0.0-15.0-2.0,72210,List2B,white,woman,,,,null,,,,
5596,,,survey-text,131,452588,0.0-15.0-3.0,72210,List2B,white,woman,,,,,"{""Q0"":""Mike is kissing Dave""}","<img src=""stim_listB/kiss6.gif""</stim_listB>",are kissing each other,
null,"<div style=""font-size:60px;"">+</div>",,html-keyboard-response,132,453090,0.0-15.0-0.1,72210,List2B,white,woman,,,,null,,,,
null,"<img src=""stim_listB/argue5.gif""</stim_listB>",,html-keyboard-response,133,455092,0.0-15.0-1.1,72210,List2B,white,woman,,,,null,,,,
null,is arguing with,,html-keyboard-response,134,457093,0.0-15.0-2.1,72210,List2B,white,woman,,,,null,,,,
5056,,,survey-text,135,462150,0.0-15.0-3.1,72210,List2B,white,woman,,,,,"{""Q0"":""Fred is arguing with Dave""}","<img src=""stim_listB/argue5.gif""</stim_listB>",is arguing with,
null,"<div style=""font-size:60px;"">+</div>",,html-keyboard-response,136,462652,0.0-15.0-0.2,72210,List2B,white,woman,,,,null,,,,
null,"<img src=""stim_listB/touch5.gif""</stim_listB>",,html-keyboard-response,137,464654,0.0-15.0-1.2,72210,List2B,white,woman,,,,null,,,,
null,is touching,,html-keyboard-response,138,466655,0.0-15.0-2.2,72210,List2B,white,woman,,,,null,,,,
4190,,,survey-text,139,470846,0.0-15.0-3.2,72210,List2B,white,woman,,,,,"{""Q0"":""Mike is touching Dave""}","<img src=""stim_listB/touch5.gif""</stim_listB>",is touching,
null,"<div style=""font-size:60px;"">+</div>",,html-keyboard-response,140,471348,0.0-15.0-0.3,72210,List2B,white,woman,,,,null,,,,
null,"<img src=""stim_listB/touch7.gif""</stim_listB>",,html-keyboard-response,141,473350,0.0-15.0-1.3,72210,List2B,white,woman,,,,null,,,,
null,is touching,,html-keyboard-response,142,475351,0.0-15.0-2.3,72210,List2B,white,woman,,,,null,,,,
4843,,,survey-text,143,480195,0.0-15.0-3.3,72210,List2B,white,woman,,,,,"{""Q0"":""Kate is touching Jane""}","<img src=""stim_listB/touch7.gif""</stim_listB>",is touching,
null,"<div style=""font-size:60px;"">+</div>",,html-keyboard-response,144,480697,0.0-15.0-0.4,72210,List2B,white,woman,,,,null,,,,
null,"<img src=""stim_listB/dance8.gif""</stim_listB>",,html-keyboard-response,145,482699,0.0-15.0-1.4,72210,List2B,white,woman,,,,null,,,,
null,are dancing with each other,,html-keyboard-response,146,484700,0.0-15.0-2.4,72210,List2B,white,woman,,,,null,,,,
4960,,,survey-text,147,489661,0.0-15.0-3.4,72210,List2B,white,woman,,,,,"{""Q0"":""Beth is dancing with Jane""}","<img src=""stim_listB/dance8.gif""</stim_listB>",are dancing with each other,
null,"<div style=""font-size:60px;"">+</div>",,html-keyboard-response,148,490162,0.0-15.0-0.5,72210,List2B,white,woman,,,,null,,,,
null,"<img src=""stim_listB/touch4.gif""</stim_listB>",,html-keyboard-response,149,492165,0.0-15.0-1.5,72210,List2B,white,woman,,,,null,,,,
null,are touching each other,,html-keyboard-response,150,494166,0.0-15.0-2.5,72210,List2B,white,woman,,,,null,,,,
13651,,,survey-text,151,507818,0.0-15.0-3.5,72210,List2B,white,woman,,,,,"{""Q0"":""Fred and Beth are touching each other""}","<img src=""stim_listB/touch4.gif""</stim_listB>",are touching each other,
null,"<div style=""font-size:60px;"">+</div>",,html-keyboard-response,152,508320,0.0-15.0-0.6,72210,List2B,white,woman,,,,null,,,,
null,"<img src=""stim_listB/fight3.gif""</stim_listB>",,html-keyboard-response,153,510321,0.0-15.0-1.6,72210,List2B,white,woman,,,,null,,,,
null,is fighting,,html-keyboard-response,154,512324,0.0-15.0-2.6,72210,List2B,white,woman,,,,null,,,,
4921,,,survey-text,155,517246,0.0-15.0-3.6,72210,List2B,white,woman,,,,,"{""Q0"":""Kate is fighting Mike""}","<img src=""stim_listB/fight3.gif""</stim_listB>",is fighting,
null,"<div style=""font-size:60px;"">+</div>",,html-keyboard-response,156,517747,0.0-15.0-0.7,72210,List2B,white,woman,,,,null,,,,
null,"<img src=""stim_listB/argue8.gif""</stim_listB>",,html-keyboard-response,157,519751,0.0-15.0-1.7,72210,List2B,white,woman,,,,null,,,,
null,are arguing with each other,,html-keyboard-response,158,521753,0.0-15.0-2.7,72210,List2B,white,woman,,,,null,,,,
7481,,,survey-text,159,529235,0.0-15.0-3.7,72210,List2B,white,woman,,,,,"{""Q0"":""Kate is arguing with Ruth""}","<img src=""stim_listB/argue8.gif""</stim_listB>",are arguing with each other,
null,"<div style=""font-size:60px;"">+</div>",,html-keyboard-response,160,529738,0.0-15.0-0.8,72210,List2B,white,woman,,,,null,,,,
null,"<img src=""stim_listB/hug1.gif""</stim_listB>",,html-keyboard-response,161,531741,0.0-15.0-1.8,72210,List2B,white,woman,,,,null,,,,
null,is hugging,,html-keyboard-response,162,533742,0.0-15.0-2.8,72210,List2B,white,woman,,,,null,,,,
6691,,,survey-text,163,540434,0.0-15.0-3.8,72210,List2B,white,woman,,,,,"{""Q0"":""Luke is hugging Ruth""}","<img src=""stim_listB/hug1.gif""</stim_listB>",is hugging,
null,"<div style=""font-size:60px;"">+</div>",,html-keyboard-response,164,540936,0.0-15.0-0.9,72210,List2B,white,woman,,,,null,,,,
null,"<img src=""stim_listB/kiss1.gif""</stim_listB>",,html-keyboard-response,165,542939,0.0-15.0-1.9,72210,List2B,white,woman,,,,null,,,,
null,is kissing,,html-keyboard-response,166,544940,0.0-15.0-2.9,72210,List2B,white,woman,,,,null,,,,
6059,,,survey-text,167,551000,0.0-15.0-3.9,72210,List2B,white,woman,,,,,"{""Q0"":""Luke is kissing Ruth""}","<img src=""stim_listB/kiss1.gif""</stim_listB>",is kissing,
null,"<div style=""font-size:60px;"">+</div>",,html-keyboard-response,168,551502,0.0-15.0-0.10,72210,List2B,white,woman,,,,null,,,,
null,"<img src=""stim_listB/kiss5.gif""</stim_listB>",,html-keyboard-response,169,553503,0.0-15.0-1.10,72210,List2B,white,woman,,,,null,,,,
null,is kissing,,html-keyboard-response,170,555505,0.0-15.0-2.10,72210,List2B,white,woman,,,,null,,,,
5509,,,survey-text,171,561014,0.0-15.0-3.10,72210,List2B,white,woman,,,,,"{""Q0"":""Luke is kissing Fred""}","<img src=""stim_listB/kiss5.gif""</stim_listB>",is kissing,
null,"<div style=""font-size:60px;"">+</div>",,html-keyboard-response,172,561515,0.0-15.0-0.11,72210,List2B,white,woman,,,,null,,,,
null,"<img src=""stim_listB/hug8.gif""</stim_listB>",,html-keyboard-response,173,563517,0.0-15.0-1.11,72210,List2B,white,woman,,,,null,,,,
null,are hugging each other,,html-keyboard-response,174,565519,0.0-15.0-2.11,72210,List2B,white,woman,,,,null,,,,
17979,,,survey-text,175,583498,0.0-15.0-3.11,72210,List2B,white,woman,,,,,"{""Q0"":""Jane and Kate are hugging each other""}","<img src=""stim_listB/hug8.gif""</stim_listB>",are hugging each other,
null,"<div style=""font-size:60px;"">+</div>",,html-keyboard-response,176,583999,0.0-15.0-0.12,72210,List2B,white,woman,,,,null,,,,
null,"<img src=""stim_listB/shout3.gif""</stim_listB>",,html-keyboard-response,177,586003,0.0-15.0-1.12,72210,List2B,white,woman,,,,null,,,,
null,is shouting at,,html-keyboard-response,178,588005,0.0-15.0-2.12,72210,List2B,white,woman,,,,null,,,,
6163,,,survey-text,179,594168,0.0-15.0-3.12,72210,List2B,white,woman,,,,,"{""Q0"":""Beth is shouting at Fred""}","<img src=""stim_listB/shout3.gif""</stim_listB>",is shouting at,
null,"<div style=""font-size:60px;"">+</div>",,html-keyboard-response,180,594671,0.0-15.0-0.13,72210,List2B,white,woman,,,,null,,,,
null,"<img src=""stim_listB/talk5.gif""</stim_listB>",,html-keyboard-response,181,596674,0.0-15.0-1.13,72210,List2B,white,woman,,,,null,,,,
null,is talking to,,html-keyboard-response,182,598678,0.0-15.0-2.13,72210,List2B,white,woman,,,,null,,,,
4868,,,survey-text,183,603546,0.0-15.0-3.13,72210,List2B,white,woman,,,,,"{""Q0"":""Luke is talking to Mike""}","<img src=""stim_listB/talk5.gif""</stim_listB>",is talking to,
null,"<div style=""font-size:60px;"">+</div>",,html-keyboard-response,184,604048,0.0-15.0-0.14,72210,List2B,white,woman,,,,null,,,,
null,"<img src=""stim_listB/dance3.gif""</stim_listB>",,html-keyboard-response,185,606050,0.0-15.0-1.14,72210,List2B,white,woman,,,,null,,,,
null,is dancing with,,html-keyboard-response,186,608052,0.0-15.0-2.14,72210,List2B,white,woman,,,,null,,,,
4555,,,survey-text,187,612609,0.0-15.0-3.14,72210,List2B,white,woman,,,,,"{""Q0"":""Kate is dancing with Fred""}","<img src=""stim_listB/dance3.gif""</stim_listB>",is dancing with,
null,"<div style=""font-size:60px;"">+</div>",,html-keyboard-response,188,613111,0.0-15.0-0.15,72210,List2B,white,woman,,,,null,,,,
null,"<img src=""stim_listB/dance7.gif""</stim_listB>",,html-keyboard-response,189,615112,0.0-15.0-1.15,72210,List2B,white,woman,,,,null,,,,
null,is dancing with,,html-keyboard-response,190,617113,0.0-15.0-2.15,72210,List2B,white,woman,,,,null,,,,
4508,,,survey-text,191,621623,0.0-15.0-3.15,72210,List2B,white,woman,,,,,"{""Q0"":""Kate is dancing with Ruth""}","<img src=""stim_listB/dance7.gif""</stim_listB>",is dancing with,
null,"<div style=""font-size:60px;"">+</div>",,html-keyboard-response,192,622124,0.0-15.0-0.16,72210,List2B,white,woman,,,,null,,,,
null,"<img src=""stim_listB/meet6.gif""</stim_listB>",,html-keyboard-response,193,624126,0.0-15.0-1.16,72210,List2B,white,woman,,,,null,,,,
null,are meeting each other,,html-keyboard-response,194,626127,0.0-15.0-2.16,72210,List2B,white,woman,,,,null,,,,
6824,,,survey-text,195,632953,0.0-15.0-3.16,72210,List2B,white,woman,,,,,"{""Q0"":""Luke and Fred are meeting each other""}","<img src=""stim_listB/meet6.gif""</stim_listB>",are meeting each other,
null,"<div style=""font-size:60px;"">+</div>",,html-keyboard-response,196,633454,0.0-15.0-0.17,72210,List2B,white,woman,,,,null,,,,
null,"<img src=""stim_listB/kiss4.gif""</stim_listB>",,html-keyboard-response,197,635457,0.0-15.0-1.17,72210,List2B,white,woman,,,,null,,,,
null,are kissing each other,,html-keyboard-response,198,637459,0.0-15.0-2.17,72210,List2B,white,woman,,,,null,,,,
6574,,,survey-text,199,644035,0.0-15.0-3.17,72210,List2B,white,woman,,,,,"{""Q0"":""Mike and Kate are kissing each other""}","<img src=""stim_listB/kiss4.gif""</stim_listB>",are kissing each other,
null,"<div style=""font-size:60px;"">+</div>",,html-keyboard-response,200,644538,0.0-15.0-0.18,72210,List2B,white,woman,,,,null,,,,
null,"<img src=""stim_listB/talk2.gif""</stim_listB>",,html-keyboard-response,201,646541,0.0-15.0-1.18,72210,List2B,white,woman,,,,null,,,,
null,are talking to each other,,html-keyboard-response,202,648542,0.0-15.0-2.18,72210,List2B,white,woman,,,,null,,,,
6613,,,survey-text,203,655156,0.0-15.0-3.18,72210,List2B,white,woman,,,,,"{""Q0"":""Dave and Ruth are talking to each other""}","<img src=""stim_listB/talk2.gif""</stim_listB>",are talking to each other,
null,"<div style=""font-size:60px;"">+</div>",,html-keyboard-response,204,655659,0.0-15.0-0.19,72210,List2B,white,woman,,,,null,,,,
null,"<img src=""stim_listB/touch3.gif""</stim_listB>",,html-keyboard-response,205,657660,0.0-15.0-1.19,72210,List2B,white,woman,,,,null,,,,
null,is touching,,html-keyboard-response,206,659662,0.0-15.0-2.19,72210,List2B,white,woman,,,,null,,,,
4460,,,survey-text,207,664123,0.0-15.0-3.19,72210,List2B,white,woman,,,,,"{""Q0"":""Kate is touching Mike""}","<img src=""stim_listB/touch3.gif""</stim_listB>",is touching,
4119,"<img src='img/portrait_matrix_list2.JPG' style='width:900px;height:500px;''></img><p>If you have memorised all the portraits and names and are ready to start, press Continue.</p><p><strong>Please note: Your memory of these faces will be tested 4 times during this experiment.</strong></p>",0,html-button-response,208,668242,0.0-16.0-0.0,72210,List2B,white,woman,,,,,,,,
1500,"<img src=""portrait/WM1.jpg""style=""width:400px;height:400px;""></img>",6,html-button-response,209,670745,0.0-16.0-1.0,72210,List2B,white,woman,,TRUE,6,,,,,
null,CORRECT,,html-keyboard-response,210,672249,0.0-16.0-2.0-0.0,72210,List2B,white,woman,,,,null,,,,
1051,"<img src=""portrait/WW1.jpg""style=""width:400px;height:400px;""></img>",1,html-button-response,211,673301,0.0-16.0-4.0,72210,List2B,white,woman,,TRUE,1,,,,,
null,CORRECT,,html-keyboard-response,212,674802,0.0-16.0-5.0-0.0,72210,List2B,white,woman,,,,null,,,,
1041,"<img src=""portrait/BW1.jpg""style=""width:400px;height:400px;""></img>",0,html-button-response,213,675844,0.0-16.0-7.0,72210,List2B,white,woman,,TRUE,0,,,,,
null,CORRECT,,html-keyboard-response,214,677346,0.0-16.0-8.0-0.0,72210,List2B,white,woman,,,,null,,,,
1191,"<img src=""portrait/WM2.jpg""style=""width:400px;height:400px;""></img>",7,html-button-response,215,678539,0.0-16.0-10.0,72210,List2B,white,woman,,TRUE,7,,,,,
null,CORRECT,,html-keyboard-response,216,680040,0.0-16.0-11.0-0.0,72210,List2B,white,woman,,,,null,,,,
1174,"<img src=""portrait/BM2.jpg""style=""width:400px;height:400px;""></img>",5,html-button-response,217,681215,0.0-16.0-13.0,72210,List2B,white,woman,,TRUE,5,,,,,
null,CORRECT,,html-keyboard-response,218,682718,0.0-16.0-14.0-0.0,72210,List2B,white,woman,,,,null,,,,
787,"<img src=""portrait/WW2.jpg""style=""width:400px;height:400px;""></img>",3,html-button-response,219,683507,0.0-16.0-16.0,72210,List2B,white,woman,,TRUE,3,,,,,
null,CORRECT,,html-keyboard-response,220,685008,0.0-16.0-17.0-0.0,72210,List2B,white,woman,,,,null,,,,
1861,"<img src=""portrait/BM1.jpg""style=""width:400px;height:400px;""></img>",4,html-button-response,221,686871,0.0-16.0-19.0,72210,List2B,white,woman,,TRUE,4,,,,,
null,CORRECT,,html-keyboard-response,222,688372,0.0-16.0-20.0-0.0,72210,List2B,white,woman,,,,null,,,,
1415,"<img src=""portrait/BW2.jpg""style=""width:400px;height:400px;""></img>",2,html-button-response,223,689789,0.0-16.0-22.0,72210,List2B,white,woman,,TRUE,2,,,,,
null,CORRECT,,html-keyboard-response,224,691292,0.0-16.0-23.0-0.0,72210,List2B,white,woman,,,,null,,,,
937,<p>You got 8 out of 8 right first time. Press Continue.</p>,0,html-button-response,225,692231,0.0-16.0-25.0,72210,List2B,white,woman,,,,,,,,
null,"<div style=""font-size:60px;"">+</div>",,html-keyboard-response,226,693735,0.0-17.0-0.0,72210,List2B,white,woman,,,,null,,,,
null,"<img src=""stim_listB/meet3.gif""</stim_listB>",,html-keyboard-response,227,695738,0.0-17.0-1.0,72210,List2B,white,woman,,,,null,,,,
null,is meeting,,html-keyboard-response,228,697738,0.0-17.0-2.0,72210,List2B,white,woman,,,,null,,,,
6015,,,survey-text,229,703755,0.0-17.0-3.0,72210,List2B,white,woman,,,,,"{""Q0"":""Kate is meeting Mike""}","<img src=""stim_listB/meet3.gif""</stim_listB>",is meeting,
null,"<div style=""font-size:60px;"">+</div>",,html-keyboard-response,230,704257,0.0-17.0-0.1,72210,List2B,white,woman,,,,null,,,,
null,"<img src=""stim_listB/meet4.gif""</stim_listB>",,html-keyboard-response,231,706259,0.0-17.0-1.1,72210,List2B,white,woman,,,,null,,,,
null,are meeting each other,,html-keyboard-response,232,708261,0.0-17.0-2.1,72210,List2B,white,woman,,,,null,,,,
6784,,,survey-text,233,715045,0.0-17.0-3.1,72210,List2B,white,woman,,,,,"{""Q0"":""Beth and Fred are meeting each other""}","<img src=""stim_listB/meet4.gif""</stim_listB>",are meeting each other,
null,"<div style=""font-size:60px;"">+</div>",,html-keyboard-response,234,715546,0.0-17.0-0.2,72210,List2B,white,woman,,,,null,,,,
null,"<img src=""stim_listB/marry6.gif""</stim_listB>",,html-keyboard-response,235,717550,0.0-17.0-1.2,72210,List2B,white,woman,,,,null,,,,
null,are marrying each other,,html-keyboard-response,236,719552,0.0-17.0-2.2,72210,List2B,white,woman,,,,null,,,,
10298,,,survey-text,237,729851,0.0-17.0-3.2,72210,List2B,white,woman,,,,,"{""Q0"":""Luke and Mike are marrying each other""}","<img src=""stim_listB/marry6.gif""</stim_listB>",are marrying each other,
null,"<div style=""font-size:60px;"">+</div>",,html-keyboard-response,238,730352,0.0-17.0-0.3,72210,List2B,white,woman,,,,null,,,,
null,"<img src=""stim_listB/hug6.gif""</stim_listB>",,html-keyboard-response,239,732353,0.0-17.0-1.3,72210,List2B,white,woman,,,,null,,,,
null,are hugging each other,,html-keyboard-response,240,734355,0.0-17.0-2.3,72210,List2B,white,woman,,,,null,,,,
11395,,,survey-text,241,745751,0.0-17.0-3.3,72210,List2B,white,woman,,,,,"{""Q0"":""Dave and Mike are hugging each other""}","<img src=""stim_listB/hug6.gif""</stim_listB>",are hugging each other,
null,"<div style=""font-size:60px;"">+</div>",,html-keyboard-response,242,746253,0.0-17.0-0.4,72210,List2B,white,woman,,,,null,,,,
null,"<img src=""stim_listB/hug2.gif""</stim_listB>",,html-keyboard-response,243,748254,0.0-17.0-1.4,72210,List2B,white,woman,,,,null,,,,
null,are hugging each other,,html-keyboard-response,244,750255,0.0-17.0-2.4,72210,List2B,white,woman,,,,null,,,,
8462,,,survey-text,245,758719,0.0-17.0-3.4,72210,List2B,white,woman,,,,,"{""Q0"":""Jane and Dave are hugging each other""}","<img src=""stim_listB/hug2.gif""</stim_listB>",are hugging each other,
null,"<div style=""font-size:60px;"">+</div>",,html-keyboard-response,246,759220,0.0-17.0-0.5,72210,List2B,white,woman,,,,null,,,,
null,"<img src=""stim_listB/hug5.gif""</stim_listB>",,html-keyboard-response,247,761222,0.0-17.0-1.5,72210,List2B,white,woman,,,,null,,,,
null,is hugging,,html-keyboard-response,248,763225,0.0-17.0-2.5,72210,List2B,white,woman,,,,null,,,,
4592,,,survey-text,249,767819,0.0-17.0-3.5,72210,List2B,white,woman,,,,,"{""Q0"":""Luke is hugging Fred""}","<img src=""stim_listB/hug5.gif""</stim_listB>",is hugging,
null,"<div style=""font-size:60px;"">+</div>",,html-keyboard-response,250,768319,0.0-17.0-0.6,72210,List2B,white,woman,,,,null,,,,
null,"<img src=""stim_listB/shout2.gif""</stim_listB>",,html-keyboard-response,251,770321,0.0-17.0-1.6,72210,List2B,white,woman,,,,null,,,,
null,are shouting at each other,,html-keyboard-response,252,772322,0.0-17.0-2.6,72210,List2B,white,woman,,,,null,,,,
10321,,,survey-text,253,782645,0.0-17.0-3.6,72210,List2B,white,woman,,,,,"{""Q0"":""Jane and Dave are shouting at each other""}","<img src=""stim_listB/shout2.gif""</stim_listB>",are shouting at each other,
null,"<div style=""font-size:60px;"">+</div>",,html-keyboard-response,254,783146,0.0-17.0-0.7,72210,List2B,white,woman,,,,null,,,,
null,"<img src=""stim_listB/hug3.gif""</stim_listB>",,html-keyboard-response,255,785150,0.0-17.0-1.7,72210,List2B,white,woman,,,,null,,,,
null,is hugging,,html-keyboard-response,256,787153,0.0-17.0-2.7,72210,List2B,white,woman,,,,null,,,,
4479,,,survey-text,257,791633,0.0-17.0-3.7,72210,List2B,white,woman,,,,,"{""Q0"":""Beth is hugging Fred""}","<img src=""stim_listB/hug3.gif""</stim_listB>",is hugging,
null,"<div style=""font-size:60px;"">+</div>",,html-keyboard-response,258,792134,0.0-17.0-0.8,72210,List2B,white,woman,,,,null,,,,
null,"<img src=""stim_listB/marry1.gif""</stim_listB>",,html-keyboard-response,259,794139,0.0-17.0-1.8,72210,List2B,white,woman,,,,null,,,,
null,is marrying,,html-keyboard-response,260,796140,0.0-17.0-2.8,72210,List2B,white,woman,,,,null,,,,
5221,,,survey-text,261,801363,0.0-17.0-3.8,72210,List2B,white,woman,,,,,"{""Q0"":""Ruth is marrying Dave""}","<img src=""stim_listB/marry1.gif""</stim_listB>",is marrying,
null,"<div style=""font-size:60px;"">+</div>",,html-keyboard-response,262,801863,0.0-17.0-0.9,72210,List2B,white,woman,,,,null,,,,
null,"<img src=""stim_listB/argue4.gif""</stim_listB>",,html-keyboard-response,263,803865,0.0-17.0-1.9,72210,List2B,white,woman,,,,null,,,,
null,are arguing with each other,,html-keyboard-response,264,805866,0.0-17.0-2.9,72210,List2B,white,woman,,,,null,,,,
8622,,,survey-text,265,814489,0.0-17.0-3.9,72210,List2B,white,woman,,,,,"{""Q0"":""Kate and Fred are arguing with each other""}","<img src=""stim_listB/argue4.gif""</stim_listB>",are arguing with each other,
null,"<div style=""font-size:60px;"">+</div>",,html-keyboard-response,266,814989,0.0-17.0-0.10,72210,List2B,white,woman,,,,null,,,,
null,"<img src=""stim_listB/dance6.gif""</stim_listB>",,html-keyboard-response,267,816991,0.0-17.0-1.10,72210,List2B,white,woman,,,,null,,,,
null,are dancing with each other,,html-keyboard-response,268,818993,0.0-17.0-2.10,72210,List2B,white,woman,,,,null,,,,
6889,,,survey-text,269,825883,0.0-17.0-3.10,72210,List2B,white,woman,,,,,"{""Q0"":""Dave and Fred are dancing with each other""}","<img src=""stim_listB/dance6.gif""</stim_listB>",are dancing with each other,
null,"<div style=""font-size:60px;"">+</div>",,html-keyboard-response,270,826385,0.0-17.0-0.11,72210,List2B,white,woman,,,,null,,,,
null,"<img src=""stim_listB/shout8.gif""</stim_listB>",,html-keyboard-response,271,828387,0.0-17.0-1.11,72210,List2B,white,woman,,,,null,,,,
null,are shouting at each other,,html-keyboard-response,272,830389,0.0-17.0-2.11,72210,List2B,white,woman,,,,null,,,,
6185,,,survey-text,273,836575,0.0-17.0-3.11,72210,List2B,white,woman,,,,,"{""Q0"":""Jane and Kate are shouting at each other""}","<img src=""stim_listB/shout8.gif""</stim_listB>",are shouting at each other,
null,"<div style=""font-size:60px;"">+</div>",,html-keyboard-response,274,837077,0.0-17.0-0.12,72210,List2B,white,woman,,,,null,,,,
null,"<img src=""stim_listB/touch2.gif""</stim_listB>",,html-keyboard-response,275,839080,0.0-17.0-1.12,72210,List2B,white,woman,,,,null,,,,
null,are touching each other,,html-keyboard-response,276,841082,0.0-17.0-2.12,72210,List2B,white,woman,,,,null,,,,
5952,,,survey-text,277,847035,0.0-17.0-3.12,72210,List2B,white,woman,,,,,"{""Q0"":""Luke and Ruth are touching each other""}","<img src=""stim_listB/touch2.gif""</stim_listB>",are touching each other,
null,"<div style=""font-size:60px;"">+</div>",,html-keyboard-response,278,847536,0.0-17.0-0.13,72210,List2B,white,woman,,,,null,,,,
null,"<img src=""stim_listB/shout7.gif""</stim_listB>",,html-keyboard-response,279,849539,0.0-17.0-1.13,72210,List2B,white,woman,,,,null,,,,
null,is shouting at,,html-keyboard-response,280,851541,0.0-17.0-2.13,72210,List2B,white,woman,,,,null,,,,
5417,,,survey-text,281,856959,0.0-17.0-3.13,72210,List2B,white,woman,,,,,"{""Q0"":""Beth is shouting at Ruth""}","<img src=""stim_listB/shout7.gif""</stim_listB>",is shouting at,
null,"<div style=""font-size:60px;"">+</div>",,html-keyboard-response,282,857460,0.0-17.0-0.14,72210,List2B,white,woman,,,,null,,,,
null,"<img src=""stim_listB/meet7.gif""</stim_listB>",,html-keyboard-response,283,859462,0.0-17.0-1.14,72210,List2B,white,woman,,,,null,,,,
null,is meeting,,html-keyboard-response,284,861464,0.0-17.0-2.14,72210,List2B,white,woman,,,,null,,,,
4953,,,survey-text,285,866419,0.0-17.0-3.14,72210,List2B,white,woman,,,,,"{""Q0"":""Kate is meeting Jane""}","<img src=""stim_listB/meet7.gif""</stim_listB>",is meeting,
null,"<div style=""font-size:60px;"">+</div>",,html-keyboard-response,286,866919,0.0-17.0-0.15,72210,List2B,white,woman,,,,null,,,,
null,"<img src=""stim_listB/marry3.gif""</stim_listB>",,html-keyboard-response,287,868921,0.0-17.0-1.15,72210,List2B,white,woman,,,,null,,,,
null,is marrying,,html-keyboard-response,288,870923,0.0-17.0-2.15,72210,List2B,white,woman,,,,null,,,,
5670,,,survey-text,289,876595,0.0-17.0-3.15,72210,List2B,white,woman,,,,,"{""Q0"":""Beth is marrying Mike""}","<img src=""stim_listB/marry3.gif""</stim_listB>",is marrying,
null,"<div style=""font-size:60px;"">+</div>",,html-keyboard-response,290,877097,0.0-17.0-0.16,72210,List2B,white,woman,,,,null,,,,
null,"<img src=""stim_listB/fight6.gif""</stim_listB>",,html-keyboard-response,291,879099,0.0-17.0-1.16,72210,List2B,white,woman,,,,null,,,,
null,are fighting each other,,html-keyboard-response,292,881100,0.0-17.0-2.16,72210,List2B,white,woman,,,,null,,,,
8622,,,survey-text,293,889723,0.0-17.0-3.16,72210,List2B,white,woman,,,,,"{""Q0"":""Luke and Fred are fighting with each other""}","<img src=""stim_listB/fight6.gif""</stim_listB>",are fighting each other,
null,"<div style=""font-size:60px;"">+</div>",,html-keyboard-response,294,890224,0.0-17.0-0.17,72210,List2B,white,woman,,,,null,,,,
null,"<img src=""stim_listB/meet2.gif""</stim_listB>",,html-keyboard-response,295,892227,0.0-17.0-1.17,72210,List2B,white,woman,,,,null,,,,
null,are meeting each other,,html-keyboard-response,296,894228,0.0-17.0-2.17,72210,List2B,white,woman,,,,null,,,,
5998,,,survey-text,297,900227,0.0-17.0-3.17,72210,List2B,white,woman,,,,,"{""Q0"":""Luke and Ruth are meeting each other""}","<img src=""stim_listB/meet2.gif""</stim_listB>",are meeting each other,
null,"<div style=""font-size:60px;"">+</div>",,html-keyboard-response,298,900728,0.0-17.0-0.18,72210,List2B,white,woman,,,,null,,,,
null,"<img src=""stim_listB/kiss2.gif""</stim_listB>",,html-keyboard-response,299,902729,0.0-17.0-1.18,72210,List2B,white,woman,,,,null,,,,
null,are kissing each other,,html-keyboard-response,300,904730,0.0-17.0-2.18,72210,List2B,white,woman,,,,null,,,,
5690,,,survey-text,301,910421,0.0-17.0-3.18,72210,List2B,white,woman,,,,,"{""Q0"":""Jane and Dave are kissing each other""}","<img src=""stim_listB/kiss2.gif""</stim_listB>",are kissing each other,
null,"<div style=""font-size:60px;"">+</div>",,html-keyboard-response,302,910922,0.0-17.0-0.19,72210,List2B,white,woman,,,,null,,,,
null,"<img src=""stim_listB/marry5.gif""</stim_listB>",,html-keyboard-response,303,912925,0.0-17.0-1.19,72210,List2B,white,woman,,,,null,,,,
null,is marrying,,html-keyboard-response,304,914927,0.0-17.0-2.19,72210,List2B,white,woman,,,,null,,,,
6325,,,survey-text,305,921253,0.0-17.0-3.19,72210,List2B,white,woman,,,,,"{""Q0"":""Dave is marrying Fred""}","<img src=""stim_listB/marry5.gif""</stim_listB>",is marrying,
1275,"<img src='img/portrait_matrix_list2.JPG' style='width:900px;height:500px;''></img><p>If you have memorised all the portraits and names and are ready to start, press Continue.</p><p><strong>Please note: Your memory of these faces will be tested 4 times during this experiment.</strong></p>",0,html-button-response,306,922529,0.0-18.0-0.0,72210,List2B,white,woman,,,,,,,,
992,"<img src=""portrait/BM2.jpg""style=""width:400px;height:400px;""></img>",5,html-button-response,307,924523,0.0-18.0-1.0,72210,List2B,white,woman,,TRUE,5,,,,,
null,CORRECT,,html-keyboard-response,308,926024,0.0-18.0-2.0-0.0,72210,List2B,white,woman,,,,null,,,,
1406,"<img src=""portrait/WW2.jpg""style=""width:400px;height:400px;""></img>",3,html-button-response,309,927433,0.0-18.0-4.0,72210,List2B,white,woman,,TRUE,3,,,,,
null,CORRECT,,html-keyboard-response,310,928934,0.0-18.0-5.0-0.0,72210,List2B,white,woman,,,,null,,,,
1143,"<img src=""portrait/WM2.jpg""style=""width:400px;height:400px;""></img>",7,html-button-response,311,930081,0.0-18.0-7.0,72210,List2B,white,woman,,TRUE,7,,,,,
null,CORRECT,,html-keyboard-response,312,931584,0.0-18.0-8.0-0.0,72210,List2B,white,woman,,,,null,,,,
1143,"<img src=""portrait/BM1.jpg""style=""width:400px;height:400px;""></img>",4,html-button-response,313,932733,0.0-18.0-10.0,72210,List2B,white,woman,,TRUE,4,,,,,
null,CORRECT,,html-keyboard-response,314,934237,0.0-18.0-11.0-0.0,72210,List2B,white,woman,,,,null,,,,
1156,"<img src=""portrait/WW1.jpg""style=""width:400px;height:400px;""></img>",1,html-button-response,315,935395,0.0-18.0-13.0,72210,List2B,white,woman,,TRUE,1,,,,,
null,CORRECT,,html-keyboard-response,316,936897,0.0-18.0-14.0-0.0,72210,List2B,white,woman,,,,null,,,,
877,"<img src=""portrait/BW2.jpg""style=""width:400px;height:400px;""></img>",2,html-button-response,317,937777,0.0-18.0-16.0,72210,List2B,white,woman,,TRUE,2,,,,,
null,CORRECT,,html-keyboard-response,318,939281,0.0-18.0-17.0-0.0,72210,List2B,white,woman,,,,null,,,,
1199,"<img src=""portrait/WM1.jpg""style=""width:400px;height:400px;""></img>",6,html-button-response,319,940483,0.0-18.0-19.0,72210,List2B,white,woman,,TRUE,6,,,,,
null,CORRECT,,html-keyboard-response,320,941986,0.0-18.0-20.0-0.0,72210,List2B,white,woman,,,,null,,,,
1118,"<img src=""portrait/BW1.jpg""style=""width:400px;height:400px;""></img>",0,html-button-response,321,943105,0.0-18.0-22.0,72210,List2B,white,woman,,TRUE,0,,,,,
null,CORRECT,,html-keyboard-response,322,944608,0.0-18.0-23.0-0.0,72210,List2B,white,woman,,,,null,,,,
981,<p>You got 8 out of 8 right first time. Press Continue.</p>,0,html-button-response,323,945590,0.0-18.0-25.0,72210,List2B,white,woman,,,,,,,,
null,"<div style=""font-size:60px;"">+</div>",,html-keyboard-response,324,947095,0.0-19.0-0.0,72210,List2B,white,woman,,,,null,,,,
null,"<img src=""stim_listB/shout4.gif""</stim_listB>",,html-keyboard-response,325,949098,0.0-19.0-1.0,72210,List2B,white,woman,,,,null,,,,
null,are shouting at each other,,html-keyboard-response,326,951099,0.0-19.0-2.0,72210,List2B,white,woman,,,,null,,,,
6245,,,survey-text,327,957347,0.0-19.0-3.0,72210,List2B,white,woman,,,,,"{""Q0"":""Kate and Mike are shouting at each other""}","<img src=""stim_listB/shout4.gif""</stim_listB>",are shouting at each other,
null,"<div style=""font-size:60px;"">+</div>",,html-keyboard-response,328,957847,0.0-19.0-0.1,72210,List2B,white,woman,,,,null,,,,
null,"<img src=""stim_listB/kiss3.gif""</stim_listB>",,html-keyboard-response,329,959852,0.0-19.0-1.1,72210,List2B,white,woman,,,,null,,,,
null,is kissing,,html-keyboard-response,330,961854,0.0-19.0-2.1,72210,List2B,white,woman,,,,null,,,,
5522,,,survey-text,331,967377,0.0-19.0-3.1,72210,List2B,white,woman,,,,,"{""Q0"":""Beth is kissing Fred""}","<img src=""stim_listB/kiss3.gif""</stim_listB>",is kissing,
null,"<div style=""font-size:60px;"">+</div>",,html-keyboard-response,332,967878,0.0-19.0-0.2,72210,List2B,white,woman,,,,null,,,,
null,"<img src=""stim_listB/meet8.gif""</stim_listB>",,html-keyboard-response,333,969880,0.0-19.0-1.2,72210,List2B,white,woman,,,,null,,,,
null,are meeting each other,,html-keyboard-response,334,971882,0.0-19.0-2.2,72210,List2B,white,woman,,,,null,,,,
6049,,,survey-text,335,977931,0.0-19.0-3.2,72210,List2B,white,woman,,,,,"{""Q0"":""Ruth and Beth are meeting each other""}","<img src=""stim_listB/meet8.gif""</stim_listB>",are meeting each other,
null,"<div style=""font-size:60px;"">+</div>",,html-keyboard-response,336,978433,0.0-19.0-0.3,72210,List2B,white,woman,,,,null,,,,
null,"<img src=""stim_listB/talk7.gif""</stim_listB>",,html-keyboard-response,337,980435,0.0-19.0-1.3,72210,List2B,white,woman,,,,null,,,,
null,is talking to,,html-keyboard-response,338,982437,0.0-19.0-2.3,72210,List2B,white,woman,,,,null,,,,
4654,,,survey-text,339,987091,0.0-19.0-3.3,72210,List2B,white,woman,,,,,"{""Q0"":""Kate is talking to Ruth""}","<img src=""stim_listB/talk7.gif""</stim_listB>",is talking to,
null,"<div style=""font-size:60px;"">+</div>",,html-keyboard-response,340,987592,0.0-19.0-0.4,72210,List2B,white,woman,,,,null,,,,
null,"<img src=""stim_listB/argue7.gif""</stim_listB>",,html-keyboard-response,341,989594,0.0-19.0-1.4,72210,List2B,white,woman,,,,null,,,,
null,is arguing with,,html-keyboard-response,342,991595,0.0-19.0-2.4,72210,List2B,white,woman,,,,null,,,,
5532,,,survey-text,343,997127,0.0-19.0-3.4,72210,List2B,white,woman,,,,,"{""Q0"":""Jane is arguing with Beth""}","<img src=""stim_listB/argue7.gif""</stim_listB>",is arguing with,
null,"<div style=""font-size:60px;"">+</div>",,html-keyboard-response,344,997628,0.0-19.0-0.5,72210,List2B,white,woman,,,,null,,,,
null,"<img src=""stim_listB/talk6.gif""</stim_listB>",,html-keyboard-response,345,999630,0.0-19.0-1.5,72210,List2B,white,woman,,,,null,,,,
null,are talking to each other,,html-keyboard-response,346,1001632,0.0-19.0-2.5,72210,List2B,white,woman,,,,null,,,,
7224,,,survey-text,347,1008857,0.0-19.0-3.5,72210,List2B,white,woman,,,,,"{""Q0"":""Dave and Fred are talking to each other""}","<img src=""stim_listB/talk6.gif""</stim_listB>",are talking to each other,
null,"<div style=""font-size:60px;"">+</div>",,html-keyboard-response,348,1009359,0.0-19.0-0.6,72210,List2B,white,woman,,,,null,,,,
null,"<img src=""stim_listB/talk4.gif""</stim_listB>",,html-keyboard-response,349,1011361,0.0-19.0-1.6,72210,List2B,white,woman,,,,null,,,,
null,are talking to each other,,html-keyboard-response,350,1013364,0.0-19.0-2.6,72210,List2B,white,woman,,,,null,,,,
9001,,,survey-text,351,1022365,0.0-19.0-3.6,72210,List2B,white,woman,,,,,"{""Q0"":""Mike and Beth are talking to each other""}","<img src=""stim_listB/talk4.gif""</stim_listB>",are talking to each other,
null,"<div style=""font-size:60px;"">+</div>",,html-keyboard-response,352,1022867,0.0-19.0-0.7,72210,List2B,white,woman,,,,null,,,,
null,"<img src=""stim_listB/talk1.gif""</stim_listB>",,html-keyboard-response,353,1024870,0.0-19.0-1.7,72210,List2B,white,woman,,,,null,,,,
null,is talking to,,html-keyboard-response,354,1026871,0.0-19.0-2.7,72210,List2B,white,woman,,,,null,,,,
5192,,,survey-text,355,1032064,0.0-19.0-3.7,72210,List2B,white,woman,,,,,"{""Q0"":""Jane is talking to Luke""}","<img src=""stim_listB/talk1.gif""</stim_listB>",is talking to,
null,"<div style=""font-size:60px;"">+</div>",,html-keyboard-response,356,1032566,0.0-19.0-0.8,72210,List2B,white,woman,,,,null,,,,
null,"<img src=""stim_listB/hug7.gif""</stim_listB>",,html-keyboard-response,357,1034568,0.0-19.0-1.8,72210,List2B,white,woman,,,,null,,,,
null,is hugging,,html-keyboard-response,358,1036569,0.0-19.0-2.8,72210,List2B,white,woman,,,,null,,,,
4074,,,survey-text,359,1040645,0.0-19.0-3.8,72210,List2B,white,woman,,,,,"{""Q0"":""Beth is hugging Ruth""}","<img src=""stim_listB/hug7.gif""</stim_listB>",is hugging,
null,"<div style=""font-size:60px;"">+</div>",,html-keyboard-response,360,1041146,0.0-19.0-0.9,72210,List2B,white,woman,,,,null,,,,
null,"<img src=""stim_listB/meet1.gif""</stim_listB>",,html-keyboard-response,361,1043147,0.0-19.0-1.9,72210,List2B,white,woman,,,,null,,,,
null,is meeting,,html-keyboard-response,362,1045148,0.0-19.0-2.9,72210,List2B,white,woman,,,,null,,,,
5405,,,survey-text,363,1050555,0.0-19.0-3.9,72210,List2B,white,woman,,,,,"{""Q0"":""Jane is meeting Dave""}","<img src=""stim_listB/meet1.gif""</stim_listB>",is meeting,
null,"<div style=""font-size:60px;"">+</div>",,html-keyboard-response,364,1051056,0.0-19.0-0.10,72210,List2B,white,woman,,,,null,,,,
null,"<img src=""stim_listB/dance2.gif""</stim_listB>",,html-keyboard-response,365,1053058,0.0-19.0-1.10,72210,List2B,white,woman,,,,null,,,,
null,are dancing with each other,,html-keyboard-response,366,1055060,0.0-19.0-2.10,72210,List2B,white,woman,,,,null,,,,
5709,,,survey-text,367,1060771,0.0-19.0-3.10,72210,List2B,white,woman,,,,,"{""Q0"":""Dave and Ruth are dancing with each other""}","<img src=""stim_listB/dance2.gif""</stim_listB>",are dancing with each other,
null,"<div style=""font-size:60px;"">+</div>",,html-keyboard-response,368,1061273,0.0-19.0-0.11,72210,List2B,white,woman,,,,null,,,,
null,"<img src=""stim_listB/argue1.gif""</stim_listB>",,html-keyboard-response,369,1063274,0.0-19.0-1.11,72210,List2B,white,woman,,,,null,,,,
null,is arguing with,,html-keyboard-response,370,1065276,0.0-19.0-2.11,72210,List2B,white,woman,,,,null,,,,
5170,,,survey-text,371,1070449,0.0-19.0-3.11,72210,List2B,white,woman,,,,,"{""Q0"":""Ruth is arguing with Dave""}","<img src=""stim_listB/argue1.gif""</stim_listB>",is arguing with,
null,"<div style=""font-size:60px;"">+</div>",,html-keyboard-response,372,1070950,0.0-19.0-0.12,72210,List2B,white,woman,,,,null,,,,
null,"<img src=""stim_listB/fight7.gif""</stim_listB>",,html-keyboard-response,373,1072953,0.0-19.0-1.12,72210,List2B,white,woman,,,,null,,,,
null,is fighting,,html-keyboard-response,374,1074954,0.0-19.0-2.12,72210,List2B,white,woman,,,,null,,,,
4345,,,survey-text,375,1079301,0.0-19.0-3.12,72210,List2B,white,woman,,,,,"{""Q0"":""Kate is fighting Jane""}","<img src=""stim_listB/fight7.gif""</stim_listB>",is fighting,
null,"<div style=""font-size:60px;"">+</div>",,html-keyboard-response,376,1079802,0.0-19.0-0.13,72210,List2B,white,woman,,,,null,,,,
null,"<img src=""stim_listB/fight2.gif""</stim_listB>",,html-keyboard-response,377,1081804,0.0-19.0-1.13,72210,List2B,white,woman,,,,null,,,,
null,are fighting each other,,html-keyboard-response,378,1083806,0.0-19.0-2.13,72210,List2B,white,woman,,,,null,,,,
6365,,,survey-text,379,1090173,0.0-19.0-3.13,72210,List2B,white,woman,,,,,"{""Q0"":""Luke and Ruth are fighting each other""}","<img src=""stim_listB/fight2.gif""</stim_listB>",are fighting each other,
null,"<div style=""font-size:60px;"">+</div>",,html-keyboard-response,380,1090675,0.0-19.0-0.14,72210,List2B,white,woman,,,,null,,,,
null,"<img src=""stim_listB/marry4.gif""</stim_listB>",,html-keyboard-response,381,1092677,0.0-19.0-1.14,72210,List2B,white,woman,,,,null,,,,
null,are marrying each other,,html-keyboard-response,382,1094678,0.0-19.0-2.14,72210,List2B,white,woman,,,,null,,,,
7025,,,survey-text,383,1101705,0.0-19.0-3.14,72210,List2B,white,woman,,,,,"{""Q0"":""Kate and Fred are marrying each other""}","<img src=""stim_listB/marry4.gif""</stim_listB>",are marrying each other,
null,"<div style=""font-size:60px;"">+</div>",,html-keyboard-response,384,1102207,0.0-19.0-0.15,72210,List2B,white,woman,,,,null,,,,
null,"<img src=""stim_listB/shout6.gif""</stim_listB>",,html-keyboard-response,385,1104209,0.0-19.0-1.15,72210,List2B,white,woman,,,,null,,,,
null,are shouting at each other,,html-keyboard-response,386,1106212,0.0-19.0-2.15,72210,List2B,white,woman,,,,null,,,,
6503,,,survey-text,387,1112717,0.0-19.0-3.15,72210,List2B,white,woman,,,,,"{""Q0"":""Dave and Mike are shouting at each other""}","<img src=""stim_listB/shout6.gif""</stim_listB>",are shouting at each other,
null,"<div style=""font-size:60px;"">+</div>",,html-keyboard-response,388,1113218,0.0-19.0-0.16,72210,List2B,white,woman,,,,null,,,,
null,"<img src=""stim_listB/talk8.gif""</stim_listB>",,html-keyboard-response,389,1115224,0.0-19.0-1.16,72210,List2B,white,woman,,,,null,,,,
null,are talking to each other,,html-keyboard-response,390,1117226,0.0-19.0-2.16,72210,List2B,white,woman,,,,null,,,,
6478,,,survey-text,391,1123704,0.0-19.0-3.16,72210,List2B,white,woman,,,,,"{""Q0"":""Jane and Beth are talking to each other""}","<img src=""stim_listB/talk8.gif""</stim_listB>",are talking to each other,
null,"<div style=""font-size:60px;"">+</div>",,html-keyboard-response,392,1124206,0.0-19.0-0.17,72210,List2B,white,woman,,,,null,,,,
null,"<img src=""stim_listB/hug4.gif""</stim_listB>",,html-keyboard-response,393,1126208,0.0-19.0-1.17,72210,List2B,white,woman,,,,null,,,,
null,are hugging each other,,html-keyboard-response,394,1128211,0.0-19.0-2.17,72210,List2B,white,woman,,,,null,,,,
5702,,,survey-text,395,1133915,0.0-19.0-3.17,72210,List2B,white,woman,,,,,"{""Q0"":""Mike and Kate are hugging each other""}","<img src=""stim_listB/hug4.gif""</stim_listB>",are hugging each other,
null,"<div style=""font-size:60px;"">+</div>",,html-keyboard-response,396,1134417,0.0-19.0-0.18,72210,List2B,white,woman,,,,null,,,,
null,"<img src=""stim_listB/fight8.gif""</stim_listB>",,html-keyboard-response,397,1136419,0.0-19.0-1.18,72210,List2B,white,woman,,,,null,,,,
null,are fighting each other,,html-keyboard-response,398,1138421,0.0-19.0-2.18,72210,List2B,white,woman,,,,null,,,,
7312,,,survey-text,399,1145735,0.0-19.0-3.18,72210,List2B,white,woman,,,,,"{""Q0"":""Ruth and Beth are fighting each other""}","<img src=""stim_listB/fight8.gif""</stim_listB>",are fighting each other,
null,"<div style=""font-size:60px;"">+</div>",,html-keyboard-response,400,1146236,0.0-19.0-0.19,72210,List2B,white,woman,,,,null,,,,
null,"<img src=""stim_listB/fight4.gif""</stim_listB>",,html-keyboard-response,401,1148238,0.0-19.0-1.19,72210,List2B,white,woman,,,,null,,,,
null,are fighting each other,,html-keyboard-response,402,1150240,0.0-19.0-2.19,72210,List2B,white,woman,,,,null,,,,
7495,,,survey-text,403,1157737,0.0-19.0-3.19,72210,List2B,white,woman,,,,,"{""Q0"":""Fred and Beth are fighting each other""}","<img src=""stim_listB/fight4.gif""</stim_listB>",are fighting each other,
1927,<p>Thank you for completing that task.</p><p>The final part of this session is a short questionnaire.</p><p>Press Continue.</p>,0,html-button-response,404,1159665,0.0-20.0,72210,List2B,white,woman,,,,,,,,
16077,,,survey-text,405,1176744,0.0-21.0,72210,List2B,white,woman,,,,,"{""Q0"":""24"",""Q1"":""English"",""Q2"":""English"",""Q3"":""United States"",""Q4"":""White"",""Q5"":""Female""}",,,demographics
43727,,,survey-likert,406,1220476,0.0-22.0,72210,List2B,white,woman,,,,,"{""Q0"":3,""Q1"":2,""Q2"":4,""Q3"":5,""Q4"":5,""Q5"":3,""Q6"":3,""Q7"":1,""Q8"":4,""Q9"":3,""Q10"":1,""Q11"":2,""Q12"":1,""Q13"":1}",,,likert_race
30651,,,survey-likert,407,1251131,0.0-23.0,72210,List2B,white,woman,,,,,"{""Q0"":5,""Q1"":5,""Q2"":6,""Q3"":6,""Q4"":6,""Q5"":3,""Q6"":4,""Q7"":5,""Q8"":5,""Q9"":5,""Q10"":2,""Q11"":2,""Q12"":4,""Q13"":1}",,,likert_gender
2443,,,survey-text,408,1253575,0.0-24.0,72210,List2B,white,woman,,,,,"{""Q0"":""ccc""}",,,worker_id
27995,,,external-html,409,1282054,0.0-25.0,72210,List2B,white,woman,debrief.html,,,,,,,
