rt,stimulus,button_pressed,trial_type,trial_index,time_elapsed,internal_node_id,subject,list,ppt_race,ppt_gender,url,first_guess,correct,key_press,responses,image_type,phrase_type,test_part
21017,Welcome to the experiment. Press Continue to begin.,0,html-button-response,0,21022,0.0-0.0,73451,List2B,white,woman,,,,,,,,
35896,,,external-html,1,58141,0.0-1.0,73451,List2B,white,woman,consent.html,,,,,,,
51240,"<p>On the next page, you will see portraits of 8 people and their names.</p><p>Your first task is to take a few minutes to memorise the names of these people.</p><p>You will have to recall their names during the rest of the experiment, so it is</p><p>essential that you try to memorise these people and their names as best as you can.</p><br><p><strong>You will then be tested on your memory of these names and portraits.</strong></p><br><p>The experiment will start after you have completed this memory test.</p><br><p>Ready?</p>",0,html-button-response,2,109384,0.0-2.0,73451,List2B,white,woman,,,,,,,,
429075,"<img src='img/portrait_matrix_list2.JPG' style='width:900px;height:500px;''></img><p>If you have memorised all the portraits and names and are ready to start, press Continue.</p><p><strong>Please note: Your memory of these faces will be tested 4 times during this experiment.</strong></p>",0,html-button-response,3,539465,0.0-3.0-0.0,73451,List2B,white,woman,,,,,,,,
2896,"<img src=""portrait/BM2.jpg""style=""width:400px;height:400px;""></img>",5,html-button-response,4,543367,0.0-3.0-1.0,73451,List2B,white,woman,,TRUE,5,,,,,
null,CORRECT,,html-keyboard-response,5,544876,0.0-3.0-2.0-0.0,73451,List2B,white,woman,,,,null,,,,
1976,"<img src=""portrait/BM1.jpg""style=""width:400px;height:400px;""></img>",4,html-button-response,6,546854,0.0-3.0-4.0,73451,List2B,white,woman,,TRUE,4,,,,,
null,CORRECT,,html-keyboard-response,7,548361,0.0-3.0-5.0-0.0,73451,List2B,white,woman,,,,null,,,,
2106,"<img src=""portrait/BW1.jpg""style=""width:400px;height:400px;""></img>",0,html-button-response,8,550469,0.0-3.0-7.0,73451,List2B,white,woman,,TRUE,0,,,,,
null,CORRECT,,html-keyboard-response,9,551979,0.0-3.0-8.0-0.0,73451,List2B,white,woman,,,,null,,,,
4853,"<img src=""portrait/WW1.jpg""style=""width:400px;height:400px;""></img>",1,html-button-response,10,556834,0.0-3.0-10.0,73451,List2B,white,woman,,TRUE,1,,,,,
null,CORRECT,,html-keyboard-response,11,558340,0.0-3.0-11.0-0.0,73451,List2B,white,woman,,,,null,,,,
2579,"<img src=""portrait/WW2.jpg""style=""width:400px;height:400px;""></img>",3,html-button-response,12,560921,0.0-3.0-13.0,73451,List2B,white,woman,,TRUE,3,,,,,
null,CORRECT,,html-keyboard-response,13,562431,0.0-3.0-14.0-0.0,73451,List2B,white,woman,,,,null,,,,
4203,"<img src=""portrait/BW2.jpg""style=""width:400px;height:400px;""></img>",2,html-button-response,14,566636,0.0-3.0-16.0,73451,List2B,white,woman,,TRUE,2,,,,,
null,CORRECT,,html-keyboard-response,15,568142,0.0-3.0-17.0-0.0,73451,List2B,white,woman,,,,null,,,,
3014,"<img src=""portrait/WM2.jpg""style=""width:400px;height:400px;""></img>",7,html-button-response,16,571157,0.0-3.0-19.0,73451,List2B,white,woman,,TRUE,7,,,,,
null,CORRECT,,html-keyboard-response,17,572667,0.0-3.0-20.0-0.0,73451,List2B,white,woman,,,,null,,,,
2856,"<img src=""portrait/WM1.jpg""style=""width:400px;height:400px;""></img>",6,html-button-response,18,575525,0.0-3.0-22.0,73451,List2B,white,woman,,TRUE,6,,,,,
null,CORRECT,,html-keyboard-response,19,577037,0.0-3.0-23.0-0.0,73451,List2B,white,woman,,,,null,,,,
2332,<p>You got 8 out of 8 right first time. Press Continue.</p>,0,html-button-response,20,579371,0.0-3.0-25.0,73451,List2B,white,woman,,,,,,,,
48172,"<p>In this experiment, you will view photographs of the people from the memory game interacting.</p><p>By using the <strong>exact</strong> phrase given <i>after</i> the photograph appears and recalling the correct names of the people in the photographs, form a sentence describing the interaction. You do not need to capitalise names.</p><p>Type your answer in the space provided. Please complete every sentence before moving onto the next trial.</p><p>You will only have a few seconds to memorise each given photograph and phrase before you can respond, so try your best to focus.</p><p>An example is given below. Press 'Continue' when you are ready.</p><img src='img/speaking_example_v2.jpg' style='width:800px;height:460px;''></img>",0,html-button-response,21,628549,0.0-4.0,73451,List2B,white,woman,,,,,,,,
2893,"<p>Before the experiment starts, you will watch two example trials. Press 'Continue'.</p>",0,html-button-response,22,632447,0.0-5.0,73451,List2B,white,woman,,,,,,,,
null,<img src='img/speaking_WW.gif'></img>,,html-keyboard-response,23,635452,0.0-6.0,73451,List2B,white,woman,,,,null,,,,
null,<p>is speaking to</p>,,html-keyboard-response,24,637454,0.0-7.0,73451,List2B,white,woman,,,,null,,,,
3783,<p><b>Answer:</b> jane is speaking to ruth</p>,0,html-button-response,25,641238,0.0-8.0,73451,List2B,white,woman,,,,,,,,
null,<img src='img/pointing_BM.gif'></img>,,html-keyboard-response,26,644249,0.0-9.0,73451,List2B,white,woman,,,,null,,,,
null,<p>are pointing at each other</p>,,html-keyboard-response,27,646251,0.0-10.0,73451,List2B,white,woman,,,,null,,,,
1763,<p><b>Answer:</b> fred and mike are pointing at each other</p>,0,html-button-response,28,648015,0.0-11.0,73451,List2B,white,woman,,,,,,,,
12497,"<p>Ready to start the experiment?</p><br><p><strong>Remember to describe the picture using a full sentence,</strong></p><p><strong>that combines the names of the people with the given phrase.</strong></p><p><strong>If you do not do this correctly you will not be paid.</strong></p><p><strong> You do not need to capitalise names or use punctuation.</strong></p><br><p>Press 'Continue' to begin.</p>",0,html-button-response,29,661519,0.0-12.0,73451,List2B,white,woman,,,,,,,,
null,"<div style=""font-size:60px;"">+</div>",,html-keyboard-response,30,663021,0.0-13.0-0.0,73451,List2B,white,woman,,,,null,,,,
null,"<img src=""stim_listB/shout7.gif""</stim_listB>",,html-keyboard-response,31,665027,0.0-13.0-1.0,73451,List2B,white,woman,,,,null,,,,
null,is shouting at,,html-keyboard-response,32,667031,0.0-13.0-2.0,73451,List2B,white,woman,,,,null,,,,
8787,,,survey-text,33,675820,0.0-13.0-3.0,73451,List2B,white,woman,,,,,"{""Q0"":""beth is shouting at ruth""}","<img src=""stim_listB/shout7.gif""</stim_listB>",is shouting at,
null,"<div style=""font-size:60px;"">+</div>",,html-keyboard-response,34,676323,0.0-13.0-0.1,73451,List2B,white,woman,,,,null,,,,
null,"<img src=""stim_listB/dance4.gif""</stim_listB>",,html-keyboard-response,35,678324,0.0-13.0-1.1,73451,List2B,white,woman,,,,null,,,,
null,are dancing with each other,,html-keyboard-response,36,680328,0.0-13.0-2.1,73451,List2B,white,woman,,,,null,,,,
11829,,,survey-text,37,692158,0.0-13.0-3.1,73451,List2B,white,woman,,,,,"{""Q0"":""beth and make are dancing with eachother""}","<img src=""stim_listB/dance4.gif""</stim_listB>",are dancing with each other,
null,"<div style=""font-size:60px;"">+</div>",,html-keyboard-response,38,692663,0.0-13.0-0.2,73451,List2B,white,woman,,,,null,,,,
null,"<img src=""stim_listB/hug1.gif""</stim_listB>",,html-keyboard-response,39,694668,0.0-13.0-1.2,73451,List2B,white,woman,,,,null,,,,
null,is hugging,,html-keyboard-response,40,696670,0.0-13.0-2.2,73451,List2B,white,woman,,,,null,,,,
7078,,,survey-text,41,703748,0.0-13.0-3.2,73451,List2B,white,woman,,,,,"{""Q0"":""ruth is hugging luke""}","<img src=""stim_listB/hug1.gif""</stim_listB>",is hugging,
null,"<div style=""font-size:60px;"">+</div>",,html-keyboard-response,42,704253,0.0-13.0-0.3,73451,List2B,white,woman,,,,null,,,,
null,"<img src=""stim_listB/hug4.gif""</stim_listB>",,html-keyboard-response,43,706255,0.0-13.0-1.3,73451,List2B,white,woman,,,,null,,,,
null,are hugging each other,,html-keyboard-response,44,708258,0.0-13.0-2.3,73451,List2B,white,woman,,,,null,,,,
11153,,,survey-text,45,719412,0.0-13.0-3.3,73451,List2B,white,woman,,,,,"{""Q0"":""kate and mike are hugging eachother""}","<img src=""stim_listB/hug4.gif""</stim_listB>",are hugging each other,
null,"<div style=""font-size:60px;"">+</div>",,html-keyboard-response,46,719913,0.0-13.0-0.4,73451,List2B,white,woman,,,,null,,,,
null,"<img src=""stim_listB/argue3.gif""</stim_listB>",,html-keyboard-response,47,721916,0.0-13.0-1.4,73451,List2B,white,woman,,,,null,,,,
null,is arguing with,,html-keyboard-response,48,723917,0.0-13.0-2.4,73451,List2B,white,woman,,,,null,,,,
7380,,,survey-text,49,731298,0.0-13.0-3.4,73451,List2B,white,woman,,,,,"{""Q0"":""beth is arguing with mike""}","<img src=""stim_listB/argue3.gif""</stim_listB>",is arguing with,
null,"<div style=""font-size:60px;"">+</div>",,html-keyboard-response,50,731799,0.0-13.0-0.5,73451,List2B,white,woman,,,,null,,,,
null,"<img src=""stim_listB/fight5.gif""</stim_listB>",,html-keyboard-response,51,733801,0.0-13.0-1.5,73451,List2B,white,woman,,,,null,,,,
null,is fighting,,html-keyboard-response,52,735801,0.0-13.0-2.5,73451,List2B,white,woman,,,,null,,,,
6542,,,survey-text,53,742344,0.0-13.0-3.5,73451,List2B,white,woman,,,,,"{""Q0"":""mike is fighting dave""}","<img src=""stim_listB/fight5.gif""</stim_listB>",is fighting,
null,"<div style=""font-size:60px;"">+</div>",,html-keyboard-response,54,742846,0.0-13.0-0.6,73451,List2B,white,woman,,,,null,,,,
null,"<img src=""stim_listB/dance8.gif""</stim_listB>",,html-keyboard-response,55,744852,0.0-13.0-1.6,73451,List2B,white,woman,,,,null,,,,
null,are dancing with each other,,html-keyboard-response,56,746853,0.0-13.0-2.6,73451,List2B,white,woman,,,,null,,,,
11493,,,survey-text,57,758348,0.0-13.0-3.6,73451,List2B,white,woman,,,,,"{""Q0"":""beth and jane are dancing with eachother""}","<img src=""stim_listB/dance8.gif""</stim_listB>",are dancing with each other,
null,"<div style=""font-size:60px;"">+</div>",,html-keyboard-response,58,758854,0.0-13.0-0.7,73451,List2B,white,woman,,,,null,,,,
null,"<img src=""stim_listB/dance2.gif""</stim_listB>",,html-keyboard-response,59,760859,0.0-13.0-1.7,73451,List2B,white,woman,,,,null,,,,
null,are dancing with each other,,html-keyboard-response,60,762863,0.0-13.0-2.7,73451,List2B,white,woman,,,,null,,,,
9753,,,survey-text,61,772617,0.0-13.0-3.7,73451,List2B,white,woman,,,,,"{""Q0"":""dave and ruth are dancing with eachother""}","<img src=""stim_listB/dance2.gif""</stim_listB>",are dancing with each other,
null,"<div style=""font-size:60px;"">+</div>",,html-keyboard-response,62,773119,0.0-13.0-0.8,73451,List2B,white,woman,,,,null,,,,
null,"<img src=""stim_listB/fight3.gif""</stim_listB>",,html-keyboard-response,63,775125,0.0-13.0-1.8,73451,List2B,white,woman,,,,null,,,,
null,is fighting,,html-keyboard-response,64,777128,0.0-13.0-2.8,73451,List2B,white,woman,,,,null,,,,
6205,,,survey-text,65,783335,0.0-13.0-3.8,73451,List2B,white,woman,,,,,"{""Q0"":""kate is fighting mike""}","<img src=""stim_listB/fight3.gif""</stim_listB>",is fighting,
null,"<div style=""font-size:60px;"">+</div>",,html-keyboard-response,66,783838,0.0-13.0-0.9,73451,List2B,white,woman,,,,null,,,,
null,"<img src=""stim_listB/shout3.gif""</stim_listB>",,html-keyboard-response,67,785840,0.0-13.0-1.9,73451,List2B,white,woman,,,,null,,,,
null,is shouting at,,html-keyboard-response,68,787841,0.0-13.0-2.9,73451,List2B,white,woman,,,,null,,,,
7179,,,survey-text,69,795022,0.0-13.0-3.9,73451,List2B,white,woman,,,,,"{""Q0"":""beth is shouting at fred""}","<img src=""stim_listB/shout3.gif""</stim_listB>",is shouting at,
null,"<div style=""font-size:60px;"">+</div>",,html-keyboard-response,70,795528,0.0-13.0-0.10,73451,List2B,white,woman,,,,null,,,,
null,"<img src=""stim_listB/talk3.gif""</stim_listB>",,html-keyboard-response,71,797530,0.0-13.0-1.10,73451,List2B,white,woman,,,,null,,,,
null,is talking to,,html-keyboard-response,72,799532,0.0-13.0-2.10,73451,List2B,white,woman,,,,null,,,,
6130,,,survey-text,73,805662,0.0-13.0-3.10,73451,List2B,white,woman,,,,,"{""Q0"":""kate is talking to fred""}","<img src=""stim_listB/talk3.gif""</stim_listB>",is talking to,
null,"<div style=""font-size:60px;"">+</div>",,html-keyboard-response,74,806167,0.0-13.0-0.11,73451,List2B,white,woman,,,,null,,,,
null,"<img src=""stim_listB/talk4.gif""</stim_listB>",,html-keyboard-response,75,808173,0.0-13.0-1.11,73451,List2B,white,woman,,,,null,,,,
null,are talking to each other,,html-keyboard-response,76,810174,0.0-13.0-2.11,73451,List2B,white,woman,,,,null,,,,
10405,,,survey-text,77,820580,0.0-13.0-3.11,73451,List2B,white,woman,,,,,"{""Q0"":""beth and mike are talking to eachother""}","<img src=""stim_listB/talk4.gif""</stim_listB>",are talking to each other,
null,"<div style=""font-size:60px;"">+</div>",,html-keyboard-response,78,821084,0.0-13.0-0.12,73451,List2B,white,woman,,,,null,,,,
null,"<img src=""stim_listB/argue4.gif""</stim_listB>",,html-keyboard-response,79,823090,0.0-13.0-1.12,73451,List2B,white,woman,,,,null,,,,
null,are arguing with each other,,html-keyboard-response,80,825091,0.0-13.0-2.12,73451,List2B,white,woman,,,,null,,,,
8181,,,survey-text,81,833274,0.0-13.0-3.12,73451,List2B,white,woman,,,,,"{""Q0"":""kate and fred are arguing with eachother""}","<img src=""stim_listB/argue4.gif""</stim_listB>",are arguing with each other,
null,"<div style=""font-size:60px;"">+</div>",,html-keyboard-response,82,833778,0.0-13.0-0.13,73451,List2B,white,woman,,,,null,,,,
null,"<img src=""stim_listB/argue6.gif""</stim_listB>",,html-keyboard-response,83,835782,0.0-13.0-1.13,73451,List2B,white,woman,,,,null,,,,
null,are arguing with each other,,html-keyboard-response,84,837783,0.0-13.0-2.13,73451,List2B,white,woman,,,,null,,,,
10450,,,survey-text,85,848235,0.0-13.0-3.13,73451,List2B,white,woman,,,,,"{""Q0"":""mike and dave are arguing with eachother""}","<img src=""stim_listB/argue6.gif""</stim_listB>",are arguing with each other,
null,"<div style=""font-size:60px;"">+</div>",,html-keyboard-response,86,848737,0.0-13.0-0.14,73451,List2B,white,woman,,,,null,,,,
null,"<img src=""stim_listB/talk2.gif""</stim_listB>",,html-keyboard-response,87,850740,0.0-13.0-1.14,73451,List2B,white,woman,,,,null,,,,
null,are talking to each other,,html-keyboard-response,88,852740,0.0-13.0-2.14,73451,List2B,white,woman,,,,null,,,,
8590,,,survey-text,89,861331,0.0-13.0-3.14,73451,List2B,white,woman,,,,,"{""Q0"":""dave and ruth are talking to eachother""}","<img src=""stim_listB/talk2.gif""</stim_listB>",are talking to each other,
null,"<div style=""font-size:60px;"">+</div>",,html-keyboard-response,90,861838,0.0-13.0-0.15,73451,List2B,white,woman,,,,null,,,,
null,"<img src=""stim_listB/kiss8.gif""</stim_listB>",,html-keyboard-response,91,863843,0.0-13.0-1.15,73451,List2B,white,woman,,,,null,,,,
null,are kissing each other,,html-keyboard-response,92,865847,0.0-13.0-2.15,73451,List2B,white,woman,,,,null,,,,
11998,,,survey-text,93,877847,0.0-13.0-3.15,73451,List2B,white,woman,,,,,"{""Q0"":""kate and ruth are kissing eachother""}","<img src=""stim_listB/kiss8.gif""</stim_listB>",are kissing each other,
null,"<div style=""font-size:60px;"">+</div>",,html-keyboard-response,94,878353,0.0-13.0-0.16,73451,List2B,white,woman,,,,null,,,,
null,"<img src=""stim_listB/hug2.gif""</stim_listB>",,html-keyboard-response,95,880359,0.0-13.0-1.16,73451,List2B,white,woman,,,,null,,,,
null,are hugging each other,,html-keyboard-response,96,882364,0.0-13.0-2.16,73451,List2B,white,woman,,,,null,,,,
7654,,,survey-text,97,890019,0.0-13.0-3.16,73451,List2B,white,woman,,,,,"{""Q0"":""jane and dave are hugging eachother""}","<img src=""stim_listB/hug2.gif""</stim_listB>",are hugging each other,
null,"<div style=""font-size:60px;"">+</div>",,html-keyboard-response,98,890525,0.0-13.0-0.17,73451,List2B,white,woman,,,,null,,,,
null,"<img src=""stim_listB/hug6.gif""</stim_listB>",,html-keyboard-response,99,892531,0.0-13.0-1.17,73451,List2B,white,woman,,,,null,,,,
null,are hugging each other,,html-keyboard-response,100,894534,0.0-13.0-2.17,73451,List2B,white,woman,,,,null,,,,
8077,,,survey-text,101,902612,0.0-13.0-3.17,73451,List2B,white,woman,,,,,"{""Q0"":""dave and mike are hugging eachother""}","<img src=""stim_listB/hug6.gif""</stim_listB>",are hugging each other,
null,"<div style=""font-size:60px;"">+</div>",,html-keyboard-response,102,903117,0.0-13.0-0.18,73451,List2B,white,woman,,,,null,,,,
null,"<img src=""stim_listB/hug7.gif""</stim_listB>",,html-keyboard-response,103,905123,0.0-13.0-1.18,73451,List2B,white,woman,,,,null,,,,
null,is hugging,,html-keyboard-response,104,907124,0.0-13.0-2.18,73451,List2B,white,woman,,,,null,,,,
5773,,,survey-text,105,912898,0.0-13.0-3.18,73451,List2B,white,woman,,,,,"{""Q0"":""beth is hugging ruth""}","<img src=""stim_listB/hug7.gif""</stim_listB>",is hugging,
null,"<div style=""font-size:60px;"">+</div>",,html-keyboard-response,106,913403,0.0-13.0-0.19,73451,List2B,white,woman,,,,null,,,,
null,"<img src=""stim_listB/dance6.gif""</stim_listB>",,html-keyboard-response,107,915407,0.0-13.0-1.19,73451,List2B,white,woman,,,,null,,,,
null,are dancing with each other,,html-keyboard-response,108,917411,0.0-13.0-2.19,73451,List2B,white,woman,,,,null,,,,
8015,,,survey-text,109,925427,0.0-13.0-3.19,73451,List2B,white,woman,,,,,"{""Q0"":""dave and fred are dancing with eachother""}","<img src=""stim_listB/dance6.gif""</stim_listB>",are dancing with each other,
6970,"<img src='img/portrait_matrix_list2.JPG' style='width:900px;height:500px;''></img><p>If you have memorised all the portraits and names and are ready to start, press Continue.</p><p><strong>Please note: Your memory of these faces will be tested 4 times during this experiment.</strong></p>",0,html-button-response,110,932399,0.0-14.0-0.0,73451,List2B,white,woman,,,,,,,,
7390,"<img src=""portrait/WM1.jpg""style=""width:400px;height:400px;""></img>",6,html-button-response,111,940791,0.0-14.0-1.0,73451,List2B,white,woman,,TRUE,6,,,,,
null,CORRECT,,html-keyboard-response,112,942303,0.0-14.0-2.0-0.0,73451,List2B,white,woman,,,,null,,,,
1748,"<img src=""portrait/WW2.jpg""style=""width:400px;height:400px;""></img>",3,html-button-response,113,944053,0.0-14.0-4.0,73451,List2B,white,woman,,TRUE,3,,,,,
null,CORRECT,,html-keyboard-response,114,945561,0.0-14.0-5.0-0.0,73451,List2B,white,woman,,,,null,,,,
2151,"<img src=""portrait/WW1.jpg""style=""width:400px;height:400px;""></img>",1,html-button-response,115,947714,0.0-14.0-7.0,73451,List2B,white,woman,,TRUE,1,,,,,
null,CORRECT,,html-keyboard-response,116,949217,0.0-14.0-8.0-0.0,73451,List2B,white,woman,,,,null,,,,
1491,"<img src=""portrait/WM2.jpg""style=""width:400px;height:400px;""></img>",7,html-button-response,117,950710,0.0-14.0-10.0,73451,List2B,white,woman,,TRUE,7,,,,,
null,CORRECT,,html-keyboard-response,118,952222,0.0-14.0-11.0-0.0,73451,List2B,white,woman,,,,null,,,,
1796,"<img src=""portrait/BM2.jpg""style=""width:400px;height:400px;""></img>",5,html-button-response,119,954019,0.0-14.0-13.0,73451,List2B,white,woman,,TRUE,5,,,,,
null,CORRECT,,html-keyboard-response,120,955525,0.0-14.0-14.0-0.0,73451,List2B,white,woman,,,,null,,,,
1290,"<img src=""portrait/BM1.jpg""style=""width:400px;height:400px;""></img>",4,html-button-response,121,956816,0.0-14.0-16.0,73451,List2B,white,woman,,TRUE,4,,,,,
null,CORRECT,,html-keyboard-response,122,958323,0.0-14.0-17.0-0.0,73451,List2B,white,woman,,,,null,,,,
3741,"<img src=""portrait/BW2.jpg""style=""width:400px;height:400px;""></img>",2,html-button-response,123,962066,0.0-14.0-19.0,73451,List2B,white,woman,,TRUE,2,,,,,
null,CORRECT,,html-keyboard-response,124,963571,0.0-14.0-20.0-0.0,73451,List2B,white,woman,,,,null,,,,
1243,"<img src=""portrait/BW1.jpg""style=""width:400px;height:400px;""></img>",0,html-button-response,125,964816,0.0-14.0-22.0,73451,List2B,white,woman,,TRUE,0,,,,,
null,CORRECT,,html-keyboard-response,126,966322,0.0-14.0-23.0-0.0,73451,List2B,white,woman,,,,null,,,,
2891,<p>You got 8 out of 8 right first time. Press Continue.</p>,0,html-button-response,127,969215,0.0-14.0-25.0,73451,List2B,white,woman,,,,,,,,
null,"<div style=""font-size:60px;"">+</div>",,html-keyboard-response,128,970727,0.0-15.0-0.0,73451,List2B,white,woman,,,,null,,,,
null,"<img src=""stim_listB/fight6.gif""</stim_listB>",,html-keyboard-response,129,972729,0.0-15.0-1.0,73451,List2B,white,woman,,,,null,,,,
null,are fighting each other,,html-keyboard-response,130,974730,0.0-15.0-2.0,73451,List2B,white,woman,,,,null,,,,
10980,,,survey-text,131,985711,0.0-15.0-3.0,73451,List2B,white,woman,,,,,"{""Q0"":""luke and fred are fighting eachother""}","<img src=""stim_listB/fight6.gif""</stim_listB>",are fighting each other,
null,"<div style=""font-size:60px;"">+</div>",,html-keyboard-response,132,986217,0.0-15.0-0.1,73451,List2B,white,woman,,,,null,,,,
null,"<img src=""stim_listB/fight2.gif""</stim_listB>",,html-keyboard-response,133,988220,0.0-15.0-1.1,73451,List2B,white,woman,,,,null,,,,
null,are fighting each other,,html-keyboard-response,134,990222,0.0-15.0-2.1,73451,List2B,white,woman,,,,null,,,,
8489,,,survey-text,135,998712,0.0-15.0-3.1,73451,List2B,white,woman,,,,,"{""Q0"":""luke and ruth are fighting eachother""}","<img src=""stim_listB/fight2.gif""</stim_listB>",are fighting each other,
null,"<div style=""font-size:60px;"">+</div>",,html-keyboard-response,136,999216,0.0-15.0-0.2,73451,List2B,white,woman,,,,null,,,,
null,"<img src=""stim_listB/touch8.gif""</stim_listB>",,html-keyboard-response,137,1001219,0.0-15.0-1.2,73451,List2B,white,woman,,,,null,,,,
null,are touching each other,,html-keyboard-response,138,1003220,0.0-15.0-2.2,73451,List2B,white,woman,,,,null,,,,
10383,,,survey-text,139,1013604,0.0-15.0-3.2,73451,List2B,white,woman,,,,,"{""Q0"":""ruth and beth are touching eachother""}","<img src=""stim_listB/touch8.gif""</stim_listB>",are touching each other,
null,"<div style=""font-size:60px;"">+</div>",,html-keyboard-response,140,1014109,0.0-15.0-0.3,73451,List2B,white,woman,,,,null,,,,
null,"<img src=""stim_listB/shout4.gif""</stim_listB>",,html-keyboard-response,141,1016115,0.0-15.0-1.3,73451,List2B,white,woman,,,,null,,,,
null,are shouting at each other,,html-keyboard-response,142,1018116,0.0-15.0-2.3,73451,List2B,white,woman,,,,null,,,,
8748,,,survey-text,143,1026866,0.0-15.0-3.3,73451,List2B,white,woman,,,,,"{""Q0"":""kate and mike are shouting at eachother""}","<img src=""stim_listB/shout4.gif""</stim_listB>",are shouting at each other,
null,"<div style=""font-size:60px;"">+</div>",,html-keyboard-response,144,1027368,0.0-15.0-0.4,73451,List2B,white,woman,,,,null,,,,
null,"<img src=""stim_listB/kiss2.gif""</stim_listB>",,html-keyboard-response,145,1029374,0.0-15.0-1.4,73451,List2B,white,woman,,,,null,,,,
null,are kissing each other,,html-keyboard-response,146,1031375,0.0-15.0-2.4,73451,List2B,white,woman,,,,null,,,,
18594,,,survey-text,147,1049971,0.0-15.0-3.4,73451,List2B,white,woman,,,,,"{""Q0"":""dave and jane are kissing each other""}","<img src=""stim_listB/kiss2.gif""</stim_listB>",are kissing each other,
null,"<div style=""font-size:60px;"">+</div>",,html-keyboard-response,148,1050477,0.0-15.0-0.5,73451,List2B,white,woman,,,,null,,,,
null,"<img src=""stim_listB/argue5.gif""</stim_listB>",,html-keyboard-response,149,1052483,0.0-15.0-1.5,73451,List2B,white,woman,,,,null,,,,
null,is arguing with,,html-keyboard-response,150,1054484,0.0-15.0-2.5,73451,List2B,white,woman,,,,null,,,,
9094,,,survey-text,151,1063580,0.0-15.0-3.5,73451,List2B,white,woman,,,,,"{""Q0"":""dave is arguing with fred""}","<img src=""stim_listB/argue5.gif""</stim_listB>",is arguing with,
null,"<div style=""font-size:60px;"">+</div>",,html-keyboard-response,152,1064083,0.0-15.0-0.6,73451,List2B,white,woman,,,,null,,,,
null,"<img src=""stim_listB/dance5.gif""</stim_listB>",,html-keyboard-response,153,1066085,0.0-15.0-1.6,73451,List2B,white,woman,,,,null,,,,
null,is dancing with,,html-keyboard-response,154,1068088,0.0-15.0-2.6,73451,List2B,white,woman,,,,null,,,,
8437,,,survey-text,155,1076527,0.0-15.0-3.6,73451,List2B,white,woman,,,,,"{""Q0"":""luke is dancing with mike""}","<img src=""stim_listB/dance5.gif""</stim_listB>",is dancing with,
null,"<div style=""font-size:60px;"">+</div>",,html-keyboard-response,156,1077032,0.0-15.0-0.7,73451,List2B,white,woman,,,,null,,,,
null,"<img src=""stim_listB/meet4.gif""</stim_listB>",,html-keyboard-response,157,1079038,0.0-15.0-1.7,73451,List2B,white,woman,,,,null,,,,
null,are meeting each other,,html-keyboard-response,158,1081043,0.0-15.0-2.7,73451,List2B,white,woman,,,,null,,,,
8446,,,survey-text,159,1089490,0.0-15.0-3.7,73451,List2B,white,woman,,,,,"{""Q0"":""fred and beth are meeting each other""}","<img src=""stim_listB/meet4.gif""</stim_listB>",are meeting each other,
null,"<div style=""font-size:60px;"">+</div>",,html-keyboard-response,160,1089991,0.0-15.0-0.8,73451,List2B,white,woman,,,,null,,,,
null,"<img src=""stim_listB/argue7.gif""</stim_listB>",,html-keyboard-response,161,1091997,0.0-15.0-1.8,73451,List2B,white,woman,,,,null,,,,
null,is arguing with,,html-keyboard-response,162,1093998,0.0-15.0-2.8,73451,List2B,white,woman,,,,null,,,,
6090,,,survey-text,163,1100090,0.0-15.0-3.8,73451,List2B,white,woman,,,,,"{""Q0"":""beth is arguing with jane""}","<img src=""stim_listB/argue7.gif""</stim_listB>",is arguing with,
null,"<div style=""font-size:60px;"">+</div>",,html-keyboard-response,164,1100596,0.0-15.0-0.9,73451,List2B,white,woman,,,,null,,,,
null,"<img src=""stim_listB/talk6.gif""</stim_listB>",,html-keyboard-response,165,1102599,0.0-15.0-1.9,73451,List2B,white,woman,,,,null,,,,
null,are talking to each other,,html-keyboard-response,166,1104600,0.0-15.0-2.9,73451,List2B,white,woman,,,,null,,,,
7486,,,survey-text,167,1112088,0.0-15.0-3.9,73451,List2B,white,woman,,,,,"{""Q0"":""dave and fred are talking to each other""}","<img src=""stim_listB/talk6.gif""</stim_listB>",are talking to each other,
null,"<div style=""font-size:60px;"">+</div>",,html-keyboard-response,168,1112593,0.0-15.0-0.10,73451,List2B,white,woman,,,,null,,,,
null,"<img src=""stim_listB/shout5.gif""</stim_listB>",,html-keyboard-response,169,1114597,0.0-15.0-1.10,73451,List2B,white,woman,,,,null,,,,
null,is shouting at,,html-keyboard-response,170,1116598,0.0-15.0-2.10,73451,List2B,white,woman,,,,null,,,,
7219,,,survey-text,171,1123818,0.0-15.0-3.10,73451,List2B,white,woman,,,,,"{""Q0"":""fred is shouting at luke""}","<img src=""stim_listB/shout5.gif""</stim_listB>",is shouting at,
null,"<div style=""font-size:60px;"">+</div>",,html-keyboard-response,172,1124323,0.0-15.0-0.11,73451,List2B,white,woman,,,,null,,,,
null,"<img src=""stim_listB/talk1.gif""</stim_listB>",,html-keyboard-response,173,1126328,0.0-15.0-1.11,73451,List2B,white,woman,,,,null,,,,
null,is talking to,,html-keyboard-response,174,1128332,0.0-15.0-2.11,73451,List2B,white,woman,,,,null,,,,
8859,,,survey-text,175,1137192,0.0-15.0-3.11,73451,List2B,white,woman,,,,,"{""Q0"":""luke is talking to jane""}","<img src=""stim_listB/talk1.gif""</stim_listB>",is talking to,
null,"<div style=""font-size:60px;"">+</div>",,html-keyboard-response,176,1137696,0.0-15.0-0.12,73451,List2B,white,woman,,,,null,,,,
null,"<img src=""stim_listB/marry8.gif""</stim_listB>",,html-keyboard-response,177,1139703,0.0-15.0-1.12,73451,List2B,white,woman,,,,null,,,,
null,are marrying each other,,html-keyboard-response,178,1141707,0.0-15.0-2.12,73451,List2B,white,woman,,,,null,,,,
9427,,,survey-text,179,1151136,0.0-15.0-3.12,73451,List2B,white,woman,,,,,"{""Q0"":""ruth and kate are marrying each other""}","<img src=""stim_listB/marry8.gif""</stim_listB>",are marrying each other,
null,"<div style=""font-size:60px;"">+</div>",,html-keyboard-response,180,1151642,0.0-15.0-0.13,73451,List2B,white,woman,,,,null,,,,
null,"<img src=""stim_listB/kiss6.gif""</stim_listB>",,html-keyboard-response,181,1153645,0.0-15.0-1.13,73451,List2B,white,woman,,,,null,,,,
null,are kissing each other,,html-keyboard-response,182,1155647,0.0-15.0-2.13,73451,List2B,white,woman,,,,null,,,,
8052,,,survey-text,183,1163700,0.0-15.0-3.13,73451,List2B,white,woman,,,,,"{""Q0"":""dave and mike are kissing each other""}","<img src=""stim_listB/kiss6.gif""</stim_listB>",are kissing each other,
null,"<div style=""font-size:60px;"">+</div>",,html-keyboard-response,184,1164204,0.0-15.0-0.14,73451,List2B,white,woman,,,,null,,,,
null,"<img src=""stim_listB/fight4.gif""</stim_listB>",,html-keyboard-response,185,1166207,0.0-15.0-1.14,73451,List2B,white,woman,,,,null,,,,
null,are fighting each other,,html-keyboard-response,186,1168208,0.0-15.0-2.14,73451,List2B,white,woman,,,,null,,,,
12464,,,survey-text,187,1180675,0.0-15.0-3.14,73451,List2B,white,woman,,,,,"{""Q0"":""beth and fred are fighting each other""}","<img src=""stim_listB/fight4.gif""</stim_listB>",are fighting each other,
null,"<div style=""font-size:60px;"">+</div>",,html-keyboard-response,188,1181178,0.0-15.0-0.15,73451,List2B,white,woman,,,,null,,,,
null,"<img src=""stim_listB/meet3.gif""</stim_listB>",,html-keyboard-response,189,1183181,0.0-15.0-1.15,73451,List2B,white,woman,,,,null,,,,
null,is meeting,,html-keyboard-response,190,1185186,0.0-15.0-2.15,73451,List2B,white,woman,,,,null,,,,
8005,,,survey-text,191,1193193,0.0-15.0-3.15,73451,List2B,white,woman,,,,,"{""Q0"":""kate is meeting mike""}","<img src=""stim_listB/meet3.gif""</stim_listB>",is meeting,
null,"<div style=""font-size:60px;"">+</div>",,html-keyboard-response,192,1193699,0.0-15.0-0.16,73451,List2B,white,woman,,,,null,,,,
null,"<img src=""stim_listB/argue1.gif""</stim_listB>",,html-keyboard-response,193,1195706,0.0-15.0-1.16,73451,List2B,white,woman,,,,null,,,,
null,is arguing with,,html-keyboard-response,194,1197707,0.0-15.0-2.16,73451,List2B,white,woman,,,,null,,,,
8488,,,survey-text,195,1206195,0.0-15.0-3.16,73451,List2B,white,woman,,,,,"{""Q0"":""dave is arguing with ruth""}","<img src=""stim_listB/argue1.gif""</stim_listB>",is arguing with,
null,"<div style=""font-size:60px;"">+</div>",,html-keyboard-response,196,1206700,0.0-15.0-0.17,73451,List2B,white,woman,,,,null,,,,
null,"<img src=""stim_listB/marry4.gif""</stim_listB>",,html-keyboard-response,197,1208702,0.0-15.0-1.17,73451,List2B,white,woman,,,,null,,,,
null,are marrying each other,,html-keyboard-response,198,1210702,0.0-15.0-2.17,73451,List2B,white,woman,,,,null,,,,
8303,,,survey-text,199,1219007,0.0-15.0-3.17,73451,List2B,white,woman,,,,,"{""Q0"":""fred and kate are marrying eachother""}","<img src=""stim_listB/marry4.gif""</stim_listB>",are marrying each other,
null,"<div style=""font-size:60px;"">+</div>",,html-keyboard-response,200,1219514,0.0-15.0-0.18,73451,List2B,white,woman,,,,null,,,,
null,"<img src=""stim_listB/kiss5.gif""</stim_listB>",,html-keyboard-response,201,1221519,0.0-15.0-1.18,73451,List2B,white,woman,,,,null,,,,
null,is kissing,,html-keyboard-response,202,1223521,0.0-15.0-2.18,73451,List2B,white,woman,,,,null,,,,
5011,,,survey-text,203,1228534,0.0-15.0-3.18,73451,List2B,white,woman,,,,,"{""Q0"":""fred is kissing luke""}","<img src=""stim_listB/kiss5.gif""</stim_listB>",is kissing,
null,"<div style=""font-size:60px;"">+</div>",,html-keyboard-response,204,1229041,0.0-15.0-0.19,73451,List2B,white,woman,,,,null,,,,
null,"<img src=""stim_listB/argue2.gif""</stim_listB>",,html-keyboard-response,205,1231046,0.0-15.0-1.19,73451,List2B,white,woman,,,,null,,,,
null,are arguing with each other,,html-keyboard-response,206,1233051,0.0-15.0-2.19,73451,List2B,white,woman,,,,null,,,,
11652,,,survey-text,207,1244704,0.0-15.0-3.19,73451,List2B,white,woman,,,,,"{""Q0"":""luke and jane are arguing with each other""}","<img src=""stim_listB/argue2.gif""</stim_listB>",are arguing with each other,
5845,"<img src='img/portrait_matrix_list2.JPG' style='width:900px;height:500px;''></img><p>If you have memorised all the portraits and names and are ready to start, press Continue.</p><p><strong>Please note: Your memory of these faces will be tested 4 times during this experiment.</strong></p>",0,html-button-response,208,1250551,0.0-16.0-0.0,73451,List2B,white,woman,,,,,,,,
2449,"<img src=""portrait/BW2.jpg""style=""width:400px;height:400px;""></img>",2,html-button-response,209,1254004,0.0-16.0-1.0,73451,List2B,white,woman,,TRUE,2,,,,,
null,CORRECT,,html-keyboard-response,210,1255512,0.0-16.0-2.0-0.0,73451,List2B,white,woman,,,,null,,,,
2239,"<img src=""portrait/BM2.jpg""style=""width:400px;height:400px;""></img>",5,html-button-response,211,1257753,0.0-16.0-4.0,73451,List2B,white,woman,,TRUE,5,,,,,
null,CORRECT,,html-keyboard-response,212,1259257,0.0-16.0-5.0-0.0,73451,List2B,white,woman,,,,null,,,,
2162,"<img src=""portrait/WM1.jpg""style=""width:400px;height:400px;""></img>",6,html-button-response,213,1261421,0.0-16.0-7.0,73451,List2B,white,woman,,TRUE,6,,,,,
null,CORRECT,,html-keyboard-response,214,1262922,0.0-16.0-8.0-0.0,73451,List2B,white,woman,,,,null,,,,
1622,"<img src=""portrait/WW2.jpg""style=""width:400px;height:400px;""></img>",3,html-button-response,215,1264546,0.0-16.0-10.0,73451,List2B,white,woman,,TRUE,3,,,,,
null,CORRECT,,html-keyboard-response,216,1266047,0.0-16.0-11.0-0.0,73451,List2B,white,woman,,,,null,,,,
1527,"<img src=""portrait/WM2.jpg""style=""width:400px;height:400px;""></img>",7,html-button-response,217,1267576,0.0-16.0-13.0,73451,List2B,white,woman,,TRUE,7,,,,,
null,CORRECT,,html-keyboard-response,218,1269088,0.0-16.0-14.0-0.0,73451,List2B,white,woman,,,,null,,,,
1915,"<img src=""portrait/BW1.jpg""style=""width:400px;height:400px;""></img>",0,html-button-response,219,1271004,0.0-16.0-16.0,73451,List2B,white,woman,,TRUE,0,,,,,
null,CORRECT,,html-keyboard-response,220,1272510,0.0-16.0-17.0-0.0,73451,List2B,white,woman,,,,null,,,,
1522,"<img src=""portrait/BM1.jpg""style=""width:400px;height:400px;""></img>",4,html-button-response,221,1274033,0.0-16.0-19.0,73451,List2B,white,woman,,TRUE,4,,,,,
null,CORRECT,,html-keyboard-response,222,1275542,0.0-16.0-20.0-0.0,73451,List2B,white,woman,,,,null,,,,
2870,"<img src=""portrait/WW1.jpg""style=""width:400px;height:400px;""></img>",1,html-button-response,223,1278414,0.0-16.0-22.0,73451,List2B,white,woman,,TRUE,1,,,,,
null,CORRECT,,html-keyboard-response,224,1279921,0.0-16.0-23.0-0.0,73451,List2B,white,woman,,,,null,,,,
1488,<p>You got 8 out of 8 right first time. Press Continue.</p>,0,html-button-response,225,1281411,0.0-16.0-25.0,73451,List2B,white,woman,,,,,,,,
null,"<div style=""font-size:60px;"">+</div>",,html-keyboard-response,226,1282912,0.0-17.0-0.0,73451,List2B,white,woman,,,,null,,,,
null,"<img src=""stim_listB/hug3.gif""</stim_listB>",,html-keyboard-response,227,1284915,0.0-17.0-1.0,73451,List2B,white,woman,,,,null,,,,
null,is hugging,,html-keyboard-response,228,1286916,0.0-17.0-2.0,73451,List2B,white,woman,,,,null,,,,
6265,,,survey-text,229,1293183,0.0-17.0-3.0,73451,List2B,white,woman,,,,,"{""Q0"":""beth is hugging fred""}","<img src=""stim_listB/hug3.gif""</stim_listB>",is hugging,
null,"<div style=""font-size:60px;"">+</div>",,html-keyboard-response,230,1293687,0.0-17.0-0.1,73451,List2B,white,woman,,,,null,,,,
null,"<img src=""stim_listB/fight7.gif""</stim_listB>",,html-keyboard-response,231,1295690,0.0-17.0-1.1,73451,List2B,white,woman,,,,null,,,,
null,is fighting,,html-keyboard-response,232,1297691,0.0-17.0-2.1,73451,List2B,white,woman,,,,null,,,,
6060,,,survey-text,233,1303751,0.0-17.0-3.1,73451,List2B,white,woman,,,,,"{""Q0"":""kate is fighting jane""}","<img src=""stim_listB/fight7.gif""</stim_listB>",is fighting,
null,"<div style=""font-size:60px;"">+</div>",,html-keyboard-response,234,1304253,0.0-17.0-0.2,73451,List2B,white,woman,,,,null,,,,
null,"<img src=""stim_listB/dance3.gif""</stim_listB>",,html-keyboard-response,235,1306254,0.0-17.0-1.2,73451,List2B,white,woman,,,,null,,,,
null,is dancing with,,html-keyboard-response,236,1308255,0.0-17.0-2.2,73451,List2B,white,woman,,,,null,,,,
5211,,,survey-text,237,1313467,0.0-17.0-3.2,73451,List2B,white,woman,,,,,"{""Q0"":""kate is dancing with fred""}","<img src=""stim_listB/dance3.gif""</stim_listB>",is dancing with,
null,"<div style=""font-size:60px;"">+</div>",,html-keyboard-response,238,1313970,0.0-17.0-0.3,73451,List2B,white,woman,,,,null,,,,
null,"<img src=""stim_listB/marry7.gif""</stim_listB>",,html-keyboard-response,239,1315971,0.0-17.0-1.3,73451,List2B,white,woman,,,,null,,,,
null,is marrying,,html-keyboard-response,240,1317972,0.0-17.0-2.3,73451,List2B,white,woman,,,,null,,,,
6494,,,survey-text,241,1324467,0.0-17.0-3.3,73451,List2B,white,woman,,,,,"{""Q0"":""beth is marrying jane""}","<img src=""stim_listB/marry7.gif""</stim_listB>",is marrying,
null,"<div style=""font-size:60px;"">+</div>",,html-keyboard-response,242,1324969,0.0-17.0-0.4,73451,List2B,white,woman,,,,null,,,,
null,"<img src=""stim_listB/kiss4.gif""</stim_listB>",,html-keyboard-response,243,1326971,0.0-17.0-1.4,73451,List2B,white,woman,,,,null,,,,
null,are kissing each other,,html-keyboard-response,244,1328972,0.0-17.0-2.4,73451,List2B,white,woman,,,,null,,,,
6693,,,survey-text,245,1335666,0.0-17.0-3.4,73451,List2B,white,woman,,,,,"{""Q0"":""kate and mike are kissing eachother""}","<img src=""stim_listB/kiss4.gif""</stim_listB>",are kissing each other,
null,"<div style=""font-size:60px;"">+</div>",,html-keyboard-response,246,1336167,0.0-17.0-0.5,73451,List2B,white,woman,,,,null,,,,
null,"<img src=""stim_listB/touch3.gif""</stim_listB>",,html-keyboard-response,247,1338169,0.0-17.0-1.5,73451,List2B,white,woman,,,,null,,,,
null,is touching,,html-keyboard-response,248,1340172,0.0-17.0-2.5,73451,List2B,white,woman,,,,null,,,,
5915,,,survey-text,249,1346088,0.0-17.0-3.5,73451,List2B,white,woman,,,,,"{""Q0"":""kate is touching mike""}","<img src=""stim_listB/touch3.gif""</stim_listB>",is touching,
null,"<div style=""font-size:60px;"">+</div>",,html-keyboard-response,250,1346590,0.0-17.0-0.6,73451,List2B,white,woman,,,,null,,,,
null,"<img src=""stim_listB/touch4.gif""</stim_listB>",,html-keyboard-response,251,1348595,0.0-17.0-1.6,73451,List2B,white,woman,,,,null,,,,
null,are touching each other,,html-keyboard-response,252,1350597,0.0-17.0-2.6,73451,List2B,white,woman,,,,null,,,,
7433,,,survey-text,253,1358032,0.0-17.0-3.6,73451,List2B,white,woman,,,,,"{""Q0"":""beth and fred are touching each other""}","<img src=""stim_listB/touch4.gif""</stim_listB>",are touching each other,
null,"<div style=""font-size:60px;"">+</div>",,html-keyboard-response,254,1358534,0.0-17.0-0.7,73451,List2B,white,woman,,,,null,,,,
null,"<img src=""stim_listB/touch6.gif""</stim_listB>",,html-keyboard-response,255,1360535,0.0-17.0-1.7,73451,List2B,white,woman,,,,null,,,,
null,are touching each other,,html-keyboard-response,256,1362540,0.0-17.0-2.7,73451,List2B,white,woman,,,,null,,,,
7952,,,survey-text,257,1370495,0.0-17.0-3.7,73451,List2B,white,woman,,,,,"{""Q0"":""luke and fred are touching each other""}","<img src=""stim_listB/touch6.gif""</stim_listB>",are touching each other,
null,"<div style=""font-size:60px;"">+</div>",,html-keyboard-response,258,1370998,0.0-17.0-0.8,73451,List2B,white,woman,,,,null,,,,
null,"<img src=""stim_listB/argue8.gif""</stim_listB>",,html-keyboard-response,259,1373003,0.0-17.0-1.8,73451,List2B,white,woman,,,,null,,,,
null,are arguing with each other,,html-keyboard-response,260,1375005,0.0-17.0-2.8,73451,List2B,white,woman,,,,null,,,,
7962,,,survey-text,261,1382967,0.0-17.0-3.8,73451,List2B,white,woman,,,,,"{""Q0"":""kate and ruth are arguing with each other""}","<img src=""stim_listB/argue8.gif""</stim_listB>",are arguing with each other,
null,"<div style=""font-size:60px;"">+</div>",,html-keyboard-response,262,1383472,0.0-17.0-0.9,73451,List2B,white,woman,,,,null,,,,
null,"<img src=""stim_listB/touch1.gif""</stim_listB>",,html-keyboard-response,263,1385476,0.0-17.0-1.9,73451,List2B,white,woman,,,,null,,,,
null,is touching,,html-keyboard-response,264,1387481,0.0-17.0-2.9,73451,List2B,white,woman,,,,null,,,,
6277,,,survey-text,265,1393760,0.0-17.0-3.9,73451,List2B,white,woman,,,,,"{""Q0"":""jane is touching dave""}","<img src=""stim_listB/touch1.gif""</stim_listB>",is touching,
null,"<div style=""font-size:60px;"">+</div>",,html-keyboard-response,266,1394262,0.0-17.0-0.10,73451,List2B,white,woman,,,,null,,,,
null,"<img src=""stim_listB/dance1.gif""</stim_listB>",,html-keyboard-response,267,1396265,0.0-17.0-1.10,73451,List2B,white,woman,,,,null,,,,
null,is dancing with,,html-keyboard-response,268,1398266,0.0-17.0-2.10,73451,List2B,white,woman,,,,null,,,,
5650,,,survey-text,269,1403917,0.0-17.0-3.10,73451,List2B,white,woman,,,,,"{""Q0"":""jane is dancing with luke""}","<img src=""stim_listB/dance1.gif""</stim_listB>",is dancing with,
null,"<div style=""font-size:60px;"">+</div>",,html-keyboard-response,270,1404423,0.0-17.0-0.11,73451,List2B,white,woman,,,,null,,,,
null,"<img src=""stim_listB/fight8.gif""</stim_listB>",,html-keyboard-response,271,1406429,0.0-17.0-1.11,73451,List2B,white,woman,,,,null,,,,
null,are fighting each other,,html-keyboard-response,272,1408431,0.0-17.0-2.11,73451,List2B,white,woman,,,,null,,,,
17457,,,survey-text,273,1425889,0.0-17.0-3.11,73451,List2B,white,woman,,,,,"{""Q0"":""jane and beth are fighting each other""}","<img src=""stim_listB/fight8.gif""</stim_listB>",are fighting each other,
null,"<div style=""font-size:60px;"">+</div>",,html-keyboard-response,274,1426394,0.0-17.0-0.12,73451,List2B,white,woman,,,,null,,,,
null,"<img src=""stim_listB/talk5.gif""</stim_listB>",,html-keyboard-response,275,1428397,0.0-17.0-1.12,73451,List2B,white,woman,,,,null,,,,
null,is talking to,,html-keyboard-response,276,1430399,0.0-17.0-2.12,73451,List2B,white,woman,,,,null,,,,
6067,,,survey-text,277,1436467,0.0-17.0-3.12,73451,List2B,white,woman,,,,,"{""Q0"":""luke is talking to mike""}","<img src=""stim_listB/talk5.gif""</stim_listB>",is talking to,
null,"<div style=""font-size:60px;"">+</div>",,html-keyboard-response,278,1436973,0.0-17.0-0.13,73451,List2B,white,woman,,,,null,,,,
null,"<img src=""stim_listB/hug8.gif""</stim_listB>",,html-keyboard-response,279,1438980,0.0-17.0-1.13,73451,List2B,white,woman,,,,null,,,,
null,are hugging each other,,html-keyboard-response,280,1440981,0.0-17.0-2.13,73451,List2B,white,woman,,,,null,,,,
6336,,,survey-text,281,1447319,0.0-17.0-3.13,73451,List2B,white,woman,,,,,"{""Q0"":""jane and kate are hugging each other""}","<img src=""stim_listB/hug8.gif""</stim_listB>",are hugging each other,
null,"<div style=""font-size:60px;"">+</div>",,html-keyboard-response,282,1447822,0.0-17.0-0.14,73451,List2B,white,woman,,,,null,,,,
null,"<img src=""stim_listB/marry2.gif""</stim_listB>",,html-keyboard-response,283,1449827,0.0-17.0-1.14,73451,List2B,white,woman,,,,null,,,,
null,are marrying each other,,html-keyboard-response,284,1451829,0.0-17.0-2.14,73451,List2B,white,woman,,,,null,,,,
7758,,,survey-text,285,1459588,0.0-17.0-3.14,73451,List2B,white,woman,,,,,"{""Q0"":""jane and luke are marrying each other""}","<img src=""stim_listB/marry2.gif""</stim_listB>",are marrying each other,
null,"<div style=""font-size:60px;"">+</div>",,html-keyboard-response,286,1460092,0.0-17.0-0.15,73451,List2B,white,woman,,,,null,,,,
null,"<img src=""stim_listB/marry6.gif""</stim_listB>",,html-keyboard-response,287,1462095,0.0-17.0-1.15,73451,List2B,white,woman,,,,null,,,,
null,are marrying each other,,html-keyboard-response,288,1464101,0.0-17.0-2.15,73451,List2B,white,woman,,,,null,,,,
7732,,,survey-text,289,1471833,0.0-17.0-3.15,73451,List2B,white,woman,,,,,"{""Q0"":""luke and mike are marrying eachother""}","<img src=""stim_listB/marry6.gif""</stim_listB>",are marrying each other,
null,"<div style=""font-size:60px;"">+</div>",,html-keyboard-response,290,1472338,0.0-17.0-0.16,73451,List2B,white,woman,,,,null,,,,
null,"<img src=""stim_listB/touch2.gif""</stim_listB>",,html-keyboard-response,291,1474343,0.0-17.0-1.16,73451,List2B,white,woman,,,,null,,,,
null,are touching each other,,html-keyboard-response,292,1476345,0.0-17.0-2.16,73451,List2B,white,woman,,,,null,,,,
10351,,,survey-text,293,1486697,0.0-17.0-3.16,73451,List2B,white,woman,,,,,"{""Q0"":""ruth and luke are touching each other""}","<img src=""stim_listB/touch2.gif""</stim_listB>",are touching each other,
null,"<div style=""font-size:60px;"">+</div>",,html-keyboard-response,294,1487203,0.0-17.0-0.17,73451,List2B,white,woman,,,,null,,,,
null,"<img src=""stim_listB/kiss7.gif""</stim_listB>",,html-keyboard-response,295,1489209,0.0-17.0-1.17,73451,List2B,white,woman,,,,null,,,,
null,is kissing,,html-keyboard-response,296,1491214,0.0-17.0-2.17,73451,List2B,white,woman,,,,null,,,,
7423,,,survey-text,297,1498639,0.0-17.0-3.17,73451,List2B,white,woman,,,,,"{""Q0"":""ruth and beth are kissing each other""}","<img src=""stim_listB/kiss7.gif""</stim_listB>",is kissing,
null,"<div style=""font-size:60px;"">+</div>",,html-keyboard-response,298,1499143,0.0-17.0-0.18,73451,List2B,white,woman,,,,null,,,,
null,"<img src=""stim_listB/meet2.gif""</stim_listB>",,html-keyboard-response,299,1501150,0.0-17.0-1.18,73451,List2B,white,woman,,,,null,,,,
null,are meeting each other,,html-keyboard-response,300,1503151,0.0-17.0-2.18,73451,List2B,white,woman,,,,null,,,,
7954,,,survey-text,301,1511106,0.0-17.0-3.18,73451,List2B,white,woman,,,,,"{""Q0"":""ruth and luke are meeting each other""}","<img src=""stim_listB/meet2.gif""</stim_listB>",are meeting each other,
null,"<div style=""font-size:60px;"">+</div>",,html-keyboard-response,302,1511610,0.0-17.0-0.19,73451,List2B,white,woman,,,,null,,,,
null,"<img src=""stim_listB/marry1.gif""</stim_listB>",,html-keyboard-response,303,1513612,0.0-17.0-1.19,73451,List2B,white,woman,,,,null,,,,
null,is marrying,,html-keyboard-response,304,1515617,0.0-17.0-2.19,73451,List2B,white,woman,,,,null,,,,
5574,,,survey-text,305,1521193,0.0-17.0-3.19,73451,List2B,white,woman,,,,,"{""Q0"":""ruth is marrying dave""}","<img src=""stim_listB/marry1.gif""</stim_listB>",is marrying,
1770,"<img src='img/portrait_matrix_list2.JPG' style='width:900px;height:500px;''></img><p>If you have memorised all the portraits and names and are ready to start, press Continue.</p><p><strong>Please note: Your memory of these faces will be tested 4 times during this experiment.</strong></p>",0,html-button-response,306,1522965,0.0-18.0-0.0,73451,List2B,white,woman,,,,,,,,
1804,"<img src=""portrait/WW1.jpg""style=""width:400px;height:400px;""></img>",1,html-button-response,307,1525774,0.0-18.0-1.0,73451,List2B,white,woman,,TRUE,1,,,,,
null,CORRECT,,html-keyboard-response,308,1527281,0.0-18.0-2.0-0.0,73451,List2B,white,woman,,,,null,,,,
1991,"<img src=""portrait/BM2.jpg""style=""width:400px;height:400px;""></img>",5,html-button-response,309,1529274,0.0-18.0-4.0,73451,List2B,white,woman,,TRUE,5,,,,,
null,CORRECT,,html-keyboard-response,310,1530780,0.0-18.0-5.0-0.0,73451,List2B,white,woman,,,,null,,,,
1409,"<img src=""portrait/WM2.jpg""style=""width:400px;height:400px;""></img>",7,html-button-response,311,1532191,0.0-18.0-7.0,73451,List2B,white,woman,,TRUE,7,,,,,
null,CORRECT,,html-keyboard-response,312,1533697,0.0-18.0-8.0-0.0,73451,List2B,white,woman,,,,null,,,,
1704,"<img src=""portrait/BW2.jpg""style=""width:400px;height:400px;""></img>",2,html-button-response,313,1535403,0.0-18.0-10.0,73451,List2B,white,woman,,TRUE,2,,,,,
null,CORRECT,,html-keyboard-response,314,1536910,0.0-18.0-11.0-0.0,73451,List2B,white,woman,,,,null,,,,
1832,"<img src=""portrait/BM1.jpg""style=""width:400px;height:400px;""></img>",4,html-button-response,315,1538744,0.0-18.0-13.0,73451,List2B,white,woman,,TRUE,4,,,,,
null,CORRECT,,html-keyboard-response,316,1540251,0.0-18.0-14.0-0.0,73451,List2B,white,woman,,,,null,,,,
1471,"<img src=""portrait/WM1.jpg""style=""width:400px;height:400px;""></img>",6,html-button-response,317,1541724,0.0-18.0-16.0,73451,List2B,white,woman,,TRUE,6,,,,,
null,CORRECT,,html-keyboard-response,318,1543234,0.0-18.0-17.0-0.0,73451,List2B,white,woman,,,,null,,,,
4214,"<img src=""portrait/BW1.jpg""style=""width:400px;height:400px;""></img>",0,html-button-response,319,1547449,0.0-18.0-19.0,73451,List2B,white,woman,,TRUE,0,,,,,
null,CORRECT,,html-keyboard-response,320,1548955,0.0-18.0-20.0-0.0,73451,List2B,white,woman,,,,null,,,,
1458,"<img src=""portrait/WW2.jpg""style=""width:400px;height:400px;""></img>",3,html-button-response,321,1550414,0.0-18.0-22.0,73451,List2B,white,woman,,TRUE,3,,,,,
null,CORRECT,,html-keyboard-response,322,1551919,0.0-18.0-23.0-0.0,73451,List2B,white,woman,,,,null,,,,
1582,<p>You got 8 out of 8 right first time. Press Continue.</p>,0,html-button-response,323,1553502,0.0-18.0-25.0,73451,List2B,white,woman,,,,,,,,
null,"<div style=""font-size:60px;"">+</div>",,html-keyboard-response,324,1555013,0.0-19.0-0.0,73451,List2B,white,woman,,,,null,,,,
null,"<img src=""stim_listB/marry5.gif""</stim_listB>",,html-keyboard-response,325,1557015,0.0-19.0-1.0,73451,List2B,white,woman,,,,null,,,,
null,is marrying,,html-keyboard-response,326,1559017,0.0-19.0-2.0,73451,List2B,white,woman,,,,null,,,,
4798,,,survey-text,327,1563816,0.0-19.0-3.0,73451,List2B,white,woman,,,,,"{""Q0"":""dave is marrying fred""}","<img src=""stim_listB/marry5.gif""</stim_listB>",is marrying,
null,"<div style=""font-size:60px;"">+</div>",,html-keyboard-response,328,1564320,0.0-19.0-0.1,73451,List2B,white,woman,,,,null,,,,
null,"<img src=""stim_listB/dance7.gif""</stim_listB>",,html-keyboard-response,329,1566322,0.0-19.0-1.1,73451,List2B,white,woman,,,,null,,,,
null,is dancing with,,html-keyboard-response,330,1568324,0.0-19.0-2.1,73451,List2B,white,woman,,,,null,,,,
15175,,,survey-text,331,1583500,0.0-19.0-3.1,73451,List2B,white,woman,,,,,"{""Q0"":""kate is dancing with ruth""}","<img src=""stim_listB/dance7.gif""</stim_listB>",is dancing with,
null,"<div style=""font-size:60px;"">+</div>",,html-keyboard-response,332,1584001,0.0-19.0-0.2,73451,List2B,white,woman,,,,null,,,,
null,"<img src=""stim_listB/hug5.gif""</stim_listB>",,html-keyboard-response,333,1586274,0.0-19.0-1.2,73451,List2B,white,woman,,,,null,,,,
null,is hugging,,html-keyboard-response,334,1588280,0.0-19.0-2.2,73451,List2B,white,woman,,,,null,,,,
3711,,,survey-text,335,1591991,0.0-19.0-3.2,73451,List2B,white,woman,,,,,"{""Q0"":""is hugging""}","<img src=""stim_listB/hug5.gif""</stim_listB>",is hugging,
null,"<div style=""font-size:60px;"">+</div>",,html-keyboard-response,336,1592498,0.0-19.0-0.3,73451,List2B,white,woman,,,,null,,,,
null,"<img src=""stim_listB/meet5.gif""</stim_listB>",,html-keyboard-response,337,1594502,0.0-19.0-1.3,73451,List2B,white,woman,,,,null,,,,
null,is meeting,,html-keyboard-response,338,1596504,0.0-19.0-2.3,73451,List2B,white,woman,,,,null,,,,
4628,,,survey-text,339,1601133,0.0-19.0-3.3,73451,List2B,white,woman,,,,,"{""Q0"":""mike is meeting dave""}","<img src=""stim_listB/meet5.gif""</stim_listB>",is meeting,
null,"<div style=""font-size:60px;"">+</div>",,html-keyboard-response,340,1601635,0.0-19.0-0.4,73451,List2B,white,woman,,,,null,,,,
null,"<img src=""stim_listB/meet7.gif""</stim_listB>",,html-keyboard-response,341,1603637,0.0-19.0-1.4,73451,List2B,white,woman,,,,null,,,,
null,is meeting,,html-keyboard-response,342,1605638,0.0-19.0-2.4,73451,List2B,white,woman,,,,null,,,,
4172,,,survey-text,343,1609810,0.0-19.0-3.4,73451,List2B,white,woman,,,,,"{""Q0"":""kate is meeting jane""}","<img src=""stim_listB/meet7.gif""</stim_listB>",is meeting,
null,"<div style=""font-size:60px;"">+</div>",,html-keyboard-response,344,1610312,0.0-19.0-0.5,73451,List2B,white,woman,,,,null,,,,
null,"<img src=""stim_listB/shout1.gif""</stim_listB>",,html-keyboard-response,345,1612314,0.0-19.0-1.5,73451,List2B,white,woman,,,,null,,,,
null,is shouting at,,html-keyboard-response,346,1614315,0.0-19.0-2.5,73451,List2B,white,woman,,,,null,,,,
7633,,,survey-text,347,1621948,0.0-19.0-3.5,73451,List2B,white,woman,,,,,"{""Q0"":""ruth is shouting at luke""}","<img src=""stim_listB/shout1.gif""</stim_listB>",is shouting at,
null,"<div style=""font-size:60px;"">+</div>",,html-keyboard-response,348,1622454,0.0-19.0-0.6,73451,List2B,white,woman,,,,null,,,,
null,"<img src=""stim_listB/fight1.gif""</stim_listB>",,html-keyboard-response,349,1624460,0.0-19.0-1.6,73451,List2B,white,woman,,,,null,,,,
null,is fighting,,html-keyboard-response,350,1626464,0.0-19.0-2.6,73451,List2B,white,woman,,,,null,,,,
5686,,,survey-text,351,1632151,0.0-19.0-3.6,73451,List2B,white,woman,,,,,"{""Q0"":""jane is fighting dave""}","<img src=""stim_listB/fight1.gif""</stim_listB>",is fighting,
null,"<div style=""font-size:60px;"">+</div>",,html-keyboard-response,352,1632653,0.0-19.0-0.7,73451,List2B,white,woman,,,,null,,,,
null,"<img src=""stim_listB/shout8.gif""</stim_listB>",,html-keyboard-response,353,1634656,0.0-19.0-1.7,73451,List2B,white,woman,,,,null,,,,
null,are shouting at each other,,html-keyboard-response,354,1636662,0.0-19.0-2.7,73451,List2B,white,woman,,,,null,,,,
7886,,,survey-text,355,1644549,0.0-19.0-3.7,73451,List2B,white,woman,,,,,"{""Q0"":""jane and kate are shouting at each other""}","<img src=""stim_listB/shout8.gif""</stim_listB>",are shouting at each other,
null,"<div style=""font-size:60px;"">+</div>",,html-keyboard-response,356,1645053,0.0-19.0-0.8,73451,List2B,white,woman,,,,null,,,,
null,"<img src=""stim_listB/touch5.gif""</stim_listB>",,html-keyboard-response,357,1647059,0.0-19.0-1.8,73451,List2B,white,woman,,,,null,,,,
null,is touching,,html-keyboard-response,358,1649063,0.0-19.0-2.8,73451,List2B,white,woman,,,,null,,,,
4619,,,survey-text,359,1653682,0.0-19.0-3.8,73451,List2B,white,woman,,,,,"{""Q0"":""mike is touching dave""}","<img src=""stim_listB/touch5.gif""</stim_listB>",is touching,
null,"<div style=""font-size:60px;"">+</div>",,html-keyboard-response,360,1654186,0.0-19.0-0.9,73451,List2B,white,woman,,,,null,,,,
null,"<img src=""stim_listB/shout6.gif""</stim_listB>",,html-keyboard-response,361,1656188,0.0-19.0-1.9,73451,List2B,white,woman,,,,null,,,,
null,are shouting at each other,,html-keyboard-response,362,1658189,0.0-19.0-2.9,73451,List2B,white,woman,,,,null,,,,
6769,,,survey-text,363,1664959,0.0-19.0-3.9,73451,List2B,white,woman,,,,,"{""Q0"":""dave and mike are shouting at each other""}","<img src=""stim_listB/shout6.gif""</stim_listB>",are shouting at each other,
null,"<div style=""font-size:60px;"">+</div>",,html-keyboard-response,364,1665465,0.0-19.0-0.10,73451,List2B,white,woman,,,,null,,,,
null,"<img src=""stim_listB/meet8.gif""</stim_listB>",,html-keyboard-response,365,1667468,0.0-19.0-1.10,73451,List2B,white,woman,,,,null,,,,
null,are meeting each other,,html-keyboard-response,366,1669469,0.0-19.0-2.10,73451,List2B,white,woman,,,,null,,,,
6321,,,survey-text,367,1675791,0.0-19.0-3.10,73451,List2B,white,woman,,,,,"{""Q0"":""ruth and beth are meeting each other""}","<img src=""stim_listB/meet8.gif""</stim_listB>",are meeting each other,
null,"<div style=""font-size:60px;"">+</div>",,html-keyboard-response,368,1676294,0.0-19.0-0.11,73451,List2B,white,woman,,,,null,,,,
null,"<img src=""stim_listB/talk7.gif""</stim_listB>",,html-keyboard-response,369,1678296,0.0-19.0-1.11,73451,List2B,white,woman,,,,null,,,,
null,is talking to,,html-keyboard-response,370,1680301,0.0-19.0-2.11,73451,List2B,white,woman,,,,null,,,,
5969,,,survey-text,371,1686271,0.0-19.0-3.11,73451,List2B,white,woman,,,,,"{""Q0"":""ruth is talking to kate""}","<img src=""stim_listB/talk7.gif""</stim_listB>",is talking to,
null,"<div style=""font-size:60px;"">+</div>",,html-keyboard-response,372,1686775,0.0-19.0-0.12,73451,List2B,white,woman,,,,null,,,,
null,"<img src=""stim_listB/kiss3.gif""</stim_listB>",,html-keyboard-response,373,1688781,0.0-19.0-1.12,73451,List2B,white,woman,,,,null,,,,
null,is kissing,,html-keyboard-response,374,1690784,0.0-19.0-2.12,73451,List2B,white,woman,,,,null,,,,
5481,,,survey-text,375,1696266,0.0-19.0-3.12,73451,List2B,white,woman,,,,,"{""Q0"":""beth is kissing fred""}","<img src=""stim_listB/kiss3.gif""</stim_listB>",is kissing,
null,"<div style=""font-size:60px;"">+</div>",,html-keyboard-response,376,1696772,0.0-19.0-0.13,73451,List2B,white,woman,,,,null,,,,
null,"<img src=""stim_listB/shout2.gif""</stim_listB>",,html-keyboard-response,377,1698779,0.0-19.0-1.13,73451,List2B,white,woman,,,,null,,,,
null,are shouting at each other,,html-keyboard-response,378,1700782,0.0-19.0-2.13,73451,List2B,white,woman,,,,null,,,,
7431,,,survey-text,379,1708214,0.0-19.0-3.13,73451,List2B,white,woman,,,,,"{""Q0"":""dave and jane are shouting at each other""}","<img src=""stim_listB/shout2.gif""</stim_listB>",are shouting at each other,
null,"<div style=""font-size:60px;"">+</div>",,html-keyboard-response,380,1708717,0.0-19.0-0.14,73451,List2B,white,woman,,,,null,,,,
null,"<img src=""stim_listB/touch7.gif""</stim_listB>",,html-keyboard-response,381,1710723,0.0-19.0-1.14,73451,List2B,white,woman,,,,null,,,,
null,is touching,,html-keyboard-response,382,1712724,0.0-19.0-2.14,73451,List2B,white,woman,,,,null,,,,
6051,,,survey-text,383,1718777,0.0-19.0-3.14,73451,List2B,white,woman,,,,,"{""Q0"":""kate is touching dave""}","<img src=""stim_listB/touch7.gif""</stim_listB>",is touching,
null,"<div style=""font-size:60px;"">+</div>",,html-keyboard-response,384,1719283,0.0-19.0-0.15,73451,List2B,white,woman,,,,null,,,,
null,"<img src=""stim_listB/meet6.gif""</stim_listB>",,html-keyboard-response,385,1721289,0.0-19.0-1.15,73451,List2B,white,woman,,,,null,,,,
null,are meeting each other,,html-keyboard-response,386,1723290,0.0-19.0-2.15,73451,List2B,white,woman,,,,null,,,,
8445,,,survey-text,387,1731736,0.0-19.0-3.15,73451,List2B,white,woman,,,,,"{""Q0"":""luke and fred are meeting each other""}","<img src=""stim_listB/meet6.gif""</stim_listB>",are meeting each other,
null,"<div style=""font-size:60px;"">+</div>",,html-keyboard-response,388,1732240,0.0-19.0-0.16,73451,List2B,white,woman,,,,null,,,,
null,"<img src=""stim_listB/marry3.gif""</stim_listB>",,html-keyboard-response,389,1734247,0.0-19.0-1.16,73451,List2B,white,woman,,,,null,,,,
null,is marrying,,html-keyboard-response,390,1736248,0.0-19.0-2.16,73451,List2B,white,woman,,,,null,,,,
4919,,,survey-text,391,1741169,0.0-19.0-3.16,73451,List2B,white,woman,,,,,"{""Q0"":""mike is marrying beth""}","<img src=""stim_listB/marry3.gif""</stim_listB>",is marrying,
null,"<div style=""font-size:60px;"">+</div>",,html-keyboard-response,392,1741675,0.0-19.0-0.17,73451,List2B,white,woman,,,,null,,,,
null,"<img src=""stim_listB/meet1.gif""</stim_listB>",,html-keyboard-response,393,1743681,0.0-19.0-1.17,73451,List2B,white,woman,,,,null,,,,
null,is meeting,,html-keyboard-response,394,1745686,0.0-19.0-2.17,73451,List2B,white,woman,,,,null,,,,
4424,,,survey-text,395,1750112,0.0-19.0-3.17,73451,List2B,white,woman,,,,,"{""Q0"":""jane is meeting dave""}","<img src=""stim_listB/meet1.gif""</stim_listB>",is meeting,
null,"<div style=""font-size:60px;"">+</div>",,html-keyboard-response,396,1750614,0.0-19.0-0.18,73451,List2B,white,woman,,,,null,,,,
null,"<img src=""stim_listB/talk8.gif""</stim_listB>",,html-keyboard-response,397,1752617,0.0-19.0-1.18,73451,List2B,white,woman,,,,null,,,,
null,are talking to each other,,html-keyboard-response,398,1754620,0.0-19.0-2.18,73451,List2B,white,woman,,,,null,,,,
9784,,,survey-text,399,1764406,0.0-19.0-3.18,73451,List2B,white,woman,,,,,"{""Q0"":""jane and beth are talking to each other""}","<img src=""stim_listB/talk8.gif""</stim_listB>",are talking to each other,
null,"<div style=""font-size:60px;"">+</div>",,html-keyboard-response,400,1764913,0.0-19.0-0.19,73451,List2B,white,woman,,,,null,,,,
null,"<img src=""stim_listB/kiss1.gif""</stim_listB>",,html-keyboard-response,401,1766919,0.0-19.0-1.19,73451,List2B,white,woman,,,,null,,,,
null,is kissing,,html-keyboard-response,402,1768924,0.0-19.0-2.19,73451,List2B,white,woman,,,,null,,,,
7424,,,survey-text,403,1776350,0.0-19.0-3.19,73451,List2B,white,woman,,,,,"{""Q0"":""ruth is kissing luke""}","<img src=""stim_listB/kiss1.gif""</stim_listB>",is kissing,
2319,<p>Thank you for completing that task.</p><p>The final part of this session is a short questionnaire.</p><p>Press Continue.</p>,0,html-button-response,404,1778671,0.0-20.0,73451,List2B,white,woman,,,,,,,,
32042,,,survey-text,405,1811721,0.0-21.0,73451,List2B,white,woman,,,,,"{""Q0"":""23"",""Q1"":""English"",""Q2"":""english"",""Q3"":""USA"",""Q4"":""white"",""Q5"":""female""}",,,demographics
52789,,,survey-likert,406,1864521,0.0-22.0,73451,List2B,white,woman,,,,,"{""Q0"":5,""Q1"":5,""Q2"":1,""Q3"":4,""Q4"":1,""Q5"":5,""Q6"":2,""Q7"":3,""Q8"":4,""Q9"":4,""Q10"":4,""Q11"":4,""Q12"":4,""Q13"":4}",,,likert_race
35005,,,survey-likert,407,1899534,0.0-23.0,73451,List2B,white,woman,,,,,"{""Q0"":4,""Q1"":4,""Q2"":4,""Q3"":4,""Q4"":5,""Q5"":1,""Q6"":4,""Q7"":4,""Q8"":4,""Q9"":4,""Q10"":4,""Q11"":4,""Q12"":4,""Q13"":4}",,,likert_gender
5607,,,survey-text,408,1905144,0.0-24.0,73451,List2B,white,woman,,,,,"{""Q0"":""ccc""}",,,worker_id
2587,,,external-html,409,1907957,0.0-25.0,73451,List2B,white,woman,debrief.html,,,,,,,
