rt,stimulus,button_pressed,trial_type,trial_index,time_elapsed,internal_node_id,subject,list,ppt_race,ppt_gender,url,first_guess,correct,key_press,responses,image_type,phrase_type,test_part
2515,Welcome to the experiment. Press Continue to begin.,0,html-button-response,0,2523,0.0-0.0,7370,List1B,black,woman,,,,,,,,
10486,,,external-html,1,14646,0.0-1.0,7370,List1B,black,woman,consent.html,,,,,,,
2525,"<p>On the next page, you will see portraits of 8 people and their names.</p><p>Your first task is to take a few minutes to memorise the names of these people.</p><p>You will have to recall their names during the rest of the experiment, so it is</p><p>essential that you try to memorise these people and their names as best as you can.</p><br><p><strong>You will then be tested on your memory of these names and portraits.</strong></p><br><p>The experiment will start after you have completed this memory test.</p><br><p>Ready?</p>",0,html-button-response,2,17171,0.0-2.0,7370,List1B,black,woman,,,,,,,,
35814,"<img src='img/portrait_matrix_list1.JPG' style='width:900px;height:500px;''></img><p>If you have memorised all the portraits and names and are ready to start, press Continue.</p><p><strong>Please note: Your memory of these faces will be tested 4 times during this experiment.</strong></p>",0,html-button-response,3,54001,0.0-3.0-0.0,7370,List1B,black,woman,,,,,,,,
3509,"<img src=""portrait/BM2.jpg""style=""width:400px;height:400px;""></img>",5,html-button-response,4,58527,0.0-3.0-1.0,7370,List1B,black,woman,,TRUE,5,,,,,
null,CORRECT,,html-keyboard-response,5,60065,0.0-3.0-2.0-0.0,7370,List1B,black,woman,,,,null,,,,
3005,"<img src=""portrait/WW1.jpg""style=""width:400px;height:400px;""></img>",1,html-button-response,6,63072,0.0-3.0-4.0,7370,List1B,black,woman,,TRUE,1,,,,,
null,CORRECT,,html-keyboard-response,7,64606,0.0-3.0-5.0-0.0,7370,List1B,black,woman,,,,null,,,,
2637,"<img src=""portrait/WM2.jpg""style=""width:400px;height:400px;""></img>",7,html-button-response,8,67247,0.0-3.0-7.0,7370,List1B,black,woman,,TRUE,7,,,,,
null,CORRECT,,html-keyboard-response,9,68765,0.0-3.0-8.0-0.0,7370,List1B,black,woman,,,,null,,,,
2904,"<img src=""portrait/WM1.jpg""style=""width:400px;height:400px;""></img>",6,html-button-response,10,71675,0.0-3.0-10.0,7370,List1B,black,woman,,TRUE,6,,,,,
null,CORRECT,,html-keyboard-response,11,73197,0.0-3.0-11.0-0.0,7370,List1B,black,woman,,,,null,,,,
12139,"<img src=""portrait/BM1.jpg""style=""width:400px;height:400px;""></img>",4,html-button-response,12,85337,0.0-3.0-13.0,7370,List1B,black,woman,,TRUE,4,,,,,
null,CORRECT,,html-keyboard-response,13,86864,0.0-3.0-14.0-0.0,7370,List1B,black,woman,,,,null,,,,
3900,"<img src=""portrait/BW1.jpg""style=""width:400px;height:400px;""></img>",0,html-button-response,14,90769,0.0-3.0-16.0,7370,List1B,black,woman,,TRUE,0,,,,,
null,CORRECT,,html-keyboard-response,15,92304,0.0-3.0-17.0-0.0,7370,List1B,black,woman,,,,null,,,,
4699,"<img src=""portrait/WW2.jpg""style=""width:400px;height:400px;""></img>",3,html-button-response,16,97009,0.0-3.0-19.0,7370,List1B,black,woman,,TRUE,3,,,,,
null,CORRECT,,html-keyboard-response,17,98539,0.0-3.0-20.0-0.0,7370,List1B,black,woman,,,,null,,,,
2902,"<img src=""portrait/BW2.jpg""style=""width:400px;height:400px;""></img>",2,html-button-response,18,101444,0.0-3.0-22.0,7370,List1B,black,woman,,TRUE,2,,,,,
null,CORRECT,,html-keyboard-response,19,102967,0.0-3.0-23.0-0.0,7370,List1B,black,woman,,,,null,,,,
2246,<p>You got 8 out of 8 right first time. Press Continue.</p>,0,html-button-response,20,105218,0.0-3.0-25.0,7370,List1B,black,woman,,,,,,,,
30466,"<p>In this experiment, you will view photographs of the people from the memory game interacting.</p><p>By using the <strong>exact</strong> phrase given <i>after</i> the photograph appears and recalling the correct names of the people in the photographs, form a sentence describing the interaction. You do not need to capitalise names.</p><p>Type your answer in the space provided. Please complete every sentence before moving onto the next trial.</p><p>You will only have a few seconds to memorise each given photograph and phrase before you can respond, so try your best to focus.</p><p>An example is given below. Press 'Continue' when you are ready.</p><img src='img/speaking_example_v2.jpg' style='width:800px;height:460px;''></img>",0,html-button-response,21,136709,0.0-4.0,7370,List1B,black,woman,,,,,,,,
2352,"<p>Before the experiment starts, you will watch two example trials. Press 'Continue'.</p>",0,html-button-response,22,140072,0.0-5.0,7370,List1B,black,woman,,,,,,,,
null,<img src='img/speaking_WW.gif'></img>,,html-keyboard-response,23,143094,0.0-6.0,7370,List1B,black,woman,,,,null,,,,
null,<p>is speaking to</p>,,html-keyboard-response,24,145099,0.0-7.0,7370,List1B,black,woman,,,,null,,,,
1827,<p><b>Answer:</b> kate is speaking to beth</p>,0,html-button-response,25,146927,0.0-8.0,7370,List1B,black,woman,,,,,,,,
null,<img src='img/pointing_BM.gif'></img>,,html-keyboard-response,26,149956,0.0-9.0,7370,List1B,black,woman,,,,null,,,,
null,<p>are pointing at each other</p>,,html-keyboard-response,27,151950,0.0-10.0,7370,List1B,black,woman,,,,null,,,,
2371,<p><b>Answer:</b> luke and dave are pointing at each other</p>,0,html-button-response,28,154324,0.0-11.0,7370,List1B,black,woman,,,,,,,,
8970,"<p>Ready to start the experiment?</p><br><p><strong>Remember to describe the picture using a full sentence,</strong></p><p><strong>that combines the names of the people with the given phrase.</strong></p><p><strong>If you do not do this correctly you will not be paid.</strong></p><p><strong> You do not need to capitalise names or use punctuation.</strong></p><br><p>Press 'Continue' to begin.</p>",0,html-button-response,29,164315,0.0-12.0,7370,List1B,black,woman,,,,,,,,
null,"<div style=""font-size:60px;"">+</div>",,html-keyboard-response,30,165836,0.0-13.0-0.0,7370,List1B,black,woman,,,,null,,,,
null,"<img src=""stim_listB/meet4.gif""</stim_listB>",,html-keyboard-response,31,167852,0.0-13.0-1.0,7370,List1B,black,woman,,,,null,,,,
null,are meeting each other,,html-keyboard-response,32,169859,0.0-13.0-2.0,7370,List1B,black,woman,,,,null,,,,
14872,,,survey-text,33,184736,0.0-13.0-3.0,7370,List1B,black,woman,,,,,"{""Q0"":""Dave and Ruth are meeting eachother ""}","<img src=""stim_listB/meet4.gif""</stim_listB>",are meeting each other,
null,"<div style=""font-size:60px;"">+</div>",,html-keyboard-response,34,185242,0.0-13.0-0.1,7370,List1B,black,woman,,,,null,,,,
null,"<img src=""stim_listB/touch2.gif""</stim_listB>",,html-keyboard-response,35,187264,0.0-13.0-1.1,7370,List1B,black,woman,,,,null,,,,
null,are touching each other,,html-keyboard-response,36,189253,0.0-13.0-2.1,7370,List1B,black,woman,,,,null,,,,
12536,,,survey-text,37,201791,0.0-13.0-3.1,7370,List1B,black,woman,,,,,"{""Q0"":""Beth and Mike are touching eachother""}","<img src=""stim_listB/touch2.gif""</stim_listB>",are touching each other,
null,"<div style=""font-size:60px;"">+</div>",,html-keyboard-response,38,202305,0.0-13.0-0.2,7370,List1B,black,woman,,,,null,,,,
null,"<img src=""stim_listB/dance5.gif""</stim_listB>",,html-keyboard-response,39,204313,0.0-13.0-1.2,7370,List1B,black,woman,,,,null,,,,
null,is dancing with,,html-keyboard-response,40,206329,0.0-13.0-2.2,7370,List1B,black,woman,,,,null,,,,
10010,,,survey-text,41,216342,0.0-13.0-3.2,7370,List1B,black,woman,,,,,"{""Q0"":""Dave is dancing with Mike""}","<img src=""stim_listB/dance5.gif""</stim_listB>",is dancing with,
null,"<div style=""font-size:60px;"">+</div>",,html-keyboard-response,42,216858,0.0-13.0-0.3,7370,List1B,black,woman,,,,null,,,,
null,"<img src=""stim_listB/argue8.gif""</stim_listB>",,html-keyboard-response,43,218875,0.0-13.0-1.3,7370,List1B,black,woman,,,,null,,,,
null,are arguing with each other,,html-keyboard-response,44,220875,0.0-13.0-2.3,7370,List1B,black,woman,,,,null,,,,
14032,,,survey-text,45,234910,0.0-13.0-3.3,7370,List1B,black,woman,,,,,"{""Q0"":""Jane and Beth are arguing with eachother ""}","<img src=""stim_listB/argue8.gif""</stim_listB>",are arguing with each other,
null,"<div style=""font-size:60px;"">+</div>",,html-keyboard-response,46,235426,0.0-13.0-0.4,7370,List1B,black,woman,,,,null,,,,
null,"<img src=""stim_listB/shout8.gif""</stim_listB>",,html-keyboard-response,47,237449,0.0-13.0-1.4,7370,List1B,black,woman,,,,null,,,,
null,are shouting at each other,,html-keyboard-response,48,239428,0.0-13.0-2.4,7370,List1B,black,woman,,,,null,,,,
37433,,,survey-text,49,276864,0.0-13.0-3.4,7370,List1B,black,woman,,,,,"{""Q0"":""Jane and Beth are shouting at each other""}","<img src=""stim_listB/shout8.gif""</stim_listB>",are shouting at each other,
null,"<div style=""font-size:60px;"">+</div>",,html-keyboard-response,50,277376,0.0-13.0-0.5,7370,List1B,black,woman,,,,null,,,,
null,"<img src=""stim_listB/shout1.gif""</stim_listB>",,html-keyboard-response,51,279391,0.0-13.0-1.5,7370,List1B,black,woman,,,,null,,,,
null,is shouting at,,html-keyboard-response,52,281397,0.0-13.0-2.5,7370,List1B,black,woman,,,,null,,,,
9346,,,survey-text,53,290746,0.0-13.0-3.5,7370,List1B,black,woman,,,,,"{""Q0"":""Beth is shouting at mike ""}","<img src=""stim_listB/shout1.gif""</stim_listB>",is shouting at,
null,"<div style=""font-size:60px;"">+</div>",,html-keyboard-response,54,291262,0.0-13.0-0.6,7370,List1B,black,woman,,,,null,,,,
null,"<img src=""stim_listB/hug8.gif""</stim_listB>",,html-keyboard-response,55,293283,0.0-13.0-1.6,7370,List1B,black,woman,,,,null,,,,
null,are hugging each other,,html-keyboard-response,56,295273,0.0-13.0-2.6,7370,List1B,black,woman,,,,null,,,,
12757,,,survey-text,57,308032,0.0-13.0-3.6,7370,List1B,black,woman,,,,,"{""Q0"":""jane and beth are hurgging each other ""}","<img src=""stim_listB/hug8.gif""</stim_listB>",are hugging each other,
null,"<div style=""font-size:60px;"">+</div>",,html-keyboard-response,58,308544,0.0-13.0-0.7,7370,List1B,black,woman,,,,null,,,,
null,"<img src=""stim_listB/marry6.gif""</stim_listB>",,html-keyboard-response,59,310561,0.0-13.0-1.7,7370,List1B,black,woman,,,,null,,,,
null,are marrying each other,,html-keyboard-response,60,312551,0.0-13.0-2.7,7370,List1B,black,woman,,,,null,,,,
10651,,,survey-text,61,323205,0.0-13.0-3.7,7370,List1B,black,woman,,,,,"{""Q0"":""Dave and Mike are marrying eachother""}","<img src=""stim_listB/marry6.gif""</stim_listB>",are marrying each other,
null,"<div style=""font-size:60px;"">+</div>",,html-keyboard-response,62,323727,0.0-13.0-0.8,7370,List1B,black,woman,,,,null,,,,
null,"<img src=""stim_listB/dance2.gif""</stim_listB>",,html-keyboard-response,63,325758,0.0-13.0-1.8,7370,List1B,black,woman,,,,null,,,,
null,are dancing with each other,,html-keyboard-response,64,327759,0.0-13.0-2.8,7370,List1B,black,woman,,,,null,,,,
11209,,,survey-text,65,338970,0.0-13.0-3.8,7370,List1B,black,woman,,,,,"{""Q0"":""Beth and Fred are dancing with each other ""}","<img src=""stim_listB/dance2.gif""</stim_listB>",are dancing with each other,
null,"<div style=""font-size:60px;"">+</div>",,html-keyboard-response,66,339490,0.0-13.0-0.9,7370,List1B,black,woman,,,,null,,,,
null,"<img src=""stim_listB/fight6.gif""</stim_listB>",,html-keyboard-response,67,341508,0.0-13.0-1.9,7370,List1B,black,woman,,,,null,,,,
null,are fighting each other,,html-keyboard-response,68,343493,0.0-13.0-2.9,7370,List1B,black,woman,,,,null,,,,
14256,,,survey-text,69,357751,0.0-13.0-3.9,7370,List1B,black,woman,,,,,"{""Q0"":""Fred and Luke are fighting each other ""}","<img src=""stim_listB/fight6.gif""</stim_listB>",are fighting each other,
null,"<div style=""font-size:60px;"">+</div>",,html-keyboard-response,70,358260,0.0-13.0-0.10,7370,List1B,black,woman,,,,null,,,,
null,"<img src=""stim_listB/dance7.gif""</stim_listB>",,html-keyboard-response,71,360266,0.0-13.0-1.10,7370,List1B,black,woman,,,,null,,,,
null,is dancing with,,html-keyboard-response,72,362274,0.0-13.0-2.10,7370,List1B,black,woman,,,,null,,,,
8101,,,survey-text,73,370378,0.0-13.0-3.10,7370,List1B,black,woman,,,,,"{""Q0"":""jane is dancing with beth""}","<img src=""stim_listB/dance7.gif""</stim_listB>",is dancing with,
null,"<div style=""font-size:60px;"">+</div>",,html-keyboard-response,74,370906,0.0-13.0-0.11,7370,List1B,black,woman,,,,null,,,,
null,"<img src=""stim_listB/touch6.gif""</stim_listB>",,html-keyboard-response,75,372912,0.0-13.0-1.11,7370,List1B,black,woman,,,,null,,,,
null,are touching each other,,html-keyboard-response,76,374929,0.0-13.0-2.11,7370,List1B,black,woman,,,,null,,,,
15092,,,survey-text,77,390023,0.0-13.0-3.11,7370,List1B,black,woman,,,,,"{""Q0"":""luke and mike are touching each other ""}","<img src=""stim_listB/touch6.gif""</stim_listB>",are touching each other,
null,"<div style=""font-size:60px;"">+</div>",,html-keyboard-response,78,390530,0.0-13.0-0.12,7370,List1B,black,woman,,,,null,,,,
null,"<img src=""stim_listB/marry3.gif""</stim_listB>",,html-keyboard-response,79,392542,0.0-13.0-1.12,7370,List1B,black,woman,,,,null,,,,
null,is marrying,,html-keyboard-response,80,394540,0.0-13.0-2.12,7370,List1B,black,woman,,,,null,,,,
10161,,,survey-text,81,404705,0.0-13.0-3.12,7370,List1B,black,woman,,,,,"{""Q0"":""dave is marrying ruth ""}","<img src=""stim_listB/marry3.gif""</stim_listB>",is marrying,
null,"<div style=""font-size:60px;"">+</div>",,html-keyboard-response,82,405216,0.0-13.0-0.13,7370,List1B,black,woman,,,,null,,,,
null,"<img src=""stim_listB/kiss3.gif""</stim_listB>",,html-keyboard-response,83,407233,0.0-13.0-1.13,7370,List1B,black,woman,,,,null,,,,
null,is kissing,,html-keyboard-response,84,409218,0.0-13.0-2.13,7370,List1B,black,woman,,,,null,,,,
9156,,,survey-text,85,418376,0.0-13.0-3.13,7370,List1B,black,woman,,,,,"{""Q0"":""luke is kissing ruth ""}","<img src=""stim_listB/kiss3.gif""</stim_listB>",is kissing,
null,"<div style=""font-size:60px;"">+</div>",,html-keyboard-response,86,418887,0.0-13.0-0.14,7370,List1B,black,woman,,,,null,,,,
null,"<img src=""stim_listB/meet3.gif""</stim_listB>",,html-keyboard-response,87,420903,0.0-13.0-1.14,7370,List1B,black,woman,,,,null,,,,
null,is meeting,,html-keyboard-response,88,422905,0.0-13.0-2.14,7370,List1B,black,woman,,,,null,,,,
8007,,,survey-text,89,430915,0.0-13.0-3.14,7370,List1B,black,woman,,,,,"{""Q0"":""jane is meeting dave ""}","<img src=""stim_listB/meet3.gif""</stim_listB>",is meeting,
null,"<div style=""font-size:60px;"">+</div>",,html-keyboard-response,90,431432,0.0-13.0-0.15,7370,List1B,black,woman,,,,null,,,,
null,"<img src=""stim_listB/marry7.gif""</stim_listB>",,html-keyboard-response,91,433441,0.0-13.0-1.15,7370,List1B,black,woman,,,,null,,,,
null,is marrying,,html-keyboard-response,92,435443,0.0-13.0-2.15,7370,List1B,black,woman,,,,null,,,,
7908,,,survey-text,93,443355,0.0-13.0-3.15,7370,List1B,black,woman,,,,,"{""Q0"":""ruth is marrying beth""}","<img src=""stim_listB/marry7.gif""</stim_listB>",is marrying,
null,"<div style=""font-size:60px;"">+</div>",,html-keyboard-response,94,443859,0.0-13.0-0.16,7370,List1B,black,woman,,,,null,,,,
null,"<img src=""stim_listB/shout3.gif""</stim_listB>",,html-keyboard-response,95,445875,0.0-13.0-1.16,7370,List1B,black,woman,,,,null,,,,
null,is shouting at,,html-keyboard-response,96,447876,0.0-13.0-2.16,7370,List1B,black,woman,,,,null,,,,
7871,,,survey-text,97,455751,0.0-13.0-3.16,7370,List1B,black,woman,,,,,"{""Q0"":""luke is shouting at ruth ""}","<img src=""stim_listB/shout3.gif""</stim_listB>",is shouting at,
null,"<div style=""font-size:60px;"">+</div>",,html-keyboard-response,98,456275,0.0-13.0-0.17,7370,List1B,black,woman,,,,null,,,,
null,"<img src=""stim_listB/fight3.gif""</stim_listB>",,html-keyboard-response,99,458292,0.0-13.0-1.17,7370,List1B,black,woman,,,,null,,,,
null,is fighting,,html-keyboard-response,100,460292,0.0-13.0-2.17,7370,List1B,black,woman,,,,null,,,,
8646,,,survey-text,101,468940,0.0-13.0-3.17,7370,List1B,black,woman,,,,,"{""Q0"":""jane is fighting dave ""}","<img src=""stim_listB/fight3.gif""</stim_listB>",is fighting,
null,"<div style=""font-size:60px;"">+</div>",,html-keyboard-response,102,469452,0.0-13.0-0.18,7370,List1B,black,woman,,,,null,,,,
null,"<img src=""stim_listB/hug7.gif""</stim_listB>",,html-keyboard-response,103,471466,0.0-13.0-1.18,7370,List1B,black,woman,,,,null,,,,
null,is hugging,,html-keyboard-response,104,473469,0.0-13.0-2.18,7370,List1B,black,woman,,,,null,,,,
6413,,,survey-text,105,479884,0.0-13.0-3.18,7370,List1B,black,woman,,,,,"{""Q0"":""ruth is hugging beth""}","<img src=""stim_listB/hug7.gif""</stim_listB>",is hugging,
null,"<div style=""font-size:60px;"">+</div>",,html-keyboard-response,106,480398,0.0-13.0-0.19,7370,List1B,black,woman,,,,null,,,,
null,"<img src=""stim_listB/talk5.gif""</stim_listB>",,html-keyboard-response,107,482414,0.0-13.0-1.19,7370,List1B,black,woman,,,,null,,,,
null,is talking to,,html-keyboard-response,108,484404,0.0-13.0-2.19,7370,List1B,black,woman,,,,null,,,,
7015,,,survey-text,109,491423,0.0-13.0-3.19,7370,List1B,black,woman,,,,,"{""Q0"":""fred is talking to dave ""}","<img src=""stim_listB/talk5.gif""</stim_listB>",is talking to,
36621,"<img src='img/portrait_matrix_list1.JPG' style='width:900px;height:500px;''></img><p>If you have memorised all the portraits and names and are ready to start, press Continue.</p><p><strong>Please note: Your memory of these faces will be tested 4 times during this experiment.</strong></p>",0,html-button-response,110,528047,0.0-14.0-0.0,7370,List1B,black,woman,,,,,,,,
2743,"<img src=""portrait/WW1.jpg""style=""width:400px;height:400px;""></img>",1,html-button-response,111,531801,0.0-14.0-1.0,7370,List1B,black,woman,,TRUE,1,,,,,
null,CORRECT,,html-keyboard-response,112,533343,0.0-14.0-2.0-0.0,7370,List1B,black,woman,,,,null,,,,
2489,"<img src=""portrait/BW2.jpg""style=""width:400px;height:400px;""></img>",2,html-button-response,113,535835,0.0-14.0-4.0,7370,List1B,black,woman,,TRUE,2,,,,,
null,CORRECT,,html-keyboard-response,114,537365,0.0-14.0-5.0-0.0,7370,List1B,black,woman,,,,null,,,,
3039,"<img src=""portrait/WM1.jpg""style=""width:400px;height:400px;""></img>",6,html-button-response,115,540407,0.0-14.0-7.0,7370,List1B,black,woman,,TRUE,6,,,,,
null,CORRECT,,html-keyboard-response,116,541934,0.0-14.0-8.0-0.0,7370,List1B,black,woman,,,,null,,,,
1949,"<img src=""portrait/BM2.jpg""style=""width:400px;height:400px;""></img>",5,html-button-response,117,543887,0.0-14.0-10.0,7370,List1B,black,woman,,TRUE,5,,,,,
null,CORRECT,,html-keyboard-response,118,545420,0.0-14.0-11.0-0.0,7370,List1B,black,woman,,,,null,,,,
2430,"<img src=""portrait/WW2.jpg""style=""width:400px;height:400px;""></img>",3,html-button-response,119,547854,0.0-14.0-13.0,7370,List1B,black,woman,,TRUE,3,,,,,
null,CORRECT,,html-keyboard-response,120,549387,0.0-14.0-14.0-0.0,7370,List1B,black,woman,,,,null,,,,
2626,"<img src=""portrait/BW1.jpg""style=""width:400px;height:400px;""></img>",0,html-button-response,121,552016,0.0-14.0-16.0,7370,List1B,black,woman,,TRUE,0,,,,,
null,CORRECT,,html-keyboard-response,122,553540,0.0-14.0-17.0-0.0,7370,List1B,black,woman,,,,null,,,,
3054,"<img src=""portrait/WM2.jpg""style=""width:400px;height:400px;""></img>",7,html-button-response,123,556597,0.0-14.0-19.0,7370,List1B,black,woman,,TRUE,7,,,,,
null,CORRECT,,html-keyboard-response,124,558142,0.0-14.0-20.0-0.0,7370,List1B,black,woman,,,,null,,,,
2027,"<img src=""portrait/BM1.jpg""style=""width:400px;height:400px;""></img>",4,html-button-response,125,560173,0.0-14.0-22.0,7370,List1B,black,woman,,TRUE,4,,,,,
null,CORRECT,,html-keyboard-response,126,561692,0.0-14.0-23.0-0.0,7370,List1B,black,woman,,,,null,,,,
1488,<p>You got 8 out of 8 right first time. Press Continue.</p>,0,html-button-response,127,563185,0.0-14.0-25.0,7370,List1B,black,woman,,,,,,,,
null,"<div style=""font-size:60px;"">+</div>",,html-keyboard-response,128,564707,0.0-15.0-0.0,7370,List1B,black,woman,,,,null,,,,
null,"<img src=""stim_listB/meet1.gif""</stim_listB>",,html-keyboard-response,129,566724,0.0-15.0-1.0,7370,List1B,black,woman,,,,null,,,,
null,is meeting,,html-keyboard-response,130,568724,0.0-15.0-2.0,7370,List1B,black,woman,,,,null,,,,
6288,,,survey-text,131,575015,0.0-15.0-3.0,7370,List1B,black,woman,,,,,"{""Q0"":""Mike is meeting kate""}","<img src=""stim_listB/meet1.gif""</stim_listB>",is meeting,
null,"<div style=""font-size:60px;"">+</div>",,html-keyboard-response,132,575524,0.0-15.0-0.1,7370,List1B,black,woman,,,,null,,,,
null,"<img src=""stim_listB/dance6.gif""</stim_listB>",,html-keyboard-response,133,577534,0.0-15.0-1.1,7370,List1B,black,woman,,,,null,,,,
null,are dancing with each other,,html-keyboard-response,134,579553,0.0-15.0-2.1,7370,List1B,black,woman,,,,null,,,,
12682,,,survey-text,135,592238,0.0-15.0-3.1,7370,List1B,black,woman,,,,,"{""Q0"":""Luke and Mike are dancing with each other ""}","<img src=""stim_listB/dance6.gif""</stim_listB>",are dancing with each other,
null,"<div style=""font-size:60px;"">+</div>",,html-keyboard-response,136,592749,0.0-15.0-0.2,7370,List1B,black,woman,,,,null,,,,
null,"<img src=""stim_listB/kiss1.gif""</stim_listB>",,html-keyboard-response,137,594766,0.0-15.0-1.2,7370,List1B,black,woman,,,,null,,,,
null,is kissing,,html-keyboard-response,138,596767,0.0-15.0-2.2,7370,List1B,black,woman,,,,null,,,,
6577,,,survey-text,139,603344,0.0-15.0-3.2,7370,List1B,black,woman,,,,,"{""Q0"":""Fred is kissing beth ""}","<img src=""stim_listB/kiss1.gif""</stim_listB>",is kissing,
null,"<div style=""font-size:60px;"">+</div>",,html-keyboard-response,140,603862,0.0-15.0-0.3,7370,List1B,black,woman,,,,null,,,,
null,"<img src=""stim_listB/dance8.gif""</stim_listB>",,html-keyboard-response,141,605879,0.0-15.0-1.3,7370,List1B,black,woman,,,,null,,,,
null,are dancing with each other,,html-keyboard-response,142,607867,0.0-15.0-2.3,7370,List1B,black,woman,,,,null,,,,
8526,,,survey-text,143,616395,0.0-15.0-3.3,7370,List1B,black,woman,,,,,"{""Q0"":""kate and ruth are dancing with each other ""}","<img src=""stim_listB/dance8.gif""</stim_listB>",are dancing with each other,
null,"<div style=""font-size:60px;"">+</div>",,html-keyboard-response,144,616901,0.0-15.0-0.4,7370,List1B,black,woman,,,,null,,,,
null,"<img src=""stim_listB/dance4.gif""</stim_listB>",,html-keyboard-response,145,618907,0.0-15.0-1.4,7370,List1B,black,woman,,,,null,,,,
null,are dancing with each other,,html-keyboard-response,146,620913,0.0-15.0-2.4,7370,List1B,black,woman,,,,null,,,,
8742,,,survey-text,147,629660,0.0-15.0-3.4,7370,List1B,black,woman,,,,,"{""Q0"":""dave and ruth are dancing with each other ""}","<img src=""stim_listB/dance4.gif""</stim_listB>",are dancing with each other,
null,"<div style=""font-size:60px;"">+</div>",,html-keyboard-response,148,630183,0.0-15.0-0.5,7370,List1B,black,woman,,,,null,,,,
null,"<img src=""stim_listB/hug2.gif""</stim_listB>",,html-keyboard-response,149,632211,0.0-15.0-1.5,7370,List1B,black,woman,,,,null,,,,
null,are hugging each other,,html-keyboard-response,150,634197,0.0-15.0-2.5,7370,List1B,black,woman,,,,null,,,,
8651,,,survey-text,151,642850,0.0-15.0-3.5,7370,List1B,black,woman,,,,,"{""Q0"":""mike and kate are hugging each other ""}","<img src=""stim_listB/hug2.gif""</stim_listB>",are hugging each other,
null,"<div style=""font-size:60px;"">+</div>",,html-keyboard-response,152,643366,0.0-15.0-0.6,7370,List1B,black,woman,,,,null,,,,
null,"<img src=""stim_listB/touch5.gif""</stim_listB>",,html-keyboard-response,153,645368,0.0-15.0-1.6,7370,List1B,black,woman,,,,null,,,,
null,is touching,,html-keyboard-response,154,647368,0.0-15.0-2.6,7370,List1B,black,woman,,,,null,,,,
6059,,,survey-text,155,653430,0.0-15.0-3.6,7370,List1B,black,woman,,,,,"{""Q0"":""dave is touching mike ""}","<img src=""stim_listB/touch5.gif""</stim_listB>",is touching,
null,"<div style=""font-size:60px;"">+</div>",,html-keyboard-response,156,653950,0.0-15.0-0.7,7370,List1B,black,woman,,,,null,,,,
null,"<img src=""stim_listB/marry1.gif""</stim_listB>",,html-keyboard-response,157,655963,0.0-15.0-1.7,7370,List1B,black,woman,,,,null,,,,
null,is marrying,,html-keyboard-response,158,657961,0.0-15.0-2.7,7370,List1B,black,woman,,,,null,,,,
6815,,,survey-text,159,664779,0.0-15.0-3.7,7370,List1B,black,woman,,,,,"{""Q0"":""beth is marrying mike ""}","<img src=""stim_listB/marry1.gif""</stim_listB>",is marrying,
null,"<div style=""font-size:60px;"">+</div>",,html-keyboard-response,160,665294,0.0-15.0-0.8,7370,List1B,black,woman,,,,null,,,,
null,"<img src=""stim_listB/dance3.gif""</stim_listB>",,html-keyboard-response,161,667313,0.0-15.0-1.8,7370,List1B,black,woman,,,,null,,,,
null,is dancing with,,html-keyboard-response,162,669301,0.0-15.0-2.8,7370,List1B,black,woman,,,,null,,,,
7078,,,survey-text,163,676381,0.0-15.0-3.8,7370,List1B,black,woman,,,,,"{""Q0"":""jane is dancing with luke ""}","<img src=""stim_listB/dance3.gif""</stim_listB>",is dancing with,
null,"<div style=""font-size:60px;"">+</div>",,html-keyboard-response,164,676896,0.0-15.0-0.9,7370,List1B,black,woman,,,,null,,,,
null,"<img src=""stim_listB/meet6.gif""</stim_listB>",,html-keyboard-response,165,678917,0.0-15.0-1.9,7370,List1B,black,woman,,,,null,,,,
null,are meeting each other,,html-keyboard-response,166,680928,0.0-15.0-2.9,7370,List1B,black,woman,,,,null,,,,
9233,,,survey-text,167,690162,0.0-15.0-3.9,7370,List1B,black,woman,,,,,"{""Q0"":""fred and luke are meeting each other ""}","<img src=""stim_listB/meet6.gif""</stim_listB>",are meeting each other,
null,"<div style=""font-size:60px;"">+</div>",,html-keyboard-response,168,690685,0.0-15.0-0.10,7370,List1B,black,woman,,,,null,,,,
null,"<img src=""stim_listB/meet5.gif""</stim_listB>",,html-keyboard-response,169,692693,0.0-15.0-1.10,7370,List1B,black,woman,,,,null,,,,
null,is meeting,,html-keyboard-response,170,694694,0.0-15.0-2.10,7370,List1B,black,woman,,,,null,,,,
5365,,,survey-text,171,700061,0.0-15.0-3.10,7370,List1B,black,woman,,,,,"{""Q0"":""dave is meeting mike ""}","<img src=""stim_listB/meet5.gif""</stim_listB>",is meeting,
null,"<div style=""font-size:60px;"">+</div>",,html-keyboard-response,172,700579,0.0-15.0-0.11,7370,List1B,black,woman,,,,null,,,,
null,"<img src=""stim_listB/shout7.gif""</stim_listB>",,html-keyboard-response,173,702592,0.0-15.0-1.11,7370,List1B,black,woman,,,,null,,,,
null,is shouting at,,html-keyboard-response,174,704590,0.0-15.0-2.11,7370,List1B,black,woman,,,,null,,,,
8040,,,survey-text,175,712633,0.0-15.0-3.11,7370,List1B,black,woman,,,,,"{""Q0"":""jane is shouting at ruth ""}","<img src=""stim_listB/shout7.gif""</stim_listB>",is shouting at,
null,"<div style=""font-size:60px;"">+</div>",,html-keyboard-response,176,713147,0.0-15.0-0.12,7370,List1B,black,woman,,,,null,,,,
null,"<img src=""stim_listB/kiss8.gif""</stim_listB>",,html-keyboard-response,177,715152,0.0-15.0-1.12,7370,List1B,black,woman,,,,null,,,,
null,are kissing each other,,html-keyboard-response,178,717176,0.0-15.0-2.12,7370,List1B,black,woman,,,,null,,,,
9956,,,survey-text,179,727134,0.0-15.0-3.12,7370,List1B,black,woman,,,,,"{""Q0"":""jane and kate are kissing each other ""}","<img src=""stim_listB/kiss8.gif""</stim_listB>",are kissing each other,
null,"<div style=""font-size:60px;"">+</div>",,html-keyboard-response,180,727660,0.0-15.0-0.13,7370,List1B,black,woman,,,,null,,,,
null,"<img src=""stim_listB/touch8.gif""</stim_listB>",,html-keyboard-response,181,729666,0.0-15.0-1.13,7370,List1B,black,woman,,,,null,,,,
null,are touching each other,,html-keyboard-response,182,731665,0.0-15.0-2.13,7370,List1B,black,woman,,,,null,,,,
7989,,,survey-text,183,739656,0.0-15.0-3.13,7370,List1B,black,woman,,,,,"{""Q0"":""ruth and beth are touching each other ""}","<img src=""stim_listB/touch8.gif""</stim_listB>",are touching each other,
null,"<div style=""font-size:60px;"">+</div>",,html-keyboard-response,184,740164,0.0-15.0-0.14,7370,List1B,black,woman,,,,null,,,,
null,"<img src=""stim_listB/argue1.gif""</stim_listB>",,html-keyboard-response,185,742171,0.0-15.0-1.14,7370,List1B,black,woman,,,,null,,,,
null,is arguing with,,html-keyboard-response,186,744177,0.0-15.0-2.14,7370,List1B,black,woman,,,,null,,,,
6748,,,survey-text,187,750928,0.0-15.0-3.14,7370,List1B,black,woman,,,,,"{""Q0"":""beth is arguing with mike ""}","<img src=""stim_listB/argue1.gif""</stim_listB>",is arguing with,
null,"<div style=""font-size:60px;"">+</div>",,html-keyboard-response,188,751434,0.0-15.0-0.15,7370,List1B,black,woman,,,,null,,,,
null,"<img src=""stim_listB/talk4.gif""</stim_listB>",,html-keyboard-response,189,753445,0.0-15.0-1.15,7370,List1B,black,woman,,,,null,,,,
null,are talking to each other,,html-keyboard-response,190,755446,0.0-15.0-2.15,7370,List1B,black,woman,,,,null,,,,
8576,,,survey-text,191,764026,0.0-15.0-3.15,7370,List1B,black,woman,,,,,"{""Q0"":""dave and ruth are talking to each other ""}","<img src=""stim_listB/talk4.gif""</stim_listB>",are talking to each other,
null,"<div style=""font-size:60px;"">+</div>",,html-keyboard-response,192,764530,0.0-15.0-0.16,7370,List1B,black,woman,,,,null,,,,
null,"<img src=""stim_listB/shout4.gif""</stim_listB>",,html-keyboard-response,193,766535,0.0-15.0-1.16,7370,List1B,black,woman,,,,null,,,,
null,are shouting at each other,,html-keyboard-response,194,768549,0.0-15.0-2.16,7370,List1B,black,woman,,,,null,,,,
9419,,,survey-text,195,777970,0.0-15.0-3.16,7370,List1B,black,woman,,,,,"{""Q0"":""dave and jane are shouting at each other ""}","<img src=""stim_listB/shout4.gif""</stim_listB>",are shouting at each other,
null,"<div style=""font-size:60px;"">+</div>",,html-keyboard-response,196,778487,0.0-15.0-0.17,7370,List1B,black,woman,,,,null,,,,
null,"<img src=""stim_listB/fight7.gif""</stim_listB>",,html-keyboard-response,197,780501,0.0-15.0-1.17,7370,List1B,black,woman,,,,null,,,,
null,is fighting,,html-keyboard-response,198,782503,0.0-15.0-2.17,7370,List1B,black,woman,,,,null,,,,
5945,,,survey-text,199,788451,0.0-15.0-3.17,7370,List1B,black,woman,,,,,"{""Q0"":""jane is fighting kate ""}","<img src=""stim_listB/fight7.gif""</stim_listB>",is fighting,
null,"<div style=""font-size:60px;"">+</div>",,html-keyboard-response,200,788976,0.0-15.0-0.18,7370,List1B,black,woman,,,,null,,,,
null,"<img src=""stim_listB/talk6.gif""</stim_listB>",,html-keyboard-response,201,790988,0.0-15.0-1.18,7370,List1B,black,woman,,,,null,,,,
null,are talking to each other,,html-keyboard-response,202,792991,0.0-15.0-2.18,7370,List1B,black,woman,,,,null,,,,
8263,,,survey-text,203,801256,0.0-15.0-3.18,7370,List1B,black,woman,,,,,"{""Q0"":""mike and luke are talking to each other ""}","<img src=""stim_listB/talk6.gif""</stim_listB>",are talking to each other,
null,"<div style=""font-size:60px;"">+</div>",,html-keyboard-response,204,801772,0.0-15.0-0.19,7370,List1B,black,woman,,,,null,,,,
null,"<img src=""stim_listB/hug6.gif""</stim_listB>",,html-keyboard-response,205,803788,0.0-15.0-1.19,7370,List1B,black,woman,,,,null,,,,
null,are hugging each other,,html-keyboard-response,206,805788,0.0-15.0-2.19,7370,List1B,black,woman,,,,null,,,,
8592,,,survey-text,207,814381,0.0-15.0-3.19,7370,List1B,black,woman,,,,,"{""Q0"":""dave and mike are hugging each other ""}","<img src=""stim_listB/hug6.gif""</stim_listB>",are hugging each other,
6929,"<img src='img/portrait_matrix_list1.JPG' style='width:900px;height:500px;''></img><p>If you have memorised all the portraits and names and are ready to start, press Continue.</p><p><strong>Please note: Your memory of these faces will be tested 4 times during this experiment.</strong></p>",0,html-button-response,208,821313,0.0-16.0-0.0,7370,List1B,black,woman,,,,,,,,
3615,"<img src=""portrait/BM2.jpg""style=""width:400px;height:400px;""></img>",5,html-button-response,209,825938,0.0-16.0-1.0,7370,List1B,black,woman,,TRUE,5,,,,,
null,CORRECT,,html-keyboard-response,210,827459,0.0-16.0-2.0-0.0,7370,List1B,black,woman,,,,null,,,,
2480,"<img src=""portrait/WW1.jpg""style=""width:400px;height:400px;""></img>",1,html-button-response,211,829943,0.0-16.0-4.0,7370,List1B,black,woman,,TRUE,1,,,,,
null,CORRECT,,html-keyboard-response,212,831475,0.0-16.0-5.0-0.0,7370,List1B,black,woman,,,,null,,,,
1581,"<img src=""portrait/WW2.jpg""style=""width:400px;height:400px;""></img>",3,html-button-response,213,833059,0.0-16.0-7.0,7370,List1B,black,woman,,TRUE,3,,,,,
null,CORRECT,,html-keyboard-response,214,834588,0.0-16.0-8.0-0.0,7370,List1B,black,woman,,,,null,,,,
2217,"<img src=""portrait/BW1.jpg""style=""width:400px;height:400px;""></img>",0,html-button-response,215,836809,0.0-16.0-10.0,7370,List1B,black,woman,,TRUE,0,,,,,
null,CORRECT,,html-keyboard-response,216,838339,0.0-16.0-11.0-0.0,7370,List1B,black,woman,,,,null,,,,
2118,"<img src=""portrait/WM1.jpg""style=""width:400px;height:400px;""></img>",6,html-button-response,217,840461,0.0-16.0-13.0,7370,List1B,black,woman,,TRUE,6,,,,,
null,CORRECT,,html-keyboard-response,218,841991,0.0-16.0-14.0-0.0,7370,List1B,black,woman,,,,null,,,,
1925,"<img src=""portrait/BW2.jpg""style=""width:400px;height:400px;""></img>",2,html-button-response,219,843920,0.0-16.0-16.0,7370,List1B,black,woman,,TRUE,2,,,,,
null,CORRECT,,html-keyboard-response,220,845441,0.0-16.0-17.0-0.0,7370,List1B,black,woman,,,,null,,,,
1874,"<img src=""portrait/WM2.jpg""style=""width:400px;height:400px;""></img>",7,html-button-response,221,847318,0.0-16.0-19.0,7370,List1B,black,woman,,TRUE,7,,,,,
null,CORRECT,,html-keyboard-response,222,848849,0.0-16.0-20.0-0.0,7370,List1B,black,woman,,,,null,,,,
1748,"<img src=""portrait/BM1.jpg""style=""width:400px;height:400px;""></img>",4,html-button-response,223,850601,0.0-16.0-22.0,7370,List1B,black,woman,,TRUE,4,,,,,
null,CORRECT,,html-keyboard-response,224,852127,0.0-16.0-23.0-0.0,7370,List1B,black,woman,,,,null,,,,
2245,<p>You got 8 out of 8 right first time. Press Continue.</p>,0,html-button-response,225,854380,0.0-16.0-25.0,7370,List1B,black,woman,,,,,,,,
null,"<div style=""font-size:60px;"">+</div>",,html-keyboard-response,226,855909,0.0-17.0-0.0,7370,List1B,black,woman,,,,null,,,,
null,"<img src=""stim_listB/hug3.gif""</stim_listB>",,html-keyboard-response,227,857923,0.0-17.0-1.0,7370,List1B,black,woman,,,,null,,,,
null,is hugging,,html-keyboard-response,228,859940,0.0-17.0-2.0,7370,List1B,black,woman,,,,null,,,,
8058,,,survey-text,229,868002,0.0-17.0-3.0,7370,List1B,black,woman,,,,,"{""Q0"":""luke is hugging ruth ""}","<img src=""stim_listB/hug3.gif""</stim_listB>",is hugging,
null,"<div style=""font-size:60px;"">+</div>",,html-keyboard-response,230,868519,0.0-17.0-0.1,7370,List1B,black,woman,,,,null,,,,
null,"<img src=""stim_listB/kiss5.gif""</stim_listB>",,html-keyboard-response,231,870544,0.0-17.0-1.1,7370,List1B,black,woman,,,,null,,,,
null,is kissing,,html-keyboard-response,232,872527,0.0-17.0-2.1,7370,List1B,black,woman,,,,null,,,,
6264,,,survey-text,233,878794,0.0-17.0-3.1,7370,List1B,black,woman,,,,,"{""Q0"":""fred is kissing luke ""}","<img src=""stim_listB/kiss5.gif""</stim_listB>",is kissing,
null,"<div style=""font-size:60px;"">+</div>",,html-keyboard-response,234,879311,0.0-17.0-0.2,7370,List1B,black,woman,,,,null,,,,
null,"<img src=""stim_listB/argue6.gif""</stim_listB>",,html-keyboard-response,235,881317,0.0-17.0-1.2,7370,List1B,black,woman,,,,null,,,,
null,are arguing with each other,,html-keyboard-response,236,883338,0.0-17.0-2.2,7370,List1B,black,woman,,,,null,,,,
11588,,,survey-text,237,894928,0.0-17.0-3.2,7370,List1B,black,woman,,,,,"{""Q0"":""dave and fred are arguing with each other ""}","<img src=""stim_listB/argue6.gif""</stim_listB>",are arguing with each other,
null,"<div style=""font-size:60px;"">+</div>",,html-keyboard-response,238,895435,0.0-17.0-0.3,7370,List1B,black,woman,,,,null,,,,
null,"<img src=""stim_listB/hug5.gif""</stim_listB>",,html-keyboard-response,239,897451,0.0-17.0-1.3,7370,List1B,black,woman,,,,null,,,,
null,is hugging,,html-keyboard-response,240,899441,0.0-17.0-2.3,7370,List1B,black,woman,,,,null,,,,
6655,,,survey-text,241,906100,0.0-17.0-3.3,7370,List1B,black,woman,,,,,"{""Q0"":""luke is hugging fred ""}","<img src=""stim_listB/hug5.gif""</stim_listB>",is hugging,
null,"<div style=""font-size:60px;"">+</div>",,html-keyboard-response,242,906623,0.0-17.0-0.4,7370,List1B,black,woman,,,,null,,,,
null,"<img src=""stim_listB/kiss7.gif""</stim_listB>",,html-keyboard-response,243,908649,0.0-17.0-1.4,7370,List1B,black,woman,,,,null,,,,
null,is kissing,,html-keyboard-response,244,910632,0.0-17.0-2.4,7370,List1B,black,woman,,,,null,,,,
5040,,,survey-text,245,915674,0.0-17.0-3.4,7370,List1B,black,woman,,,,,"{""Q0"":""ruth is kissing beth ""}","<img src=""stim_listB/kiss7.gif""</stim_listB>",is kissing,
null,"<div style=""font-size:60px;"">+</div>",,html-keyboard-response,246,916185,0.0-17.0-0.5,7370,List1B,black,woman,,,,null,,,,
null,"<img src=""stim_listB/touch4.gif""</stim_listB>",,html-keyboard-response,247,918189,0.0-17.0-1.5,7370,List1B,black,woman,,,,null,,,,
null,are touching each other,,html-keyboard-response,248,920190,0.0-17.0-2.5,7370,List1B,black,woman,,,,null,,,,
7806,,,survey-text,249,928000,0.0-17.0-3.5,7370,List1B,black,woman,,,,,"{""Q0"":""luke and ruth are touching each other ""}","<img src=""stim_listB/touch4.gif""</stim_listB>",are touching each other,
null,"<div style=""font-size:60px;"">+</div>",,html-keyboard-response,250,928505,0.0-17.0-0.6,7370,List1B,black,woman,,,,null,,,,
null,"<img src=""stim_listB/fight1.gif""</stim_listB>",,html-keyboard-response,251,930514,0.0-17.0-1.6,7370,List1B,black,woman,,,,null,,,,
null,is fighting,,html-keyboard-response,252,932518,0.0-17.0-2.6,7370,List1B,black,woman,,,,null,,,,
5070,,,survey-text,253,937593,0.0-17.0-3.6,7370,List1B,black,woman,,,,,"{""Q0"":""kate is fighting mike ""}","<img src=""stim_listB/fight1.gif""</stim_listB>",is fighting,
null,"<div style=""font-size:60px;"">+</div>",,html-keyboard-response,254,938109,0.0-17.0-0.7,7370,List1B,black,woman,,,,null,,,,
null,"<img src=""stim_listB/hug4.gif""</stim_listB>",,html-keyboard-response,255,940128,0.0-17.0-1.7,7370,List1B,black,woman,,,,null,,,,
null,are hugging each other,,html-keyboard-response,256,942111,0.0-17.0-2.7,7370,List1B,black,woman,,,,null,,,,
9245,,,survey-text,257,951358,0.0-17.0-3.7,7370,List1B,black,woman,,,,,"{""Q0"":""jane and dave are hugging each other ""}","<img src=""stim_listB/hug4.gif""</stim_listB>",are hugging each other,
null,"<div style=""font-size:60px;"">+</div>",,html-keyboard-response,258,951869,0.0-17.0-0.8,7370,List1B,black,woman,,,,null,,,,
null,"<img src=""stim_listB/marry4.gif""</stim_listB>",,html-keyboard-response,259,953914,0.0-17.0-1.8,7370,List1B,black,woman,,,,null,,,,
null,are marrying each other,,html-keyboard-response,260,955896,0.0-17.0-2.8,7370,List1B,black,woman,,,,null,,,,
8563,,,survey-text,261,964462,0.0-17.0-3.8,7370,List1B,black,woman,,,,,"{""Q0"":""jane and luke are marrying each other ""}","<img src=""stim_listB/marry4.gif""</stim_listB>",are marrying each other,
null,"<div style=""font-size:60px;"">+</div>",,html-keyboard-response,262,964990,0.0-17.0-0.9,7370,List1B,black,woman,,,,null,,,,
null,"<img src=""stim_listB/kiss4.gif""</stim_listB>",,html-keyboard-response,263,966998,0.0-17.0-1.9,7370,List1B,black,woman,,,,null,,,,
null,are kissing each other,,html-keyboard-response,264,969000,0.0-17.0-2.9,7370,List1B,black,woman,,,,null,,,,
6951,,,survey-text,265,975954,0.0-17.0-3.9,7370,List1B,black,woman,,,,,"{""Q0"":""jane and dave are kissing each other ""}","<img src=""stim_listB/kiss4.gif""</stim_listB>",are kissing each other,
null,"<div style=""font-size:60px;"">+</div>",,html-keyboard-response,266,976477,0.0-17.0-0.10,7370,List1B,black,woman,,,,null,,,,
null,"<img src=""stim_listB/fight8.gif""</stim_listB>",,html-keyboard-response,267,978496,0.0-17.0-1.10,7370,List1B,black,woman,,,,null,,,,
null,are fighting each other,,html-keyboard-response,268,980485,0.0-17.0-2.10,7370,List1B,black,woman,,,,null,,,,
10928,,,survey-text,269,991415,0.0-17.0-3.10,7370,List1B,black,woman,,,,,"{""Q0"":""beth and ruth are fighting each other ""}","<img src=""stim_listB/fight8.gif""</stim_listB>",are fighting each other,
null,"<div style=""font-size:60px;"">+</div>",,html-keyboard-response,270,991936,0.0-17.0-0.11,7370,List1B,black,woman,,,,null,,,,
null,"<img src=""stim_listB/fight2.gif""</stim_listB>",,html-keyboard-response,271,993939,0.0-17.0-1.11,7370,List1B,black,woman,,,,null,,,,
null,are fighting each other,,html-keyboard-response,272,995956,0.0-17.0-2.11,7370,List1B,black,woman,,,,null,,,,
8462,,,survey-text,273,1004420,0.0-17.0-3.11,7370,List1B,black,woman,,,,,"{""Q0"":""fred and beth are fighting each other ""}","<img src=""stim_listB/fight2.gif""</stim_listB>",are fighting each other,
null,"<div style=""font-size:60px;"">+</div>",,html-keyboard-response,274,1004956,0.0-17.0-0.12,7370,List1B,black,woman,,,,null,,,,
null,"<img src=""stim_listB/meet7.gif""</stim_listB>",,html-keyboard-response,275,1006967,0.0-17.0-1.12,7370,List1B,black,woman,,,,null,,,,
null,is meeting,,html-keyboard-response,276,1008983,0.0-17.0-2.12,7370,List1B,black,woman,,,,null,,,,
5446,,,survey-text,277,1014431,0.0-17.0-3.12,7370,List1B,black,woman,,,,,"{""Q0"":""jane is meeting kate ""}","<img src=""stim_listB/meet7.gif""</stim_listB>",is meeting,
null,"<div style=""font-size:60px;"">+</div>",,html-keyboard-response,278,1014949,0.0-17.0-0.13,7370,List1B,black,woman,,,,null,,,,
null,"<img src=""stim_listB/talk2.gif""</stim_listB>",,html-keyboard-response,279,1016968,0.0-17.0-1.13,7370,List1B,black,woman,,,,null,,,,
null,are talking to each other,,html-keyboard-response,280,1018959,0.0-17.0-2.13,7370,List1B,black,woman,,,,null,,,,
7901,,,survey-text,281,1026863,0.0-17.0-3.13,7370,List1B,black,woman,,,,,"{""Q0"":""mike and beth are talking to each other ""}","<img src=""stim_listB/talk2.gif""</stim_listB>",are talking to each other,
null,"<div style=""font-size:60px;"">+</div>",,html-keyboard-response,282,1027379,0.0-17.0-0.14,7370,List1B,black,woman,,,,null,,,,
null,"<img src=""stim_listB/talk3.gif""</stim_listB>",,html-keyboard-response,283,1029399,0.0-17.0-1.14,7370,List1B,black,woman,,,,null,,,,
null,is talking to,,html-keyboard-response,284,1031390,0.0-17.0-2.14,7370,List1B,black,woman,,,,null,,,,
5647,,,survey-text,285,1037039,0.0-17.0-3.14,7370,List1B,black,woman,,,,,"{""Q0"":""jane is talking to luke ""}","<img src=""stim_listB/talk3.gif""</stim_listB>",is talking to,
null,"<div style=""font-size:60px;"">+</div>",,html-keyboard-response,286,1037540,0.0-17.0-0.15,7370,List1B,black,woman,,,,null,,,,
null,"<img src=""stim_listB/argue2.gif""</stim_listB>",,html-keyboard-response,287,1039564,0.0-17.0-1.15,7370,List1B,black,woman,,,,null,,,,
null,are arguing with each other,,html-keyboard-response,288,1041549,0.0-17.0-2.15,7370,List1B,black,woman,,,,null,,,,
10694,,,survey-text,289,1052246,0.0-17.0-3.15,7370,List1B,black,woman,,,,,"{""Q0"":""fred and kate are arguing with each other ""}","<img src=""stim_listB/argue2.gif""</stim_listB>",are arguing with each other,
null,"<div style=""font-size:60px;"">+</div>",,html-keyboard-response,290,1052757,0.0-17.0-0.16,7370,List1B,black,woman,,,,null,,,,
null,"<img src=""stim_listB/kiss2.gif""</stim_listB>",,html-keyboard-response,291,1054761,0.0-17.0-1.16,7370,List1B,black,woman,,,,null,,,,
null,are kissing each other,,html-keyboard-response,292,1056768,0.0-17.0-2.16,7370,List1B,black,woman,,,,null,,,,
7770,,,survey-text,293,1064541,0.0-17.0-3.16,7370,List1B,black,woman,,,,,"{""Q0"":""kate and mike are kissing each other ""}","<img src=""stim_listB/kiss2.gif""</stim_listB>",are kissing each other,
null,"<div style=""font-size:60px;"">+</div>",,html-keyboard-response,294,1065069,0.0-17.0-0.17,7370,List1B,black,woman,,,,null,,,,
null,"<img src=""stim_listB/marry5.gif""</stim_listB>",,html-keyboard-response,295,1067073,0.0-17.0-1.17,7370,List1B,black,woman,,,,null,,,,
null,is marrying,,html-keyboard-response,296,1069085,0.0-17.0-2.17,7370,List1B,black,woman,,,,null,,,,
5844,,,survey-text,297,1074932,0.0-17.0-3.17,7370,List1B,black,woman,,,,,"{""Q0"":""luke is marrying mike ""}","<img src=""stim_listB/marry5.gif""</stim_listB>",is marrying,
null,"<div style=""font-size:60px;"">+</div>",,html-keyboard-response,298,1075441,0.0-17.0-0.18,7370,List1B,black,woman,,,,null,,,,
null,"<img src=""stim_listB/touch1.gif""</stim_listB>",,html-keyboard-response,299,1077457,0.0-17.0-1.18,7370,List1B,black,woman,,,,null,,,,
null,is touching,,html-keyboard-response,300,1079445,0.0-17.0-2.18,7370,List1B,black,woman,,,,null,,,,
6790,,,survey-text,301,1086238,0.0-17.0-3.18,7370,List1B,black,woman,,,,,"{""Q0"":""kate is touching mike ""}","<img src=""stim_listB/touch1.gif""</stim_listB>",is touching,
null,"<div style=""font-size:60px;"">+</div>",,html-keyboard-response,302,1086750,0.0-17.0-0.19,7370,List1B,black,woman,,,,null,,,,
null,"<img src=""stim_listB/shout2.gif""</stim_listB>",,html-keyboard-response,303,1088769,0.0-17.0-1.19,7370,List1B,black,woman,,,,null,,,,
null,are shouting at each other,,html-keyboard-response,304,1090753,0.0-17.0-2.19,7370,List1B,black,woman,,,,null,,,,
10501,,,survey-text,305,1101259,0.0-17.0-3.19,7370,List1B,black,woman,,,,,"{""Q0"":""kate and mike are shouting at each other ""}","<img src=""stim_listB/shout2.gif""</stim_listB>",are shouting at each other,
1964,"<img src='img/portrait_matrix_list1.JPG' style='width:900px;height:500px;''></img><p>If you have memorised all the portraits and names and are ready to start, press Continue.</p><p><strong>Please note: Your memory of these faces will be tested 4 times during this experiment.</strong></p>",0,html-button-response,306,1103225,0.0-18.0-0.0,7370,List1B,black,woman,,,,,,,,
1772,"<img src=""portrait/WW2.jpg""style=""width:400px;height:400px;""></img>",3,html-button-response,307,1106011,0.0-18.0-1.0,7370,List1B,black,woman,,TRUE,3,,,,,
null,CORRECT,,html-keyboard-response,308,1107543,0.0-18.0-2.0-0.0,7370,List1B,black,woman,,,,null,,,,
1667,"<img src=""portrait/BW1.jpg""style=""width:400px;height:400px;""></img>",0,html-button-response,309,1109214,0.0-18.0-4.0,7370,List1B,black,woman,,TRUE,0,,,,,
null,CORRECT,,html-keyboard-response,310,1110736,0.0-18.0-5.0-0.0,7370,List1B,black,woman,,,,null,,,,
2136,"<img src=""portrait/WM1.jpg""style=""width:400px;height:400px;""></img>",6,html-button-response,311,1112876,0.0-18.0-7.0,7370,List1B,black,woman,,TRUE,6,,,,,
null,CORRECT,,html-keyboard-response,312,1114404,0.0-18.0-8.0-0.0,7370,List1B,black,woman,,,,null,,,,
2345,"<img src=""portrait/BW2.jpg""style=""width:400px;height:400px;""></img>",2,html-button-response,313,1116752,0.0-18.0-10.0,7370,List1B,black,woman,,TRUE,2,,,,,
null,CORRECT,,html-keyboard-response,314,1118289,0.0-18.0-11.0-0.0,7370,List1B,black,woman,,,,null,,,,
2489,"<img src=""portrait/BM2.jpg""style=""width:400px;height:400px;""></img>",5,html-button-response,315,1120783,0.0-18.0-13.0,7370,List1B,black,woman,,TRUE,5,,,,,
null,CORRECT,,html-keyboard-response,316,1122333,0.0-18.0-14.0-0.0,7370,List1B,black,woman,,,,null,,,,
2078,"<img src=""portrait/WM2.jpg""style=""width:400px;height:400px;""></img>",7,html-button-response,317,1124416,0.0-18.0-16.0,7370,List1B,black,woman,,TRUE,7,,,,,
null,CORRECT,,html-keyboard-response,318,1125939,0.0-18.0-17.0-0.0,7370,List1B,black,woman,,,,null,,,,
1977,"<img src=""portrait/WW1.jpg""style=""width:400px;height:400px;""></img>",1,html-button-response,319,1127920,0.0-18.0-19.0,7370,List1B,black,woman,,TRUE,1,,,,,
null,CORRECT,,html-keyboard-response,320,1129451,0.0-18.0-20.0-0.0,7370,List1B,black,woman,,,,null,,,,
1766,"<img src=""portrait/BM1.jpg""style=""width:400px;height:400px;""></img>",4,html-button-response,321,1131222,0.0-18.0-22.0,7370,List1B,black,woman,,TRUE,4,,,,,
null,CORRECT,,html-keyboard-response,322,1132756,0.0-18.0-23.0-0.0,7370,List1B,black,woman,,,,null,,,,
2510,<p>You got 8 out of 8 right first time. Press Continue.</p>,0,html-button-response,323,1135273,0.0-18.0-25.0,7370,List1B,black,woman,,,,,,,,
null,"<div style=""font-size:60px;"">+</div>",,html-keyboard-response,324,1136794,0.0-19.0-0.0,7370,List1B,black,woman,,,,null,,,,
null,"<img src=""stim_listB/marry2.gif""</stim_listB>",,html-keyboard-response,325,1138819,0.0-19.0-1.0,7370,List1B,black,woman,,,,null,,,,
null,are marrying each other,,html-keyboard-response,326,1140810,0.0-19.0-2.0,7370,List1B,black,woman,,,,null,,,,
8468,,,survey-text,327,1149280,0.0-19.0-3.0,7370,List1B,black,woman,,,,,"{""Q0"":""kate and fred are marrying each other ""}","<img src=""stim_listB/marry2.gif""</stim_listB>",are marrying each other,
null,"<div style=""font-size:60px;"">+</div>",,html-keyboard-response,328,1149790,0.0-19.0-0.1,7370,List1B,black,woman,,,,null,,,,
null,"<img src=""stim_listB/meet8.gif""</stim_listB>",,html-keyboard-response,329,1151819,0.0-19.0-1.1,7370,List1B,black,woman,,,,null,,,,
null,are meeting each other,,html-keyboard-response,330,1153790,0.0-19.0-2.1,7370,List1B,black,woman,,,,null,,,,
8971,,,survey-text,331,1162762,0.0-19.0-3.1,7370,List1B,black,woman,,,,,"{""Q0"":""beth and ruth are meeting each other ""}","<img src=""stim_listB/meet8.gif""</stim_listB>",are meeting each other,
null,"<div style=""font-size:60px;"">+</div>",,html-keyboard-response,332,1163267,0.0-19.0-0.2,7370,List1B,black,woman,,,,null,,,,
null,"<img src=""stim_listB/shout6.gif""</stim_listB>",,html-keyboard-response,333,1165282,0.0-19.0-1.2,7370,List1B,black,woman,,,,null,,,,
null,are shouting at each other,,html-keyboard-response,334,1167283,0.0-19.0-2.2,7370,List1B,black,woman,,,,null,,,,
9366,,,survey-text,335,1176653,0.0-19.0-3.2,7370,List1B,black,woman,,,,,"{""Q0"":""dave and mike are shouting at each other ""}","<img src=""stim_listB/shout6.gif""</stim_listB>",are shouting at each other,
null,"<div style=""font-size:60px;"">+</div>",,html-keyboard-response,336,1177174,0.0-19.0-0.3,7370,List1B,black,woman,,,,null,,,,
null,"<img src=""stim_listB/talk1.gif""</stim_listB>",,html-keyboard-response,337,1179190,0.0-19.0-1.3,7370,List1B,black,woman,,,,null,,,,
null,is talking to,,html-keyboard-response,338,1181174,0.0-19.0-2.3,7370,List1B,black,woman,,,,null,,,,
6158,,,survey-text,339,1187335,0.0-19.0-3.3,7370,List1B,black,woman,,,,,"{""Q0"":""kate is talking to fred ""}","<img src=""stim_listB/talk1.gif""</stim_listB>",is talking to,
null,"<div style=""font-size:60px;"">+</div>",,html-keyboard-response,340,1187858,0.0-19.0-0.4,7370,List1B,black,woman,,,,null,,,,
null,"<img src=""stim_listB/kiss6.gif""</stim_listB>",,html-keyboard-response,341,1189873,0.0-19.0-1.4,7370,List1B,black,woman,,,,null,,,,
null,are kissing each other,,html-keyboard-response,342,1191868,0.0-19.0-2.4,7370,List1B,black,woman,,,,null,,,,
8828,,,survey-text,343,1200699,0.0-19.0-3.4,7370,List1B,black,woman,,,,,"{""Q0"":""dave and mike are kissing each other ""}","<img src=""stim_listB/kiss6.gif""</stim_listB>",are kissing each other,
null,"<div style=""font-size:60px;"">+</div>",,html-keyboard-response,344,1201214,0.0-19.0-0.5,7370,List1B,black,woman,,,,null,,,,
null,"<img src=""stim_listB/shout5.gif""</stim_listB>",,html-keyboard-response,345,1203242,0.0-19.0-1.5,7370,List1B,black,woman,,,,null,,,,
null,is shouting at,,html-keyboard-response,346,1205228,0.0-19.0-2.5,7370,List1B,black,woman,,,,null,,,,
8815,,,survey-text,347,1214045,0.0-19.0-3.5,7370,List1B,black,woman,,,,,"{""Q0"":""luke is shouting at fred ""}","<img src=""stim_listB/shout5.gif""</stim_listB>",is shouting at,
null,"<div style=""font-size:60px;"">+</div>",,html-keyboard-response,348,1214562,0.0-19.0-0.6,7370,List1B,black,woman,,,,null,,,,
null,"<img src=""stim_listB/argue4.gif""</stim_listB>",,html-keyboard-response,349,1216593,0.0-19.0-1.6,7370,List1B,black,woman,,,,null,,,,
null,are arguing with each other,,html-keyboard-response,350,1218581,0.0-19.0-2.6,7370,List1B,black,woman,,,,null,,,,
10092,,,survey-text,351,1228676,0.0-19.0-3.6,7370,List1B,black,woman,,,,,"{""Q0"":""luke and jane are arguing with each other ""}","<img src=""stim_listB/argue4.gif""</stim_listB>",are arguing with each other,
null,"<div style=""font-size:60px;"">+</div>",,html-keyboard-response,352,1229183,0.0-19.0-0.7,7370,List1B,black,woman,,,,null,,,,
null,"<img src=""stim_listB/talk8.gif""</stim_listB>",,html-keyboard-response,353,1231203,0.0-19.0-1.7,7370,List1B,black,woman,,,,null,,,,
null,are talking to each other,,html-keyboard-response,354,1233204,0.0-19.0-2.7,7370,List1B,black,woman,,,,null,,,,
8958,,,survey-text,355,1242167,0.0-19.0-3.7,7370,List1B,black,woman,,,,,"{""Q0"":""kate and ruth are talking to each other ""}","<img src=""stim_listB/talk8.gif""</stim_listB>",are talking to each other,
null,"<div style=""font-size:60px;"">+</div>",,html-keyboard-response,356,1242675,0.0-19.0-0.8,7370,List1B,black,woman,,,,null,,,,
null,"<img src=""stim_listB/dance1.gif""</stim_listB>",,html-keyboard-response,357,1244697,0.0-19.0-1.8,7370,List1B,black,woman,,,,null,,,,
null,is dancing with,,html-keyboard-response,358,1246696,0.0-19.0-2.8,7370,List1B,black,woman,,,,null,,,,
6647,,,survey-text,359,1253345,0.0-19.0-3.8,7370,List1B,black,woman,,,,,"{""Q0"":""kate is dancing with fred ""}","<img src=""stim_listB/dance1.gif""</stim_listB>",is dancing with,
null,"<div style=""font-size:60px;"">+</div>",,html-keyboard-response,360,1253861,0.0-19.0-0.9,7370,List1B,black,woman,,,,null,,,,
null,"<img src=""stim_listB/touch7.gif""</stim_listB>",,html-keyboard-response,361,1255878,0.0-19.0-1.9,7370,List1B,black,woman,,,,null,,,,
null,is touching,,html-keyboard-response,362,1257894,0.0-19.0-2.9,7370,List1B,black,woman,,,,null,,,,
7299,,,survey-text,363,1265196,0.0-19.0-3.9,7370,List1B,black,woman,,,,,"{""Q0"":""jane is touching kate ""}","<img src=""stim_listB/touch7.gif""</stim_listB>",is touching,
null,"<div style=""font-size:60px;"">+</div>",,html-keyboard-response,364,1265712,0.0-19.0-0.10,7370,List1B,black,woman,,,,null,,,,
null,"<img src=""stim_listB/marry8.gif""</stim_listB>",,html-keyboard-response,365,1267719,0.0-19.0-1.10,7370,List1B,black,woman,,,,null,,,,
null,are marrying each other,,html-keyboard-response,366,1269720,0.0-19.0-2.10,7370,List1B,black,woman,,,,null,,,,
8692,,,survey-text,367,1278414,0.0-19.0-3.10,7370,List1B,black,woman,,,,,"{""Q0"":""jane and beth are marrying each other ""}","<img src=""stim_listB/marry8.gif""</stim_listB>",are marrying each other,
null,"<div style=""font-size:60px;"">+</div>",,html-keyboard-response,368,1278919,0.0-19.0-0.11,7370,List1B,black,woman,,,,null,,,,
null,"<img src=""stim_listB/fight4.gif""</stim_listB>",,html-keyboard-response,369,1280935,0.0-19.0-1.11,7370,List1B,black,woman,,,,null,,,,
null,are fighting each other,,html-keyboard-response,370,1282941,0.0-19.0-2.11,7370,List1B,black,woman,,,,null,,,,
9458,,,survey-text,371,1292403,0.0-19.0-3.11,7370,List1B,black,woman,,,,,"{""Q0"":""luke and ruth are fighting each other ""}","<img src=""stim_listB/fight4.gif""</stim_listB>",are fighting each other,
null,"<div style=""font-size:60px;"">+</div>",,html-keyboard-response,372,1292918,0.0-19.0-0.12,7370,List1B,black,woman,,,,null,,,,
null,"<img src=""stim_listB/fight5.gif""</stim_listB>",,html-keyboard-response,373,1294934,0.0-19.0-1.12,7370,List1B,black,woman,,,,null,,,,
null,is fighting,,html-keyboard-response,374,1296925,0.0-19.0-2.12,7370,List1B,black,woman,,,,null,,,,
7188,,,survey-text,375,1304116,0.0-19.0-3.12,7370,List1B,black,woman,,,,,"{""Q0"":""dave is fighting mike ""}","<img src=""stim_listB/fight5.gif""</stim_listB>",is fighting,
null,"<div style=""font-size:60px;"">+</div>",,html-keyboard-response,376,1304637,0.0-19.0-0.13,7370,List1B,black,woman,,,,null,,,,
null,"<img src=""stim_listB/hug1.gif""</stim_listB>",,html-keyboard-response,377,1306667,0.0-19.0-1.13,7370,List1B,black,woman,,,,null,,,,
null,is hugging,,html-keyboard-response,378,1308653,0.0-19.0-2.13,7370,List1B,black,woman,,,,null,,,,
6950,,,survey-text,379,1315607,0.0-19.0-3.13,7370,List1B,black,woman,,,,,"{""Q0"":""fred is hugging beth ""}","<img src=""stim_listB/hug1.gif""</stim_listB>",is hugging,
null,"<div style=""font-size:60px;"">+</div>",,html-keyboard-response,380,1316131,0.0-19.0-0.14,7370,List1B,black,woman,,,,null,,,,
null,"<img src=""stim_listB/argue3.gif""</stim_listB>",,html-keyboard-response,381,1318156,0.0-19.0-1.14,7370,List1B,black,woman,,,,null,,,,
null,is arguing with,,html-keyboard-response,382,1320136,0.0-19.0-2.14,7370,List1B,black,woman,,,,null,,,,
9162,,,survey-text,383,1329302,0.0-19.0-3.14,7370,List1B,black,woman,,,,,"{""Q0"":""ruth is arguing with dave ""}","<img src=""stim_listB/argue3.gif""</stim_listB>",is arguing with,
null,"<div style=""font-size:60px;"">+</div>",,html-keyboard-response,384,1329812,0.0-19.0-0.15,7370,List1B,black,woman,,,,null,,,,
null,"<img src=""stim_listB/argue7.gif""</stim_listB>",,html-keyboard-response,385,1331844,0.0-19.0-1.15,7370,List1B,black,woman,,,,null,,,,
null,is arguing with,,html-keyboard-response,386,1333831,0.0-19.0-2.15,7370,List1B,black,woman,,,,null,,,,
8453,,,survey-text,387,1342287,0.0-19.0-3.15,7370,List1B,black,woman,,,,,"{""Q0"":""ruth is arguing with kate ""}","<img src=""stim_listB/argue7.gif""</stim_listB>",is arguing with,
null,"<div style=""font-size:60px;"">+</div>",,html-keyboard-response,388,1342793,0.0-19.0-0.16,7370,List1B,black,woman,,,,null,,,,
null,"<img src=""stim_listB/talk7.gif""</stim_listB>",,html-keyboard-response,389,1344799,0.0-19.0-1.16,7370,List1B,black,woman,,,,null,,,,
null,is talking to,,html-keyboard-response,390,1346803,0.0-19.0-2.16,7370,List1B,black,woman,,,,null,,,,
10142,,,survey-text,391,1356948,0.0-19.0-3.16,7370,List1B,black,woman,,,,,"{""Q0"":""jane is talking to beth ""}","<img src=""stim_listB/talk7.gif""</stim_listB>",is talking to,
null,"<div style=""font-size:60px;"">+</div>",,html-keyboard-response,392,1357453,0.0-19.0-0.17,7370,List1B,black,woman,,,,null,,,,
null,"<img src=""stim_listB/touch3.gif""</stim_listB>",,html-keyboard-response,393,1359470,0.0-19.0-1.17,7370,List1B,black,woman,,,,null,,,,
null,is touching,,html-keyboard-response,394,1361470,0.0-19.0-2.17,7370,List1B,black,woman,,,,null,,,,
6526,,,survey-text,395,1368001,0.0-19.0-3.17,7370,List1B,black,woman,,,,,"{""Q0"":""jane is touching dave ""}","<img src=""stim_listB/touch3.gif""</stim_listB>",is touching,
null,"<div style=""font-size:60px;"">+</div>",,html-keyboard-response,396,1368522,0.0-19.0-0.18,7370,List1B,black,woman,,,,null,,,,
null,"<img src=""stim_listB/argue5.gif""</stim_listB>",,html-keyboard-response,397,1370528,0.0-19.0-1.18,7370,List1B,black,woman,,,,null,,,,
null,is arguing with,,html-keyboard-response,398,1372530,0.0-19.0-2.18,7370,List1B,black,woman,,,,null,,,,
6571,,,survey-text,399,1379102,0.0-19.0-3.18,7370,List1B,black,woman,,,,,"{""Q0"":""luke is arguing with mike ""}","<img src=""stim_listB/argue5.gif""</stim_listB>",is arguing with,
null,"<div style=""font-size:60px;"">+</div>",,html-keyboard-response,400,1379617,0.0-19.0-0.19,7370,List1B,black,woman,,,,null,,,,
null,"<img src=""stim_listB/meet2.gif""</stim_listB>",,html-keyboard-response,401,1381632,0.0-19.0-1.19,7370,List1B,black,woman,,,,null,,,,
null,are meeting each other,,html-keyboard-response,402,1383629,0.0-19.0-2.19,7370,List1B,black,woman,,,,null,,,,
8172,,,survey-text,403,1391805,0.0-19.0-3.19,7370,List1B,black,woman,,,,,"{""Q0"":""fred and beth are meeting each other ""}","<img src=""stim_listB/meet2.gif""</stim_listB>",are meeting each other,
3658,<p>Thank you for completing that task.</p><p>The final part of this session is a short questionnaire.</p><p>Press Continue.</p>,0,html-button-response,404,1395467,0.0-20.0,7370,List1B,black,woman,,,,,,,,
28444,,,survey-text,405,1424920,0.0-21.0,7370,List1B,black,woman,,,,,"{""Q0"":""21"",""Q1"":""English"",""Q2"":""English"",""Q3"":""England "",""Q4"":""Black British - African"",""Q5"":""Female ""}",,,demographics
48357,,,survey-likert,406,1473284,0.0-22.0,7370,List1B,black,woman,,,,,"{""Q0"":5,""Q1"":5,""Q2"":6,""Q3"":6,""Q4"":6,""Q5"":2,""Q6"":5,""Q7"":4,""Q8"":5,""Q9"":5,""Q10"":3,""Q11"":3,""Q12"":3,""Q13"":2}",,,likert_race
78419,,,survey-likert,407,1551709,0.0-23.0,7370,List1B,black,woman,,,,,"{""Q0"":3,""Q1"":2,""Q2"":4,""Q3"":6,""Q4"":5,""Q5"":4,""Q6"":3,""Q7"":1,""Q8"":3,""Q9"":4,""Q10"":2,""Q11"":4,""Q12"":2,""Q13"":3}",,,likert_gender
6841,,,survey-text,408,1558553,0.0-24.0,7370,List1B,black,woman,,,,,"{""Q0"":""ccc""}",,,worker_id
51674,,,external-html,409,1610286,0.0-25.0,7370,List1B,black,woman,debrief.html,,,,,,,
