rt,stimulus,button_pressed,trial_type,trial_index,time_elapsed,internal_node_id,subject,list,ppt_race,ppt_gender,url,first_guess,correct,key_press,responses,image_type,phrase_type,test_part
2052,Welcome to the experiment. Press Continue to begin.,0,html-button-response,0,2067,0.0-0.0,74394,List1A,black,man,,,,,,,,
11178,,,external-html,1,14273,0.0-1.0,74394,List1A,black,man,consent.html,,,,,,,
3769,"<p>On the next page, you will see portraits of 8 people and their names.</p><p>Your first task is to take a few minutes to memorise the names of these people.</p><p>You will have to recall their names during the rest of the experiment, so it is</p><p>essential that you try to memorise these people and their names as best as you can.</p><br><p><strong>You will then be tested on your memory of these names and portraits.</strong></p><br><p>The experiment will start after you have completed this memory test.</p><br><p>Ready?</p>",0,html-button-response,2,18042,0.0-2.0,74394,List1A,black,man,,,,,,,,
16247,"<img src='img/portrait_matrix_list1.JPG' style='width:900px;height:500px;''></img><p>If you have memorised all the portraits and names and are ready to start, press Continue.</p><p><strong>Please note: Your memory of these faces will be tested 4 times during this experiment.</strong></p>",0,html-button-response,3,35290,0.0-3.0-0.0,74394,List1A,black,man,,,,,,,,
11251,"<img src=""portrait/WM1.jpg""style=""width:400px;height:400px;""></img>",6,html-button-response,4,47542,0.0-3.0-1.0,74394,List1A,black,man,,TRUE,6,,,,,
null,CORRECT,,html-keyboard-response,5,49047,0.0-3.0-2.0-0.0,74394,List1A,black,man,,,,null,,,,
2813,"<img src=""portrait/BW2.jpg""style=""width:400px;height:400px;""></img>",2,html-button-response,6,51860,0.0-3.0-4.0,74394,List1A,black,man,,TRUE,2,,,,,
null,CORRECT,,html-keyboard-response,7,53363,0.0-3.0-5.0-0.0,74394,List1A,black,man,,,,null,,,,
3596,"<img src=""portrait/WW1.jpg""style=""width:400px;height:400px;""></img>",1,html-button-response,8,56960,0.0-3.0-7.0,74394,List1A,black,man,,TRUE,1,,,,,
null,CORRECT,,html-keyboard-response,9,58464,0.0-3.0-8.0-0.0,74394,List1A,black,man,,,,null,,,,
2800,"<img src=""portrait/WW2.jpg""style=""width:400px;height:400px;""></img>",3,html-button-response,10,61264,0.0-3.0-10.0,74394,List1A,black,man,,TRUE,3,,,,,
null,CORRECT,,html-keyboard-response,11,62766,0.0-3.0-11.0-0.0,74394,List1A,black,man,,,,null,,,,
3822,"<img src=""portrait/BM2.jpg""style=""width:400px;height:400px;""></img>",5,html-button-response,12,66588,0.0-3.0-13.0,74394,List1A,black,man,,TRUE,5,,,,,
null,CORRECT,,html-keyboard-response,13,68090,0.0-3.0-14.0-0.0,74394,List1A,black,man,,,,null,,,,
3018,"<img src=""portrait/WM2.jpg""style=""width:400px;height:400px;""></img>",7,html-button-response,14,71108,0.0-3.0-16.0,74394,List1A,black,man,,TRUE,7,,,,,
null,CORRECT,,html-keyboard-response,15,72610,0.0-3.0-17.0-0.0,74394,List1A,black,man,,,,null,,,,
5531,"<img src=""portrait/BW1.jpg""style=""width:400px;height:400px;""></img>",0,html-button-response,16,78142,0.0-3.0-19.0,74394,List1A,black,man,,TRUE,0,,,,,
null,CORRECT,,html-keyboard-response,17,79644,0.0-3.0-20.0-0.0,74394,List1A,black,man,,,,null,,,,
2347,"<img src=""portrait/BM1.jpg""style=""width:400px;height:400px;""></img>",4,html-button-response,18,81992,0.0-3.0-22.0,74394,List1A,black,man,,TRUE,4,,,,,
null,CORRECT,,html-keyboard-response,19,83494,0.0-3.0-23.0-0.0,74394,List1A,black,man,,,,null,,,,
1547,<p>You got 8 out of 8 right first time. Press Continue.</p>,0,html-button-response,20,85042,0.0-3.0-25.0,74394,List1A,black,man,,,,,,,,
12014,"<p>In this experiment, you will view photographs of the people from the memory game interacting.</p><p>By using the <strong>exact</strong> phrase given <i>after</i> the photograph appears and recalling the correct names of the people in the photographs, form a sentence describing the interaction. You do not need to capitalise names.</p><p>Type your answer in the space provided. Please complete every sentence before moving onto the next trial.</p><p>You will only have a few seconds to memorise each given photograph and phrase before you can respond, so try your best to focus.</p><p>An example is given below. Press 'Continue' when you are ready.</p><img src='img/speaking_example_v2.jpg' style='width:800px;height:460px;''></img>",0,html-button-response,21,98058,0.0-4.0,74394,List1A,black,man,,,,,,,,
110674,"<p>Before the experiment starts, you will watch two example trials. Press 'Continue'.</p>",0,html-button-response,22,209734,0.0-5.0,74394,List1A,black,man,,,,,,,,
null,<img src='img/speaking_WW.gif'></img>,,html-keyboard-response,23,212739,0.0-6.0,74394,List1A,black,man,,,,null,,,,
null,<p>is speaking to</p>,,html-keyboard-response,24,214740,0.0-7.0,74394,List1A,black,man,,,,null,,,,
2836,<p><b>Answer:</b> kate is speaking to beth</p>,0,html-button-response,25,217576,0.0-8.0,74394,List1A,black,man,,,,,,,,
null,<img src='img/pointing_BM.gif'></img>,,html-keyboard-response,26,220580,0.0-9.0,74394,List1A,black,man,,,,null,,,,
null,<p>are pointing at each other</p>,,html-keyboard-response,27,222582,0.0-10.0,74394,List1A,black,man,,,,null,,,,
51786,<p><b>Answer:</b> luke and dave are pointing at each other</p>,0,html-button-response,28,274368,0.0-11.0,74394,List1A,black,man,,,,,,,,
2284,"<p>Ready to start the experiment?</p><br><p><strong>Remember to describe the picture using a full sentence,</strong></p><p><strong>that combines the names of the people with the given phrase.</strong></p><p><strong>If you do not do this correctly you will not be paid.</strong></p><p><strong> You do not need to capitalise names or use punctuation.</strong></p><br><p>Press 'Continue' to begin.</p>",0,html-button-response,29,277654,0.0-12.0,74394,List1A,black,man,,,,,,,,
null,"<div style=""font-size:60px;"">+</div>",,html-keyboard-response,30,279157,0.0-13.0-0.0,74394,List1A,black,man,,,,null,,,,
null,"<img src=""stim_listA/hug7.gif""</stim_listA>",,html-keyboard-response,31,281160,0.0-13.0-1.0,74394,List1A,black,man,,,,null,,,,
null,is hugging,,html-keyboard-response,32,283162,0.0-13.0-2.0,74394,List1A,black,man,,,,null,,,,
7737,,,survey-text,33,290900,0.0-13.0-3.0,74394,List1A,black,man,,,,,"{""Q0"":""Ruth is hugging Beth""}","<img src=""stim_listA/hug7.gif""</stim_listA>",is hugging,
null,"<div style=""font-size:60px;"">+</div>",,html-keyboard-response,34,291402,0.0-13.0-0.1,74394,List1A,black,man,,,,null,,,,
null,"<img src=""stim_listA/hug2.gif""</stim_listA>",,html-keyboard-response,35,293404,0.0-13.0-1.1,74394,List1A,black,man,,,,null,,,,
null,are hugging each other,,html-keyboard-response,36,295406,0.0-13.0-2.1,74394,List1A,black,man,,,,null,,,,
6714,,,survey-text,37,302120,0.0-13.0-3.1,74394,List1A,black,man,,,,,"{""Q0"":""Mike is hugging Kate.""}","<img src=""stim_listA/hug2.gif""</stim_listA>",are hugging each other,
null,"<div style=""font-size:60px;"">+</div>",,html-keyboard-response,38,302621,0.0-13.0-0.2,74394,List1A,black,man,,,,null,,,,
null,"<img src=""stim_listA/marry8.gif""</stim_listA>",,html-keyboard-response,39,304623,0.0-13.0-1.2,74394,List1A,black,man,,,,null,,,,
null,are marrying each other,,html-keyboard-response,40,306624,0.0-13.0-2.2,74394,List1A,black,man,,,,null,,,,
14707,,,survey-text,41,321332,0.0-13.0-3.2,74394,List1A,black,man,,,,,"{""Q0"":""Ruth is holding hands with Beth""}","<img src=""stim_listA/marry8.gif""</stim_listA>",are marrying each other,
null,"<div style=""font-size:60px;"">+</div>",,html-keyboard-response,42,321833,0.0-13.0-0.3,74394,List1A,black,man,,,,null,,,,
null,"<img src=""stim_listA/argue8.gif""</stim_listA>",,html-keyboard-response,43,323835,0.0-13.0-1.3,74394,List1A,black,man,,,,null,,,,
null,are arguing with each other,,html-keyboard-response,44,325836,0.0-13.0-2.3,74394,List1A,black,man,,,,null,,,,
49826,,,survey-text,45,375662,0.0-13.0-3.3,74394,List1A,black,man,,,,,"{""Q0"":""Beth and Jane are pointing at eachother""}","<img src=""stim_listA/argue8.gif""</stim_listA>",are arguing with each other,
null,"<div style=""font-size:60px;"">+</div>",,html-keyboard-response,46,376164,0.0-13.0-0.4,74394,List1A,black,man,,,,null,,,,
null,"<img src=""stim_listA/dance7.gif""</stim_listA>",,html-keyboard-response,47,378166,0.0-13.0-1.4,74394,List1A,black,man,,,,null,,,,
null,is dancing with,,html-keyboard-response,48,380168,0.0-13.0-2.4,74394,List1A,black,man,,,,null,,,,
5424,,,survey-text,49,385592,0.0-13.0-3.4,74394,List1A,black,man,,,,,"{""Q0"":""Jane""}","<img src=""stim_listA/dance7.gif""</stim_listA>",is dancing with,
null,"<div style=""font-size:60px;"">+</div>",,html-keyboard-response,50,386093,0.0-13.0-0.5,74394,List1A,black,man,,,,null,,,,
null,"<img src=""stim_listA/talk6.gif""</stim_listA>",,html-keyboard-response,51,388097,0.0-13.0-1.5,74394,List1A,black,man,,,,null,,,,
null,are talking to each other,,html-keyboard-response,52,390098,0.0-13.0-2.5,74394,List1A,black,man,,,,null,,,,
16546,,,survey-text,53,406645,0.0-13.0-3.5,74394,List1A,black,man,,,,,"{""Q0"":""Luke and Mike""}","<img src=""stim_listA/talk6.gif""</stim_listA>",are talking to each other,
null,"<div style=""font-size:60px;"">+</div>",,html-keyboard-response,54,407146,0.0-13.0-0.6,74394,List1A,black,man,,,,null,,,,
null,"<img src=""stim_listA/shout5.gif""</stim_listA>",,html-keyboard-response,55,409148,0.0-13.0-1.6,74394,List1A,black,man,,,,null,,,,
null,is shouting at,,html-keyboard-response,56,411149,0.0-13.0-2.6,74394,List1A,black,man,,,,null,,,,
124282,,,survey-text,57,535431,0.0-13.0-3.6,74394,List1A,black,man,,,,,"{""Q0"":""Fred is shouting at Dave""}","<img src=""stim_listA/shout5.gif""</stim_listA>",is shouting at,
null,"<div style=""font-size:60px;"">+</div>",,html-keyboard-response,58,535933,0.0-13.0-0.7,74394,List1A,black,man,,,,null,,,,
null,"<img src=""stim_listA/talk2.gif""</stim_listA>",,html-keyboard-response,59,537934,0.0-13.0-1.7,74394,List1A,black,man,,,,null,,,,
null,are talking to each other,,html-keyboard-response,60,539936,0.0-13.0-2.7,74394,List1A,black,man,,,,null,,,,
11757,,,survey-text,61,551693,0.0-13.0-3.7,74394,List1A,black,man,,,,,"{""Q0"":""Mike is talking to Beth.""}","<img src=""stim_listA/talk2.gif""</stim_listA>",are talking to each other,
null,"<div style=""font-size:60px;"">+</div>",,html-keyboard-response,62,552194,0.0-13.0-0.8,74394,List1A,black,man,,,,null,,,,
null,"<img src=""stim_listA/dance4.gif""</stim_listA>",,html-keyboard-response,63,554195,0.0-13.0-1.8,74394,List1A,black,man,,,,null,,,,
null,are dancing with each other,,html-keyboard-response,64,556197,0.0-13.0-2.8,74394,List1A,black,man,,,,null,,,,
131106,,,survey-text,65,687305,0.0-13.0-3.8,74394,List1A,black,man,,,,,"{""Q0"":""Dave and Ruth are dancing with eachother.""}","<img src=""stim_listA/dance4.gif""</stim_listA>",are dancing with each other,
null,"<div style=""font-size:60px;"">+</div>",,html-keyboard-response,66,687807,0.0-13.0-0.9,74394,List1A,black,man,,,,null,,,,
null,"<img src=""stim_listA/shout4.gif""</stim_listA>",,html-keyboard-response,67,689809,0.0-13.0-1.9,74394,List1A,black,man,,,,null,,,,
null,are shouting at each other,,html-keyboard-response,68,691812,0.0-13.0-2.9,74394,List1A,black,man,,,,null,,,,
9821,,,survey-text,69,701635,0.0-13.0-3.9,74394,List1A,black,man,,,,,"{""Q0"":""Dave and Jane are shouting at eachother.""}","<img src=""stim_listA/shout4.gif""</stim_listA>",are shouting at each other,
null,"<div style=""font-size:60px;"">+</div>",,html-keyboard-response,70,702136,0.0-13.0-0.10,74394,List1A,black,man,,,,null,,,,
null,"<img src=""stim_listA/meet4.gif""</stim_listA>",,html-keyboard-response,71,704138,0.0-13.0-1.10,74394,List1A,black,man,,,,null,,,,
null,are meeting each other,,html-keyboard-response,72,706140,0.0-13.0-2.10,74394,List1A,black,man,,,,null,,,,
8324,,,survey-text,73,714465,0.0-13.0-3.10,74394,List1A,black,man,,,,,"{""Q0"":""Luke and Ruth are meeting each other.""}","<img src=""stim_listA/meet4.gif""</stim_listA>",are meeting each other,
null,"<div style=""font-size:60px;"">+</div>",,html-keyboard-response,74,714966,0.0-13.0-0.11,74394,List1A,black,man,,,,null,,,,
null,"<img src=""stim_listA/fight6.gif""</stim_listA>",,html-keyboard-response,75,716967,0.0-13.0-1.11,74394,List1A,black,man,,,,null,,,,
null,are fighting each other,,html-keyboard-response,76,718970,0.0-13.0-2.11,74394,List1A,black,man,,,,null,,,,
45526,,,survey-text,77,764497,0.0-13.0-3.11,74394,List1A,black,man,,,,,"{""Q0"":""Luke and Fred are fighting eachother.""}","<img src=""stim_listA/fight6.gif""</stim_listA>",are fighting each other,
null,"<div style=""font-size:60px;"">+</div>",,html-keyboard-response,78,764998,0.0-13.0-0.12,74394,List1A,black,man,,,,null,,,,
null,"<img src=""stim_listA/dance5.gif""</stim_listA>",,html-keyboard-response,79,766999,0.0-13.0-1.12,74394,List1A,black,man,,,,null,,,,
null,is dancing with,,html-keyboard-response,80,769001,0.0-13.0-2.12,74394,List1A,black,man,,,,null,,,,
9514,,,survey-text,81,778515,0.0-13.0-3.12,74394,List1A,black,man,,,,,"{""Q0"":""Dave is dancing with Fred""}","<img src=""stim_listA/dance5.gif""</stim_listA>",is dancing with,
null,"<div style=""font-size:60px;"">+</div>",,html-keyboard-response,82,779016,0.0-13.0-0.13,74394,List1A,black,man,,,,null,,,,
null,"<img src=""stim_listA/dance6.gif""</stim_listA>",,html-keyboard-response,83,781018,0.0-13.0-1.13,74394,List1A,black,man,,,,null,,,,
null,are dancing with each other,,html-keyboard-response,84,783018,0.0-13.0-2.13,74394,List1A,black,man,,,,null,,,,
89021,,,survey-text,85,872039,0.0-13.0-3.13,74394,List1A,black,man,,,,,"{""Q0"":""Luke and Mike are dancing with eachother.""}","<img src=""stim_listA/dance6.gif""</stim_listA>",are dancing with each other,
null,"<div style=""font-size:60px;"">+</div>",,html-keyboard-response,86,872541,0.0-13.0-0.14,74394,List1A,black,man,,,,null,,,,
null,"<img src=""stim_listA/dance1.gif""</stim_listA>",,html-keyboard-response,87,874543,0.0-13.0-1.14,74394,List1A,black,man,,,,null,,,,
null,is dancing with,,html-keyboard-response,88,876545,0.0-13.0-2.14,74394,List1A,black,man,,,,null,,,,
23761,,,survey-text,89,900307,0.0-13.0-3.14,74394,List1A,black,man,,,,,"{""Q0"":""Fred is dancing with Kate.""}","<img src=""stim_listA/dance1.gif""</stim_listA>",is dancing with,
null,"<div style=""font-size:60px;"">+</div>",,html-keyboard-response,90,900808,0.0-13.0-0.15,74394,List1A,black,man,,,,null,,,,
null,"<img src=""stim_listA/talk1.gif""</stim_listA>",,html-keyboard-response,91,902810,0.0-13.0-1.15,74394,List1A,black,man,,,,null,,,,
null,is talking to,,html-keyboard-response,92,904812,0.0-13.0-2.15,74394,List1A,black,man,,,,null,,,,
47078,,,survey-text,93,951891,0.0-13.0-3.15,74394,List1A,black,man,,,,,"{""Q0"":""Fred is talking to Kate.""}","<img src=""stim_listA/talk1.gif""</stim_listA>",is talking to,
null,"<div style=""font-size:60px;"">+</div>",,html-keyboard-response,94,952392,0.0-13.0-0.16,74394,List1A,black,man,,,,null,,,,
null,"<img src=""stim_listA/meet2.gif""</stim_listA>",,html-keyboard-response,95,954394,0.0-13.0-1.16,74394,List1A,black,man,,,,null,,,,
null,are meeting each other,,html-keyboard-response,96,956395,0.0-13.0-2.16,74394,List1A,black,man,,,,null,,,,
7232,,,survey-text,97,963627,0.0-13.0-3.16,74394,List1A,black,man,,,,,"{""Q0"":""Fred and Beth are meeting each other.""}","<img src=""stim_listA/meet2.gif""</stim_listA>",are meeting each other,
null,"<div style=""font-size:60px;"">+</div>",,html-keyboard-response,98,964128,0.0-13.0-0.17,74394,List1A,black,man,,,,null,,,,
null,"<img src=""stim_listA/hug5.gif""</stim_listA>",,html-keyboard-response,99,966130,0.0-13.0-1.17,74394,List1A,black,man,,,,null,,,,
null,is hugging,,html-keyboard-response,100,968131,0.0-13.0-2.17,74394,List1A,black,man,,,,null,,,,
5543,,,survey-text,101,973675,0.0-13.0-3.17,74394,List1A,black,man,,,,,"{""Q0"":""Fred is hugging Luke.""}","<img src=""stim_listA/hug5.gif""</stim_listA>",is hugging,
null,"<div style=""font-size:60px;"">+</div>",,html-keyboard-response,102,974176,0.0-13.0-0.18,74394,List1A,black,man,,,,null,,,,
null,"<img src=""stim_listA/marry2.gif""</stim_listA>",,html-keyboard-response,103,976178,0.0-13.0-1.18,74394,List1A,black,man,,,,null,,,,
null,are marrying each other,,html-keyboard-response,104,978179,0.0-13.0-2.18,74394,List1A,black,man,,,,null,,,,
64262,,,survey-text,105,1042441,0.0-13.0-3.18,74394,List1A,black,man,,,,,"{""Q0"":""Fred and Kate are marrying each other.""}","<img src=""stim_listA/marry2.gif""</stim_listA>",are marrying each other,
null,"<div style=""font-size:60px;"">+</div>",,html-keyboard-response,106,1042943,0.0-13.0-0.19,74394,List1A,black,man,,,,null,,,,
null,"<img src=""stim_listA/shout2.gif""</stim_listA>",,html-keyboard-response,107,1044946,0.0-13.0-1.19,74394,List1A,black,man,,,,null,,,,
null,are shouting at each other,,html-keyboard-response,108,1046948,0.0-13.0-2.19,74394,List1A,black,man,,,,null,,,,
9081,,,survey-text,109,1056029,0.0-13.0-3.19,74394,List1A,black,man,,,,,"{""Q0"":""Mike and Kate are shouting at each other.""}","<img src=""stim_listA/shout2.gif""</stim_listA>",are shouting at each other,
43538,"<img src='img/portrait_matrix_list1.JPG' style='width:900px;height:500px;''></img><p>If you have memorised all the portraits and names and are ready to start, press Continue.</p><p><strong>Please note: Your memory of these faces will be tested 4 times during this experiment.</strong></p>",0,html-button-response,110,1099567,0.0-14.0-0.0,74394,List1A,black,man,,,,,,,,
4102,"<img src=""portrait/BW2.jpg""style=""width:400px;height:400px;""></img>",2,html-button-response,111,1104671,0.0-14.0-1.0,74394,List1A,black,man,,TRUE,2,,,,,
null,CORRECT,,html-keyboard-response,112,1106174,0.0-14.0-2.0-0.0,74394,List1A,black,man,,,,null,,,,
3150,"<img src=""portrait/WM1.jpg""style=""width:400px;height:400px;""></img>",6,html-button-response,113,1109325,0.0-14.0-4.0,74394,List1A,black,man,,TRUE,6,,,,,
null,CORRECT,,html-keyboard-response,114,1110828,0.0-14.0-5.0-0.0,74394,List1A,black,man,,,,null,,,,
3564,"<img src=""portrait/WW2.jpg""style=""width:400px;height:400px;""></img>",3,html-button-response,115,1114393,0.0-14.0-7.0,74394,List1A,black,man,,TRUE,3,,,,,
null,CORRECT,,html-keyboard-response,116,1115898,0.0-14.0-8.0-0.0,74394,List1A,black,man,,,,null,,,,
3375,"<img src=""portrait/BM1.jpg""style=""width:400px;height:400px;""></img>",4,html-button-response,117,1119273,0.0-14.0-10.0,74394,List1A,black,man,,TRUE,4,,,,,
null,CORRECT,,html-keyboard-response,118,1120776,0.0-14.0-11.0-0.0,74394,List1A,black,man,,,,null,,,,
2648,"<img src=""portrait/WW1.jpg""style=""width:400px;height:400px;""></img>",1,html-button-response,119,1123425,0.0-14.0-13.0,74394,List1A,black,man,,TRUE,1,,,,,
null,CORRECT,,html-keyboard-response,120,1124927,0.0-14.0-14.0-0.0,74394,List1A,black,man,,,,null,,,,
3921,"<img src=""portrait/BW1.jpg""style=""width:400px;height:400px;""></img>",0,html-button-response,121,1128849,0.0-14.0-16.0,74394,List1A,black,man,,TRUE,0,,,,,
null,CORRECT,,html-keyboard-response,122,1130352,0.0-14.0-17.0-0.0,74394,List1A,black,man,,,,null,,,,
2751,"<img src=""portrait/BM2.jpg""style=""width:400px;height:400px;""></img>",5,html-button-response,123,1133103,0.0-14.0-19.0,74394,List1A,black,man,,TRUE,5,,,,,
null,CORRECT,,html-keyboard-response,124,1134605,0.0-14.0-20.0-0.0,74394,List1A,black,man,,,,null,,,,
2288,"<img src=""portrait/WM2.jpg""style=""width:400px;height:400px;""></img>",7,html-button-response,125,1136893,0.0-14.0-22.0,74394,List1A,black,man,,TRUE,7,,,,,
null,CORRECT,,html-keyboard-response,126,1138396,0.0-14.0-23.0-0.0,74394,List1A,black,man,,,,null,,,,
4033,<p>You got 8 out of 8 right first time. Press Continue.</p>,0,html-button-response,127,1142429,0.0-14.0-25.0,74394,List1A,black,man,,,,,,,,
null,"<div style=""font-size:60px;"">+</div>",,html-keyboard-response,128,1143934,0.0-15.0-0.0,74394,List1A,black,man,,,,null,,,,
null,"<img src=""stim_listA/shout6.gif""</stim_listA>",,html-keyboard-response,129,1145935,0.0-15.0-1.0,74394,List1A,black,man,,,,null,,,,
null,are shouting at each other,,html-keyboard-response,130,1147937,0.0-15.0-2.0,74394,List1A,black,man,,,,null,,,,
21348,,,survey-text,131,1169285,0.0-15.0-3.0,74394,List1A,black,man,,,,,"{""Q0"":""Mike and Dave are shouting at each other.""}","<img src=""stim_listA/shout6.gif""</stim_listA>",are shouting at each other,
null,"<div style=""font-size:60px;"">+</div>",,html-keyboard-response,132,1169786,0.0-15.0-0.1,74394,List1A,black,man,,,,null,,,,
null,"<img src=""stim_listA/hug3.gif""</stim_listA>",,html-keyboard-response,133,1171788,0.0-15.0-1.1,74394,List1A,black,man,,,,null,,,,
null,is hugging,,html-keyboard-response,134,1173789,0.0-15.0-2.1,74394,List1A,black,man,,,,null,,,,
35556,,,survey-text,135,1209345,0.0-15.0-3.1,74394,List1A,black,man,,,,,"{""Q0"":""Luke is hugging Ruth.""}","<img src=""stim_listA/hug3.gif""</stim_listA>",is hugging,
null,"<div style=""font-size:60px;"">+</div>",,html-keyboard-response,136,1209846,0.0-15.0-0.2,74394,List1A,black,man,,,,null,,,,
null,"<img src=""stim_listA/meet8.gif""</stim_listA>",,html-keyboard-response,137,1211847,0.0-15.0-1.2,74394,List1A,black,man,,,,null,,,,
null,are meeting each other,,html-keyboard-response,138,1213848,0.0-15.0-2.2,74394,List1A,black,man,,,,null,,,,
7123,,,survey-text,139,1220971,0.0-15.0-3.2,74394,List1A,black,man,,,,,"{""Q0"":""Beth and Ruth are meeting each other.""}","<img src=""stim_listA/meet8.gif""</stim_listA>",are meeting each other,
null,"<div style=""font-size:60px;"">+</div>",,html-keyboard-response,140,1221473,0.0-15.0-0.3,74394,List1A,black,man,,,,null,,,,
null,"<img src=""stim_listA/marry4.gif""</stim_listA>",,html-keyboard-response,141,1223474,0.0-15.0-1.3,74394,List1A,black,man,,,,null,,,,
null,are marrying each other,,html-keyboard-response,142,1225475,0.0-15.0-2.3,74394,List1A,black,man,,,,null,,,,
7236,,,survey-text,143,1232712,0.0-15.0-3.3,74394,List1A,black,man,,,,,"{""Q0"":""Jane and Luke are marrying each other.""}","<img src=""stim_listA/marry4.gif""</stim_listA>",are marrying each other,
null,"<div style=""font-size:60px;"">+</div>",,html-keyboard-response,144,1233213,0.0-15.0-0.4,74394,List1A,black,man,,,,null,,,,
null,"<img src=""stim_listA/touch4.gif""</stim_listA>",,html-keyboard-response,145,1235214,0.0-15.0-1.4,74394,List1A,black,man,,,,null,,,,
null,are touching each other,,html-keyboard-response,146,1237217,0.0-15.0-2.4,74394,List1A,black,man,,,,null,,,,
53932,,,survey-text,147,1291149,0.0-15.0-3.4,74394,List1A,black,man,,,,,"{""Q0"":""Ruth and Luke are touching hands.""}","<img src=""stim_listA/touch4.gif""</stim_listA>",are touching each other,
null,"<div style=""font-size:60px;"">+</div>",,html-keyboard-response,148,1291651,0.0-15.0-0.5,74394,List1A,black,man,,,,null,,,,
null,"<img src=""stim_listA/kiss6.gif""</stim_listA>",,html-keyboard-response,149,1293653,0.0-15.0-1.5,74394,List1A,black,man,,,,null,,,,
null,are kissing each other,,html-keyboard-response,150,1295654,0.0-15.0-2.5,74394,List1A,black,man,,,,null,,,,
9170,,,survey-text,151,1304825,0.0-15.0-3.5,74394,List1A,black,man,,,,,"{""Q0"":""Dave and Mike are kissing each other.""}","<img src=""stim_listA/kiss6.gif""</stim_listA>",are kissing each other,
null,"<div style=""font-size:60px;"">+</div>",,html-keyboard-response,152,1305326,0.0-15.0-0.6,74394,List1A,black,man,,,,null,,,,
null,"<img src=""stim_listA/fight3.gif""</stim_listA>",,html-keyboard-response,153,1307327,0.0-15.0-1.6,74394,List1A,black,man,,,,null,,,,
null,is fighting,,html-keyboard-response,154,1309328,0.0-15.0-2.6,74394,List1A,black,man,,,,null,,,,
9107,,,survey-text,155,1318435,0.0-15.0-3.6,74394,List1A,black,man,,,,,"{""Q0"":""Dave is fighting Jane.""}","<img src=""stim_listA/fight3.gif""</stim_listA>",is fighting,
null,"<div style=""font-size:60px;"">+</div>",,html-keyboard-response,156,1318938,0.0-15.0-0.7,74394,List1A,black,man,,,,null,,,,
null,"<img src=""stim_listA/argue5.gif""</stim_listA>",,html-keyboard-response,157,1320940,0.0-15.0-1.7,74394,List1A,black,man,,,,null,,,,
null,is arguing with,,html-keyboard-response,158,1322942,0.0-15.0-2.7,74394,List1A,black,man,,,,null,,,,
10007,,,survey-text,159,1332950,0.0-15.0-3.7,74394,List1A,black,man,,,,,"{""Q0"":""Luke is arguing with Mike.""}","<img src=""stim_listA/argue5.gif""</stim_listA>",is arguing with,
null,"<div style=""font-size:60px;"">+</div>",,html-keyboard-response,160,1333451,0.0-15.0-0.8,74394,List1A,black,man,,,,null,,,,
null,"<img src=""stim_listA/marry1.gif""</stim_listA>",,html-keyboard-response,161,1335453,0.0-15.0-1.8,74394,List1A,black,man,,,,null,,,,
null,is marrying,,html-keyboard-response,162,1337454,0.0-15.0-2.8,74394,List1A,black,man,,,,null,,,,
22344,,,survey-text,163,1359798,0.0-15.0-3.8,74394,List1A,black,man,,,,,"{""Q0"":""Mike is marrying Beth.""}","<img src=""stim_listA/marry1.gif""</stim_listA>",is marrying,
null,"<div style=""font-size:60px;"">+</div>",,html-keyboard-response,164,1360299,0.0-15.0-0.9,74394,List1A,black,man,,,,null,,,,
null,"<img src=""stim_listA/marry7.gif""</stim_listA>",,html-keyboard-response,165,1362302,0.0-15.0-1.9,74394,List1A,black,man,,,,null,,,,
null,is marrying,,html-keyboard-response,166,1364304,0.0-15.0-2.9,74394,List1A,black,man,,,,null,,,,
6876,,,survey-text,167,1371181,0.0-15.0-3.9,74394,List1A,black,man,,,,,"{""Q0"":""Ruth is marrying Kate.""}","<img src=""stim_listA/marry7.gif""</stim_listA>",is marrying,
null,"<div style=""font-size:60px;"">+</div>",,html-keyboard-response,168,1371682,0.0-15.0-0.10,74394,List1A,black,man,,,,null,,,,
null,"<img src=""stim_listA/touch3.gif""</stim_listA>",,html-keyboard-response,169,1373685,0.0-15.0-1.10,74394,List1A,black,man,,,,null,,,,
null,is touching,,html-keyboard-response,170,1375686,0.0-15.0-2.10,74394,List1A,black,man,,,,null,,,,
13220,,,survey-text,171,1388907,0.0-15.0-3.10,74394,List1A,black,man,,,,,"{""Q0"":""Dave is touching Jane.""}","<img src=""stim_listA/touch3.gif""</stim_listA>",is touching,
null,"<div style=""font-size:60px;"">+</div>",,html-keyboard-response,172,1389408,0.0-15.0-0.11,74394,List1A,black,man,,,,null,,,,
null,"<img src=""stim_listA/talk3.gif""</stim_listA>",,html-keyboard-response,173,1391408,0.0-15.0-1.11,74394,List1A,black,man,,,,null,,,,
null,is talking to,,html-keyboard-response,174,1393410,0.0-15.0-2.11,74394,List1A,black,man,,,,null,,,,
9490,,,survey-text,175,1402901,0.0-15.0-3.11,74394,List1A,black,man,,,,,"{""Q0"":""Luke is talking to Jane.""}","<img src=""stim_listA/talk3.gif""</stim_listA>",is talking to,
null,"<div style=""font-size:60px;"">+</div>",,html-keyboard-response,176,1403402,0.0-15.0-0.12,74394,List1A,black,man,,,,null,,,,
null,"<img src=""stim_listA/hug1.gif""</stim_listA>",,html-keyboard-response,177,1405403,0.0-15.0-1.12,74394,List1A,black,man,,,,null,,,,
null,is hugging,,html-keyboard-response,178,1407405,0.0-15.0-2.12,74394,List1A,black,man,,,,null,,,,
58467,,,survey-text,179,1465873,0.0-15.0-3.12,74394,List1A,black,man,,,,,"{""Q0"":""Fred is hugging Beth.""}","<img src=""stim_listA/hug1.gif""</stim_listA>",is hugging,
null,"<div style=""font-size:60px;"">+</div>",,html-keyboard-response,180,1466375,0.0-15.0-0.13,74394,List1A,black,man,,,,null,,,,
null,"<img src=""stim_listA/fight4.gif""</stim_listA>",,html-keyboard-response,181,1468377,0.0-15.0-1.13,74394,List1A,black,man,,,,null,,,,
null,are fighting each other,,html-keyboard-response,182,1470380,0.0-15.0-2.13,74394,List1A,black,man,,,,null,,,,
7615,,,survey-text,183,1477995,0.0-15.0-3.13,74394,List1A,black,man,,,,,"{""Q0"":""Luke and Ruth are fighting each other.""}","<img src=""stim_listA/fight4.gif""</stim_listA>",are fighting each other,
null,"<div style=""font-size:60px;"">+</div>",,html-keyboard-response,184,1478496,0.0-15.0-0.14,74394,List1A,black,man,,,,null,,,,
null,"<img src=""stim_listA/marry6.gif""</stim_listA>",,html-keyboard-response,185,1480498,0.0-15.0-1.14,74394,List1A,black,man,,,,null,,,,
null,are marrying each other,,html-keyboard-response,186,1482500,0.0-15.0-2.14,74394,List1A,black,man,,,,null,,,,
33859,,,survey-text,187,1516359,0.0-15.0-3.14,74394,List1A,black,man,,,,,"{""Q0"":""Fred and Dave are marrying each other.""}","<img src=""stim_listA/marry6.gif""</stim_listA>",are marrying each other,
null,"<div style=""font-size:60px;"">+</div>",,html-keyboard-response,188,1516861,0.0-15.0-0.15,74394,List1A,black,man,,,,null,,,,
null,"<img src=""stim_listA/kiss2.gif""</stim_listA>",,html-keyboard-response,189,1518863,0.0-15.0-1.15,74394,List1A,black,man,,,,null,,,,
null,are kissing each other,,html-keyboard-response,190,1520864,0.0-15.0-2.15,74394,List1A,black,man,,,,null,,,,
7512,,,survey-text,191,1528377,0.0-15.0-3.15,74394,List1A,black,man,,,,,"{""Q0"":""Mike and Kate are kissing eachother.""}","<img src=""stim_listA/kiss2.gif""</stim_listA>",are kissing each other,
null,"<div style=""font-size:60px;"">+</div>",,html-keyboard-response,192,1528878,0.0-15.0-0.16,74394,List1A,black,man,,,,null,,,,
null,"<img src=""stim_listA/fight1.gif""</stim_listA>",,html-keyboard-response,193,1530881,0.0-15.0-1.16,74394,List1A,black,man,,,,null,,,,
null,is fighting,,html-keyboard-response,194,1532882,0.0-15.0-2.16,74394,List1A,black,man,,,,null,,,,
4884,,,survey-text,195,1537767,0.0-15.0-3.16,74394,List1A,black,man,,,,,"{""Q0"":""Mike is fighting Kate.""}","<img src=""stim_listA/fight1.gif""</stim_listA>",is fighting,
null,"<div style=""font-size:60px;"">+</div>",,html-keyboard-response,196,1538268,0.0-15.0-0.17,74394,List1A,black,man,,,,null,,,,
null,"<img src=""stim_listA/dance3.gif""</stim_listA>",,html-keyboard-response,197,1540269,0.0-15.0-1.17,74394,List1A,black,man,,,,null,,,,
null,is dancing with,,html-keyboard-response,198,1542271,0.0-15.0-2.17,74394,List1A,black,man,,,,null,,,,
6291,,,survey-text,199,1548563,0.0-15.0-3.17,74394,List1A,black,man,,,,,"{""Q0"":""Luke is dancing with Jane.""}","<img src=""stim_listA/dance3.gif""</stim_listA>",is dancing with,
null,"<div style=""font-size:60px;"">+</div>",,html-keyboard-response,200,1549064,0.0-15.0-0.18,74394,List1A,black,man,,,,null,,,,
null,"<img src=""stim_listA/shout7.gif""</stim_listA>",,html-keyboard-response,201,1551065,0.0-15.0-1.18,74394,List1A,black,man,,,,null,,,,
null,is shouting at,,html-keyboard-response,202,1553066,0.0-15.0-2.18,74394,List1A,black,man,,,,null,,,,
6629,,,survey-text,203,1559697,0.0-15.0-3.18,74394,List1A,black,man,,,,,"{""Q0"":""Ruth is shouting at Beth.""}","<img src=""stim_listA/shout7.gif""</stim_listA>",is shouting at,
null,"<div style=""font-size:60px;"">+</div>",,html-keyboard-response,204,1560198,0.0-15.0-0.19,74394,List1A,black,man,,,,null,,,,
null,"<img src=""stim_listA/touch5.gif""</stim_listA>",,html-keyboard-response,205,1562199,0.0-15.0-1.19,74394,List1A,black,man,,,,null,,,,
null,is touching,,html-keyboard-response,206,1564201,0.0-15.0-2.19,74394,List1A,black,man,,,,null,,,,
5663,,,survey-text,207,1569865,0.0-15.0-3.19,74394,List1A,black,man,,,,,"{""Q0"":""Mike is touching Dave.""}","<img src=""stim_listA/touch5.gif""</stim_listA>",is touching,
32925,"<img src='img/portrait_matrix_list1.JPG' style='width:900px;height:500px;''></img><p>If you have memorised all the portraits and names and are ready to start, press Continue.</p><p><strong>Please note: Your memory of these faces will be tested 4 times during this experiment.</strong></p>",0,html-button-response,208,1602791,0.0-16.0-0.0,74394,List1A,black,man,,,,,,,,
3354,"<img src=""portrait/BM2.jpg""style=""width:400px;height:400px;""></img>",5,html-button-response,209,1607147,0.0-16.0-1.0,74394,List1A,black,man,,TRUE,5,,,,,
null,CORRECT,,html-keyboard-response,210,1608648,0.0-16.0-2.0-0.0,74394,List1A,black,man,,,,null,,,,
2725,"<img src=""portrait/BW2.jpg""style=""width:400px;height:400px;""></img>",2,html-button-response,211,1611375,0.0-16.0-4.0,74394,List1A,black,man,,TRUE,2,,,,,
null,CORRECT,,html-keyboard-response,212,1612882,0.0-16.0-5.0-0.0,74394,List1A,black,man,,,,null,,,,
2502,"<img src=""portrait/WW1.jpg""style=""width:400px;height:400px;""></img>",1,html-button-response,213,1615387,0.0-16.0-7.0,74394,List1A,black,man,,TRUE,1,,,,,
null,CORRECT,,html-keyboard-response,214,1616889,0.0-16.0-8.0-0.0,74394,List1A,black,man,,,,null,,,,
2528,"<img src=""portrait/BM1.jpg""style=""width:400px;height:400px;""></img>",4,html-button-response,215,1619419,0.0-16.0-10.0,74394,List1A,black,man,,TRUE,4,,,,,
null,CORRECT,,html-keyboard-response,216,1620921,0.0-16.0-11.0-0.0,74394,List1A,black,man,,,,null,,,,
7704,"<img src=""portrait/WW2.jpg""style=""width:400px;height:400px;""></img>",3,html-button-response,217,1628627,0.0-16.0-13.0,74394,List1A,black,man,,TRUE,3,,,,,
null,CORRECT,,html-keyboard-response,218,1630129,0.0-16.0-14.0-0.0,74394,List1A,black,man,,,,null,,,,
6740,"<img src=""portrait/WM1.jpg""style=""width:400px;height:400px;""></img>",6,html-button-response,219,1636871,0.0-16.0-16.0,74394,List1A,black,man,,TRUE,6,,,,,
null,CORRECT,,html-keyboard-response,220,1638374,0.0-16.0-17.0-0.0,74394,List1A,black,man,,,,null,,,,
5197,"<img src=""portrait/WM2.jpg""style=""width:400px;height:400px;""></img>",7,html-button-response,221,1643573,0.0-16.0-19.0,74394,List1A,black,man,,TRUE,7,,,,,
null,CORRECT,,html-keyboard-response,222,1645074,0.0-16.0-20.0-0.0,74394,List1A,black,man,,,,null,,,,
6418,"<img src=""portrait/BW1.jpg""style=""width:400px;height:400px;""></img>",0,html-button-response,223,1651495,0.0-16.0-22.0,74394,List1A,black,man,,TRUE,0,,,,,
null,CORRECT,,html-keyboard-response,224,1652998,0.0-16.0-23.0-0.0,74394,List1A,black,man,,,,null,,,,
3241,<p>You got 8 out of 8 right first time. Press Continue.</p>,0,html-button-response,225,1656241,0.0-16.0-25.0,74394,List1A,black,man,,,,,,,,
null,"<div style=""font-size:60px;"">+</div>",,html-keyboard-response,226,1657744,0.0-17.0-0.0,74394,List1A,black,man,,,,null,,,,
null,"<img src=""stim_listA/hug6.gif""</stim_listA>",,html-keyboard-response,227,1659747,0.0-17.0-1.0,74394,List1A,black,man,,,,null,,,,
null,are hugging each other,,html-keyboard-response,228,1661749,0.0-17.0-2.0,74394,List1A,black,man,,,,null,,,,
9260,,,survey-text,229,1671010,0.0-17.0-3.0,74394,List1A,black,man,,,,,"{""Q0"":""Mike and Dave are hugging each other.""}","<img src=""stim_listA/hug6.gif""</stim_listA>",are hugging each other,
null,"<div style=""font-size:60px;"">+</div>",,html-keyboard-response,230,1671513,0.0-17.0-0.1,74394,List1A,black,man,,,,null,,,,
null,"<img src=""stim_listA/touch8.gif""</stim_listA>",,html-keyboard-response,231,1673517,0.0-17.0-1.1,74394,List1A,black,man,,,,null,,,,
null,are touching each other,,html-keyboard-response,232,1675518,0.0-17.0-2.1,74394,List1A,black,man,,,,null,,,,
8785,,,survey-text,233,1684304,0.0-17.0-3.1,74394,List1A,black,man,,,,,"{""Q0"":""Ruth and Beth are touching eachother.""}","<img src=""stim_listA/touch8.gif""</stim_listA>",are touching each other,
null,"<div style=""font-size:60px;"">+</div>",,html-keyboard-response,234,1684805,0.0-17.0-0.2,74394,List1A,black,man,,,,null,,,,
null,"<img src=""stim_listA/kiss1.gif""</stim_listA>",,html-keyboard-response,235,1686807,0.0-17.0-1.2,74394,List1A,black,man,,,,null,,,,
null,is kissing,,html-keyboard-response,236,1688807,0.0-17.0-2.2,74394,List1A,black,man,,,,null,,,,
7578,,,survey-text,237,1696386,0.0-17.0-3.2,74394,List1A,black,man,,,,,"{""Q0"":""Jane is kissing Luke.""}","<img src=""stim_listA/kiss1.gif""</stim_listA>",is kissing,
null,"<div style=""font-size:60px;"">+</div>",,html-keyboard-response,238,1696888,0.0-17.0-0.3,74394,List1A,black,man,,,,null,,,,
null,"<img src=""stim_listA/argue6.gif""</stim_listA>",,html-keyboard-response,239,1698891,0.0-17.0-1.3,74394,List1A,black,man,,,,null,,,,
null,are arguing with each other,,html-keyboard-response,240,1700892,0.0-17.0-2.3,74394,List1A,black,man,,,,null,,,,
7694,,,survey-text,241,1708586,0.0-17.0-3.3,74394,List1A,black,man,,,,,"{""Q0"":""Fred and Dave are arguing with eachother.""}","<img src=""stim_listA/argue6.gif""</stim_listA>",are arguing with each other,
null,"<div style=""font-size:60px;"">+</div>",,html-keyboard-response,242,1709088,0.0-17.0-0.4,74394,List1A,black,man,,,,null,,,,
null,"<img src=""stim_listA/fight2.gif""</stim_listA>",,html-keyboard-response,243,1711089,0.0-17.0-1.4,74394,List1A,black,man,,,,null,,,,
null,are fighting each other,,html-keyboard-response,244,1713090,0.0-17.0-2.4,74394,List1A,black,man,,,,null,,,,
7257,,,survey-text,245,1720348,0.0-17.0-3.4,74394,List1A,black,man,,,,,"{""Q0"":""Fred and Beth are fighting each other.""}","<img src=""stim_listA/fight2.gif""</stim_listA>",are fighting each other,
null,"<div style=""font-size:60px;"">+</div>",,html-keyboard-response,246,1720850,0.0-17.0-0.5,74394,List1A,black,man,,,,null,,,,
null,"<img src=""stim_listA/hug8.gif""</stim_listA>",,html-keyboard-response,247,1722854,0.0-17.0-1.5,74394,List1A,black,man,,,,null,,,,
null,are hugging each other,,html-keyboard-response,248,1724855,0.0-17.0-2.5,74394,List1A,black,man,,,,null,,,,
9965,,,survey-text,249,1734821,0.0-17.0-3.5,74394,List1A,black,man,,,,,"{""Q0"":""Jane and Kate are hugging each other.""}","<img src=""stim_listA/hug8.gif""</stim_listA>",are hugging each other,
null,"<div style=""font-size:60px;"">+</div>",,html-keyboard-response,250,1735324,0.0-17.0-0.6,74394,List1A,black,man,,,,null,,,,
null,"<img src=""stim_listA/touch6.gif""</stim_listA>",,html-keyboard-response,251,1737325,0.0-17.0-1.6,74394,List1A,black,man,,,,null,,,,
null,are touching each other,,html-keyboard-response,252,1739326,0.0-17.0-2.6,74394,List1A,black,man,,,,null,,,,
10845,,,survey-text,253,1750173,0.0-17.0-3.6,74394,List1A,black,man,,,,,"{""Q0"":""Fred and Luke are touching each other.""}","<img src=""stim_listA/touch6.gif""</stim_listA>",are touching each other,
null,"<div style=""font-size:60px;"">+</div>",,html-keyboard-response,254,1750674,0.0-17.0-0.7,74394,List1A,black,man,,,,null,,,,
null,"<img src=""stim_listA/meet1.gif""</stim_listA>",,html-keyboard-response,255,1752676,0.0-17.0-1.7,74394,List1A,black,man,,,,null,,,,
null,is meeting,,html-keyboard-response,256,1754679,0.0-17.0-2.7,74394,List1A,black,man,,,,null,,,,
25615,,,survey-text,257,1780295,0.0-17.0-3.7,74394,List1A,black,man,,,,,"{""Q0"":""Mike is meeting Kate.""}","<img src=""stim_listA/meet1.gif""</stim_listA>",is meeting,
null,"<div style=""font-size:60px;"">+</div>",,html-keyboard-response,258,1780798,0.0-17.0-0.8,74394,List1A,black,man,,,,null,,,,
null,"<img src=""stim_listA/kiss3.gif""</stim_listA>",,html-keyboard-response,259,1782801,0.0-17.0-1.8,74394,List1A,black,man,,,,null,,,,
null,is kissing,,html-keyboard-response,260,1784803,0.0-17.0-2.8,74394,List1A,black,man,,,,null,,,,
6849,,,survey-text,261,1791653,0.0-17.0-3.8,74394,List1A,black,man,,,,,"{""Q0"":""Luke is Kissing Ruth.""}","<img src=""stim_listA/kiss3.gif""</stim_listA>",is kissing,
null,"<div style=""font-size:60px;"">+</div>",,html-keyboard-response,262,1792154,0.0-17.0-0.9,74394,List1A,black,man,,,,null,,,,
null,"<img src=""stim_listA/argue1.gif""</stim_listA>",,html-keyboard-response,263,1794157,0.0-17.0-1.9,74394,List1A,black,man,,,,null,,,,
null,is arguing with,,html-keyboard-response,264,1796158,0.0-17.0-2.9,74394,List1A,black,man,,,,null,,,,
5978,,,survey-text,265,1802137,0.0-17.0-3.9,74394,List1A,black,man,,,,,"{""Q0"":""Mike is arguing with Beth.""}","<img src=""stim_listA/argue1.gif""</stim_listA>",is arguing with,
null,"<div style=""font-size:60px;"">+</div>",,html-keyboard-response,266,1802638,0.0-17.0-0.10,74394,List1A,black,man,,,,null,,,,
null,"<img src=""stim_listA/kiss5.gif""</stim_listA>",,html-keyboard-response,267,1804640,0.0-17.0-1.10,74394,List1A,black,man,,,,null,,,,
null,is kissing,,html-keyboard-response,268,1806641,0.0-17.0-2.10,74394,List1A,black,man,,,,null,,,,
10090,,,survey-text,269,1816731,0.0-17.0-3.10,74394,List1A,black,man,,,,,"{""Q0"":""Luke is kissing Fred.""}","<img src=""stim_listA/kiss5.gif""</stim_listA>",is kissing,
null,"<div style=""font-size:60px;"">+</div>",,html-keyboard-response,270,1817232,0.0-17.0-0.11,74394,List1A,black,man,,,,null,,,,
null,"<img src=""stim_listA/talk8.gif""</stim_listA>",,html-keyboard-response,271,1819234,0.0-17.0-1.11,74394,List1A,black,man,,,,null,,,,
null,are talking to each other,,html-keyboard-response,272,1821235,0.0-17.0-2.11,74394,List1A,black,man,,,,null,,,,
10012,,,survey-text,273,1831247,0.0-17.0-3.11,74394,List1A,black,man,,,,,"{""Q0"":""Ruth and Kate are talking to each other.""}","<img src=""stim_listA/talk8.gif""</stim_listA>",are talking to each other,
null,"<div style=""font-size:60px;"">+</div>",,html-keyboard-response,274,1831749,0.0-17.0-0.12,74394,List1A,black,man,,,,null,,,,
null,"<img src=""stim_listA/fight8.gif""</stim_listA>",,html-keyboard-response,275,1833751,0.0-17.0-1.12,74394,List1A,black,man,,,,null,,,,
null,are fighting each other,,html-keyboard-response,276,1835752,0.0-17.0-2.12,74394,List1A,black,man,,,,null,,,,
7719,,,survey-text,277,1843471,0.0-17.0-3.12,74394,List1A,black,man,,,,,"{""Q0"":""Ruth and Beth are fighting each other.""}","<img src=""stim_listA/fight8.gif""</stim_listA>",are fighting each other,
null,"<div style=""font-size:60px;"">+</div>",,html-keyboard-response,278,1843972,0.0-17.0-0.13,74394,List1A,black,man,,,,null,,,,
null,"<img src=""stim_listA/kiss8.gif""</stim_listA>",,html-keyboard-response,279,1845973,0.0-17.0-1.13,74394,List1A,black,man,,,,null,,,,
null,are kissing each other,,html-keyboard-response,280,1847975,0.0-17.0-2.13,74394,List1A,black,man,,,,null,,,,
10742,,,survey-text,281,1858717,0.0-17.0-3.13,74394,List1A,black,man,,,,,"{""Q0"":""Kate and Jane are kissing each other.""}","<img src=""stim_listA/kiss8.gif""</stim_listA>",are kissing each other,
null,"<div style=""font-size:60px;"">+</div>",,html-keyboard-response,282,1859218,0.0-17.0-0.14,74394,List1A,black,man,,,,null,,,,
null,"<img src=""stim_listA/touch7.gif""</stim_listA>",,html-keyboard-response,283,1861218,0.0-17.0-1.14,74394,List1A,black,man,,,,null,,,,
null,is touching,,html-keyboard-response,284,1863220,0.0-17.0-2.14,74394,List1A,black,man,,,,null,,,,
4728,,,survey-text,285,1867949,0.0-17.0-3.14,74394,List1A,black,man,,,,,"{""Q0"":""Ruth is touching Jane.""}","<img src=""stim_listA/touch7.gif""</stim_listA>",is touching,
null,"<div style=""font-size:60px;"">+</div>",,html-keyboard-response,286,1868451,0.0-17.0-0.15,74394,List1A,black,man,,,,null,,,,
null,"<img src=""stim_listA/meet5.gif""</stim_listA>",,html-keyboard-response,287,1870452,0.0-17.0-1.15,74394,List1A,black,man,,,,null,,,,
null,is meeting,,html-keyboard-response,288,1872453,0.0-17.0-2.15,74394,List1A,black,man,,,,null,,,,
6571,,,survey-text,289,1879025,0.0-17.0-3.15,74394,List1A,black,man,,,,,"{""Q0"":""Mike is meeting Dave.""}","<img src=""stim_listA/meet5.gif""</stim_listA>",is meeting,
null,"<div style=""font-size:60px;"">+</div>",,html-keyboard-response,290,1879526,0.0-17.0-0.16,74394,List1A,black,man,,,,null,,,,
null,"<img src=""stim_listA/dance8.gif""</stim_listA>",,html-keyboard-response,291,1881529,0.0-17.0-1.16,74394,List1A,black,man,,,,null,,,,
null,are dancing with each other,,html-keyboard-response,292,1883531,0.0-17.0-2.16,74394,List1A,black,man,,,,null,,,,
11962,,,survey-text,293,1895493,0.0-17.0-3.16,74394,List1A,black,man,,,,,"{""Q0"":""Ruth and Kate are dancing with together.""}","<img src=""stim_listA/dance8.gif""</stim_listA>",are dancing with each other,
null,"<div style=""font-size:60px;"">+</div>",,html-keyboard-response,294,1895995,0.0-17.0-0.17,74394,List1A,black,man,,,,null,,,,
null,"<img src=""stim_listA/fight5.gif""</stim_listA>",,html-keyboard-response,295,1897997,0.0-17.0-1.17,74394,List1A,black,man,,,,null,,,,
null,is fighting,,html-keyboard-response,296,1899999,0.0-17.0-2.17,74394,List1A,black,man,,,,null,,,,
27104,,,survey-text,297,1927103,0.0-17.0-3.17,74394,List1A,black,man,,,,,"{""Q0"":""Dave is fighting Mike.""}","<img src=""stim_listA/fight5.gif""</stim_listA>",is fighting,
null,"<div style=""font-size:60px;"">+</div>",,html-keyboard-response,298,1927604,0.0-17.0-0.18,74394,List1A,black,man,,,,null,,,,
null,"<img src=""stim_listA/marry5.gif""</stim_listA>",,html-keyboard-response,299,1929607,0.0-17.0-1.18,74394,List1A,black,man,,,,null,,,,
null,is marrying,,html-keyboard-response,300,1931609,0.0-17.0-2.18,74394,List1A,black,man,,,,null,,,,
50924,,,survey-text,301,1982533,0.0-17.0-3.18,74394,List1A,black,man,,,,,"{""Q0"":""Mike is marrying Luke.""}","<img src=""stim_listA/marry5.gif""</stim_listA>",is marrying,
null,"<div style=""font-size:60px;"">+</div>",,html-keyboard-response,302,1983034,0.0-17.0-0.19,74394,List1A,black,man,,,,null,,,,
null,"<img src=""stim_listA/meet6.gif""</stim_listA>",,html-keyboard-response,303,1985036,0.0-17.0-1.19,74394,List1A,black,man,,,,null,,,,
null,are meeting each other,,html-keyboard-response,304,1987038,0.0-17.0-2.19,74394,List1A,black,man,,,,null,,,,
122570,,,survey-text,305,2109609,0.0-17.0-3.19,74394,List1A,black,man,,,,,"{""Q0"":""Luke and Fred are meeting each other.""}","<img src=""stim_listA/meet6.gif""</stim_listA>",are meeting each other,
4070,"<img src='img/portrait_matrix_list1.JPG' style='width:900px;height:500px;''></img><p>If you have memorised all the portraits and names and are ready to start, press Continue.</p><p><strong>Please note: Your memory of these faces will be tested 4 times during this experiment.</strong></p>",0,html-button-response,306,2113679,0.0-18.0-0.0,74394,List1A,black,man,,,,,,,,
1546,"<img src=""portrait/WM2.jpg""style=""width:400px;height:400px;""></img>",7,html-button-response,307,2116228,0.0-18.0-1.0,74394,List1A,black,man,,TRUE,7,,,,,
null,CORRECT,,html-keyboard-response,308,2117730,0.0-18.0-2.0-0.0,74394,List1A,black,man,,,,null,,,,
3236,"<img src=""portrait/BM2.jpg""style=""width:400px;height:400px;""></img>",5,html-button-response,309,2120967,0.0-18.0-4.0,74394,List1A,black,man,,TRUE,5,,,,,
null,CORRECT,,html-keyboard-response,310,2122468,0.0-18.0-5.0-0.0,74394,List1A,black,man,,,,null,,,,
2830,"<img src=""portrait/BW2.jpg""style=""width:400px;height:400px;""></img>",2,html-button-response,311,2125299,0.0-18.0-7.0,74394,List1A,black,man,,TRUE,2,,,,,
null,CORRECT,,html-keyboard-response,312,2126802,0.0-18.0-8.0-0.0,74394,List1A,black,man,,,,null,,,,
3342,"<img src=""portrait/WM1.jpg""style=""width:400px;height:400px;""></img>",6,html-button-response,313,2130145,0.0-18.0-10.0,74394,List1A,black,man,,TRUE,6,,,,,
null,CORRECT,,html-keyboard-response,314,2131649,0.0-18.0-11.0-0.0,74394,List1A,black,man,,,,null,,,,
1960,"<img src=""portrait/WW1.jpg""style=""width:400px;height:400px;""></img>",1,html-button-response,315,2133609,0.0-18.0-13.0,74394,List1A,black,man,,TRUE,1,,,,,
null,CORRECT,,html-keyboard-response,316,2135112,0.0-18.0-14.0-0.0,74394,List1A,black,man,,,,null,,,,
2214,"<img src=""portrait/BW1.jpg""style=""width:400px;height:400px;""></img>",0,html-button-response,317,2137327,0.0-18.0-16.0,74394,List1A,black,man,,TRUE,0,,,,,
null,CORRECT,,html-keyboard-response,318,2138829,0.0-18.0-17.0-0.0,74394,List1A,black,man,,,,null,,,,
3142,"<img src=""portrait/BM1.jpg""style=""width:400px;height:400px;""></img>",4,html-button-response,319,2141971,0.0-18.0-19.0,74394,List1A,black,man,,TRUE,4,,,,,
null,CORRECT,,html-keyboard-response,320,2143474,0.0-18.0-20.0-0.0,74394,List1A,black,man,,,,null,,,,
4261,"<img src=""portrait/WW2.jpg""style=""width:400px;height:400px;""></img>",3,html-button-response,321,2147737,0.0-18.0-22.0,74394,List1A,black,man,,TRUE,3,,,,,
null,CORRECT,,html-keyboard-response,322,2149239,0.0-18.0-23.0-0.0,74394,List1A,black,man,,,,null,,,,
11711,<p>You got 8 out of 8 right first time. Press Continue.</p>,0,html-button-response,323,2160951,0.0-18.0-25.0,74394,List1A,black,man,,,,,,,,
null,"<div style=""font-size:60px;"">+</div>",,html-keyboard-response,324,2162454,0.0-19.0-0.0,74394,List1A,black,man,,,,null,,,,
null,"<img src=""stim_listA/meet3.gif""</stim_listA>",,html-keyboard-response,325,2164456,0.0-19.0-1.0,74394,List1A,black,man,,,,null,,,,
null,is meeting,,html-keyboard-response,326,2166458,0.0-19.0-2.0,74394,List1A,black,man,,,,null,,,,
5602,,,survey-text,327,2172061,0.0-19.0-3.0,74394,List1A,black,man,,,,,"{""Q0"":""Dave is meeting Jane.""}","<img src=""stim_listA/meet3.gif""</stim_listA>",is meeting,
null,"<div style=""font-size:60px;"">+</div>",,html-keyboard-response,328,2172562,0.0-19.0-0.1,74394,List1A,black,man,,,,null,,,,
null,"<img src=""stim_listA/touch1.gif""</stim_listA>",,html-keyboard-response,329,2174563,0.0-19.0-1.1,74394,List1A,black,man,,,,null,,,,
null,is touching,,html-keyboard-response,330,2176565,0.0-19.0-2.1,74394,List1A,black,man,,,,null,,,,
147519,,,survey-text,331,2324085,0.0-19.0-3.1,74394,List1A,black,man,,,,,"{""Q0"":""Jane and Luke""}","<img src=""stim_listA/touch1.gif""</stim_listA>",is touching,
null,"<div style=""font-size:60px;"">+</div>",,html-keyboard-response,332,2324587,0.0-19.0-0.2,74394,List1A,black,man,,,,null,,,,
null,"<img src=""stim_listA/shout1.gif""</stim_listA>",,html-keyboard-response,333,2326589,0.0-19.0-1.2,74394,List1A,black,man,,,,null,,,,
null,is shouting at,,html-keyboard-response,334,2328589,0.0-19.0-2.2,74394,List1A,black,man,,,,null,,,,
6413,,,survey-text,335,2335003,0.0-19.0-3.2,74394,List1A,black,man,,,,,"{""Q0"":""Fred is shouting at Beth.""}","<img src=""stim_listA/shout1.gif""</stim_listA>",is shouting at,
null,"<div style=""font-size:60px;"">+</div>",,html-keyboard-response,336,2335504,0.0-19.0-0.3,74394,List1A,black,man,,,,null,,,,
null,"<img src=""stim_listA/argue2.gif""</stim_listA>",,html-keyboard-response,337,2337505,0.0-19.0-1.3,74394,List1A,black,man,,,,null,,,,
null,are arguing with each other,,html-keyboard-response,338,2339506,0.0-19.0-2.3,74394,List1A,black,man,,,,null,,,,
15711,,,survey-text,339,2355217,0.0-19.0-3.3,74394,List1A,black,man,,,,,"{""Q0"":""Fred and Kate are arguing with each other.""}","<img src=""stim_listA/argue2.gif""</stim_listA>",are arguing with each other,
null,"<div style=""font-size:60px;"">+</div>",,html-keyboard-response,340,2355718,0.0-19.0-0.4,74394,List1A,black,man,,,,null,,,,
null,"<img src=""stim_listA/argue4.gif""</stim_listA>",,html-keyboard-response,341,2357720,0.0-19.0-1.4,74394,List1A,black,man,,,,null,,,,
null,are arguing with each other,,html-keyboard-response,342,2359722,0.0-19.0-2.4,74394,List1A,black,man,,,,null,,,,
66259,,,survey-text,343,2425981,0.0-19.0-3.4,74394,List1A,black,man,,,,,"{""Q0"":""Luke and Jane are arguing with each other.""}","<img src=""stim_listA/argue4.gif""</stim_listA>",are arguing with each other,
null,"<div style=""font-size:60px;"">+</div>",,html-keyboard-response,344,2426484,0.0-19.0-0.5,74394,List1A,black,man,,,,null,,,,
null,"<img src=""stim_listA/hug4.gif""</stim_listA>",,html-keyboard-response,345,2428485,0.0-19.0-1.5,74394,List1A,black,man,,,,null,,,,
null,are hugging each other,,html-keyboard-response,346,2430486,0.0-19.0-2.5,74394,List1A,black,man,,,,null,,,,
27782,,,survey-text,347,2458268,0.0-19.0-3.5,74394,List1A,black,man,,,,,"{""Q0"":""Dave is hugging Jane.""}","<img src=""stim_listA/hug4.gif""</stim_listA>",are hugging each other,
null,"<div style=""font-size:60px;"">+</div>",,html-keyboard-response,348,2458768,0.0-19.0-0.6,74394,List1A,black,man,,,,null,,,,
null,"<img src=""stim_listA/shout8.gif""</stim_listA>",,html-keyboard-response,349,2460771,0.0-19.0-1.6,74394,List1A,black,man,,,,null,,,,
null,are shouting at each other,,html-keyboard-response,350,2462773,0.0-19.0-2.6,74394,List1A,black,man,,,,null,,,,
49632,,,survey-text,351,2512405,0.0-19.0-3.6,74394,List1A,black,man,,,,,"{""Q0"":""Jane and Kate are shouting at each other.""}","<img src=""stim_listA/shout8.gif""</stim_listA>",are shouting at each other,
null,"<div style=""font-size:60px;"">+</div>",,html-keyboard-response,352,2512907,0.0-19.0-0.7,74394,List1A,black,man,,,,null,,,,
null,"<img src=""stim_listA/shout3.gif""</stim_listA>",,html-keyboard-response,353,2514909,0.0-19.0-1.7,74394,List1A,black,man,,,,null,,,,
null,is shouting at,,html-keyboard-response,354,2516911,0.0-19.0-2.7,74394,List1A,black,man,,,,null,,,,
6235,,,survey-text,355,2523147,0.0-19.0-3.7,74394,List1A,black,man,,,,,"{""Q0"":""Luke is shouting at Ruth.""}","<img src=""stim_listA/shout3.gif""</stim_listA>",is shouting at,
null,"<div style=""font-size:60px;"">+</div>",,html-keyboard-response,356,2523650,0.0-19.0-0.8,74394,List1A,black,man,,,,null,,,,
null,"<img src=""stim_listA/talk4.gif""</stim_listA>",,html-keyboard-response,357,2525651,0.0-19.0-1.8,74394,List1A,black,man,,,,null,,,,
null,are talking to each other,,html-keyboard-response,358,2527653,0.0-19.0-2.8,74394,List1A,black,man,,,,null,,,,
10873,,,survey-text,359,2538527,0.0-19.0-3.8,74394,List1A,black,man,,,,,"{""Q0"":""Dave and Ruth are talking to each other.""}","<img src=""stim_listA/talk4.gif""</stim_listA>",are talking to each other,
null,"<div style=""font-size:60px;"">+</div>",,html-keyboard-response,360,2539029,0.0-19.0-0.9,74394,List1A,black,man,,,,null,,,,
null,"<img src=""stim_listA/talk7.gif""</stim_listA>",,html-keyboard-response,361,2541032,0.0-19.0-1.9,74394,List1A,black,man,,,,null,,,,
null,is talking to,,html-keyboard-response,362,2543033,0.0-19.0-2.9,74394,List1A,black,man,,,,null,,,,
21061,,,survey-text,363,2564095,0.0-19.0-3.9,74394,List1A,black,man,,,,,"{""Q0"":""Jane is talking to Beth.""}","<img src=""stim_listA/talk7.gif""</stim_listA>",is talking to,
null,"<div style=""font-size:60px;"">+</div>",,html-keyboard-response,364,2564597,0.0-19.0-0.10,74394,List1A,black,man,,,,null,,,,
null,"<img src=""stim_listA/talk5.gif""</stim_listA>",,html-keyboard-response,365,2566599,0.0-19.0-1.10,74394,List1A,black,man,,,,null,,,,
null,is talking to,,html-keyboard-response,366,2568599,0.0-19.0-2.10,74394,List1A,black,man,,,,null,,,,
5989,,,survey-text,367,2574589,0.0-19.0-3.10,74394,List1A,black,man,,,,,"{""Q0"":""Fred is talking to Dave.""}","<img src=""stim_listA/talk5.gif""</stim_listA>",is talking to,
null,"<div style=""font-size:60px;"">+</div>",,html-keyboard-response,368,2575090,0.0-19.0-0.11,74394,List1A,black,man,,,,null,,,,
null,"<img src=""stim_listA/meet7.gif""</stim_listA>",,html-keyboard-response,369,2577092,0.0-19.0-1.11,74394,List1A,black,man,,,,null,,,,
null,is meeting,,html-keyboard-response,370,2579093,0.0-19.0-2.11,74394,List1A,black,man,,,,null,,,,
5121,,,survey-text,371,2584215,0.0-19.0-3.11,74394,List1A,black,man,,,,,"{""Q0"":""Kate is meeting Jane.""}","<img src=""stim_listA/meet7.gif""</stim_listA>",is meeting,
null,"<div style=""font-size:60px;"">+</div>",,html-keyboard-response,372,2584716,0.0-19.0-0.12,74394,List1A,black,man,,,,null,,,,
null,"<img src=""stim_listA/argue3.gif""</stim_listA>",,html-keyboard-response,373,2586718,0.0-19.0-1.12,74394,List1A,black,man,,,,null,,,,
null,is arguing with,,html-keyboard-response,374,2588721,0.0-19.0-2.12,74394,List1A,black,man,,,,null,,,,
8994,,,survey-text,375,2597715,0.0-19.0-3.12,74394,List1A,black,man,,,,,"{""Q0"":""Ruth is arguing with Dave.""}","<img src=""stim_listA/argue3.gif""</stim_listA>",is arguing with,
null,"<div style=""font-size:60px;"">+</div>",,html-keyboard-response,376,2598217,0.0-19.0-0.13,74394,List1A,black,man,,,,null,,,,
null,"<img src=""stim_listA/marry3.gif""</stim_listA>",,html-keyboard-response,377,2600220,0.0-19.0-1.13,74394,List1A,black,man,,,,null,,,,
null,is marrying,,html-keyboard-response,378,2602221,0.0-19.0-2.13,74394,List1A,black,man,,,,null,,,,
12387,,,survey-text,379,2614609,0.0-19.0-3.13,74394,List1A,black,man,,,,,"{""Q0"":""Dave is marrying Ruth""}","<img src=""stim_listA/marry3.gif""</stim_listA>",is marrying,
null,"<div style=""font-size:60px;"">+</div>",,html-keyboard-response,380,2615112,0.0-19.0-0.14,74394,List1A,black,man,,,,null,,,,
null,"<img src=""stim_listA/kiss7.gif""</stim_listA>",,html-keyboard-response,381,2617114,0.0-19.0-1.14,74394,List1A,black,man,,,,null,,,,
null,is kissing,,html-keyboard-response,382,2619115,0.0-19.0-2.14,74394,List1A,black,man,,,,null,,,,
5145,,,survey-text,383,2624261,0.0-19.0-3.14,74394,List1A,black,man,,,,,"{""Q0"":""Ruth is kissing Beth.""}","<img src=""stim_listA/kiss7.gif""</stim_listA>",is kissing,
null,"<div style=""font-size:60px;"">+</div>",,html-keyboard-response,384,2624764,0.0-19.0-0.15,74394,List1A,black,man,,,,null,,,,
null,"<img src=""stim_listA/fight7.gif""</stim_listA>",,html-keyboard-response,385,2626766,0.0-19.0-1.15,74394,List1A,black,man,,,,null,,,,
null,is fighting,,html-keyboard-response,386,2628768,0.0-19.0-2.15,74394,List1A,black,man,,,,null,,,,
24865,,,survey-text,387,2653633,0.0-19.0-3.15,74394,List1A,black,man,,,,,"{""Q0"":""Jane is fighting Beth.""}","<img src=""stim_listA/fight7.gif""</stim_listA>",is fighting,
null,"<div style=""font-size:60px;"">+</div>",,html-keyboard-response,388,2654134,0.0-19.0-0.16,74394,List1A,black,man,,,,null,,,,
null,"<img src=""stim_listA/dance2.gif""</stim_listA>",,html-keyboard-response,389,2656136,0.0-19.0-1.16,74394,List1A,black,man,,,,null,,,,
null,are dancing with each other,,html-keyboard-response,390,2658138,0.0-19.0-2.16,74394,List1A,black,man,,,,null,,,,
9114,,,survey-text,391,2667253,0.0-19.0-3.16,74394,List1A,black,man,,,,,"{""Q0"":""Mike and Beth are dancing together.""}","<img src=""stim_listA/dance2.gif""</stim_listA>",are dancing with each other,
null,"<div style=""font-size:60px;"">+</div>",,html-keyboard-response,392,2667754,0.0-19.0-0.17,74394,List1A,black,man,,,,null,,,,
null,"<img src=""stim_listA/touch2.gif""</stim_listA>",,html-keyboard-response,393,2669756,0.0-19.0-1.17,74394,List1A,black,man,,,,null,,,,
null,are touching each other,,html-keyboard-response,394,2671757,0.0-19.0-2.17,74394,List1A,black,man,,,,null,,,,
11585,,,survey-text,395,2683343,0.0-19.0-3.17,74394,List1A,black,man,,,,,"{""Q0"":""Fred and Beth are touching each other.""}","<img src=""stim_listA/touch2.gif""</stim_listA>",are touching each other,
null,"<div style=""font-size:60px;"">+</div>",,html-keyboard-response,396,2683845,0.0-19.0-0.18,74394,List1A,black,man,,,,null,,,,
null,"<img src=""stim_listA/kiss4.gif""</stim_listA>",,html-keyboard-response,397,2685847,0.0-19.0-1.18,74394,List1A,black,man,,,,null,,,,
null,are kissing each other,,html-keyboard-response,398,2687850,0.0-19.0-2.18,74394,List1A,black,man,,,,null,,,,
30564,,,survey-text,399,2718415,0.0-19.0-3.18,74394,List1A,black,man,,,,,"{""Q0"":""Dave and Jane are kissing each other.""}","<img src=""stim_listA/kiss4.gif""</stim_listA>",are kissing each other,
null,"<div style=""font-size:60px;"">+</div>",,html-keyboard-response,400,2718916,0.0-19.0-0.19,74394,List1A,black,man,,,,null,,,,
null,"<img src=""stim_listA/argue7.gif""</stim_listA>",,html-keyboard-response,401,2720918,0.0-19.0-1.19,74394,List1A,black,man,,,,null,,,,
null,is arguing with,,html-keyboard-response,402,2722919,0.0-19.0-2.19,74394,List1A,black,man,,,,null,,,,
4991,,,survey-text,403,2727911,0.0-19.0-3.19,74394,List1A,black,man,,,,,"{""Q0"":""Ruth is arguing with Kate.""}","<img src=""stim_listA/argue7.gif""</stim_listA>",is arguing with,
2705,<p>Thank you for completing that task.</p><p>The final part of this session is a short questionnaire.</p><p>Press Continue.</p>,0,html-button-response,404,2730617,0.0-20.0,74394,List1A,black,man,,,,,,,,
17603,,,survey-text,405,2749224,0.0-21.0,74394,List1A,black,man,,,,,"{""Q0"":""22"",""Q1"":""English"",""Q2"":""English"",""Q3"":""UK"",""Q4"":""Black"",""Q5"":""Male""}",,,demographics
49732,,,survey-likert,406,2798959,0.0-22.0,74394,List1A,black,man,,,,,"{""Q0"":3,""Q1"":3,""Q2"":3,""Q3"":3,""Q4"":3,""Q5"":3,""Q6"":3,""Q7"":0,""Q8"":0,""Q9"":0,""Q10"":0,""Q11"":0,""Q12"":0,""Q13"":0}",,,likert_race
64440,,,survey-likert,407,2863403,0.0-23.0,74394,List1A,black,man,,,,,"{""Q0"":0,""Q1"":0,""Q2"":0,""Q3"":3,""Q4"":3,""Q5"":3,""Q6"":3,""Q7"":0,""Q8"":0,""Q9"":0,""Q10"":0,""Q11"":0,""Q12"":0,""Q13"":0}",,,likert_gender
6761,,,survey-text,408,2870168,0.0-24.0,74394,List1A,black,man,,,,,"{""Q0"":""ccc""}",,,worker_id
22001,,,external-html,409,2892200,0.0-25.0,74394,List1A,black,man,debrief.html,,,,,,,
