rt,stimulus,button_pressed,trial_type,trial_index,time_elapsed,internal_node_id,subject,list,ppt_race,ppt_gender,url,first_guess,correct,key_press,responses,image_type,phrase_type,test_part
2040,Welcome to the experiment. Press Continue to begin.,0,html-button-response,0,2044,0.0-0.0,7545,List1A,white,man,,,,,,,,
33953,,,external-html,1,37060,0.0-1.0,7545,List1A,white,man,consent.html,,,,,,,
10151,"<p>On the next page, you will see portraits of 8 people and their names.</p><p>Your first task is to take a few minutes to memorise the names of these people.</p><p>You will have to recall their names during the rest of the experiment, so it is</p><p>essential that you try to memorise these people and their names as best as you can.</p><br><p><strong>You will then be tested on your memory of these names and portraits.</strong></p><br><p>The experiment will start after you have completed this memory test.</p><br><p>Ready?</p>",0,html-button-response,2,47213,0.0-2.0,7545,List1A,white,man,,,,,,,,
83702,"<img src='img/portrait_matrix_list1.JPG' style='width:900px;height:500px;''></img><p>If you have memorised all the portraits and names and are ready to start, press Continue.</p><p><strong>Please note: Your memory of these faces will be tested 4 times during this experiment.</strong></p>",0,html-button-response,3,131919,0.0-3.0-0.0,7545,List1A,white,man,,,,,,,,
7826,"<img src=""portrait/WW2.jpg""style=""width:400px;height:400px;""></img>",3,html-button-response,4,140748,0.0-3.0-1.0,7545,List1A,white,man,,TRUE,3,,,,,
null,CORRECT,,html-keyboard-response,5,142253,0.0-3.0-2.0-0.0,7545,List1A,white,man,,,,null,,,,
8609,"<img src=""portrait/BM2.jpg""style=""width:400px;height:400px;""></img>",5,html-button-response,6,150864,0.0-3.0-4.0,7545,List1A,white,man,,TRUE,5,,,,,
null,CORRECT,,html-keyboard-response,7,152368,0.0-3.0-5.0-0.0,7545,List1A,white,man,,,,null,,,,
4756,"<img src=""portrait/WM2.jpg""style=""width:400px;height:400px;""></img>",7,html-button-response,8,157125,0.0-3.0-7.0,7545,List1A,white,man,,TRUE,7,,,,,
null,CORRECT,,html-keyboard-response,9,158628,0.0-3.0-8.0-0.0,7545,List1A,white,man,,,,null,,,,
3392,"<img src=""portrait/WM1.jpg""style=""width:400px;height:400px;""></img>",6,html-button-response,10,162022,0.0-3.0-10.0,7545,List1A,white,man,,TRUE,6,,,,,
null,CORRECT,,html-keyboard-response,11,163524,0.0-3.0-11.0-0.0,7545,List1A,white,man,,,,null,,,,
2580,"<img src=""portrait/BM1.jpg""style=""width:400px;height:400px;""></img>",4,html-button-response,12,166107,0.0-3.0-13.0,7545,List1A,white,man,,TRUE,4,,,,,
null,CORRECT,,html-keyboard-response,13,167610,0.0-3.0-14.0-0.0,7545,List1A,white,man,,,,null,,,,
7120,"<img src=""portrait/WW1.jpg""style=""width:400px;height:400px;""></img>",1,html-button-response,14,174732,0.0-3.0-16.0,7545,List1A,white,man,,TRUE,1,,,,,
null,CORRECT,,html-keyboard-response,15,176234,0.0-3.0-17.0-0.0,7545,List1A,white,man,,,,null,,,,
10569,"<img src=""portrait/BW2.jpg""style=""width:400px;height:400px;""></img>",2,html-button-response,16,186805,0.0-3.0-19.0,7545,List1A,white,man,,TRUE,2,,,,,
null,CORRECT,,html-keyboard-response,17,188309,0.0-3.0-20.0-0.0,7545,List1A,white,man,,,,null,,,,
5135,"<img src=""portrait/BW1.jpg""style=""width:400px;height:400px;""></img>",0,html-button-response,18,193445,0.0-3.0-22.0,7545,List1A,white,man,,TRUE,0,,,,,
null,CORRECT,,html-keyboard-response,19,194949,0.0-3.0-23.0-0.0,7545,List1A,white,man,,,,null,,,,
2095,<p>You got 8 out of 8 right first time. Press Continue.</p>,0,html-button-response,20,197045,0.0-3.0-25.0,7545,List1A,white,man,,,,,,,,
25950,"<p>In this experiment, you will view photographs of the people from the memory game interacting.</p><p>By using the <strong>exact</strong> phrase given <i>after</i> the photograph appears and recalling the correct names of the people in the photographs, form a sentence describing the interaction. You do not need to capitalise names.</p><p>Type your answer in the space provided. Please complete every sentence before moving onto the next trial.</p><p>You will only have a few seconds to memorise each given photograph and phrase before you can respond, so try your best to focus.</p><p>An example is given below. Press 'Continue' when you are ready.</p><img src='img/speaking_example_v2.jpg' style='width:800px;height:460px;''></img>",0,html-button-response,21,223997,0.0-4.0,7545,List1A,white,man,,,,,,,,
2508,"<p>Before the experiment starts, you will watch two example trials. Press 'Continue'.</p>",0,html-button-response,22,227508,0.0-5.0,7545,List1A,white,man,,,,,,,,
null,<img src='img/speaking_WW.gif'></img>,,html-keyboard-response,23,230510,0.0-6.0,7545,List1A,white,man,,,,null,,,,
null,<p>is speaking to</p>,,html-keyboard-response,24,232511,0.0-7.0,7545,List1A,white,man,,,,null,,,,
6877,<p><b>Answer:</b> kate is speaking to beth</p>,0,html-button-response,25,239389,0.0-8.0,7545,List1A,white,man,,,,,,,,
null,<img src='img/pointing_BM.gif'></img>,,html-keyboard-response,26,242392,0.0-9.0,7545,List1A,white,man,,,,null,,,,
null,<p>are pointing at each other</p>,,html-keyboard-response,27,244392,0.0-10.0,7545,List1A,white,man,,,,null,,,,
4905,<p><b>Answer:</b> luke and dave are pointing at each other</p>,0,html-button-response,28,249299,0.0-11.0,7545,List1A,white,man,,,,,,,,
9899,"<p>Ready to start the experiment?</p><br><p><strong>Remember to describe the picture using a full sentence,</strong></p><p><strong>that combines the names of the people with the given phrase.</strong></p><p><strong>If you do not do this correctly you will not be paid.</strong></p><p><strong> You do not need to capitalise names or use punctuation.</strong></p><br><p>Press 'Continue' to begin.</p>",0,html-button-response,29,260200,0.0-12.0,7545,List1A,white,man,,,,,,,,
null,"<div style=""font-size:60px;"">+</div>",,html-keyboard-response,30,261703,0.0-13.0-0.0,7545,List1A,white,man,,,,null,,,,
null,"<img src=""stim_listA/argue3.gif""</stim_listA>",,html-keyboard-response,31,263704,0.0-13.0-1.0,7545,List1A,white,man,,,,null,,,,
null,is arguing with,,html-keyboard-response,32,265705,0.0-13.0-2.0,7545,List1A,white,man,,,,null,,,,
30736,,,survey-text,33,296442,0.0-13.0-3.0,7545,List1A,white,man,,,,,"{""Q0"":""dave is arguing with ruth""}","<img src=""stim_listA/argue3.gif""</stim_listA>",is arguing with,
null,"<div style=""font-size:60px;"">+</div>",,html-keyboard-response,34,296945,0.0-13.0-0.1,7545,List1A,white,man,,,,null,,,,
null,"<img src=""stim_listA/hug4.gif""</stim_listA>",,html-keyboard-response,35,298948,0.0-13.0-1.1,7545,List1A,white,man,,,,null,,,,
null,are hugging each other,,html-keyboard-response,36,300948,0.0-13.0-2.1,7545,List1A,white,man,,,,null,,,,
20099,,,survey-text,37,321048,0.0-13.0-3.1,7545,List1A,white,man,,,,,"{""Q0"":""dave and jane are hugging each other""}","<img src=""stim_listA/hug4.gif""</stim_listA>",are hugging each other,
null,"<div style=""font-size:60px;"">+</div>",,html-keyboard-response,38,321550,0.0-13.0-0.2,7545,List1A,white,man,,,,null,,,,
null,"<img src=""stim_listA/marry5.gif""</stim_listA>",,html-keyboard-response,39,323552,0.0-13.0-1.2,7545,List1A,white,man,,,,null,,,,
null,is marrying,,html-keyboard-response,40,325553,0.0-13.0-2.2,7545,List1A,white,man,,,,null,,,,
14601,,,survey-text,41,340156,0.0-13.0-3.2,7545,List1A,white,man,,,,,"{""Q0"":""mike is marrying luke""}","<img src=""stim_listA/marry5.gif""</stim_listA>",is marrying,
null,"<div style=""font-size:60px;"">+</div>",,html-keyboard-response,42,340660,0.0-13.0-0.3,7545,List1A,white,man,,,,null,,,,
null,"<img src=""stim_listA/meet4.gif""</stim_listA>",,html-keyboard-response,43,342661,0.0-13.0-1.3,7545,List1A,white,man,,,,null,,,,
null,are meeting each other,,html-keyboard-response,44,344662,0.0-13.0-2.3,7545,List1A,white,man,,,,null,,,,
13802,,,survey-text,45,358465,0.0-13.0-3.3,7545,List1A,white,man,,,,,"{""Q0"":""luke and ruth are meeting each other""}","<img src=""stim_listA/meet4.gif""</stim_listA>",are meeting each other,
null,"<div style=""font-size:60px;"">+</div>",,html-keyboard-response,46,358967,0.0-13.0-0.4,7545,List1A,white,man,,,,null,,,,
null,"<img src=""stim_listA/talk5.gif""</stim_listA>",,html-keyboard-response,47,360969,0.0-13.0-1.4,7545,List1A,white,man,,,,null,,,,
null,is talking to,,html-keyboard-response,48,362971,0.0-13.0-2.4,7545,List1A,white,man,,,,null,,,,
12413,,,survey-text,49,375385,0.0-13.0-3.4,7545,List1A,white,man,,,,,"{""Q0"":""dave is talking to fred""}","<img src=""stim_listA/talk5.gif""</stim_listA>",is talking to,
null,"<div style=""font-size:60px;"">+</div>",,html-keyboard-response,50,375887,0.0-13.0-0.5,7545,List1A,white,man,,,,null,,,,
null,"<img src=""stim_listA/talk3.gif""</stim_listA>",,html-keyboard-response,51,377888,0.0-13.0-1.5,7545,List1A,white,man,,,,null,,,,
null,is talking to,,html-keyboard-response,52,379889,0.0-13.0-2.5,7545,List1A,white,man,,,,null,,,,
11577,,,survey-text,53,391467,0.0-13.0-3.5,7545,List1A,white,man,,,,,"{""Q0"":""luke is talking to jane""}","<img src=""stim_listA/talk3.gif""</stim_listA>",is talking to,
null,"<div style=""font-size:60px;"">+</div>",,html-keyboard-response,54,391968,0.0-13.0-0.6,7545,List1A,white,man,,,,null,,,,
null,"<img src=""stim_listA/dance7.gif""</stim_listA>",,html-keyboard-response,55,393969,0.0-13.0-1.6,7545,List1A,white,man,,,,null,,,,
null,is dancing with,,html-keyboard-response,56,395970,0.0-13.0-2.6,7545,List1A,white,man,,,,null,,,,
11259,,,survey-text,57,407230,0.0-13.0-3.6,7545,List1A,white,man,,,,,"{""Q0"":""jane is dancing with beth""}","<img src=""stim_listA/dance7.gif""</stim_listA>",is dancing with,
null,"<div style=""font-size:60px;"">+</div>",,html-keyboard-response,58,407731,0.0-13.0-0.7,7545,List1A,white,man,,,,null,,,,
null,"<img src=""stim_listA/talk1.gif""</stim_listA>",,html-keyboard-response,59,409732,0.0-13.0-1.7,7545,List1A,white,man,,,,null,,,,
null,is talking to,,html-keyboard-response,60,411734,0.0-13.0-2.7,7545,List1A,white,man,,,,null,,,,
10239,,,survey-text,61,421975,0.0-13.0-3.7,7545,List1A,white,man,,,,,"{""Q0"":""kate is talking to fred""}","<img src=""stim_listA/talk1.gif""</stim_listA>",is talking to,
null,"<div style=""font-size:60px;"">+</div>",,html-keyboard-response,62,422476,0.0-13.0-0.8,7545,List1A,white,man,,,,null,,,,
null,"<img src=""stim_listA/marry6.gif""</stim_listA>",,html-keyboard-response,63,424478,0.0-13.0-1.8,7545,List1A,white,man,,,,null,,,,
null,are marrying each other,,html-keyboard-response,64,426479,0.0-13.0-2.8,7545,List1A,white,man,,,,null,,,,
13142,,,survey-text,65,439621,0.0-13.0-3.8,7545,List1A,white,man,,,,,"{""Q0"":""fred and dave are marrying each other""}","<img src=""stim_listA/marry6.gif""</stim_listA>",are marrying each other,
null,"<div style=""font-size:60px;"">+</div>",,html-keyboard-response,66,440122,0.0-13.0-0.9,7545,List1A,white,man,,,,null,,,,
null,"<img src=""stim_listA/marry3.gif""</stim_listA>",,html-keyboard-response,67,442125,0.0-13.0-1.9,7545,List1A,white,man,,,,null,,,,
null,is marrying,,html-keyboard-response,68,444128,0.0-13.0-2.9,7545,List1A,white,man,,,,null,,,,
11027,,,survey-text,69,455155,0.0-13.0-3.9,7545,List1A,white,man,,,,,"{""Q0"":""dave is marrying ruth""}","<img src=""stim_listA/marry3.gif""</stim_listA>",is marrying,
null,"<div style=""font-size:60px;"">+</div>",,html-keyboard-response,70,455657,0.0-13.0-0.10,7545,List1A,white,man,,,,null,,,,
null,"<img src=""stim_listA/talk2.gif""</stim_listA>",,html-keyboard-response,71,457657,0.0-13.0-1.10,7545,List1A,white,man,,,,null,,,,
null,are talking to each other,,html-keyboard-response,72,459659,0.0-13.0-2.10,7545,List1A,white,man,,,,null,,,,
16385,,,survey-text,73,476045,0.0-13.0-3.10,7545,List1A,white,man,,,,,"{""Q0"":""mike and beth are talking to each other""}","<img src=""stim_listA/talk2.gif""</stim_listA>",are talking to each other,
null,"<div style=""font-size:60px;"">+</div>",,html-keyboard-response,74,476546,0.0-13.0-0.11,7545,List1A,white,man,,,,null,,,,
null,"<img src=""stim_listA/shout6.gif""</stim_listA>",,html-keyboard-response,75,478550,0.0-13.0-1.11,7545,List1A,white,man,,,,null,,,,
null,are shouting at each other,,html-keyboard-response,76,480552,0.0-13.0-2.11,7545,List1A,white,man,,,,null,,,,
12807,,,survey-text,77,493360,0.0-13.0-3.11,7545,List1A,white,man,,,,,"{""Q0"":""dave and mike are shoutingat each other""}","<img src=""stim_listA/shout6.gif""</stim_listA>",are shouting at each other,
null,"<div style=""font-size:60px;"">+</div>",,html-keyboard-response,78,493861,0.0-13.0-0.12,7545,List1A,white,man,,,,null,,,,
null,"<img src=""stim_listA/touch1.gif""</stim_listA>",,html-keyboard-response,79,495861,0.0-13.0-1.12,7545,List1A,white,man,,,,null,,,,
null,is touching,,html-keyboard-response,80,497864,0.0-13.0-2.12,7545,List1A,white,man,,,,null,,,,
8805,,,survey-text,81,506669,0.0-13.0-3.12,7545,List1A,white,man,,,,,"{""Q0"":""kate is touching mike""}","<img src=""stim_listA/touch1.gif""</stim_listA>",is touching,
null,"<div style=""font-size:60px;"">+</div>",,html-keyboard-response,82,507169,0.0-13.0-0.13,7545,List1A,white,man,,,,null,,,,
null,"<img src=""stim_listA/fight5.gif""</stim_listA>",,html-keyboard-response,83,509172,0.0-13.0-1.13,7545,List1A,white,man,,,,null,,,,
null,is fighting,,html-keyboard-response,84,511173,0.0-13.0-2.13,7545,List1A,white,man,,,,null,,,,
8954,,,survey-text,85,520128,0.0-13.0-3.13,7545,List1A,white,man,,,,,"{""Q0"":""mike is fighting dave""}","<img src=""stim_listA/fight5.gif""</stim_listA>",is fighting,
null,"<div style=""font-size:60px;"">+</div>",,html-keyboard-response,86,520629,0.0-13.0-0.14,7545,List1A,white,man,,,,null,,,,
null,"<img src=""stim_listA/touch5.gif""</stim_listA>",,html-keyboard-response,87,522630,0.0-13.0-1.14,7545,List1A,white,man,,,,null,,,,
null,is touching,,html-keyboard-response,88,524631,0.0-13.0-2.14,7545,List1A,white,man,,,,null,,,,
8919,,,survey-text,89,533550,0.0-13.0-3.14,7545,List1A,white,man,,,,,"{""Q0"":""mike is touching dave""}","<img src=""stim_listA/touch5.gif""</stim_listA>",is touching,
null,"<div style=""font-size:60px;"">+</div>",,html-keyboard-response,90,534051,0.0-13.0-0.15,7545,List1A,white,man,,,,null,,,,
null,"<img src=""stim_listA/kiss8.gif""</stim_listA>",,html-keyboard-response,91,536052,0.0-13.0-1.15,7545,List1A,white,man,,,,null,,,,
null,are kissing each other,,html-keyboard-response,92,538054,0.0-13.0-2.15,7545,List1A,white,man,,,,null,,,,
11386,,,survey-text,93,549441,0.0-13.0-3.15,7545,List1A,white,man,,,,,"{""Q0"":""kate is kissing jane""}","<img src=""stim_listA/kiss8.gif""</stim_listA>",are kissing each other,
null,"<div style=""font-size:60px;"">+</div>",,html-keyboard-response,94,549943,0.0-13.0-0.16,7545,List1A,white,man,,,,null,,,,
null,"<img src=""stim_listA/fight1.gif""</stim_listA>",,html-keyboard-response,95,551946,0.0-13.0-1.16,7545,List1A,white,man,,,,null,,,,
null,is fighting,,html-keyboard-response,96,553947,0.0-13.0-2.16,7545,List1A,white,man,,,,null,,,,
8892,,,survey-text,97,562841,0.0-13.0-3.16,7545,List1A,white,man,,,,,"{""Q0"":""mike is fighting kate""}","<img src=""stim_listA/fight1.gif""</stim_listA>",is fighting,
null,"<div style=""font-size:60px;"">+</div>",,html-keyboard-response,98,563344,0.0-13.0-0.17,7545,List1A,white,man,,,,null,,,,
null,"<img src=""stim_listA/touch8.gif""</stim_listA>",,html-keyboard-response,99,565345,0.0-13.0-1.17,7545,List1A,white,man,,,,null,,,,
null,are touching each other,,html-keyboard-response,100,567346,0.0-13.0-2.17,7545,List1A,white,man,,,,null,,,,
14945,,,survey-text,101,582292,0.0-13.0-3.17,7545,List1A,white,man,,,,,"{""Q0"":""beth and ruth are touching each other""}","<img src=""stim_listA/touch8.gif""</stim_listA>",are touching each other,
null,"<div style=""font-size:60px;"">+</div>",,html-keyboard-response,102,582794,0.0-13.0-0.18,7545,List1A,white,man,,,,null,,,,
null,"<img src=""stim_listA/shout5.gif""</stim_listA>",,html-keyboard-response,103,584796,0.0-13.0-1.18,7545,List1A,white,man,,,,null,,,,
null,is shouting at,,html-keyboard-response,104,586798,0.0-13.0-2.18,7545,List1A,white,man,,,,null,,,,
12351,,,survey-text,105,599150,0.0-13.0-3.18,7545,List1A,white,man,,,,,"{""Q0"":""fred is shouting at luke""}","<img src=""stim_listA/shout5.gif""</stim_listA>",is shouting at,
null,"<div style=""font-size:60px;"">+</div>",,html-keyboard-response,106,599653,0.0-13.0-0.19,7545,List1A,white,man,,,,null,,,,
null,"<img src=""stim_listA/fight4.gif""</stim_listA>",,html-keyboard-response,107,601656,0.0-13.0-1.19,7545,List1A,white,man,,,,null,,,,
null,are fighting each other,,html-keyboard-response,108,603656,0.0-13.0-2.19,7545,List1A,white,man,,,,null,,,,
12950,,,survey-text,109,616607,0.0-13.0-3.19,7545,List1A,white,man,,,,,"{""Q0"":""luke and ruth are fighting each other""}","<img src=""stim_listA/fight4.gif""</stim_listA>",are fighting each other,
15008,"<img src='img/portrait_matrix_list1.JPG' style='width:900px;height:500px;''></img><p>If you have memorised all the portraits and names and are ready to start, press Continue.</p><p><strong>Please note: Your memory of these faces will be tested 4 times during this experiment.</strong></p>",0,html-button-response,110,631615,0.0-14.0-0.0,7545,List1A,white,man,,,,,,,,
5116,"<img src=""portrait/WW2.jpg""style=""width:400px;height:400px;""></img>",3,html-button-response,111,637734,0.0-14.0-1.0,7545,List1A,white,man,,TRUE,3,,,,,
null,CORRECT,,html-keyboard-response,112,639237,0.0-14.0-2.0-0.0,7545,List1A,white,man,,,,null,,,,
1686,"<img src=""portrait/BM1.jpg""style=""width:400px;height:400px;""></img>",4,html-button-response,113,640925,0.0-14.0-4.0,7545,List1A,white,man,,TRUE,4,,,,,
null,CORRECT,,html-keyboard-response,114,642427,0.0-14.0-5.0-0.0,7545,List1A,white,man,,,,null,,,,
2517,"<img src=""portrait/BW2.jpg""style=""width:400px;height:400px;""></img>",2,html-button-response,115,644945,0.0-14.0-7.0,7545,List1A,white,man,,TRUE,2,,,,,
null,CORRECT,,html-keyboard-response,116,646449,0.0-14.0-8.0-0.0,7545,List1A,white,man,,,,null,,,,
2133,"<img src=""portrait/WM2.jpg""style=""width:400px;height:400px;""></img>",7,html-button-response,117,648582,0.0-14.0-10.0,7545,List1A,white,man,,TRUE,7,,,,,
null,CORRECT,,html-keyboard-response,118,650085,0.0-14.0-11.0-0.0,7545,List1A,white,man,,,,null,,,,
1511,"<img src=""portrait/WM1.jpg""style=""width:400px;height:400px;""></img>",6,html-button-response,119,651596,0.0-14.0-13.0,7545,List1A,white,man,,TRUE,6,,,,,
null,CORRECT,,html-keyboard-response,120,653100,0.0-14.0-14.0-0.0,7545,List1A,white,man,,,,null,,,,
1700,"<img src=""portrait/BW1.jpg""style=""width:400px;height:400px;""></img>",0,html-button-response,121,654801,0.0-14.0-16.0,7545,List1A,white,man,,TRUE,0,,,,,
null,CORRECT,,html-keyboard-response,122,656304,0.0-14.0-17.0-0.0,7545,List1A,white,man,,,,null,,,,
2413,"<img src=""portrait/WW1.jpg""style=""width:400px;height:400px;""></img>",1,html-button-response,123,658719,0.0-14.0-19.0,7545,List1A,white,man,,TRUE,1,,,,,
null,CORRECT,,html-keyboard-response,124,660221,0.0-14.0-20.0-0.0,7545,List1A,white,man,,,,null,,,,
1791,"<img src=""portrait/BM2.jpg""style=""width:400px;height:400px;""></img>",5,html-button-response,125,662014,0.0-14.0-22.0,7545,List1A,white,man,,TRUE,5,,,,,
null,CORRECT,,html-keyboard-response,126,663517,0.0-14.0-23.0-0.0,7545,List1A,white,man,,,,null,,,,
1561,<p>You got 8 out of 8 right first time. Press Continue.</p>,0,html-button-response,127,665078,0.0-14.0-25.0,7545,List1A,white,man,,,,,,,,
null,"<div style=""font-size:60px;"">+</div>",,html-keyboard-response,128,666581,0.0-15.0-0.0,7545,List1A,white,man,,,,null,,,,
null,"<img src=""stim_listA/dance4.gif""</stim_listA>",,html-keyboard-response,129,668583,0.0-15.0-1.0,7545,List1A,white,man,,,,null,,,,
null,are dancing with each other,,html-keyboard-response,130,670584,0.0-15.0-2.0,7545,List1A,white,man,,,,null,,,,
13827,,,survey-text,131,684412,0.0-15.0-3.0,7545,List1A,white,man,,,,,"{""Q0"":""dave and ruth are dancing with each other""}","<img src=""stim_listA/dance4.gif""</stim_listA>",are dancing with each other,
null,"<div style=""font-size:60px;"">+</div>",,html-keyboard-response,132,684913,0.0-15.0-0.1,7545,List1A,white,man,,,,null,,,,
null,"<img src=""stim_listA/shout8.gif""</stim_listA>",,html-keyboard-response,133,686914,0.0-15.0-1.1,7545,List1A,white,man,,,,null,,,,
null,are shouting at each other,,html-keyboard-response,134,688914,0.0-15.0-2.1,7545,List1A,white,man,,,,null,,,,
14477,,,survey-text,135,703392,0.0-15.0-3.1,7545,List1A,white,man,,,,,"{""Q0"":""jane and kate are shouting at each other""}","<img src=""stim_listA/shout8.gif""</stim_listA>",are shouting at each other,
null,"<div style=""font-size:60px;"">+</div>",,html-keyboard-response,136,703892,0.0-15.0-0.2,7545,List1A,white,man,,,,null,,,,
null,"<img src=""stim_listA/touch3.gif""</stim_listA>",,html-keyboard-response,137,705893,0.0-15.0-1.2,7545,List1A,white,man,,,,null,,,,
null,is touching,,html-keyboard-response,138,707896,0.0-15.0-2.2,7545,List1A,white,man,,,,null,,,,
13217,,,survey-text,139,721113,0.0-15.0-3.2,7545,List1A,white,man,,,,,"{""Q0"":""jane is touching dave""}","<img src=""stim_listA/touch3.gif""</stim_listA>",is touching,
null,"<div style=""font-size:60px;"">+</div>",,html-keyboard-response,140,721616,0.0-15.0-0.3,7545,List1A,white,man,,,,null,,,,
null,"<img src=""stim_listA/marry2.gif""</stim_listA>",,html-keyboard-response,141,723617,0.0-15.0-1.3,7545,List1A,white,man,,,,null,,,,
null,are marrying each other,,html-keyboard-response,142,725618,0.0-15.0-2.3,7545,List1A,white,man,,,,null,,,,
12123,,,survey-text,143,737742,0.0-15.0-3.3,7545,List1A,white,man,,,,,"{""Q0"":""mike and kate are marrying each other""}","<img src=""stim_listA/marry2.gif""</stim_listA>",are marrying each other,
null,"<div style=""font-size:60px;"">+</div>",,html-keyboard-response,144,738243,0.0-15.0-0.4,7545,List1A,white,man,,,,null,,,,
null,"<img src=""stim_listA/dance1.gif""</stim_listA>",,html-keyboard-response,145,740245,0.0-15.0-1.4,7545,List1A,white,man,,,,null,,,,
null,is dancing with,,html-keyboard-response,146,742246,0.0-15.0-2.4,7545,List1A,white,man,,,,null,,,,
8586,,,survey-text,147,750832,0.0-15.0-3.4,7545,List1A,white,man,,,,,"{""Q0"":""mike is dancing with kate""}","<img src=""stim_listA/dance1.gif""</stim_listA>",is dancing with,
null,"<div style=""font-size:60px;"">+</div>",,html-keyboard-response,148,751334,0.0-15.0-0.5,7545,List1A,white,man,,,,null,,,,
null,"<img src=""stim_listA/marry1.gif""</stim_listA>",,html-keyboard-response,149,753335,0.0-15.0-1.5,7545,List1A,white,man,,,,null,,,,
null,is marrying,,html-keyboard-response,150,755336,0.0-15.0-2.5,7545,List1A,white,man,,,,null,,,,
12327,,,survey-text,151,767665,0.0-15.0-3.5,7545,List1A,white,man,,,,,"{""Q0"":""mike is marrying beth""}","<img src=""stim_listA/marry1.gif""</stim_listA>",is marrying,
null,"<div style=""font-size:60px;"">+</div>",,html-keyboard-response,152,768167,0.0-15.0-0.6,7545,List1A,white,man,,,,null,,,,
null,"<img src=""stim_listA/touch6.gif""</stim_listA>",,html-keyboard-response,153,770169,0.0-15.0-1.6,7545,List1A,white,man,,,,null,,,,
null,are touching each other,,html-keyboard-response,154,772170,0.0-15.0-2.6,7545,List1A,white,man,,,,null,,,,
12352,,,survey-text,155,784522,0.0-15.0-3.6,7545,List1A,white,man,,,,,"{""Q0"":""fred and luke are touching each other""}","<img src=""stim_listA/touch6.gif""</stim_listA>",are touching each other,
null,"<div style=""font-size:60px;"">+</div>",,html-keyboard-response,156,785024,0.0-15.0-0.7,7545,List1A,white,man,,,,null,,,,
null,"<img src=""stim_listA/hug6.gif""</stim_listA>",,html-keyboard-response,157,787025,0.0-15.0-1.7,7545,List1A,white,man,,,,null,,,,
null,are hugging each other,,html-keyboard-response,158,789026,0.0-15.0-2.7,7545,List1A,white,man,,,,null,,,,
14468,,,survey-text,159,803495,0.0-15.0-3.7,7545,List1A,white,man,,,,,"{""Q0"":""mike and dave are hugging each other""}","<img src=""stim_listA/hug6.gif""</stim_listA>",are hugging each other,
null,"<div style=""font-size:60px;"">+</div>",,html-keyboard-response,160,803995,0.0-15.0-0.8,7545,List1A,white,man,,,,null,,,,
null,"<img src=""stim_listA/kiss7.gif""</stim_listA>",,html-keyboard-response,161,805996,0.0-15.0-1.8,7545,List1A,white,man,,,,null,,,,
null,is kissing,,html-keyboard-response,162,807998,0.0-15.0-2.8,7545,List1A,white,man,,,,null,,,,
9449,,,survey-text,163,817448,0.0-15.0-3.8,7545,List1A,white,man,,,,,"{""Q0"":""ruth is kissing beth""}","<img src=""stim_listA/kiss7.gif""</stim_listA>",is kissing,
null,"<div style=""font-size:60px;"">+</div>",,html-keyboard-response,164,817950,0.0-15.0-0.9,7545,List1A,white,man,,,,null,,,,
null,"<img src=""stim_listA/fight3.gif""</stim_listA>",,html-keyboard-response,165,819951,0.0-15.0-1.9,7545,List1A,white,man,,,,null,,,,
null,is fighting,,html-keyboard-response,166,821953,0.0-15.0-2.9,7545,List1A,white,man,,,,null,,,,
7931,,,survey-text,167,829885,0.0-15.0-3.9,7545,List1A,white,man,,,,,"{""Q0"":""jane is fighting dave""}","<img src=""stim_listA/fight3.gif""</stim_listA>",is fighting,
null,"<div style=""font-size:60px;"">+</div>",,html-keyboard-response,168,830386,0.0-15.0-0.10,7545,List1A,white,man,,,,null,,,,
null,"<img src=""stim_listA/meet8.gif""</stim_listA>",,html-keyboard-response,169,832387,0.0-15.0-1.10,7545,List1A,white,man,,,,null,,,,
null,are meeting each other,,html-keyboard-response,170,834388,0.0-15.0-2.10,7545,List1A,white,man,,,,null,,,,
13483,,,survey-text,171,847872,0.0-15.0-3.10,7545,List1A,white,man,,,,,"{""Q0"":""ruth and beth are meeting each other""}","<img src=""stim_listA/meet8.gif""</stim_listA>",are meeting each other,
null,"<div style=""font-size:60px;"">+</div>",,html-keyboard-response,172,848376,0.0-15.0-0.11,7545,List1A,white,man,,,,null,,,,
null,"<img src=""stim_listA/fight7.gif""</stim_listA>",,html-keyboard-response,173,850379,0.0-15.0-1.11,7545,List1A,white,man,,,,null,,,,
null,is fighting,,html-keyboard-response,174,852380,0.0-15.0-2.11,7545,List1A,white,man,,,,null,,,,
8026,,,survey-text,175,860406,0.0-15.0-3.11,7545,List1A,white,man,,,,,"{""Q0"":""kate is fighting jane""}","<img src=""stim_listA/fight7.gif""</stim_listA>",is fighting,
null,"<div style=""font-size:60px;"">+</div>",,html-keyboard-response,176,860907,0.0-15.0-0.12,7545,List1A,white,man,,,,null,,,,
null,"<img src=""stim_listA/shout2.gif""</stim_listA>",,html-keyboard-response,177,862909,0.0-15.0-1.12,7545,List1A,white,man,,,,null,,,,
null,are shouting at each other,,html-keyboard-response,178,864910,0.0-15.0-2.12,7545,List1A,white,man,,,,null,,,,
12971,,,survey-text,179,877881,0.0-15.0-3.12,7545,List1A,white,man,,,,,"{""Q0"":""mike and kate are shouting at each other""}","<img src=""stim_listA/shout2.gif""</stim_listA>",are shouting at each other,
null,"<div style=""font-size:60px;"">+</div>",,html-keyboard-response,180,878383,0.0-15.0-0.13,7545,List1A,white,man,,,,null,,,,
null,"<img src=""stim_listA/dance5.gif""</stim_listA>",,html-keyboard-response,181,880384,0.0-15.0-1.13,7545,List1A,white,man,,,,null,,,,
null,is dancing with,,html-keyboard-response,182,882386,0.0-15.0-2.13,7545,List1A,white,man,,,,null,,,,
8078,,,survey-text,183,890464,0.0-15.0-3.13,7545,List1A,white,man,,,,,"{""Q0"":""fred is dancing with dave""}","<img src=""stim_listA/dance5.gif""</stim_listA>",is dancing with,
null,"<div style=""font-size:60px;"">+</div>",,html-keyboard-response,184,890966,0.0-15.0-0.14,7545,List1A,white,man,,,,null,,,,
null,"<img src=""stim_listA/marry8.gif""</stim_listA>",,html-keyboard-response,185,892968,0.0-15.0-1.14,7545,List1A,white,man,,,,null,,,,
null,are marrying each other,,html-keyboard-response,186,894968,0.0-15.0-2.14,7545,List1A,white,man,,,,null,,,,
12099,,,survey-text,187,907068,0.0-15.0-3.14,7545,List1A,white,man,,,,,"{""Q0"":""jane and beth are marrying each other""}","<img src=""stim_listA/marry8.gif""</stim_listA>",are marrying each other,
null,"<div style=""font-size:60px;"">+</div>",,html-keyboard-response,188,907569,0.0-15.0-0.15,7545,List1A,white,man,,,,null,,,,
null,"<img src=""stim_listA/shout4.gif""</stim_listA>",,html-keyboard-response,189,909572,0.0-15.0-1.15,7545,List1A,white,man,,,,null,,,,
null,are shouting at each other,,html-keyboard-response,190,911573,0.0-15.0-2.15,7545,List1A,white,man,,,,null,,,,
14356,,,survey-text,191,925930,0.0-15.0-3.15,7545,List1A,white,man,,,,,"{""Q0"":""dave and jane are shouting at each other""}","<img src=""stim_listA/shout4.gif""</stim_listA>",are shouting at each other,
null,"<div style=""font-size:60px;"">+</div>",,html-keyboard-response,192,926431,0.0-15.0-0.16,7545,List1A,white,man,,,,null,,,,
null,"<img src=""stim_listA/touch4.gif""</stim_listA>",,html-keyboard-response,193,928433,0.0-15.0-1.16,7545,List1A,white,man,,,,null,,,,
null,are touching each other,,html-keyboard-response,194,930435,0.0-15.0-2.16,7545,List1A,white,man,,,,null,,,,
11119,,,survey-text,195,941554,0.0-15.0-3.16,7545,List1A,white,man,,,,,"{""Q0"":""luke and ruth are touching each other""}","<img src=""stim_listA/touch4.gif""</stim_listA>",are touching each other,
null,"<div style=""font-size:60px;"">+</div>",,html-keyboard-response,196,942055,0.0-15.0-0.17,7545,List1A,white,man,,,,null,,,,
null,"<img src=""stim_listA/meet1.gif""</stim_listA>",,html-keyboard-response,197,944057,0.0-15.0-1.17,7545,List1A,white,man,,,,null,,,,
null,is meeting,,html-keyboard-response,198,946059,0.0-15.0-2.17,7545,List1A,white,man,,,,null,,,,
7973,,,survey-text,199,954033,0.0-15.0-3.17,7545,List1A,white,man,,,,,"{""Q0"":""mike is meeting kate""}","<img src=""stim_listA/meet1.gif""</stim_listA>",is meeting,
null,"<div style=""font-size:60px;"">+</div>",,html-keyboard-response,200,954534,0.0-15.0-0.18,7545,List1A,white,man,,,,null,,,,
null,"<img src=""stim_listA/fight6.gif""</stim_listA>",,html-keyboard-response,201,956536,0.0-15.0-1.18,7545,List1A,white,man,,,,null,,,,
null,are fighting each other,,html-keyboard-response,202,958538,0.0-15.0-2.18,7545,List1A,white,man,,,,null,,,,
13777,,,survey-text,203,972315,0.0-15.0-3.18,7545,List1A,white,man,,,,,"{""Q0"":""fred and luke are fighting each other""}","<img src=""stim_listA/fight6.gif""</stim_listA>",are fighting each other,
null,"<div style=""font-size:60px;"">+</div>",,html-keyboard-response,204,972817,0.0-15.0-0.19,7545,List1A,white,man,,,,null,,,,
null,"<img src=""stim_listA/shout1.gif""</stim_listA>",,html-keyboard-response,205,974819,0.0-15.0-1.19,7545,List1A,white,man,,,,null,,,,
null,is shouting at,,html-keyboard-response,206,976819,0.0-15.0-2.19,7545,List1A,white,man,,,,null,,,,
8664,,,survey-text,207,985484,0.0-15.0-3.19,7545,List1A,white,man,,,,,"{""Q0"":""fred is shouting at beth""}","<img src=""stim_listA/shout1.gif""</stim_listA>",is shouting at,
4629,"<img src='img/portrait_matrix_list1.JPG' style='width:900px;height:500px;''></img><p>If you have memorised all the portraits and names and are ready to start, press Continue.</p><p><strong>Please note: Your memory of these faces will be tested 4 times during this experiment.</strong></p>",0,html-button-response,208,990115,0.0-16.0-0.0,7545,List1A,white,man,,,,,,,,
2242,"<img src=""portrait/WM1.jpg""style=""width:400px;height:400px;""></img>",6,html-button-response,209,993359,0.0-16.0-1.0,7545,List1A,white,man,,TRUE,6,,,,,
null,CORRECT,,html-keyboard-response,210,994861,0.0-16.0-2.0-0.0,7545,List1A,white,man,,,,null,,,,
1675,"<img src=""portrait/BM1.jpg""style=""width:400px;height:400px;""></img>",4,html-button-response,211,996537,0.0-16.0-4.0,7545,List1A,white,man,,TRUE,4,,,,,
null,CORRECT,,html-keyboard-response,212,998041,0.0-16.0-5.0-0.0,7545,List1A,white,man,,,,null,,,,
2325,"<img src=""portrait/BW1.jpg""style=""width:400px;height:400px;""></img>",0,html-button-response,213,1000367,0.0-16.0-7.0,7545,List1A,white,man,,TRUE,0,,,,,
null,CORRECT,,html-keyboard-response,214,1001870,0.0-16.0-8.0-0.0,7545,List1A,white,man,,,,null,,,,
1331,"<img src=""portrait/BW2.jpg""style=""width:400px;height:400px;""></img>",2,html-button-response,215,1003203,0.0-16.0-10.0,7545,List1A,white,man,,TRUE,2,,,,,
null,CORRECT,,html-keyboard-response,216,1004706,0.0-16.0-11.0-0.0,7545,List1A,white,man,,,,null,,,,
2336,"<img src=""portrait/BM2.jpg""style=""width:400px;height:400px;""></img>",5,html-button-response,217,1007043,0.0-16.0-13.0,7545,List1A,white,man,,TRUE,5,,,,,
null,CORRECT,,html-keyboard-response,218,1008546,0.0-16.0-14.0-0.0,7545,List1A,white,man,,,,null,,,,
2937,"<img src=""portrait/WM2.jpg""style=""width:400px;height:400px;""></img>",7,html-button-response,219,1011484,0.0-16.0-16.0,7545,List1A,white,man,,TRUE,7,,,,,
null,CORRECT,,html-keyboard-response,220,1012986,0.0-16.0-17.0-0.0,7545,List1A,white,man,,,,null,,,,
2273,"<img src=""portrait/WW2.jpg""style=""width:400px;height:400px;""></img>",3,html-button-response,221,1015260,0.0-16.0-19.0,7545,List1A,white,man,,TRUE,3,,,,,
null,CORRECT,,html-keyboard-response,222,1016763,0.0-16.0-20.0-0.0,7545,List1A,white,man,,,,null,,,,
1983,"<img src=""portrait/WW1.jpg""style=""width:400px;height:400px;""></img>",1,html-button-response,223,1018746,0.0-16.0-22.0,7545,List1A,white,man,,TRUE,1,,,,,
null,CORRECT,,html-keyboard-response,224,1020248,0.0-16.0-23.0-0.0,7545,List1A,white,man,,,,null,,,,
3076,<p>You got 8 out of 8 right first time. Press Continue.</p>,0,html-button-response,225,1023324,0.0-16.0-25.0,7545,List1A,white,man,,,,,,,,
null,"<div style=""font-size:60px;"">+</div>",,html-keyboard-response,226,1024828,0.0-17.0-0.0,7545,List1A,white,man,,,,null,,,,
null,"<img src=""stim_listA/kiss6.gif""</stim_listA>",,html-keyboard-response,227,1026830,0.0-17.0-1.0,7545,List1A,white,man,,,,null,,,,
null,are kissing each other,,html-keyboard-response,228,1028830,0.0-17.0-2.0,7545,List1A,white,man,,,,null,,,,
14149,,,survey-text,229,1042980,0.0-17.0-3.0,7545,List1A,white,man,,,,,"{""Q0"":""mike and dave are kissing each other""}","<img src=""stim_listA/kiss6.gif""</stim_listA>",are kissing each other,
null,"<div style=""font-size:60px;"">+</div>",,html-keyboard-response,230,1043481,0.0-17.0-0.1,7545,List1A,white,man,,,,null,,,,
null,"<img src=""stim_listA/dance6.gif""</stim_listA>",,html-keyboard-response,231,1045482,0.0-17.0-1.1,7545,List1A,white,man,,,,null,,,,
null,are dancing with each other,,html-keyboard-response,232,1047482,0.0-17.0-2.1,7545,List1A,white,man,,,,null,,,,
12200,,,survey-text,233,1059685,0.0-17.0-3.1,7545,List1A,white,man,,,,,"{""Q0"":""mike and luke are dancing with each other""}","<img src=""stim_listA/dance6.gif""</stim_listA>",are dancing with each other,
null,"<div style=""font-size:60px;"">+</div>",,html-keyboard-response,234,1060187,0.0-17.0-0.2,7545,List1A,white,man,,,,null,,,,
null,"<img src=""stim_listA/marry4.gif""</stim_listA>",,html-keyboard-response,235,1062189,0.0-17.0-1.2,7545,List1A,white,man,,,,null,,,,
null,are marrying each other,,html-keyboard-response,236,1064190,0.0-17.0-2.2,7545,List1A,white,man,,,,null,,,,
13726,,,survey-text,237,1077916,0.0-17.0-3.2,7545,List1A,white,man,,,,,"{""Q0"":""jane and luke are marrying each other""}","<img src=""stim_listA/marry4.gif""</stim_listA>",are marrying each other,
null,"<div style=""font-size:60px;"">+</div>",,html-keyboard-response,238,1078417,0.0-17.0-0.3,7545,List1A,white,man,,,,null,,,,
null,"<img src=""stim_listA/kiss3.gif""</stim_listA>",,html-keyboard-response,239,1080418,0.0-17.0-1.3,7545,List1A,white,man,,,,null,,,,
null,is kissing,,html-keyboard-response,240,1082419,0.0-17.0-2.3,7545,List1A,white,man,,,,null,,,,
9149,,,survey-text,241,1091569,0.0-17.0-3.3,7545,List1A,white,man,,,,,"{""Q0"":""luke is kissing ruth""}","<img src=""stim_listA/kiss3.gif""</stim_listA>",is kissing,
null,"<div style=""font-size:60px;"">+</div>",,html-keyboard-response,242,1092070,0.0-17.0-0.4,7545,List1A,white,man,,,,null,,,,
null,"<img src=""stim_listA/dance8.gif""</stim_listA>",,html-keyboard-response,243,1094072,0.0-17.0-1.4,7545,List1A,white,man,,,,null,,,,
null,are dancing with each other,,html-keyboard-response,244,1096073,0.0-17.0-2.4,7545,List1A,white,man,,,,null,,,,
12697,,,survey-text,245,1108771,0.0-17.0-3.4,7545,List1A,white,man,,,,,"{""Q0"":""ruth and kate are dancing with each other""}","<img src=""stim_listA/dance8.gif""</stim_listA>",are dancing with each other,
null,"<div style=""font-size:60px;"">+</div>",,html-keyboard-response,246,1109272,0.0-17.0-0.5,7545,List1A,white,man,,,,null,,,,
null,"<img src=""stim_listA/meet3.gif""</stim_listA>",,html-keyboard-response,247,1111273,0.0-17.0-1.5,7545,List1A,white,man,,,,null,,,,
null,is meeting,,html-keyboard-response,248,1113274,0.0-17.0-2.5,7545,List1A,white,man,,,,null,,,,
7553,,,survey-text,249,1120828,0.0-17.0-3.5,7545,List1A,white,man,,,,,"{""Q0"":""dave is meeting jane""}","<img src=""stim_listA/meet3.gif""</stim_listA>",is meeting,
null,"<div style=""font-size:60px;"">+</div>",,html-keyboard-response,250,1121329,0.0-17.0-0.6,7545,List1A,white,man,,,,null,,,,
null,"<img src=""stim_listA/argue7.gif""</stim_listA>",,html-keyboard-response,251,1123332,0.0-17.0-1.6,7545,List1A,white,man,,,,null,,,,
null,is arguing with,,html-keyboard-response,252,1125334,0.0-17.0-2.6,7545,List1A,white,man,,,,null,,,,
11143,,,survey-text,253,1136479,0.0-17.0-3.6,7545,List1A,white,man,,,,,"{""Q0"":""jane is arguing with kate""}","<img src=""stim_listA/argue7.gif""</stim_listA>",is arguing with,
null,"<div style=""font-size:60px;"">+</div>",,html-keyboard-response,254,1136980,0.0-17.0-0.7,7545,List1A,white,man,,,,null,,,,
null,"<img src=""stim_listA/argue1.gif""</stim_listA>",,html-keyboard-response,255,1138982,0.0-17.0-1.7,7545,List1A,white,man,,,,null,,,,
null,is arguing with,,html-keyboard-response,256,1140984,0.0-17.0-2.7,7545,List1A,white,man,,,,null,,,,
11716,,,survey-text,257,1152701,0.0-17.0-3.7,7545,List1A,white,man,,,,,"{""Q0"":""beth is arguing with mike""}","<img src=""stim_listA/argue1.gif""</stim_listA>",is arguing with,
null,"<div style=""font-size:60px;"">+</div>",,html-keyboard-response,258,1153201,0.0-17.0-0.8,7545,List1A,white,man,,,,null,,,,
null,"<img src=""stim_listA/fight2.gif""</stim_listA>",,html-keyboard-response,259,1155202,0.0-17.0-1.8,7545,List1A,white,man,,,,null,,,,
null,are fighting each other,,html-keyboard-response,260,1157205,0.0-17.0-2.8,7545,List1A,white,man,,,,null,,,,
13315,,,survey-text,261,1170521,0.0-17.0-3.8,7545,List1A,white,man,,,,,"{""Q0"":""fred and beth are fighting each other""}","<img src=""stim_listA/fight2.gif""</stim_listA>",are fighting each other,
null,"<div style=""font-size:60px;"">+</div>",,html-keyboard-response,262,1171023,0.0-17.0-0.9,7545,List1A,white,man,,,,null,,,,
null,"<img src=""stim_listA/kiss1.gif""</stim_listA>",,html-keyboard-response,263,1173024,0.0-17.0-1.9,7545,List1A,white,man,,,,null,,,,
null,is kissing,,html-keyboard-response,264,1175025,0.0-17.0-2.9,7545,List1A,white,man,,,,null,,,,
6942,,,survey-text,265,1181967,0.0-17.0-3.9,7545,List1A,white,man,,,,,"{""Q0"":""fred is kissing beth""}","<img src=""stim_listA/kiss1.gif""</stim_listA>",is kissing,
null,"<div style=""font-size:60px;"">+</div>",,html-keyboard-response,266,1182469,0.0-17.0-0.10,7545,List1A,white,man,,,,null,,,,
null,"<img src=""stim_listA/hug5.gif""</stim_listA>",,html-keyboard-response,267,1184470,0.0-17.0-1.10,7545,List1A,white,man,,,,null,,,,
null,is hugging,,html-keyboard-response,268,1186472,0.0-17.0-2.10,7545,List1A,white,man,,,,null,,,,
8496,,,survey-text,269,1194968,0.0-17.0-3.10,7545,List1A,white,man,,,,,"{""Q0"":""fred is hugging luke""}","<img src=""stim_listA/hug5.gif""</stim_listA>",is hugging,
null,"<div style=""font-size:60px;"">+</div>",,html-keyboard-response,270,1195469,0.0-17.0-0.11,7545,List1A,white,man,,,,null,,,,
null,"<img src=""stim_listA/hug1.gif""</stim_listA>",,html-keyboard-response,271,1197473,0.0-17.0-1.11,7545,List1A,white,man,,,,null,,,,
null,is hugging,,html-keyboard-response,272,1199475,0.0-17.0-2.11,7545,List1A,white,man,,,,null,,,,
6916,,,survey-text,273,1206392,0.0-17.0-3.11,7545,List1A,white,man,,,,,"{""Q0"":""fred is hugging beth""}","<img src=""stim_listA/hug1.gif""</stim_listA>",is hugging,
null,"<div style=""font-size:60px;"">+</div>",,html-keyboard-response,274,1206894,0.0-17.0-0.12,7545,List1A,white,man,,,,null,,,,
null,"<img src=""stim_listA/fight8.gif""</stim_listA>",,html-keyboard-response,275,1208896,0.0-17.0-1.12,7545,List1A,white,man,,,,null,,,,
null,are fighting each other,,html-keyboard-response,276,1210897,0.0-17.0-2.12,7545,List1A,white,man,,,,null,,,,
11007,,,survey-text,277,1221904,0.0-17.0-3.12,7545,List1A,white,man,,,,,"{""Q0"":""beth and ruth are fighting each other""}","<img src=""stim_listA/fight8.gif""</stim_listA>",are fighting each other,
null,"<div style=""font-size:60px;"">+</div>",,html-keyboard-response,278,1222406,0.0-17.0-0.13,7545,List1A,white,man,,,,null,,,,
null,"<img src=""stim_listA/talk7.gif""</stim_listA>",,html-keyboard-response,279,1224407,0.0-17.0-1.13,7545,List1A,white,man,,,,null,,,,
null,is talking to,,html-keyboard-response,280,1226408,0.0-17.0-2.13,7545,List1A,white,man,,,,null,,,,
7808,,,survey-text,281,1234216,0.0-17.0-3.13,7545,List1A,white,man,,,,,"{""Q0"":""beth is talking to jane""}","<img src=""stim_listA/talk7.gif""</stim_listA>",is talking to,
null,"<div style=""font-size:60px;"">+</div>",,html-keyboard-response,282,1234718,0.0-17.0-0.14,7545,List1A,white,man,,,,null,,,,
null,"<img src=""stim_listA/touch2.gif""</stim_listA>",,html-keyboard-response,283,1236719,0.0-17.0-1.14,7545,List1A,white,man,,,,null,,,,
null,are touching each other,,html-keyboard-response,284,1238720,0.0-17.0-2.14,7545,List1A,white,man,,,,null,,,,
12355,,,survey-text,285,1251075,0.0-17.0-3.14,7545,List1A,white,man,,,,,"{""Q0"":""beth and fred are touching each other""}","<img src=""stim_listA/touch2.gif""</stim_listA>",are touching each other,
null,"<div style=""font-size:60px;"">+</div>",,html-keyboard-response,286,1251577,0.0-17.0-0.15,7545,List1A,white,man,,,,null,,,,
null,"<img src=""stim_listA/meet2.gif""</stim_listA>",,html-keyboard-response,287,1253578,0.0-17.0-1.15,7545,List1A,white,man,,,,null,,,,
null,are meeting each other,,html-keyboard-response,288,1255578,0.0-17.0-2.15,7545,List1A,white,man,,,,null,,,,
11247,,,survey-text,289,1266827,0.0-17.0-3.15,7545,List1A,white,man,,,,,"{""Q0"":""beth and fred are meeting each other""}","<img src=""stim_listA/meet2.gif""</stim_listA>",are meeting each other,
null,"<div style=""font-size:60px;"">+</div>",,html-keyboard-response,290,1267330,0.0-17.0-0.16,7545,List1A,white,man,,,,null,,,,
null,"<img src=""stim_listA/meet6.gif""</stim_listA>",,html-keyboard-response,291,1269330,0.0-17.0-1.16,7545,List1A,white,man,,,,null,,,,
null,are meeting each other,,html-keyboard-response,292,1271332,0.0-17.0-2.16,7545,List1A,white,man,,,,null,,,,
11412,,,survey-text,293,1282744,0.0-17.0-3.16,7545,List1A,white,man,,,,,"{""Q0"":""fred and luke are meeting each other""}","<img src=""stim_listA/meet6.gif""</stim_listA>",are meeting each other,
null,"<div style=""font-size:60px;"">+</div>",,html-keyboard-response,294,1283246,0.0-17.0-0.17,7545,List1A,white,man,,,,null,,,,
null,"<img src=""stim_listA/meet5.gif""</stim_listA>",,html-keyboard-response,295,1285247,0.0-17.0-1.17,7545,List1A,white,man,,,,null,,,,
null,is meeting,,html-keyboard-response,296,1287248,0.0-17.0-2.17,7545,List1A,white,man,,,,null,,,,
7286,,,survey-text,297,1294535,0.0-17.0-3.17,7545,List1A,white,man,,,,,"{""Q0"":""mike is meeting dave""}","<img src=""stim_listA/meet5.gif""</stim_listA>",is meeting,
null,"<div style=""font-size:60px;"">+</div>",,html-keyboard-response,298,1295035,0.0-17.0-0.18,7545,List1A,white,man,,,,null,,,,
null,"<img src=""stim_listA/shout7.gif""</stim_listA>",,html-keyboard-response,299,1297037,0.0-17.0-1.18,7545,List1A,white,man,,,,null,,,,
null,is shouting at,,html-keyboard-response,300,1299039,0.0-17.0-2.18,7545,List1A,white,man,,,,null,,,,
10726,,,survey-text,301,1309765,0.0-17.0-3.18,7545,List1A,white,man,,,,,"{""Q0"":""beth is shouting at ruth""}","<img src=""stim_listA/shout7.gif""</stim_listA>",is shouting at,
null,"<div style=""font-size:60px;"">+</div>",,html-keyboard-response,302,1310267,0.0-17.0-0.19,7545,List1A,white,man,,,,null,,,,
null,"<img src=""stim_listA/argue8.gif""</stim_listA>",,html-keyboard-response,303,1312269,0.0-17.0-1.19,7545,List1A,white,man,,,,null,,,,
null,are arguing with each other,,html-keyboard-response,304,1314271,0.0-17.0-2.19,7545,List1A,white,man,,,,null,,,,
12940,,,survey-text,305,1327211,0.0-17.0-3.19,7545,List1A,white,man,,,,,"{""Q0"":""jane and beth are arguing with each other""}","<img src=""stim_listA/argue8.gif""</stim_listA>",are arguing with each other,
2656,"<img src='img/portrait_matrix_list1.JPG' style='width:900px;height:500px;''></img><p>If you have memorised all the portraits and names and are ready to start, press Continue.</p><p><strong>Please note: Your memory of these faces will be tested 4 times during this experiment.</strong></p>",0,html-button-response,306,1329869,0.0-18.0-0.0,7545,List1A,white,man,,,,,,,,
1987,"<img src=""portrait/WW1.jpg""style=""width:400px;height:400px;""></img>",1,html-button-response,307,1332858,0.0-18.0-1.0,7545,List1A,white,man,,TRUE,1,,,,,
null,CORRECT,,html-keyboard-response,308,1334361,0.0-18.0-2.0-0.0,7545,List1A,white,man,,,,null,,,,
1880,"<img src=""portrait/BM2.jpg""style=""width:400px;height:400px;""></img>",5,html-button-response,309,1336243,0.0-18.0-4.0,7545,List1A,white,man,,TRUE,5,,,,,
null,CORRECT,,html-keyboard-response,310,1337746,0.0-18.0-5.0-0.0,7545,List1A,white,man,,,,null,,,,
2757,"<img src=""portrait/WM1.jpg""style=""width:400px;height:400px;""></img>",6,html-button-response,311,1340504,0.0-18.0-7.0,7545,List1A,white,man,,TRUE,6,,,,,
null,CORRECT,,html-keyboard-response,312,1342007,0.0-18.0-8.0-0.0,7545,List1A,white,man,,,,null,,,,
1598,"<img src=""portrait/WW2.jpg""style=""width:400px;height:400px;""></img>",3,html-button-response,313,1343606,0.0-18.0-10.0,7545,List1A,white,man,,TRUE,3,,,,,
null,CORRECT,,html-keyboard-response,314,1345109,0.0-18.0-11.0-0.0,7545,List1A,white,man,,,,null,,,,
1740,"<img src=""portrait/BM1.jpg""style=""width:400px;height:400px;""></img>",4,html-button-response,315,1346852,0.0-18.0-13.0,7545,List1A,white,man,,TRUE,4,,,,,
null,CORRECT,,html-keyboard-response,316,1348354,0.0-18.0-14.0-0.0,7545,List1A,white,man,,,,null,,,,
1994,"<img src=""portrait/WM2.jpg""style=""width:400px;height:400px;""></img>",7,html-button-response,317,1350350,0.0-18.0-16.0,7545,List1A,white,man,,TRUE,7,,,,,
null,CORRECT,,html-keyboard-response,318,1351854,0.0-18.0-17.0-0.0,7545,List1A,white,man,,,,null,,,,
1840,"<img src=""portrait/BW1.jpg""style=""width:400px;height:400px;""></img>",0,html-button-response,319,1353695,0.0-18.0-19.0,7545,List1A,white,man,,TRUE,0,,,,,
null,CORRECT,,html-keyboard-response,320,1355196,0.0-18.0-20.0-0.0,7545,List1A,white,man,,,,null,,,,
2364,"<img src=""portrait/BW2.jpg""style=""width:400px;height:400px;""></img>",2,html-button-response,321,1357562,0.0-18.0-22.0,7545,List1A,white,man,,TRUE,2,,,,,
null,CORRECT,,html-keyboard-response,322,1359065,0.0-18.0-23.0-0.0,7545,List1A,white,man,,,,null,,,,
1726,<p>You got 8 out of 8 right first time. Press Continue.</p>,0,html-button-response,323,1360792,0.0-18.0-25.0,7545,List1A,white,man,,,,,,,,
null,"<div style=""font-size:60px;"">+</div>",,html-keyboard-response,324,1362296,0.0-19.0-0.0,7545,List1A,white,man,,,,null,,,,
null,"<img src=""stim_listA/touch7.gif""</stim_listA>",,html-keyboard-response,325,1364297,0.0-19.0-1.0,7545,List1A,white,man,,,,null,,,,
null,is touching,,html-keyboard-response,326,1366298,0.0-19.0-2.0,7545,List1A,white,man,,,,null,,,,
8286,,,survey-text,327,1374587,0.0-19.0-3.0,7545,List1A,white,man,,,,,"{""Q0"":""kate is touching jane""}","<img src=""stim_listA/touch7.gif""</stim_listA>",is touching,
null,"<div style=""font-size:60px;"">+</div>",,html-keyboard-response,328,1375088,0.0-19.0-0.1,7545,List1A,white,man,,,,null,,,,
null,"<img src=""stim_listA/dance3.gif""</stim_listA>",,html-keyboard-response,329,1377091,0.0-19.0-1.1,7545,List1A,white,man,,,,null,,,,
null,is dancing with,,html-keyboard-response,330,1379093,0.0-19.0-2.1,7545,List1A,white,man,,,,null,,,,
7915,,,survey-text,331,1387008,0.0-19.0-3.1,7545,List1A,white,man,,,,,"{""Q0"":""jane is dancing with luke""}","<img src=""stim_listA/dance3.gif""</stim_listA>",is dancing with,
null,"<div style=""font-size:60px;"">+</div>",,html-keyboard-response,332,1387508,0.0-19.0-0.2,7545,List1A,white,man,,,,null,,,,
null,"<img src=""stim_listA/kiss5.gif""</stim_listA>",,html-keyboard-response,333,1389511,0.0-19.0-1.2,7545,List1A,white,man,,,,null,,,,
null,is kissing,,html-keyboard-response,334,1391513,0.0-19.0-2.2,7545,List1A,white,man,,,,null,,,,
7210,,,survey-text,335,1398723,0.0-19.0-3.2,7545,List1A,white,man,,,,,"{""Q0"":""luke is kissing fred""}","<img src=""stim_listA/kiss5.gif""</stim_listA>",is kissing,
null,"<div style=""font-size:60px;"">+</div>",,html-keyboard-response,336,1399224,0.0-19.0-0.3,7545,List1A,white,man,,,,null,,,,
null,"<img src=""stim_listA/hug3.gif""</stim_listA>",,html-keyboard-response,337,1401225,0.0-19.0-1.3,7545,List1A,white,man,,,,null,,,,
null,is hugging,,html-keyboard-response,338,1403227,0.0-19.0-2.3,7545,List1A,white,man,,,,null,,,,
7848,,,survey-text,339,1411075,0.0-19.0-3.3,7545,List1A,white,man,,,,,"{""Q0"":""luke is hugging ruth""}","<img src=""stim_listA/hug3.gif""</stim_listA>",is hugging,
null,"<div style=""font-size:60px;"">+</div>",,html-keyboard-response,340,1411578,0.0-19.0-0.4,7545,List1A,white,man,,,,null,,,,
null,"<img src=""stim_listA/hug8.gif""</stim_listA>",,html-keyboard-response,341,1413580,0.0-19.0-1.4,7545,List1A,white,man,,,,null,,,,
null,are hugging each other,,html-keyboard-response,342,1415581,0.0-19.0-2.4,7545,List1A,white,man,,,,null,,,,
11693,,,survey-text,343,1427275,0.0-19.0-3.4,7545,List1A,white,man,,,,,"{""Q0"":""jane and kate are hugging each other""}","<img src=""stim_listA/hug8.gif""</stim_listA>",are hugging each other,
null,"<div style=""font-size:60px;"">+</div>",,html-keyboard-response,344,1427778,0.0-19.0-0.5,7545,List1A,white,man,,,,null,,,,
null,"<img src=""stim_listA/argue5.gif""</stim_listA>",,html-keyboard-response,345,1429779,0.0-19.0-1.5,7545,List1A,white,man,,,,null,,,,
null,is arguing with,,html-keyboard-response,346,1431779,0.0-19.0-2.5,7545,List1A,white,man,,,,null,,,,
10193,,,survey-text,347,1441972,0.0-19.0-3.5,7545,List1A,white,man,,,,,"{""Q0"":""mike is arguing with luke""}","<img src=""stim_listA/argue5.gif""</stim_listA>",is arguing with,
null,"<div style=""font-size:60px;"">+</div>",,html-keyboard-response,348,1442475,0.0-19.0-0.6,7545,List1A,white,man,,,,null,,,,
null,"<img src=""stim_listA/hug2.gif""</stim_listA>",,html-keyboard-response,349,1444478,0.0-19.0-1.6,7545,List1A,white,man,,,,null,,,,
null,are hugging each other,,html-keyboard-response,350,1446479,0.0-19.0-2.6,7545,List1A,white,man,,,,null,,,,
11717,,,survey-text,351,1458197,0.0-19.0-3.6,7545,List1A,white,man,,,,,"{""Q0"":""mike and kate are hugging each other""}","<img src=""stim_listA/hug2.gif""</stim_listA>",are hugging each other,
null,"<div style=""font-size:60px;"">+</div>",,html-keyboard-response,352,1458699,0.0-19.0-0.7,7545,List1A,white,man,,,,null,,,,
null,"<img src=""stim_listA/argue6.gif""</stim_listA>",,html-keyboard-response,353,1460700,0.0-19.0-1.7,7545,List1A,white,man,,,,null,,,,
null,are arguing with each other,,html-keyboard-response,354,1462701,0.0-19.0-2.7,7545,List1A,white,man,,,,null,,,,
11682,,,survey-text,355,1474383,0.0-19.0-3.7,7545,List1A,white,man,,,,,"{""Q0"":""fred and dave are arguing with each other""}","<img src=""stim_listA/argue6.gif""</stim_listA>",are arguing with each other,
null,"<div style=""font-size:60px;"">+</div>",,html-keyboard-response,356,1474883,0.0-19.0-0.8,7545,List1A,white,man,,,,null,,,,
null,"<img src=""stim_listA/marry7.gif""</stim_listA>",,html-keyboard-response,357,1476884,0.0-19.0-1.8,7545,List1A,white,man,,,,null,,,,
null,is marrying,,html-keyboard-response,358,1478885,0.0-19.0-2.8,7545,List1A,white,man,,,,null,,,,
7314,,,survey-text,359,1486202,0.0-19.0-3.8,7545,List1A,white,man,,,,,"{""Q0"":""kate is marrying ruth""}","<img src=""stim_listA/marry7.gif""</stim_listA>",is marrying,
null,"<div style=""font-size:60px;"">+</div>",,html-keyboard-response,360,1486703,0.0-19.0-0.9,7545,List1A,white,man,,,,null,,,,
null,"<img src=""stim_listA/argue4.gif""</stim_listA>",,html-keyboard-response,361,1488704,0.0-19.0-1.9,7545,List1A,white,man,,,,null,,,,
null,are arguing with each other,,html-keyboard-response,362,1490704,0.0-19.0-2.9,7545,List1A,white,man,,,,null,,,,
13736,,,survey-text,363,1504441,0.0-19.0-3.9,7545,List1A,white,man,,,,,"{""Q0"":""jane and luke are arguing with each other""}","<img src=""stim_listA/argue4.gif""</stim_listA>",are arguing with each other,
null,"<div style=""font-size:60px;"">+</div>",,html-keyboard-response,364,1504943,0.0-19.0-0.10,7545,List1A,white,man,,,,null,,,,
null,"<img src=""stim_listA/kiss4.gif""</stim_listA>",,html-keyboard-response,365,1506945,0.0-19.0-1.10,7545,List1A,white,man,,,,null,,,,
null,are kissing each other,,html-keyboard-response,366,1508948,0.0-19.0-2.10,7545,List1A,white,man,,,,null,,,,
12493,,,survey-text,367,1521441,0.0-19.0-3.10,7545,List1A,white,man,,,,,"{""Q0"":""jane and dave are kissing each other""}","<img src=""stim_listA/kiss4.gif""</stim_listA>",are kissing each other,
null,"<div style=""font-size:60px;"">+</div>",,html-keyboard-response,368,1521943,0.0-19.0-0.11,7545,List1A,white,man,,,,null,,,,
null,"<img src=""stim_listA/argue2.gif""</stim_listA>",,html-keyboard-response,369,1523945,0.0-19.0-1.11,7545,List1A,white,man,,,,null,,,,
null,are arguing with each other,,html-keyboard-response,370,1525946,0.0-19.0-2.11,7545,List1A,white,man,,,,null,,,,
12342,,,survey-text,371,1538289,0.0-19.0-3.11,7545,List1A,white,man,,,,,"{""Q0"":""kate and fred are arguing with each other""}","<img src=""stim_listA/argue2.gif""</stim_listA>",are arguing with each other,
null,"<div style=""font-size:60px;"">+</div>",,html-keyboard-response,372,1538790,0.0-19.0-0.12,7545,List1A,white,man,,,,null,,,,
null,"<img src=""stim_listA/kiss2.gif""</stim_listA>",,html-keyboard-response,373,1540792,0.0-19.0-1.12,7545,List1A,white,man,,,,null,,,,
null,are kissing each other,,html-keyboard-response,374,1542794,0.0-19.0-2.12,7545,List1A,white,man,,,,null,,,,
17602,,,survey-text,375,1560396,0.0-19.0-3.12,7545,List1A,white,man,,,,,"{""Q0"":""mike and kate are kissing each other""}","<img src=""stim_listA/kiss2.gif""</stim_listA>",are kissing each other,
null,"<div style=""font-size:60px;"">+</div>",,html-keyboard-response,376,1560898,0.0-19.0-0.13,7545,List1A,white,man,,,,null,,,,
null,"<img src=""stim_listA/dance2.gif""</stim_listA>",,html-keyboard-response,377,1562900,0.0-19.0-1.13,7545,List1A,white,man,,,,null,,,,
null,are dancing with each other,,html-keyboard-response,378,1564902,0.0-19.0-2.13,7545,List1A,white,man,,,,null,,,,
14201,,,survey-text,379,1579103,0.0-19.0-3.13,7545,List1A,white,man,,,,,"{""Q0"":""mike and beth are dancing with each other""}","<img src=""stim_listA/dance2.gif""</stim_listA>",are dancing with each other,
null,"<div style=""font-size:60px;"">+</div>",,html-keyboard-response,380,1579605,0.0-19.0-0.14,7545,List1A,white,man,,,,null,,,,
null,"<img src=""stim_listA/talk8.gif""</stim_listA>",,html-keyboard-response,381,1581608,0.0-19.0-1.14,7545,List1A,white,man,,,,null,,,,
null,are talking to each other,,html-keyboard-response,382,1583609,0.0-19.0-2.14,7545,List1A,white,man,,,,null,,,,
14933,,,survey-text,383,1598542,0.0-19.0-3.14,7545,List1A,white,man,,,,,"{""Q0"":""kate and ruth are talking to each other""}","<img src=""stim_listA/talk8.gif""</stim_listA>",are talking to each other,
null,"<div style=""font-size:60px;"">+</div>",,html-keyboard-response,384,1599044,0.0-19.0-0.15,7545,List1A,white,man,,,,null,,,,
null,"<img src=""stim_listA/talk6.gif""</stim_listA>",,html-keyboard-response,385,1601046,0.0-19.0-1.15,7545,List1A,white,man,,,,null,,,,
null,are talking to each other,,html-keyboard-response,386,1603048,0.0-19.0-2.15,7545,List1A,white,man,,,,null,,,,
11096,,,survey-text,387,1614144,0.0-19.0-3.15,7545,List1A,white,man,,,,,"{""Q0"":""mike and luke are talking to each other""}","<img src=""stim_listA/talk6.gif""</stim_listA>",are talking to each other,
null,"<div style=""font-size:60px;"">+</div>",,html-keyboard-response,388,1614646,0.0-19.0-0.16,7545,List1A,white,man,,,,null,,,,
null,"<img src=""stim_listA/meet7.gif""</stim_listA>",,html-keyboard-response,389,1616648,0.0-19.0-1.16,7545,List1A,white,man,,,,null,,,,
null,is meeting,,html-keyboard-response,390,1618649,0.0-19.0-2.16,7545,List1A,white,man,,,,null,,,,
7528,,,survey-text,391,1626178,0.0-19.0-3.16,7545,List1A,white,man,,,,,"{""Q0"":""kate is meeting jane""}","<img src=""stim_listA/meet7.gif""</stim_listA>",is meeting,
null,"<div style=""font-size:60px;"">+</div>",,html-keyboard-response,392,1626680,0.0-19.0-0.17,7545,List1A,white,man,,,,null,,,,
null,"<img src=""stim_listA/shout3.gif""</stim_listA>",,html-keyboard-response,393,1628681,0.0-19.0-1.17,7545,List1A,white,man,,,,null,,,,
null,is shouting at,,html-keyboard-response,394,1630683,0.0-19.0-2.17,7545,List1A,white,man,,,,null,,,,
11274,,,survey-text,395,1641958,0.0-19.0-3.17,7545,List1A,white,man,,,,,"{""Q0"":""luke is shouting at ruth""}","<img src=""stim_listA/shout3.gif""</stim_listA>",is shouting at,
null,"<div style=""font-size:60px;"">+</div>",,html-keyboard-response,396,1642459,0.0-19.0-0.18,7545,List1A,white,man,,,,null,,,,
null,"<img src=""stim_listA/hug7.gif""</stim_listA>",,html-keyboard-response,397,1644461,0.0-19.0-1.18,7545,List1A,white,man,,,,null,,,,
null,is hugging,,html-keyboard-response,398,1646461,0.0-19.0-2.18,7545,List1A,white,man,,,,null,,,,
6805,,,survey-text,399,1653267,0.0-19.0-3.18,7545,List1A,white,man,,,,,"{""Q0"":""ruth is hugging beth""}","<img src=""stim_listA/hug7.gif""</stim_listA>",is hugging,
null,"<div style=""font-size:60px;"">+</div>",,html-keyboard-response,400,1653768,0.0-19.0-0.19,7545,List1A,white,man,,,,null,,,,
null,"<img src=""stim_listA/talk4.gif""</stim_listA>",,html-keyboard-response,401,1655771,0.0-19.0-1.19,7545,List1A,white,man,,,,null,,,,
null,are talking to each other,,html-keyboard-response,402,1657772,0.0-19.0-2.19,7545,List1A,white,man,,,,null,,,,
12608,,,survey-text,403,1670381,0.0-19.0-3.19,7545,List1A,white,man,,,,,"{""Q0"":""ruth and dave are talking to each other""}","<img src=""stim_listA/talk4.gif""</stim_listA>",are talking to each other,
2862,<p>Thank you for completing that task.</p><p>The final part of this session is a short questionnaire.</p><p>Press Continue.</p>,0,html-button-response,404,1673244,0.0-20.0,7545,List1A,white,man,,,,,,,,
28986,,,survey-text,405,1703231,0.0-21.0,7545,List1A,white,man,,,,,"{""Q0"":""25"",""Q1"":""English"",""Q2"":""English"",""Q3"":""UK"",""Q4"":""White british"",""Q5"":""Male""}",,,demographics
45554,,,survey-likert,406,1748790,0.0-22.0,7545,List1A,white,man,,,,,"{""Q0"":5,""Q1"":4,""Q2"":4,""Q3"":6,""Q4"":2,""Q5"":5,""Q6"":6,""Q7"":4,""Q8"":5,""Q9"":5,""Q10"":4,""Q11"":2,""Q12"":2,""Q13"":1}",,,likert_race
39395,,,survey-likert,407,1788189,0.0-23.0,7545,List1A,white,man,,,,,"{""Q0"":6,""Q1"":4,""Q2"":5,""Q3"":6,""Q4"":2,""Q5"":5,""Q6"":5,""Q7"":5,""Q8"":6,""Q9"":6,""Q10"":3,""Q11"":2,""Q12"":4,""Q13"":3}",,,likert_gender
8164,,,survey-text,408,1796354,0.0-24.0,7545,List1A,white,man,,,,,"{""Q0"":""ccc""}",,,worker_id
52112,,,external-html,409,1848633,0.0-25.0,7545,List1A,white,man,debrief.html,,,,,,,
