rt,stimulus,button_pressed,trial_type,trial_index,time_elapsed,internal_node_id,subject,list,ppt_race,ppt_gender,url,first_guess,correct,key_press,responses,image_type,phrase_type,test_part
4989,Welcome to the experiment. Press Continue to begin.,0,html-button-response,0,4993,0.0-0.0,76028,List1A,white,woman,,,,,,,,
14575,,,external-html,1,20633,0.0-1.0,76028,List1A,white,woman,consent.html,,,,,,,
12878,"<p>On the next page, you will see portraits of 8 people and their names.</p><p>Your first task is to take a few minutes to memorise the names of these people.</p><p>You will have to recall their names during the rest of the experiment, so it is</p><p>essential that you try to memorise these people and their names as best as you can.</p><br><p><strong>You will then be tested on your memory of these names and portraits.</strong></p><br><p>The experiment will start after you have completed this memory test.</p><br><p>Ready?</p>",0,html-button-response,2,33516,0.0-2.0,76028,List1A,white,woman,,,,,,,,
63267,"<img src='img/portrait_matrix_list1.JPG' style='width:900px;height:500px;''></img><p>If you have memorised all the portraits and names and are ready to start, press Continue.</p><p><strong>Please note: Your memory of these faces will be tested 4 times during this experiment.</strong></p>",0,html-button-response,3,97786,0.0-3.0-0.0,76028,List1A,white,woman,,,,,,,,
3700,"<img src=""portrait/WM1.jpg""style=""width:400px;height:400px;""></img>",6,html-button-response,4,102489,0.0-3.0-1.0,76028,List1A,white,woman,,TRUE,6,,,,,
null,CORRECT,,html-keyboard-response,5,103993,0.0-3.0-2.0-0.0,76028,List1A,white,woman,,,,null,,,,
11714,"<img src=""portrait/WM2.jpg""style=""width:400px;height:400px;""></img>",7,html-button-response,6,115708,0.0-3.0-4.0,76028,List1A,white,woman,,TRUE,7,,,,,
null,CORRECT,,html-keyboard-response,7,117211,0.0-3.0-5.0-0.0,76028,List1A,white,woman,,,,null,,,,
3905,"<img src=""portrait/BM1.jpg""style=""width:400px;height:400px;""></img>",4,html-button-response,8,121118,0.0-3.0-7.0,76028,List1A,white,woman,,TRUE,4,,,,,
null,CORRECT,,html-keyboard-response,9,122621,0.0-3.0-8.0-0.0,76028,List1A,white,woman,,,,null,,,,
3374,"<img src=""portrait/WW2.jpg""style=""width:400px;height:400px;""></img>",3,html-button-response,10,125996,0.0-3.0-10.0,76028,List1A,white,woman,,TRUE,3,,,,,
null,CORRECT,,html-keyboard-response,11,127498,0.0-3.0-11.0-0.0,76028,List1A,white,woman,,,,null,,,,
7924,"<img src=""portrait/BW1.jpg""style=""width:400px;height:400px;""></img>",0,html-button-response,12,135423,0.0-3.0-13.0,76028,List1A,white,woman,,TRUE,0,,,,,
null,CORRECT,,html-keyboard-response,13,136926,0.0-3.0-14.0-0.0,76028,List1A,white,woman,,,,null,,,,
4050,"<img src=""portrait/BM2.jpg""style=""width:400px;height:400px;""></img>",5,html-button-response,14,140977,0.0-3.0-16.0,76028,List1A,white,woman,,TRUE,5,,,,,
null,CORRECT,,html-keyboard-response,15,142478,0.0-3.0-17.0-0.0,76028,List1A,white,woman,,,,null,,,,
6212,"<img src=""portrait/WW1.jpg""style=""width:400px;height:400px;""></img>",1,html-button-response,16,148691,0.0-3.0-19.0,76028,List1A,white,woman,,TRUE,1,,,,,
null,CORRECT,,html-keyboard-response,17,150193,0.0-3.0-20.0-0.0,76028,List1A,white,woman,,,,null,,,,
3340,"<img src=""portrait/BW2.jpg""style=""width:400px;height:400px;""></img>",2,html-button-response,18,153535,0.0-3.0-22.0,76028,List1A,white,woman,,TRUE,2,,,,,
null,CORRECT,,html-keyboard-response,19,155038,0.0-3.0-23.0-0.0,76028,List1A,white,woman,,,,null,,,,
1420,<p>You got 8 out of 8 right first time. Press Continue.</p>,0,html-button-response,20,156459,0.0-3.0-25.0,76028,List1A,white,woman,,,,,,,,
25688,"<p>In this experiment, you will view photographs of the people from the memory game interacting.</p><p>By using the <strong>exact</strong> phrase given <i>after</i> the photograph appears and recalling the correct names of the people in the photographs, form a sentence describing the interaction. You do not need to capitalise names.</p><p>Type your answer in the space provided. Please complete every sentence before moving onto the next trial.</p><p>You will only have a few seconds to memorise each given photograph and phrase before you can respond, so try your best to focus.</p><p>An example is given below. Press 'Continue' when you are ready.</p><img src='img/speaking_example_v2.jpg' style='width:800px;height:460px;''></img>",0,html-button-response,21,183149,0.0-4.0,76028,List1A,white,woman,,,,,,,,
1765,"<p>Before the experiment starts, you will watch two example trials. Press 'Continue'.</p>",0,html-button-response,22,185917,0.0-5.0,76028,List1A,white,woman,,,,,,,,
null,<img src='img/speaking_WW.gif'></img>,,html-keyboard-response,23,188920,0.0-6.0,76028,List1A,white,woman,,,,null,,,,
null,<p>is speaking to</p>,,html-keyboard-response,24,190922,0.0-7.0,76028,List1A,white,woman,,,,null,,,,
3959,<p><b>Answer:</b> kate is speaking to beth</p>,0,html-button-response,25,194881,0.0-8.0,76028,List1A,white,woman,,,,,,,,
null,<img src='img/pointing_BM.gif'></img>,,html-keyboard-response,26,197883,0.0-9.0,76028,List1A,white,woman,,,,null,,,,
null,<p>are pointing at each other</p>,,html-keyboard-response,27,199886,0.0-10.0,76028,List1A,white,woman,,,,null,,,,
3723,<p><b>Answer:</b> luke and dave are pointing at each other</p>,0,html-button-response,28,203609,0.0-11.0,76028,List1A,white,woman,,,,,,,,
2877,"<p>Ready to start the experiment?</p><br><p><strong>Remember to describe the picture using a full sentence,</strong></p><p><strong> that combines the names of the people with the given phrase.</strong></p><p><strong> You do not need to capitalise names or use punctuation.</strong></p><br><p>Press 'Continue' to begin.</p>",0,html-button-response,29,207487,0.0-12.0,76028,List1A,white,woman,,,,,,,,
null,"<div style=""font-size:60px;"">+</div>",,html-keyboard-response,30,208990,0.0-13.0-0.0,76028,List1A,white,woman,,,,null,,,,
null,"<img src=""stim_listA/marry7.gif""</stim_listA>",,html-keyboard-response,31,210993,0.0-13.0-1.0,76028,List1A,white,woman,,,,null,,,,
null,is marrying,,html-keyboard-response,32,212995,0.0-13.0-2.0,76028,List1A,white,woman,,,,null,,,,
10687,,,survey-text,33,223685,0.0-13.0-3.0,76028,List1A,white,woman,,,,,"{""Q0"":""Kate is marrying Ruth""}","<img src=""stim_listA/marry7.gif""</stim_listA>",is marrying,
null,"<div style=""font-size:60px;"">+</div>",,html-keyboard-response,34,224187,0.0-13.0-0.1,76028,List1A,white,woman,,,,null,,,,
null,"<img src=""stim_listA/dance7.gif""</stim_listA>",,html-keyboard-response,35,226189,0.0-13.0-1.1,76028,List1A,white,woman,,,,null,,,,
null,is dancing with,,html-keyboard-response,36,228191,0.0-13.0-2.1,76028,List1A,white,woman,,,,null,,,,
7641,,,survey-text,37,235833,0.0-13.0-3.1,76028,List1A,white,woman,,,,,"{""Q0"":""Beth is dancing with Jane""}","<img src=""stim_listA/dance7.gif""</stim_listA>",is dancing with,
null,"<div style=""font-size:60px;"">+</div>",,html-keyboard-response,38,236335,0.0-13.0-0.2,76028,List1A,white,woman,,,,null,,,,
null,"<img src=""stim_listA/hug5.gif""</stim_listA>",,html-keyboard-response,39,238337,0.0-13.0-1.2,76028,List1A,white,woman,,,,null,,,,
null,is hugging,,html-keyboard-response,40,240339,0.0-13.0-2.2,76028,List1A,white,woman,,,,null,,,,
9382,,,survey-text,41,249723,0.0-13.0-3.2,76028,List1A,white,woman,,,,,"{""Q0"":""Fred is hugging Luke""}","<img src=""stim_listA/hug5.gif""</stim_listA>",is hugging,
null,"<div style=""font-size:60px;"">+</div>",,html-keyboard-response,42,250225,0.0-13.0-0.3,76028,List1A,white,woman,,,,null,,,,
null,"<img src=""stim_listA/marry6.gif""</stim_listA>",,html-keyboard-response,43,252226,0.0-13.0-1.3,76028,List1A,white,woman,,,,null,,,,
null,are marrying each other,,html-keyboard-response,44,254228,0.0-13.0-2.3,76028,List1A,white,woman,,,,null,,,,
10541,,,survey-text,45,264771,0.0-13.0-3.3,76028,List1A,white,woman,,,,,"{""Q0"":""Fred and Dave are marrying each other""}","<img src=""stim_listA/marry6.gif""</stim_listA>",are marrying each other,
null,"<div style=""font-size:60px;"">+</div>",,html-keyboard-response,46,265272,0.0-13.0-0.4,76028,List1A,white,woman,,,,null,,,,
null,"<img src=""stim_listA/shout2.gif""</stim_listA>",,html-keyboard-response,47,267274,0.0-13.0-1.4,76028,List1A,white,woman,,,,null,,,,
null,are shouting at each other,,html-keyboard-response,48,269276,0.0-13.0-2.4,76028,List1A,white,woman,,,,null,,,,
11462,,,survey-text,49,280740,0.0-13.0-3.4,76028,List1A,white,woman,,,,,"{""Q0"":""Kate and Mike are shouting at each other""}","<img src=""stim_listA/shout2.gif""</stim_listA>",are shouting at each other,
null,"<div style=""font-size:60px;"">+</div>",,html-keyboard-response,50,281240,0.0-13.0-0.5,76028,List1A,white,woman,,,,null,,,,
null,"<img src=""stim_listA/dance5.gif""</stim_listA>",,html-keyboard-response,51,283242,0.0-13.0-1.5,76028,List1A,white,woman,,,,null,,,,
null,is dancing with,,html-keyboard-response,52,285243,0.0-13.0-2.5,76028,List1A,white,woman,,,,null,,,,
6919,,,survey-text,53,292162,0.0-13.0-3.5,76028,List1A,white,woman,,,,,"{""Q0"":""Fred is dancing with Dave""}","<img src=""stim_listA/dance5.gif""</stim_listA>",is dancing with,
null,"<div style=""font-size:60px;"">+</div>",,html-keyboard-response,54,292664,0.0-13.0-0.6,76028,List1A,white,woman,,,,null,,,,
null,"<img src=""stim_listA/meet6.gif""</stim_listA>",,html-keyboard-response,55,294666,0.0-13.0-1.6,76028,List1A,white,woman,,,,null,,,,
null,are meeting each other,,html-keyboard-response,56,296668,0.0-13.0-2.6,76028,List1A,white,woman,,,,null,,,,
11398,,,survey-text,57,308068,0.0-13.0-3.6,76028,List1A,white,woman,,,,,"{""Q0"":""Fred and Luke are meeting each other""}","<img src=""stim_listA/meet6.gif""</stim_listA>",are meeting each other,
null,"<div style=""font-size:60px;"">+</div>",,html-keyboard-response,58,308570,0.0-13.0-0.7,76028,List1A,white,woman,,,,null,,,,
null,"<img src=""stim_listA/fight1.gif""</stim_listA>",,html-keyboard-response,59,310573,0.0-13.0-1.7,76028,List1A,white,woman,,,,null,,,,
null,is fighting,,html-keyboard-response,60,312575,0.0-13.0-2.7,76028,List1A,white,woman,,,,null,,,,
10945,,,survey-text,61,323521,0.0-13.0-3.7,76028,List1A,white,woman,,,,,"{""Q0"":""Kate is fighting with Mike""}","<img src=""stim_listA/fight1.gif""</stim_listA>",is fighting,
null,"<div style=""font-size:60px;"">+</div>",,html-keyboard-response,62,324023,0.0-13.0-0.8,76028,List1A,white,woman,,,,null,,,,
null,"<img src=""stim_listA/fight4.gif""</stim_listA>",,html-keyboard-response,63,326025,0.0-13.0-1.8,76028,List1A,white,woman,,,,null,,,,
null,are fighting each other,,html-keyboard-response,64,328027,0.0-13.0-2.8,76028,List1A,white,woman,,,,null,,,,
11248,,,survey-text,65,339277,0.0-13.0-3.8,76028,List1A,white,woman,,,,,"{""Q0"":""Ruth and Luke are fighting""}","<img src=""stim_listA/fight4.gif""</stim_listA>",are fighting each other,
null,"<div style=""font-size:60px;"">+</div>",,html-keyboard-response,66,339778,0.0-13.0-0.9,76028,List1A,white,woman,,,,null,,,,
null,"<img src=""stim_listA/touch5.gif""</stim_listA>",,html-keyboard-response,67,341780,0.0-13.0-1.9,76028,List1A,white,woman,,,,null,,,,
null,is touching,,html-keyboard-response,68,343782,0.0-13.0-2.9,76028,List1A,white,woman,,,,null,,,,
9169,,,survey-text,69,352953,0.0-13.0-3.9,76028,List1A,white,woman,,,,,"{""Q0"":""Dave is touching Mike""}","<img src=""stim_listA/touch5.gif""</stim_listA>",is touching,
null,"<div style=""font-size:60px;"">+</div>",,html-keyboard-response,70,353455,0.0-13.0-0.10,76028,List1A,white,woman,,,,null,,,,
null,"<img src=""stim_listA/argue7.gif""</stim_listA>",,html-keyboard-response,71,355457,0.0-13.0-1.10,76028,List1A,white,woman,,,,null,,,,
null,is arguing with,,html-keyboard-response,72,357458,0.0-13.0-2.10,76028,List1A,white,woman,,,,null,,,,
10971,,,survey-text,73,368430,0.0-13.0-3.10,76028,List1A,white,woman,,,,,"{""Q0"":""Kate is arguing with Ruth""}","<img src=""stim_listA/argue7.gif""</stim_listA>",is arguing with,
null,"<div style=""font-size:60px;"">+</div>",,html-keyboard-response,74,368932,0.0-13.0-0.11,76028,List1A,white,woman,,,,null,,,,
null,"<img src=""stim_listA/hug7.gif""</stim_listA>",,html-keyboard-response,75,370937,0.0-13.0-1.11,76028,List1A,white,woman,,,,null,,,,
null,is hugging,,html-keyboard-response,76,372938,0.0-13.0-2.11,76028,List1A,white,woman,,,,null,,,,
6827,,,survey-text,77,379766,0.0-13.0-3.11,76028,List1A,white,woman,,,,,"{""Q0"":""Beth is hugging Jane""}","<img src=""stim_listA/hug7.gif""</stim_listA>",is hugging,
null,"<div style=""font-size:60px;"">+</div>",,html-keyboard-response,78,380268,0.0-13.0-0.12,76028,List1A,white,woman,,,,null,,,,
null,"<img src=""stim_listA/meet5.gif""</stim_listA>",,html-keyboard-response,79,382270,0.0-13.0-1.12,76028,List1A,white,woman,,,,null,,,,
null,is meeting,,html-keyboard-response,80,384272,0.0-13.0-2.12,76028,List1A,white,woman,,,,null,,,,
4749,,,survey-text,81,389022,0.0-13.0-3.12,76028,List1A,white,woman,,,,,"{""Q0"":""Dave is meeting Mike""}","<img src=""stim_listA/meet5.gif""</stim_listA>",is meeting,
null,"<div style=""font-size:60px;"">+</div>",,html-keyboard-response,82,389525,0.0-13.0-0.13,76028,List1A,white,woman,,,,null,,,,
null,"<img src=""stim_listA/kiss5.gif""</stim_listA>",,html-keyboard-response,83,391527,0.0-13.0-1.13,76028,List1A,white,woman,,,,null,,,,
null,is kissing,,html-keyboard-response,84,393529,0.0-13.0-2.13,76028,List1A,white,woman,,,,null,,,,
8133,,,survey-text,85,401664,0.0-13.0-3.13,76028,List1A,white,woman,,,,,"{""Q0"":""Fred is kissing Luke""}","<img src=""stim_listA/kiss5.gif""</stim_listA>",is kissing,
null,"<div style=""font-size:60px;"">+</div>",,html-keyboard-response,86,402166,0.0-13.0-0.14,76028,List1A,white,woman,,,,null,,,,
null,"<img src=""stim_listA/shout8.gif""</stim_listA>",,html-keyboard-response,87,404168,0.0-13.0-1.14,76028,List1A,white,woman,,,,null,,,,
null,are shouting at each other,,html-keyboard-response,88,406170,0.0-13.0-2.14,76028,List1A,white,woman,,,,null,,,,
13816,,,survey-text,89,419988,0.0-13.0-3.14,76028,List1A,white,woman,,,,,"{""Q0"":""Jane and Kate are shouting at each other""}","<img src=""stim_listA/shout8.gif""</stim_listA>",are shouting at each other,
null,"<div style=""font-size:60px;"">+</div>",,html-keyboard-response,90,420491,0.0-13.0-0.15,76028,List1A,white,woman,,,,null,,,,
null,"<img src=""stim_listA/shout3.gif""</stim_listA>",,html-keyboard-response,91,422494,0.0-13.0-1.15,76028,List1A,white,woman,,,,null,,,,
null,is shouting at,,html-keyboard-response,92,424495,0.0-13.0-2.15,76028,List1A,white,woman,,,,null,,,,
8545,,,survey-text,93,433042,0.0-13.0-3.15,76028,List1A,white,woman,,,,,"{""Q0"":""Ruth is shouting at Luke""}","<img src=""stim_listA/shout3.gif""</stim_listA>",is shouting at,
null,"<div style=""font-size:60px;"">+</div>",,html-keyboard-response,94,433544,0.0-13.0-0.16,76028,List1A,white,woman,,,,null,,,,
null,"<img src=""stim_listA/marry8.gif""</stim_listA>",,html-keyboard-response,95,435546,0.0-13.0-1.16,76028,List1A,white,woman,,,,null,,,,
null,are marrying each other,,html-keyboard-response,96,437548,0.0-13.0-2.16,76028,List1A,white,woman,,,,null,,,,
7102,,,survey-text,97,444651,0.0-13.0-3.16,76028,List1A,white,woman,,,,,"{""Q0"":""Jane and Beth are marrying each other""}","<img src=""stim_listA/marry8.gif""</stim_listA>",are marrying each other,
null,"<div style=""font-size:60px;"">+</div>",,html-keyboard-response,98,445153,0.0-13.0-0.17,76028,List1A,white,woman,,,,null,,,,
null,"<img src=""stim_listA/shout4.gif""</stim_listA>",,html-keyboard-response,99,447155,0.0-13.0-1.17,76028,List1A,white,woman,,,,null,,,,
null,are shouting at each other,,html-keyboard-response,100,449156,0.0-13.0-2.17,76028,List1A,white,woman,,,,null,,,,
10655,,,survey-text,101,459813,0.0-13.0-3.17,76028,List1A,white,woman,,,,,"{""Q0"":""Dave and Jane are shouting at each other""}","<img src=""stim_listA/shout4.gif""</stim_listA>",are shouting at each other,
null,"<div style=""font-size:60px;"">+</div>",,html-keyboard-response,102,460313,0.0-13.0-0.18,76028,List1A,white,woman,,,,null,,,,
null,"<img src=""stim_listA/fight7.gif""</stim_listA>",,html-keyboard-response,103,462315,0.0-13.0-1.18,76028,List1A,white,woman,,,,null,,,,
null,is fighting,,html-keyboard-response,104,464316,0.0-13.0-2.18,76028,List1A,white,woman,,,,null,,,,
5324,,,survey-text,105,469642,0.0-13.0-3.18,76028,List1A,white,woman,,,,,"{""Q0"":""Kate is fighting Jane""}","<img src=""stim_listA/fight7.gif""</stim_listA>",is fighting,
null,"<div style=""font-size:60px;"">+</div>",,html-keyboard-response,106,470144,0.0-13.0-0.19,76028,List1A,white,woman,,,,null,,,,
null,"<img src=""stim_listA/dance3.gif""</stim_listA>",,html-keyboard-response,107,472145,0.0-13.0-1.19,76028,List1A,white,woman,,,,null,,,,
null,is dancing with,,html-keyboard-response,108,474147,0.0-13.0-2.19,76028,List1A,white,woman,,,,null,,,,
5996,,,survey-text,109,480144,0.0-13.0-3.19,76028,List1A,white,woman,,,,,"{""Q0"":""Jane is dancing with Luke""}","<img src=""stim_listA/dance3.gif""</stim_listA>",is dancing with,
16122,"<img src='img/portrait_matrix_list1.JPG' style='width:900px;height:500px;''></img><p>If you have memorised all the portraits and names and are ready to start, press Continue.</p><p><strong>Please note: Your memory of these faces will be tested 4 times during this experiment.</strong></p>",0,html-button-response,110,496269,0.0-14.0-0.0,76028,List1A,white,woman,,,,,,,,
3872,"<img src=""portrait/BM2.jpg""style=""width:400px;height:400px;""></img>",5,html-button-response,111,501143,0.0-14.0-1.0,76028,List1A,white,woman,,TRUE,5,,,,,
null,CORRECT,,html-keyboard-response,112,502646,0.0-14.0-2.0-0.0,76028,List1A,white,woman,,,,null,,,,
2630,"<img src=""portrait/BM1.jpg""style=""width:400px;height:400px;""></img>",4,html-button-response,113,505277,0.0-14.0-4.0,76028,List1A,white,woman,,TRUE,4,,,,,
null,CORRECT,,html-keyboard-response,114,506780,0.0-14.0-5.0-0.0,76028,List1A,white,woman,,,,null,,,,
1803,"<img src=""portrait/BW2.jpg""style=""width:400px;height:400px;""></img>",2,html-button-response,115,508585,0.0-14.0-7.0,76028,List1A,white,woman,,TRUE,2,,,,,
null,CORRECT,,html-keyboard-response,116,510088,0.0-14.0-8.0-0.0,76028,List1A,white,woman,,,,null,,,,
3187,"<img src=""portrait/BW1.jpg""style=""width:400px;height:400px;""></img>",0,html-button-response,117,513278,0.0-14.0-10.0,76028,List1A,white,woman,,TRUE,0,,,,,
null,CORRECT,,html-keyboard-response,118,514779,0.0-14.0-11.0-0.0,76028,List1A,white,woman,,,,null,,,,
2014,"<img src=""portrait/WM1.jpg""style=""width:400px;height:400px;""></img>",6,html-button-response,119,516797,0.0-14.0-13.0,76028,List1A,white,woman,,TRUE,6,,,,,
null,CORRECT,,html-keyboard-response,120,518300,0.0-14.0-14.0-0.0,76028,List1A,white,woman,,,,null,,,,
3189,"<img src=""portrait/WW2.jpg""style=""width:400px;height:400px;""></img>",3,html-button-response,121,521490,0.0-14.0-16.0,76028,List1A,white,woman,,TRUE,3,,,,,
null,CORRECT,,html-keyboard-response,122,522993,0.0-14.0-17.0-0.0,76028,List1A,white,woman,,,,null,,,,
1818,"<img src=""portrait/WM2.jpg""style=""width:400px;height:400px;""></img>",7,html-button-response,123,524812,0.0-14.0-19.0,76028,List1A,white,woman,,TRUE,7,,,,,
null,CORRECT,,html-keyboard-response,124,526315,0.0-14.0-20.0-0.0,76028,List1A,white,woman,,,,null,,,,
3146,"<img src=""portrait/WW1.jpg""style=""width:400px;height:400px;""></img>",1,html-button-response,125,529462,0.0-14.0-22.0,76028,List1A,white,woman,,TRUE,1,,,,,
null,CORRECT,,html-keyboard-response,126,530964,0.0-14.0-23.0-0.0,76028,List1A,white,woman,,,,null,,,,
1573,<p>You got 8 out of 8 right first time. Press Continue.</p>,0,html-button-response,127,532538,0.0-14.0-25.0,76028,List1A,white,woman,,,,,,,,
null,"<div style=""font-size:60px;"">+</div>",,html-keyboard-response,128,534041,0.0-15.0-0.0,76028,List1A,white,woman,,,,null,,,,
null,"<img src=""stim_listA/argue8.gif""</stim_listA>",,html-keyboard-response,129,536044,0.0-15.0-1.0,76028,List1A,white,woman,,,,null,,,,
null,are arguing with each other,,html-keyboard-response,130,538045,0.0-15.0-2.0,76028,List1A,white,woman,,,,null,,,,
10479,,,survey-text,131,548526,0.0-15.0-3.0,76028,List1A,white,woman,,,,,"{""Q0"":""Beth and Jane are arguing with each other""}","<img src=""stim_listA/argue8.gif""</stim_listA>",are arguing with each other,
null,"<div style=""font-size:60px;"">+</div>",,html-keyboard-response,132,549028,0.0-15.0-0.1,76028,List1A,white,woman,,,,null,,,,
null,"<img src=""stim_listA/hug3.gif""</stim_listA>",,html-keyboard-response,133,551030,0.0-15.0-1.1,76028,List1A,white,woman,,,,null,,,,
null,is hugging,,html-keyboard-response,134,553031,0.0-15.0-2.1,76028,List1A,white,woman,,,,null,,,,
7725,,,survey-text,135,560757,0.0-15.0-3.1,76028,List1A,white,woman,,,,,"{""Q0"":""Luke is hugging Ruth""}","<img src=""stim_listA/hug3.gif""</stim_listA>",is hugging,
null,"<div style=""font-size:60px;"">+</div>",,html-keyboard-response,136,561259,0.0-15.0-0.2,76028,List1A,white,woman,,,,null,,,,
null,"<img src=""stim_listA/argue6.gif""</stim_listA>",,html-keyboard-response,137,563262,0.0-15.0-1.2,76028,List1A,white,woman,,,,null,,,,
null,are arguing with each other,,html-keyboard-response,138,565264,0.0-15.0-2.2,76028,List1A,white,woman,,,,null,,,,
9206,,,survey-text,139,574470,0.0-15.0-3.2,76028,List1A,white,woman,,,,,"{""Q0"":""Fred and Dave are arguing with each other""}","<img src=""stim_listA/argue6.gif""</stim_listA>",are arguing with each other,
null,"<div style=""font-size:60px;"">+</div>",,html-keyboard-response,140,574972,0.0-15.0-0.3,76028,List1A,white,woman,,,,null,,,,
null,"<img src=""stim_listA/meet8.gif""</stim_listA>",,html-keyboard-response,141,576975,0.0-15.0-1.3,76028,List1A,white,woman,,,,null,,,,
null,are meeting each other,,html-keyboard-response,142,578977,0.0-15.0-2.3,76028,List1A,white,woman,,,,null,,,,
8454,,,survey-text,143,587432,0.0-15.0-3.3,76028,List1A,white,woman,,,,,"{""Q0"":""Beth and Ruth are meeting each other ""}","<img src=""stim_listA/meet8.gif""</stim_listA>",are meeting each other,
null,"<div style=""font-size:60px;"">+</div>",,html-keyboard-response,144,587934,0.0-15.0-0.4,76028,List1A,white,woman,,,,null,,,,
null,"<img src=""stim_listA/talk4.gif""</stim_listA>",,html-keyboard-response,145,589936,0.0-15.0-1.4,76028,List1A,white,woman,,,,null,,,,
null,are talking to each other,,html-keyboard-response,146,591938,0.0-15.0-2.4,76028,List1A,white,woman,,,,null,,,,
8211,,,survey-text,147,600150,0.0-15.0-3.4,76028,List1A,white,woman,,,,,"{""Q0"":""Dave and Ruth are talking to each other""}","<img src=""stim_listA/talk4.gif""</stim_listA>",are talking to each other,
null,"<div style=""font-size:60px;"">+</div>",,html-keyboard-response,148,600652,0.0-15.0-0.5,76028,List1A,white,woman,,,,null,,,,
null,"<img src=""stim_listA/hug6.gif""</stim_listA>",,html-keyboard-response,149,602654,0.0-15.0-1.5,76028,List1A,white,woman,,,,null,,,,
null,are hugging each other,,html-keyboard-response,150,604656,0.0-15.0-2.5,76028,List1A,white,woman,,,,null,,,,
10130,,,survey-text,151,614787,0.0-15.0-3.5,76028,List1A,white,woman,,,,,"{""Q0"":""Mike and Dave are hugging each other""}","<img src=""stim_listA/hug6.gif""</stim_listA>",are hugging each other,
null,"<div style=""font-size:60px;"">+</div>",,html-keyboard-response,152,615289,0.0-15.0-0.6,76028,List1A,white,woman,,,,null,,,,
null,"<img src=""stim_listA/hug2.gif""</stim_listA>",,html-keyboard-response,153,617292,0.0-15.0-1.6,76028,List1A,white,woman,,,,null,,,,
null,are hugging each other,,html-keyboard-response,154,619294,0.0-15.0-2.6,76028,List1A,white,woman,,,,null,,,,
7112,,,survey-text,155,626407,0.0-15.0-3.6,76028,List1A,white,woman,,,,,"{""Q0"":""Mike and Kate are hugging each other""}","<img src=""stim_listA/hug2.gif""</stim_listA>",are hugging each other,
null,"<div style=""font-size:60px;"">+</div>",,html-keyboard-response,156,626909,0.0-15.0-0.7,76028,List1A,white,woman,,,,null,,,,
null,"<img src=""stim_listA/fight2.gif""</stim_listA>",,html-keyboard-response,157,628912,0.0-15.0-1.7,76028,List1A,white,woman,,,,null,,,,
null,are fighting each other,,html-keyboard-response,158,630913,0.0-15.0-2.7,76028,List1A,white,woman,,,,null,,,,
10549,,,survey-text,159,641463,0.0-15.0-3.7,76028,List1A,white,woman,,,,,"{""Q0"":""Fred and Beth are fighting each other""}","<img src=""stim_listA/fight2.gif""</stim_listA>",are fighting each other,
null,"<div style=""font-size:60px;"">+</div>",,html-keyboard-response,160,641965,0.0-15.0-0.8,76028,List1A,white,woman,,,,null,,,,
null,"<img src=""stim_listA/talk5.gif""</stim_listA>",,html-keyboard-response,161,643968,0.0-15.0-1.8,76028,List1A,white,woman,,,,null,,,,
null,is talking to,,html-keyboard-response,162,645969,0.0-15.0-2.8,76028,List1A,white,woman,,,,null,,,,
4902,,,survey-text,163,650873,0.0-15.0-3.8,76028,List1A,white,woman,,,,,"{""Q0"":""Fred is talking to Dave""}","<img src=""stim_listA/talk5.gif""</stim_listA>",is talking to,
null,"<div style=""font-size:60px;"">+</div>",,html-keyboard-response,164,651375,0.0-15.0-0.9,76028,List1A,white,woman,,,,null,,,,
null,"<img src=""stim_listA/shout6.gif""</stim_listA>",,html-keyboard-response,165,653376,0.0-15.0-1.9,76028,List1A,white,woman,,,,null,,,,
null,are shouting at each other,,html-keyboard-response,166,655378,0.0-15.0-2.9,76028,List1A,white,woman,,,,null,,,,
8299,,,survey-text,167,663678,0.0-15.0-3.9,76028,List1A,white,woman,,,,,"{""Q0"":""Mike and Dave are shouting at each other""}","<img src=""stim_listA/shout6.gif""</stim_listA>",are shouting at each other,
null,"<div style=""font-size:60px;"">+</div>",,html-keyboard-response,168,664181,0.0-15.0-0.10,76028,List1A,white,woman,,,,null,,,,
null,"<img src=""stim_listA/fight6.gif""</stim_listA>",,html-keyboard-response,169,666182,0.0-15.0-1.10,76028,List1A,white,woman,,,,null,,,,
null,are fighting each other,,html-keyboard-response,170,668184,0.0-15.0-2.10,76028,List1A,white,woman,,,,null,,,,
10467,,,survey-text,171,678652,0.0-15.0-3.10,76028,List1A,white,woman,,,,,"{""Q0"":""Fred and Luke are fighting each other""}","<img src=""stim_listA/fight6.gif""</stim_listA>",are fighting each other,
null,"<div style=""font-size:60px;"">+</div>",,html-keyboard-response,172,679154,0.0-15.0-0.11,76028,List1A,white,woman,,,,null,,,,
null,"<img src=""stim_listA/marry5.gif""</stim_listA>",,html-keyboard-response,173,681155,0.0-15.0-1.11,76028,List1A,white,woman,,,,null,,,,
null,is marrying,,html-keyboard-response,174,683157,0.0-15.0-2.11,76028,List1A,white,woman,,,,null,,,,
9384,,,survey-text,175,692542,0.0-15.0-3.11,76028,List1A,white,woman,,,,,"{""Q0"":""Luke is marrying Mike""}","<img src=""stim_listA/marry5.gif""</stim_listA>",is marrying,
null,"<div style=""font-size:60px;"">+</div>",,html-keyboard-response,176,693044,0.0-15.0-0.12,76028,List1A,white,woman,,,,null,,,,
null,"<img src=""stim_listA/meet7.gif""</stim_listA>",,html-keyboard-response,177,695046,0.0-15.0-1.12,76028,List1A,white,woman,,,,null,,,,
null,is meeting,,html-keyboard-response,178,697048,0.0-15.0-2.12,76028,List1A,white,woman,,,,null,,,,
5662,,,survey-text,179,702711,0.0-15.0-3.12,76028,List1A,white,woman,,,,,"{""Q0"":""Jane is meeting Kate""}","<img src=""stim_listA/meet7.gif""</stim_listA>",is meeting,
null,"<div style=""font-size:60px;"">+</div>",,html-keyboard-response,180,703213,0.0-15.0-0.13,76028,List1A,white,woman,,,,null,,,,
null,"<img src=""stim_listA/argue5.gif""</stim_listA>",,html-keyboard-response,181,705215,0.0-15.0-1.13,76028,List1A,white,woman,,,,null,,,,
null,is arguing with,,html-keyboard-response,182,707217,0.0-15.0-2.13,76028,List1A,white,woman,,,,null,,,,
7190,,,survey-text,183,714409,0.0-15.0-3.13,76028,List1A,white,woman,,,,,"{""Q0"":""Mike is arguing with Luke""}","<img src=""stim_listA/argue5.gif""</stim_listA>",is arguing with,
null,"<div style=""font-size:60px;"">+</div>",,html-keyboard-response,184,714911,0.0-15.0-0.14,76028,List1A,white,woman,,,,null,,,,
null,"<img src=""stim_listA/kiss3.gif""</stim_listA>",,html-keyboard-response,185,716914,0.0-15.0-1.14,76028,List1A,white,woman,,,,null,,,,
null,is kissing,,html-keyboard-response,186,718916,0.0-15.0-2.14,76028,List1A,white,woman,,,,null,,,,
5924,,,survey-text,187,724841,0.0-15.0-3.14,76028,List1A,white,woman,,,,,"{""Q0"":""Ruth is kissing Luke""}","<img src=""stim_listA/kiss3.gif""</stim_listA>",is kissing,
null,"<div style=""font-size:60px;"">+</div>",,html-keyboard-response,188,725342,0.0-15.0-0.15,76028,List1A,white,woman,,,,null,,,,
null,"<img src=""stim_listA/fight5.gif""</stim_listA>",,html-keyboard-response,189,727345,0.0-15.0-1.15,76028,List1A,white,woman,,,,null,,,,
null,is fighting,,html-keyboard-response,190,729346,0.0-15.0-2.15,76028,List1A,white,woman,,,,null,,,,
4978,,,survey-text,191,734326,0.0-15.0-3.15,76028,List1A,white,woman,,,,,"{""Q0"":""Dave is fighting Mike""}","<img src=""stim_listA/fight5.gif""</stim_listA>",is fighting,
null,"<div style=""font-size:60px;"">+</div>",,html-keyboard-response,192,734829,0.0-15.0-0.16,76028,List1A,white,woman,,,,null,,,,
null,"<img src=""stim_listA/touch2.gif""</stim_listA>",,html-keyboard-response,193,736831,0.0-15.0-1.16,76028,List1A,white,woman,,,,null,,,,
null,are touching each other,,html-keyboard-response,194,738833,0.0-15.0-2.16,76028,List1A,white,woman,,,,null,,,,
7923,,,survey-text,195,746758,0.0-15.0-3.16,76028,List1A,white,woman,,,,,"{""Q0"":""Fred and Beth are touching each other""}","<img src=""stim_listA/touch2.gif""</stim_listA>",are touching each other,
null,"<div style=""font-size:60px;"">+</div>",,html-keyboard-response,196,747259,0.0-15.0-0.17,76028,List1A,white,woman,,,,null,,,,
null,"<img src=""stim_listA/shout7.gif""</stim_listA>",,html-keyboard-response,197,749261,0.0-15.0-1.17,76028,List1A,white,woman,,,,null,,,,
null,is shouting at,,html-keyboard-response,198,751263,0.0-15.0-2.17,76028,List1A,white,woman,,,,null,,,,
8706,,,survey-text,199,759970,0.0-15.0-3.17,76028,List1A,white,woman,,,,,"{""Q0"":""Ruth is shouting at Beth""}","<img src=""stim_listA/shout7.gif""</stim_listA>",is shouting at,
null,"<div style=""font-size:60px;"">+</div>",,html-keyboard-response,200,760472,0.0-15.0-0.18,76028,List1A,white,woman,,,,null,,,,
null,"<img src=""stim_listA/talk1.gif""</stim_listA>",,html-keyboard-response,201,762474,0.0-15.0-1.18,76028,List1A,white,woman,,,,null,,,,
null,is talking to,,html-keyboard-response,202,764476,0.0-15.0-2.18,76028,List1A,white,woman,,,,null,,,,
5492,,,survey-text,203,769970,0.0-15.0-3.18,76028,List1A,white,woman,,,,,"{""Q0"":""Kate is talking to Fred""}","<img src=""stim_listA/talk1.gif""</stim_listA>",is talking to,
null,"<div style=""font-size:60px;"">+</div>",,html-keyboard-response,204,770472,0.0-15.0-0.19,76028,List1A,white,woman,,,,null,,,,
null,"<img src=""stim_listA/hug4.gif""</stim_listA>",,html-keyboard-response,205,772474,0.0-15.0-1.19,76028,List1A,white,woman,,,,null,,,,
null,are hugging each other,,html-keyboard-response,206,774478,0.0-15.0-2.19,76028,List1A,white,woman,,,,null,,,,
10597,,,survey-text,207,785077,0.0-15.0-3.19,76028,List1A,white,woman,,,,,"{""Q0"":""Dave and Jane are hugging each other""}","<img src=""stim_listA/hug4.gif""</stim_listA>",are hugging each other,
2478,"<img src='img/portrait_matrix_list1.JPG' style='width:900px;height:500px;''></img><p>If you have memorised all the portraits and names and are ready to start, press Continue.</p><p><strong>Please note: Your memory of these faces will be tested 4 times during this experiment.</strong></p>",0,html-button-response,208,787556,0.0-16.0-0.0,76028,List1A,white,woman,,,,,,,,
3484,"<img src=""portrait/BM2.jpg""style=""width:400px;height:400px;""></img>",5,html-button-response,209,792042,0.0-16.0-1.0,76028,List1A,white,woman,,TRUE,5,,,,,
null,CORRECT,,html-keyboard-response,210,793547,0.0-16.0-2.0-0.0,76028,List1A,white,woman,,,,null,,,,
1560,"<img src=""portrait/WM2.jpg""style=""width:400px;height:400px;""></img>",7,html-button-response,211,795108,0.0-16.0-4.0,76028,List1A,white,woman,,TRUE,7,,,,,
null,CORRECT,,html-keyboard-response,212,796610,0.0-16.0-5.0-0.0,76028,List1A,white,woman,,,,null,,,,
2627,"<img src=""portrait/BM1.jpg""style=""width:400px;height:400px;""></img>",4,html-button-response,213,799240,0.0-16.0-7.0,76028,List1A,white,woman,,TRUE,4,,,,,
null,CORRECT,,html-keyboard-response,214,800742,0.0-16.0-8.0-0.0,76028,List1A,white,woman,,,,null,,,,
2824,"<img src=""portrait/BW1.jpg""style=""width:400px;height:400px;""></img>",0,html-button-response,215,803568,0.0-16.0-10.0,76028,List1A,white,woman,,TRUE,0,,,,,
null,CORRECT,,html-keyboard-response,216,805071,0.0-16.0-11.0-0.0,76028,List1A,white,woman,,,,null,,,,
2819,"<img src=""portrait/WW1.jpg""style=""width:400px;height:400px;""></img>",1,html-button-response,217,807892,0.0-16.0-13.0,76028,List1A,white,woman,,TRUE,1,,,,,
null,CORRECT,,html-keyboard-response,218,809395,0.0-16.0-14.0-0.0,76028,List1A,white,woman,,,,null,,,,
1637,"<img src=""portrait/WM1.jpg""style=""width:400px;height:400px;""></img>",6,html-button-response,219,811034,0.0-16.0-16.0,76028,List1A,white,woman,,TRUE,6,,,,,
null,CORRECT,,html-keyboard-response,220,812538,0.0-16.0-17.0-0.0,76028,List1A,white,woman,,,,null,,,,
2052,"<img src=""portrait/WW2.jpg""style=""width:400px;height:400px;""></img>",3,html-button-response,221,814592,0.0-16.0-19.0,76028,List1A,white,woman,,TRUE,3,,,,,
null,CORRECT,,html-keyboard-response,222,816095,0.0-16.0-20.0-0.0,76028,List1A,white,woman,,,,null,,,,
2704,"<img src=""portrait/BW2.jpg""style=""width:400px;height:400px;""></img>",2,html-button-response,223,818801,0.0-16.0-22.0,76028,List1A,white,woman,,TRUE,2,,,,,
null,CORRECT,,html-keyboard-response,224,820305,0.0-16.0-23.0-0.0,76028,List1A,white,woman,,,,null,,,,
1312,<p>You got 8 out of 8 right first time. Press Continue.</p>,0,html-button-response,225,821619,0.0-16.0-25.0,76028,List1A,white,woman,,,,,,,,
null,"<div style=""font-size:60px;"">+</div>",,html-keyboard-response,226,823122,0.0-17.0-0.0,76028,List1A,white,woman,,,,null,,,,
null,"<img src=""stim_listA/talk8.gif""</stim_listA>",,html-keyboard-response,227,825125,0.0-17.0-1.0,76028,List1A,white,woman,,,,null,,,,
null,are talking to each other,,html-keyboard-response,228,827126,0.0-17.0-2.0,76028,List1A,white,woman,,,,null,,,,
9948,,,survey-text,229,837076,0.0-17.0-3.0,76028,List1A,white,woman,,,,,"{""Q0"":""Ruth and Kate are talking to each other""}","<img src=""stim_listA/talk8.gif""</stim_listA>",are talking to each other,
null,"<div style=""font-size:60px;"">+</div>",,html-keyboard-response,230,837578,0.0-17.0-0.1,76028,List1A,white,woman,,,,null,,,,
null,"<img src=""stim_listA/meet2.gif""</stim_listA>",,html-keyboard-response,231,839580,0.0-17.0-1.1,76028,List1A,white,woman,,,,null,,,,
null,are meeting each other,,html-keyboard-response,232,841582,0.0-17.0-2.1,76028,List1A,white,woman,,,,null,,,,
5938,,,survey-text,233,847522,0.0-17.0-3.1,76028,List1A,white,woman,,,,,"{""Q0"":""Fred and Beth are meeting each other""}","<img src=""stim_listA/meet2.gif""</stim_listA>",are meeting each other,
null,"<div style=""font-size:60px;"">+</div>",,html-keyboard-response,234,848024,0.0-17.0-0.2,76028,List1A,white,woman,,,,null,,,,
null,"<img src=""stim_listA/marry4.gif""</stim_listA>",,html-keyboard-response,235,850026,0.0-17.0-1.2,76028,List1A,white,woman,,,,null,,,,
null,are marrying each other,,html-keyboard-response,236,852028,0.0-17.0-2.2,76028,List1A,white,woman,,,,null,,,,
7540,,,survey-text,237,859569,0.0-17.0-3.2,76028,List1A,white,woman,,,,,"{""Q0"":""Jane and Luke are marrying each other""}","<img src=""stim_listA/marry4.gif""</stim_listA>",are marrying each other,
null,"<div style=""font-size:60px;"">+</div>",,html-keyboard-response,238,860071,0.0-17.0-0.3,76028,List1A,white,woman,,,,null,,,,
null,"<img src=""stim_listA/fight3.gif""</stim_listA>",,html-keyboard-response,239,862074,0.0-17.0-1.3,76028,List1A,white,woman,,,,null,,,,
null,is fighting,,html-keyboard-response,240,864075,0.0-17.0-2.3,76028,List1A,white,woman,,,,null,,,,
9318,,,survey-text,241,873395,0.0-17.0-3.3,76028,List1A,white,woman,,,,,"{""Q0"":""Jane is fighting Dave""}","<img src=""stim_listA/fight3.gif""</stim_listA>",is fighting,
null,"<div style=""font-size:60px;"">+</div>",,html-keyboard-response,242,873897,0.0-17.0-0.4,76028,List1A,white,woman,,,,null,,,,
null,"<img src=""stim_listA/touch1.gif""</stim_listA>",,html-keyboard-response,243,875900,0.0-17.0-1.4,76028,List1A,white,woman,,,,null,,,,
null,is touching,,html-keyboard-response,244,877902,0.0-17.0-2.4,76028,List1A,white,woman,,,,null,,,,
4027,,,survey-text,245,881930,0.0-17.0-3.4,76028,List1A,white,woman,,,,,"{""Q0"":""Mike is touching Kate""}","<img src=""stim_listA/touch1.gif""</stim_listA>",is touching,
null,"<div style=""font-size:60px;"">+</div>",,html-keyboard-response,246,882431,0.0-17.0-0.5,76028,List1A,white,woman,,,,null,,,,
null,"<img src=""stim_listA/touch8.gif""</stim_listA>",,html-keyboard-response,247,884433,0.0-17.0-1.5,76028,List1A,white,woman,,,,null,,,,
null,are touching each other,,html-keyboard-response,248,886435,0.0-17.0-2.5,76028,List1A,white,woman,,,,null,,,,
8302,,,survey-text,249,894738,0.0-17.0-3.5,76028,List1A,white,woman,,,,,"{""Q0"":""Beth and Ruth are touching each other""}","<img src=""stim_listA/touch8.gif""</stim_listA>",are touching each other,
null,"<div style=""font-size:60px;"">+</div>",,html-keyboard-response,250,895241,0.0-17.0-0.6,76028,List1A,white,woman,,,,null,,,,
null,"<img src=""stim_listA/shout5.gif""</stim_listA>",,html-keyboard-response,251,897243,0.0-17.0-1.6,76028,List1A,white,woman,,,,null,,,,
null,is shouting at,,html-keyboard-response,252,899245,0.0-17.0-2.6,76028,List1A,white,woman,,,,null,,,,
4284,,,survey-text,253,903530,0.0-17.0-3.6,76028,List1A,white,woman,,,,,"{""Q0"":""Fred is shouting at Luke""}","<img src=""stim_listA/shout5.gif""</stim_listA>",is shouting at,
null,"<div style=""font-size:60px;"">+</div>",,html-keyboard-response,254,904032,0.0-17.0-0.7,76028,List1A,white,woman,,,,null,,,,
null,"<img src=""stim_listA/shout1.gif""</stim_listA>",,html-keyboard-response,255,906034,0.0-17.0-1.7,76028,List1A,white,woman,,,,null,,,,
null,is shouting at,,html-keyboard-response,256,908036,0.0-17.0-2.7,76028,List1A,white,woman,,,,null,,,,
6042,,,survey-text,257,914080,0.0-17.0-3.7,76028,List1A,white,woman,,,,,"{""Q0"":""Beth is shouting at Fred""}","<img src=""stim_listA/shout1.gif""</stim_listA>",is shouting at,
null,"<div style=""font-size:60px;"">+</div>",,html-keyboard-response,258,914582,0.0-17.0-0.8,76028,List1A,white,woman,,,,null,,,,
null,"<img src=""stim_listA/touch3.gif""</stim_listA>",,html-keyboard-response,259,916583,0.0-17.0-1.8,76028,List1A,white,woman,,,,null,,,,
null,is touching,,html-keyboard-response,260,918586,0.0-17.0-2.8,76028,List1A,white,woman,,,,null,,,,
8546,,,survey-text,261,927132,0.0-17.0-3.8,76028,List1A,white,woman,,,,,"{""Q0"":""Jane is touching Dave""}","<img src=""stim_listA/touch3.gif""</stim_listA>",is touching,
null,"<div style=""font-size:60px;"">+</div>",,html-keyboard-response,262,927634,0.0-17.0-0.9,76028,List1A,white,woman,,,,null,,,,
null,"<img src=""stim_listA/dance6.gif""</stim_listA>",,html-keyboard-response,263,929636,0.0-17.0-1.9,76028,List1A,white,woman,,,,null,,,,
null,are dancing with each other,,html-keyboard-response,264,931637,0.0-17.0-2.9,76028,List1A,white,woman,,,,null,,,,
7201,,,survey-text,265,938840,0.0-17.0-3.9,76028,List1A,white,woman,,,,,"{""Q0"":""Mike and Luke are dancing with each other""}","<img src=""stim_listA/dance6.gif""</stim_listA>",are dancing with each other,
null,"<div style=""font-size:60px;"">+</div>",,html-keyboard-response,266,939341,0.0-17.0-0.10,76028,List1A,white,woman,,,,null,,,,
null,"<img src=""stim_listA/argue1.gif""</stim_listA>",,html-keyboard-response,267,941344,0.0-17.0-1.10,76028,List1A,white,woman,,,,null,,,,
null,is arguing with,,html-keyboard-response,268,943346,0.0-17.0-2.10,76028,List1A,white,woman,,,,null,,,,
5506,,,survey-text,269,948853,0.0-17.0-3.10,76028,List1A,white,woman,,,,,"{""Q0"":""Beth is arguing with Mike""}","<img src=""stim_listA/argue1.gif""</stim_listA>",is arguing with,
null,"<div style=""font-size:60px;"">+</div>",,html-keyboard-response,270,949355,0.0-17.0-0.11,76028,List1A,white,woman,,,,null,,,,
null,"<img src=""stim_listA/argue3.gif""</stim_listA>",,html-keyboard-response,271,951357,0.0-17.0-1.11,76028,List1A,white,woman,,,,null,,,,
null,is arguing with,,html-keyboard-response,272,953359,0.0-17.0-2.11,76028,List1A,white,woman,,,,null,,,,
13845,,,survey-text,273,967204,0.0-17.0-3.11,76028,List1A,white,woman,,,,,"{""Q0"":""Dave is arguing with Ruth""}","<img src=""stim_listA/argue3.gif""</stim_listA>",is arguing with,
null,"<div style=""font-size:60px;"">+</div>",,html-keyboard-response,274,967707,0.0-17.0-0.12,76028,List1A,white,woman,,,,null,,,,
null,"<img src=""stim_listA/talk2.gif""</stim_listA>",,html-keyboard-response,275,969709,0.0-17.0-1.12,76028,List1A,white,woman,,,,null,,,,
null,are talking to each other,,html-keyboard-response,276,971711,0.0-17.0-2.12,76028,List1A,white,woman,,,,null,,,,
8777,,,survey-text,277,980489,0.0-17.0-3.12,76028,List1A,white,woman,,,,,"{""Q0"":""Beth and Mike are talking to each other""}","<img src=""stim_listA/talk2.gif""</stim_listA>",are talking to each other,
null,"<div style=""font-size:60px;"">+</div>",,html-keyboard-response,278,980990,0.0-17.0-0.13,76028,List1A,white,woman,,,,null,,,,
null,"<img src=""stim_listA/kiss1.gif""</stim_listA>",,html-keyboard-response,279,982992,0.0-17.0-1.13,76028,List1A,white,woman,,,,null,,,,
null,is kissing,,html-keyboard-response,280,984996,0.0-17.0-2.13,76028,List1A,white,woman,,,,null,,,,
8255,,,survey-text,281,993252,0.0-17.0-3.13,76028,List1A,white,woman,,,,,"{""Q0"":""Fred is kissing Beth""}","<img src=""stim_listA/kiss1.gif""</stim_listA>",is kissing,
null,"<div style=""font-size:60px;"">+</div>",,html-keyboard-response,282,993753,0.0-17.0-0.14,76028,List1A,white,woman,,,,null,,,,
null,"<img src=""stim_listA/kiss7.gif""</stim_listA>",,html-keyboard-response,283,995756,0.0-17.0-1.14,76028,List1A,white,woman,,,,null,,,,
null,is kissing,,html-keyboard-response,284,997757,0.0-17.0-2.14,76028,List1A,white,woman,,,,null,,,,
5591,,,survey-text,285,1003349,0.0-17.0-3.14,76028,List1A,white,woman,,,,,"{""Q0"":""Beth is kissing Ruth""}","<img src=""stim_listA/kiss7.gif""</stim_listA>",is kissing,
null,"<div style=""font-size:60px;"">+</div>",,html-keyboard-response,286,1003852,0.0-17.0-0.15,76028,List1A,white,woman,,,,null,,,,
null,"<img src=""stim_listA/argue2.gif""</stim_listA>",,html-keyboard-response,287,1005854,0.0-17.0-1.15,76028,List1A,white,woman,,,,null,,,,
null,are arguing with each other,,html-keyboard-response,288,1007856,0.0-17.0-2.15,76028,List1A,white,woman,,,,null,,,,
8616,,,survey-text,289,1016473,0.0-17.0-3.15,76028,List1A,white,woman,,,,,"{""Q0"":""Kate and Fred are arguing with each other""}","<img src=""stim_listA/argue2.gif""</stim_listA>",are arguing with each other,
null,"<div style=""font-size:60px;"">+</div>",,html-keyboard-response,290,1016975,0.0-17.0-0.16,76028,List1A,white,woman,,,,null,,,,
null,"<img src=""stim_listA/dance2.gif""</stim_listA>",,html-keyboard-response,291,1018977,0.0-17.0-1.16,76028,List1A,white,woman,,,,null,,,,
null,are dancing with each other,,html-keyboard-response,292,1020979,0.0-17.0-2.16,76028,List1A,white,woman,,,,null,,,,
6785,,,survey-text,293,1027766,0.0-17.0-3.16,76028,List1A,white,woman,,,,,"{""Q0"":""Mike and Beth are dancing with each other""}","<img src=""stim_listA/dance2.gif""</stim_listA>",are dancing with each other,
null,"<div style=""font-size:60px;"">+</div>",,html-keyboard-response,294,1028268,0.0-17.0-0.17,76028,List1A,white,woman,,,,null,,,,
null,"<img src=""stim_listA/talk3.gif""</stim_listA>",,html-keyboard-response,295,1030272,0.0-17.0-1.17,76028,List1A,white,woman,,,,null,,,,
null,is talking to,,html-keyboard-response,296,1032274,0.0-17.0-2.17,76028,List1A,white,woman,,,,null,,,,
5143,,,survey-text,297,1037419,0.0-17.0-3.17,76028,List1A,white,woman,,,,,"{""Q0"":""Jane is talking to Luke""}","<img src=""stim_listA/talk3.gif""</stim_listA>",is talking to,
null,"<div style=""font-size:60px;"">+</div>",,html-keyboard-response,298,1037921,0.0-17.0-0.18,76028,List1A,white,woman,,,,null,,,,
null,"<img src=""stim_listA/hug8.gif""</stim_listA>",,html-keyboard-response,299,1039923,0.0-17.0-1.18,76028,List1A,white,woman,,,,null,,,,
null,are hugging each other,,html-keyboard-response,300,1041925,0.0-17.0-2.18,76028,List1A,white,woman,,,,null,,,,
7802,,,survey-text,301,1049729,0.0-17.0-3.18,76028,List1A,white,woman,,,,,"{""Q0"":""Kate and Jane are hugging each other""}","<img src=""stim_listA/hug8.gif""</stim_listA>",are hugging each other,
null,"<div style=""font-size:60px;"">+</div>",,html-keyboard-response,302,1050231,0.0-17.0-0.19,76028,List1A,white,woman,,,,null,,,,
null,"<img src=""stim_listA/dance1.gif""</stim_listA>",,html-keyboard-response,303,1052232,0.0-17.0-1.19,76028,List1A,white,woman,,,,null,,,,
null,is dancing with,,html-keyboard-response,304,1054233,0.0-17.0-2.19,76028,List1A,white,woman,,,,null,,,,
5504,,,survey-text,305,1059738,0.0-17.0-3.19,76028,List1A,white,woman,,,,,"{""Q0"":""Fred is dancing with Kate""}","<img src=""stim_listA/dance1.gif""</stim_listA>",is dancing with,
2176,"<img src='img/portrait_matrix_list1.JPG' style='width:900px;height:500px;''></img><p>If you have memorised all the portraits and names and are ready to start, press Continue.</p><p><strong>Please note: Your memory of these faces will be tested 4 times during this experiment.</strong></p>",0,html-button-response,306,1061916,0.0-18.0-0.0,76028,List1A,white,woman,,,,,,,,
4454,"<img src=""portrait/WW1.jpg""style=""width:400px;height:400px;""></img>",1,html-button-response,307,1067374,0.0-18.0-1.0,76028,List1A,white,woman,,TRUE,1,,,,,
null,CORRECT,,html-keyboard-response,308,1068877,0.0-18.0-2.0-0.0,76028,List1A,white,woman,,,,null,,,,
1886,"<img src=""portrait/BM2.jpg""style=""width:400px;height:400px;""></img>",5,html-button-response,309,1070766,0.0-18.0-4.0,76028,List1A,white,woman,,TRUE,5,,,,,
null,CORRECT,,html-keyboard-response,310,1072269,0.0-18.0-5.0-0.0,76028,List1A,white,woman,,,,null,,,,
1303,"<img src=""portrait/WM2.jpg""style=""width:400px;height:400px;""></img>",7,html-button-response,311,1073574,0.0-18.0-7.0,76028,List1A,white,woman,,TRUE,7,,,,,
null,CORRECT,,html-keyboard-response,312,1075077,0.0-18.0-8.0-0.0,76028,List1A,white,woman,,,,null,,,,
2252,"<img src=""portrait/BM1.jpg""style=""width:400px;height:400px;""></img>",4,html-button-response,313,1077330,0.0-18.0-10.0,76028,List1A,white,woman,,TRUE,4,,,,,
null,CORRECT,,html-keyboard-response,314,1078834,0.0-18.0-11.0-0.0,76028,List1A,white,woman,,,,null,,,,
1907,"<img src=""portrait/WW2.jpg""style=""width:400px;height:400px;""></img>",3,html-button-response,315,1080742,0.0-18.0-13.0,76028,List1A,white,woman,,TRUE,3,,,,,
null,CORRECT,,html-keyboard-response,316,1082244,0.0-18.0-14.0-0.0,76028,List1A,white,woman,,,,null,,,,
2314,"<img src=""portrait/BW1.jpg""style=""width:400px;height:400px;""></img>",0,html-button-response,317,1084560,0.0-18.0-16.0,76028,List1A,white,woman,,TRUE,0,,,,,
null,CORRECT,,html-keyboard-response,318,1086062,0.0-18.0-17.0-0.0,76028,List1A,white,woman,,,,null,,,,
1584,"<img src=""portrait/WM1.jpg""style=""width:400px;height:400px;""></img>",6,html-button-response,319,1087648,0.0-18.0-19.0,76028,List1A,white,woman,,TRUE,6,,,,,
null,CORRECT,,html-keyboard-response,320,1089151,0.0-18.0-20.0-0.0,76028,List1A,white,woman,,,,null,,,,
3418,"<img src=""portrait/BW2.jpg""style=""width:400px;height:400px;""></img>",2,html-button-response,321,1092570,0.0-18.0-22.0,76028,List1A,white,woman,,TRUE,2,,,,,
null,CORRECT,,html-keyboard-response,322,1094073,0.0-18.0-23.0-0.0,76028,List1A,white,woman,,,,null,,,,
1510,<p>You got 8 out of 8 right first time. Press Continue.</p>,0,html-button-response,323,1095584,0.0-18.0-25.0,76028,List1A,white,woman,,,,,,,,
null,"<div style=""font-size:60px;"">+</div>",,html-keyboard-response,324,1097089,0.0-19.0-0.0,76028,List1A,white,woman,,,,null,,,,
null,"<img src=""stim_listA/marry1.gif""</stim_listA>",,html-keyboard-response,325,1099090,0.0-19.0-1.0,76028,List1A,white,woman,,,,null,,,,
null,is marrying,,html-keyboard-response,326,1101092,0.0-19.0-2.0,76028,List1A,white,woman,,,,null,,,,
5641,,,survey-text,327,1106734,0.0-19.0-3.0,76028,List1A,white,woman,,,,,"{""Q0"":""Beth is marrying Mike""}","<img src=""stim_listA/marry1.gif""</stim_listA>",is marrying,
null,"<div style=""font-size:60px;"">+</div>",,html-keyboard-response,328,1107237,0.0-19.0-0.1,76028,List1A,white,woman,,,,null,,,,
null,"<img src=""stim_listA/argue4.gif""</stim_listA>",,html-keyboard-response,329,1109239,0.0-19.0-1.1,76028,List1A,white,woman,,,,null,,,,
null,are arguing with each other,,html-keyboard-response,330,1111241,0.0-19.0-2.1,76028,List1A,white,woman,,,,null,,,,
8950,,,survey-text,331,1120192,0.0-19.0-3.1,76028,List1A,white,woman,,,,,"{""Q0"":""Jane and Luke are arguing with each other""}","<img src=""stim_listA/argue4.gif""</stim_listA>",are arguing with each other,
null,"<div style=""font-size:60px;"">+</div>",,html-keyboard-response,332,1120694,0.0-19.0-0.2,76028,List1A,white,woman,,,,null,,,,
null,"<img src=""stim_listA/meet4.gif""</stim_listA>",,html-keyboard-response,333,1122696,0.0-19.0-1.2,76028,List1A,white,woman,,,,null,,,,
null,are meeting each other,,html-keyboard-response,334,1124699,0.0-19.0-2.2,76028,List1A,white,woman,,,,null,,,,
5357,,,survey-text,335,1130059,0.0-19.0-3.2,76028,List1A,white,woman,,,,,"{""Q0"":""Ruth and Luke are meeting each other""}","<img src=""stim_listA/meet4.gif""</stim_listA>",are meeting each other,
null,"<div style=""font-size:60px;"">+</div>",,html-keyboard-response,336,1130560,0.0-19.0-0.3,76028,List1A,white,woman,,,,null,,,,
null,"<img src=""stim_listA/kiss2.gif""</stim_listA>",,html-keyboard-response,337,1132563,0.0-19.0-1.3,76028,List1A,white,woman,,,,null,,,,
null,are kissing each other,,html-keyboard-response,338,1134565,0.0-19.0-2.3,76028,List1A,white,woman,,,,null,,,,
8059,,,survey-text,339,1142626,0.0-19.0-3.3,76028,List1A,white,woman,,,,,"{""Q0"":""Kate and Mike are kissing each other""}","<img src=""stim_listA/kiss2.gif""</stim_listA>",are kissing each other,
null,"<div style=""font-size:60px;"">+</div>",,html-keyboard-response,340,1143128,0.0-19.0-0.4,76028,List1A,white,woman,,,,null,,,,
null,"<img src=""stim_listA/hug1.gif""</stim_listA>",,html-keyboard-response,341,1145130,0.0-19.0-1.4,76028,List1A,white,woman,,,,null,,,,
null,is hugging,,html-keyboard-response,342,1147131,0.0-19.0-2.4,76028,List1A,white,woman,,,,null,,,,
7102,,,survey-text,343,1154233,0.0-19.0-3.4,76028,List1A,white,woman,,,,,"{""Q0"":""Beth is hugging Fred""}","<img src=""stim_listA/hug1.gif""</stim_listA>",is hugging,
null,"<div style=""font-size:60px;"">+</div>",,html-keyboard-response,344,1154735,0.0-19.0-0.5,76028,List1A,white,woman,,,,null,,,,
null,"<img src=""stim_listA/dance4.gif""</stim_listA>",,html-keyboard-response,345,1156736,0.0-19.0-1.5,76028,List1A,white,woman,,,,null,,,,
null,are dancing with each other,,html-keyboard-response,346,1158738,0.0-19.0-2.5,76028,List1A,white,woman,,,,null,,,,
10690,,,survey-text,347,1169430,0.0-19.0-3.5,76028,List1A,white,woman,,,,,"{""Q0"":""Ruth and Dave are dancing with each other""}","<img src=""stim_listA/dance4.gif""</stim_listA>",are dancing with each other,
null,"<div style=""font-size:60px;"">+</div>",,html-keyboard-response,348,1169931,0.0-19.0-0.6,76028,List1A,white,woman,,,,null,,,,
null,"<img src=""stim_listA/touch4.gif""</stim_listA>",,html-keyboard-response,349,1171933,0.0-19.0-1.6,76028,List1A,white,woman,,,,null,,,,
null,are touching each other,,html-keyboard-response,350,1173935,0.0-19.0-2.6,76028,List1A,white,woman,,,,null,,,,
7855,,,survey-text,351,1181791,0.0-19.0-3.6,76028,List1A,white,woman,,,,,"{""Q0"":""Luke and Ruth are touching each other""}","<img src=""stim_listA/touch4.gif""</stim_listA>",are touching each other,
null,"<div style=""font-size:60px;"">+</div>",,html-keyboard-response,352,1182295,0.0-19.0-0.7,76028,List1A,white,woman,,,,null,,,,
null,"<img src=""stim_listA/touch6.gif""</stim_listA>",,html-keyboard-response,353,1184297,0.0-19.0-1.7,76028,List1A,white,woman,,,,null,,,,
null,are touching each other,,html-keyboard-response,354,1186298,0.0-19.0-2.7,76028,List1A,white,woman,,,,null,,,,
6322,,,survey-text,355,1192621,0.0-19.0-3.7,76028,List1A,white,woman,,,,,"{""Q0"":""Fred and Luke are touching each other""}","<img src=""stim_listA/touch6.gif""</stim_listA>",are touching each other,
null,"<div style=""font-size:60px;"">+</div>",,html-keyboard-response,356,1193123,0.0-19.0-0.8,76028,List1A,white,woman,,,,null,,,,
null,"<img src=""stim_listA/fight8.gif""</stim_listA>",,html-keyboard-response,357,1195126,0.0-19.0-1.8,76028,List1A,white,woman,,,,null,,,,
null,are fighting each other,,html-keyboard-response,358,1197128,0.0-19.0-2.8,76028,List1A,white,woman,,,,null,,,,
7876,,,survey-text,359,1205006,0.0-19.0-3.8,76028,List1A,white,woman,,,,,"{""Q0"":""Ruth and Beth are fighting each other""}","<img src=""stim_listA/fight8.gif""</stim_listA>",are fighting each other,
null,"<div style=""font-size:60px;"">+</div>",,html-keyboard-response,360,1205508,0.0-19.0-0.9,76028,List1A,white,woman,,,,null,,,,
null,"<img src=""stim_listA/meet1.gif""</stim_listA>",,html-keyboard-response,361,1207510,0.0-19.0-1.9,76028,List1A,white,woman,,,,null,,,,
null,is meeting,,html-keyboard-response,362,1209513,0.0-19.0-2.9,76028,List1A,white,woman,,,,null,,,,
4959,,,survey-text,363,1214472,0.0-19.0-3.9,76028,List1A,white,woman,,,,,"{""Q0"":""Kate is meeting Mike""}","<img src=""stim_listA/meet1.gif""</stim_listA>",is meeting,
null,"<div style=""font-size:60px;"">+</div>",,html-keyboard-response,364,1214974,0.0-19.0-0.10,76028,List1A,white,woman,,,,null,,,,
null,"<img src=""stim_listA/talk7.gif""</stim_listA>",,html-keyboard-response,365,1216977,0.0-19.0-1.10,76028,List1A,white,woman,,,,null,,,,
null,is talking to,,html-keyboard-response,366,1218979,0.0-19.0-2.10,76028,List1A,white,woman,,,,null,,,,
6011,,,survey-text,367,1224991,0.0-19.0-3.10,76028,List1A,white,woman,,,,,"{""Q0"":""Jane is talking to Beth""}","<img src=""stim_listA/talk7.gif""</stim_listA>",is talking to,
null,"<div style=""font-size:60px;"">+</div>",,html-keyboard-response,368,1225493,0.0-19.0-0.11,76028,List1A,white,woman,,,,null,,,,
null,"<img src=""stim_listA/meet3.gif""</stim_listA>",,html-keyboard-response,369,1227495,0.0-19.0-1.11,76028,List1A,white,woman,,,,null,,,,
null,is meeting,,html-keyboard-response,370,1229497,0.0-19.0-2.11,76028,List1A,white,woman,,,,null,,,,
6285,,,survey-text,371,1235783,0.0-19.0-3.11,76028,List1A,white,woman,,,,,"{""Q0"":""Jane is meeting Dave""}","<img src=""stim_listA/meet3.gif""</stim_listA>",is meeting,
null,"<div style=""font-size:60px;"">+</div>",,html-keyboard-response,372,1236284,0.0-19.0-0.12,76028,List1A,white,woman,,,,null,,,,
null,"<img src=""stim_listA/marry2.gif""</stim_listA>",,html-keyboard-response,373,1238286,0.0-19.0-1.12,76028,List1A,white,woman,,,,null,,,,
null,are marrying each other,,html-keyboard-response,374,1240288,0.0-19.0-2.12,76028,List1A,white,woman,,,,null,,,,
9460,,,survey-text,375,1249749,0.0-19.0-3.12,76028,List1A,white,woman,,,,,"{""Q0"":""Kate and Fred are marrying each other""}","<img src=""stim_listA/marry2.gif""</stim_listA>",are marrying each other,
null,"<div style=""font-size:60px;"">+</div>",,html-keyboard-response,376,1250253,0.0-19.0-0.13,76028,List1A,white,woman,,,,null,,,,
null,"<img src=""stim_listA/kiss6.gif""</stim_listA>",,html-keyboard-response,377,1252255,0.0-19.0-1.13,76028,List1A,white,woman,,,,null,,,,
null,are kissing each other,,html-keyboard-response,378,1254257,0.0-19.0-2.13,76028,List1A,white,woman,,,,null,,,,
8030,,,survey-text,379,1262289,0.0-19.0-3.13,76028,List1A,white,woman,,,,,"{""Q0"":""Mike and Dave are kissing each other""}","<img src=""stim_listA/kiss6.gif""</stim_listA>",are kissing each other,
null,"<div style=""font-size:60px;"">+</div>",,html-keyboard-response,380,1262791,0.0-19.0-0.14,76028,List1A,white,woman,,,,null,,,,
null,"<img src=""stim_listA/kiss8.gif""</stim_listA>",,html-keyboard-response,381,1264793,0.0-19.0-1.14,76028,List1A,white,woman,,,,null,,,,
null,are kissing each other,,html-keyboard-response,382,1266794,0.0-19.0-2.14,76028,List1A,white,woman,,,,null,,,,
9327,,,survey-text,383,1276123,0.0-19.0-3.14,76028,List1A,white,woman,,,,,"{""Q0"":""Kate and Jane are kissing each other""}","<img src=""stim_listA/kiss8.gif""</stim_listA>",are kissing each other,
null,"<div style=""font-size:60px;"">+</div>",,html-keyboard-response,384,1276625,0.0-19.0-0.15,76028,List1A,white,woman,,,,null,,,,
null,"<img src=""stim_listA/talk6.gif""</stim_listA>",,html-keyboard-response,385,1278627,0.0-19.0-1.15,76028,List1A,white,woman,,,,null,,,,
null,are talking to each other,,html-keyboard-response,386,1280630,0.0-19.0-2.15,76028,List1A,white,woman,,,,null,,,,
11220,,,survey-text,387,1291850,0.0-19.0-3.15,76028,List1A,white,woman,,,,,"{""Q0"":""Luke and Mike are talking to each other""}","<img src=""stim_listA/talk6.gif""</stim_listA>",are talking to each other,
null,"<div style=""font-size:60px;"">+</div>",,html-keyboard-response,388,1292352,0.0-19.0-0.16,76028,List1A,white,woman,,,,null,,,,
null,"<img src=""stim_listA/marry3.gif""</stim_listA>",,html-keyboard-response,389,1294354,0.0-19.0-1.16,76028,List1A,white,woman,,,,null,,,,
null,is marrying,,html-keyboard-response,390,1296357,0.0-19.0-2.16,76028,List1A,white,woman,,,,null,,,,
3882,,,survey-text,391,1300240,0.0-19.0-3.16,76028,List1A,white,woman,,,,,"{""Q0"":""Ruth is marrying Dave""}","<img src=""stim_listA/marry3.gif""</stim_listA>",is marrying,
null,"<div style=""font-size:60px;"">+</div>",,html-keyboard-response,392,1300742,0.0-19.0-0.17,76028,List1A,white,woman,,,,null,,,,
null,"<img src=""stim_listA/touch7.gif""</stim_listA>",,html-keyboard-response,393,1302744,0.0-19.0-1.17,76028,List1A,white,woman,,,,null,,,,
null,is touching,,html-keyboard-response,394,1304747,0.0-19.0-2.17,76028,List1A,white,woman,,,,null,,,,
10413,,,survey-text,395,1315161,0.0-19.0-3.17,76028,List1A,white,woman,,,,,"{""Q0"":""Jane is touching Kate""}","<img src=""stim_listA/touch7.gif""</stim_listA>",is touching,
null,"<div style=""font-size:60px;"">+</div>",,html-keyboard-response,396,1315664,0.0-19.0-0.18,76028,List1A,white,woman,,,,null,,,,
null,"<img src=""stim_listA/kiss4.gif""</stim_listA>",,html-keyboard-response,397,1317666,0.0-19.0-1.18,76028,List1A,white,woman,,,,null,,,,
null,are kissing each other,,html-keyboard-response,398,1319669,0.0-19.0-2.18,76028,List1A,white,woman,,,,null,,,,
13232,,,survey-text,399,1332902,0.0-19.0-3.18,76028,List1A,white,woman,,,,,"{""Q0"":""Dave and Jane are kissing each other""}","<img src=""stim_listA/kiss4.gif""</stim_listA>",are kissing each other,
null,"<div style=""font-size:60px;"">+</div>",,html-keyboard-response,400,1333405,0.0-19.0-0.19,76028,List1A,white,woman,,,,null,,,,
null,"<img src=""stim_listA/dance8.gif""</stim_listA>",,html-keyboard-response,401,1335407,0.0-19.0-1.19,76028,List1A,white,woman,,,,null,,,,
null,are dancing with each other,,html-keyboard-response,402,1337409,0.0-19.0-2.19,76028,List1A,white,woman,,,,null,,,,
10676,,,survey-text,403,1348087,0.0-19.0-3.19,76028,List1A,white,woman,,,,,"{""Q0"":""Ruth and Kate are dancing with each other""}","<img src=""stim_listA/dance8.gif""</stim_listA>",are dancing with each other,
2845,<p>Thank you for completing that task.</p><p>The final part of this session is a short questionnaire.</p><p>Press Continue.</p>,0,html-button-response,404,1350932,0.0-20.0,76028,List1A,white,woman,,,,,,,,
24806,,,survey-text,405,1376740,0.0-21.0,76028,List1A,white,woman,,,,,"{""Q0"":""28"",""Q1"":""English"",""Q2"":""English"",""Q3"":""England"",""Q4"":""White - English"",""Q5"":""Female""}",,,demographics
86870,,,survey-likert,406,1463617,0.0-22.0,76028,List1A,white,woman,,,,,"{""Q0"":4,""Q1"":4,""Q2"":4,""Q3"":4,""Q4"":4,""Q5"":5,""Q6"":4,""Q7"":1,""Q8"":4,""Q9"":4,""Q10"":4,""Q11"":4,""Q12"":4,""Q13"":4}",,,likert_race
26588,,,survey-likert,407,1490211,0.0-23.0,76028,List1A,white,woman,,,,,"{""Q0"":4,""Q1"":5,""Q2"":5,""Q3"":5,""Q4"":5,""Q5"":4,""Q6"":4,""Q7"":4,""Q8"":5,""Q9"":5,""Q10"":4,""Q11"":4,""Q12"":4,""Q13"":4}",,,likert_gender
13969,,,survey-text,408,1504182,0.0-24.0,76028,List1A,white,woman,,,,,"{""Q0"":""ccc""}",,,worker_id
3894,,,external-html,409,1508134,0.0-25.0,76028,List1A,white,woman,debrief.html,,,,,,,
