rt,stimulus,button_pressed,trial_type,trial_index,time_elapsed,internal_node_id,subject,list,ppt_race,ppt_gender,url,first_guess,correct,key_press,responses,image_type,phrase_type,test_part
2956,Welcome to the experiment. Press Continue to begin.,0,html-button-response,0,2965,0.0-0.0,7824,List1A,white,woman,,,,,,,,
59733,,,external-html,1,63832,0.0-1.0,7824,List1A,white,woman,consent.html,,,,,,,
11757,"<p>On the next page, you will see portraits of 8 people and their names.</p><p>Your first task is to take a few minutes to memorise the names of these people.</p><p>You will have to recall their names during the rest of the experiment, so it is</p><p>essential that you try to memorise these people and their names as best as you can.</p><br><p><strong>You will then be tested on your memory of these names and portraits.</strong></p><br><p>The experiment will start after you have completed this memory test.</p><br><p>Ready?</p>",0,html-button-response,2,75613,0.0-2.0,7824,List1A,white,woman,,,,,,,,
88415,"<img src='img/portrait_matrix_list1.JPG' style='width:900px;height:500px;''></img><p>If you have memorised all the portraits and names and are ready to start, press Continue.</p><p><strong>Please note: Your memory of these faces will be tested 4 times during this experiment.</strong></p>",0,html-button-response,3,165042,0.0-3.0-0.0,7824,List1A,white,woman,,,,,,,,
8972,"<img src=""portrait/WW2.jpg""style=""width:400px;height:400px;""></img>",3,html-button-response,4,175033,0.0-3.0-1.0,7824,List1A,white,woman,,TRUE,3,,,,,
null,CORRECT,,html-keyboard-response,5,176556,0.0-3.0-2.0-0.0,7824,List1A,white,woman,,,,null,,,,
5285,"<img src=""portrait/BW1.jpg""style=""width:400px;height:400px;""></img>",0,html-button-response,6,181855,0.0-3.0-4.0,7824,List1A,white,woman,,TRUE,0,,,,,
null,CORRECT,,html-keyboard-response,7,183362,0.0-3.0-5.0-0.0,7824,List1A,white,woman,,,,null,,,,
4395,"<img src=""portrait/WM2.jpg""style=""width:400px;height:400px;""></img>",7,html-button-response,8,187768,0.0-3.0-7.0,7824,List1A,white,woman,,TRUE,7,,,,,
null,CORRECT,,html-keyboard-response,9,189275,0.0-3.0-8.0-0.0,7824,List1A,white,woman,,,,null,,,,
10145,"<img src=""portrait/WM1.jpg""style=""width:400px;height:400px;""></img>",6,html-button-response,10,199431,0.0-3.0-10.0,7824,List1A,white,woman,,TRUE,6,,,,,
null,CORRECT,,html-keyboard-response,11,200940,0.0-3.0-11.0-0.0,7824,List1A,white,woman,,,,null,,,,
3724,"<img src=""portrait/WW1.jpg""style=""width:400px;height:400px;""></img>",1,html-button-response,12,204675,0.0-3.0-13.0,7824,List1A,white,woman,,TRUE,1,,,,,
null,CORRECT,,html-keyboard-response,13,206183,0.0-3.0-14.0-0.0,7824,List1A,white,woman,,,,null,,,,
3642,"<img src=""portrait/BW2.jpg""style=""width:400px;height:400px;""></img>",2,html-button-response,14,209832,0.0-3.0-16.0,7824,List1A,white,woman,,TRUE,2,,,,,
null,CORRECT,,html-keyboard-response,15,211339,0.0-3.0-17.0-0.0,7824,List1A,white,woman,,,,null,,,,
4340,"<img src=""portrait/BM2.jpg""style=""width:400px;height:400px;""></img>",5,html-button-response,16,215691,0.0-3.0-19.0,7824,List1A,white,woman,,TRUE,5,,,,,
null,CORRECT,,html-keyboard-response,17,217199,0.0-3.0-20.0-0.0,7824,List1A,white,woman,,,,null,,,,
4392,"<img src=""portrait/BM1.jpg""style=""width:400px;height:400px;""></img>",4,html-button-response,18,221600,0.0-3.0-22.0,7824,List1A,white,woman,,TRUE,4,,,,,
null,CORRECT,,html-keyboard-response,19,223108,0.0-3.0-23.0-0.0,7824,List1A,white,woman,,,,null,,,,
2233,<p>You got 8 out of 8 right first time. Press Continue.</p>,0,html-button-response,20,225355,0.0-3.0-25.0,7824,List1A,white,woman,,,,,,,,
139135,"<p>In this experiment, you will view photographs of the people from the memory game interacting.</p><p>By using the <strong>exact</strong> phrase given <i>after</i> the photograph appears and recalling the correct names of the people in the photographs, form a sentence describing the interaction. You do not need to capitalise names.</p><p>Type your answer in the space provided. Please complete every sentence before moving onto the next trial.</p><p>You will only have a few seconds to memorise each given photograph and phrase before you can respond, so try your best to focus.</p><p>An example is given below. Press 'Continue' when you are ready.</p><img src='img/speaking_example_v2.jpg' style='width:800px;height:460px;''></img>",0,html-button-response,21,365510,0.0-4.0,7824,List1A,white,woman,,,,,,,,
3061,"<p>Before the experiment starts, you will watch two example trials. Press 'Continue'.</p>",0,html-button-response,22,369577,0.0-5.0,7824,List1A,white,woman,,,,,,,,
null,<img src='img/speaking_WW.gif'></img>,,html-keyboard-response,23,372584,0.0-6.0,7824,List1A,white,woman,,,,null,,,,
null,<p>is speaking to</p>,,html-keyboard-response,24,374588,0.0-7.0,7824,List1A,white,woman,,,,null,,,,
1894,<p><b>Answer:</b> kate is speaking to beth</p>,0,html-button-response,25,376490,0.0-8.0,7824,List1A,white,woman,,,,,,,,
null,<img src='img/pointing_BM.gif'></img>,,html-keyboard-response,26,379497,0.0-9.0,7824,List1A,white,woman,,,,null,,,,
null,<p>are pointing at each other</p>,,html-keyboard-response,27,381503,0.0-10.0,7824,List1A,white,woman,,,,null,,,,
1750,<p><b>Answer:</b> luke and dave are pointing at each other</p>,0,html-button-response,28,383260,0.0-11.0,7824,List1A,white,woman,,,,,,,,
3971,"<p>Ready to start the experiment?</p><br><p><strong>Remember to describe the picture using a full sentence,</strong></p><p><strong> that combines the names of the people with the given phrase.</strong></p><p><strong> You do not need to capitalise names or use punctuation.</strong></p><br><p>Press 'Continue' to begin.</p>",0,html-button-response,29,388242,0.0-12.0,7824,List1A,white,woman,,,,,,,,
null,"<div style=""font-size:60px;"">+</div>",,html-keyboard-response,30,389750,0.0-13.0-0.0,7824,List1A,white,woman,,,,null,,,,
null,"<img src=""stim_listA/talk8.gif""</stim_listA>",,html-keyboard-response,31,391760,0.0-13.0-1.0,7824,List1A,white,woman,,,,null,,,,
null,are talking to each other,,html-keyboard-response,32,393766,0.0-13.0-2.0,7824,List1A,white,woman,,,,null,,,,
15696,,,survey-text,33,409491,0.0-13.0-3.0,7824,List1A,white,woman,,,,,"{""Q0"":""Ruth and Kate are talking to each other""}","<img src=""stim_listA/talk8.gif""</stim_listA>",are talking to each other,
null,"<div style=""font-size:60px;"">+</div>",,html-keyboard-response,34,409999,0.0-13.0-0.1,7824,List1A,white,woman,,,,null,,,,
null,"<img src=""stim_listA/fight2.gif""</stim_listA>",,html-keyboard-response,35,412004,0.0-13.0-1.1,7824,List1A,white,woman,,,,null,,,,
null,are fighting each other,,html-keyboard-response,36,414006,0.0-13.0-2.1,7824,List1A,white,woman,,,,null,,,,
5664,,,survey-text,37,419673,0.0-13.0-3.1,7824,List1A,white,woman,,,,,"{""Q0"":""""}","<img src=""stim_listA/fight2.gif""</stim_listA>",are fighting each other,
null,"<div style=""font-size:60px;"">+</div>",,html-keyboard-response,38,420175,0.0-13.0-0.2,7824,List1A,white,woman,,,,null,,,,
null,"<img src=""stim_listA/kiss7.gif""</stim_listA>",,html-keyboard-response,39,422178,0.0-13.0-1.2,7824,List1A,white,woman,,,,null,,,,
null,is kissing,,html-keyboard-response,40,424182,0.0-13.0-2.2,7824,List1A,white,woman,,,,null,,,,
12045,,,survey-text,41,436234,0.0-13.0-3.2,7824,List1A,white,woman,,,,,"{""Q0"":""Ruth is missing Beth.""}","<img src=""stim_listA/kiss7.gif""</stim_listA>",is kissing,
null,"<div style=""font-size:60px;"">+</div>",,html-keyboard-response,42,436740,0.0-13.0-0.3,7824,List1A,white,woman,,,,null,,,,
null,"<img src=""stim_listA/talk7.gif""</stim_listA>",,html-keyboard-response,43,438748,0.0-13.0-1.3,7824,List1A,white,woman,,,,null,,,,
null,is talking to,,html-keyboard-response,44,440754,0.0-13.0-2.3,7824,List1A,white,woman,,,,null,,,,
12087,,,survey-text,45,452849,0.0-13.0-3.3,7824,List1A,white,woman,,,,,"{""Q0"":""Ruth is talking to Beth.""}","<img src=""stim_listA/talk7.gif""</stim_listA>",is talking to,
null,"<div style=""font-size:60px;"">+</div>",,html-keyboard-response,46,453356,0.0-13.0-0.4,7824,List1A,white,woman,,,,null,,,,
null,"<img src=""stim_listA/touch4.gif""</stim_listA>",,html-keyboard-response,47,455363,0.0-13.0-1.4,7824,List1A,white,woman,,,,null,,,,
null,are touching each other,,html-keyboard-response,48,457372,0.0-13.0-2.4,7824,List1A,white,woman,,,,null,,,,
16057,,,survey-text,49,473436,0.0-13.0-3.4,7824,List1A,white,woman,,,,,"{""Q0"":""Ruth and Luke are touching each other.""}","<img src=""stim_listA/touch4.gif""</stim_listA>",are touching each other,
null,"<div style=""font-size:60px;"">+</div>",,html-keyboard-response,50,473942,0.0-13.0-0.5,7824,List1A,white,woman,,,,null,,,,
null,"<img src=""stim_listA/shout7.gif""</stim_listA>",,html-keyboard-response,51,475953,0.0-13.0-1.5,7824,List1A,white,woman,,,,null,,,,
null,is shouting at,,html-keyboard-response,52,477959,0.0-13.0-2.5,7824,List1A,white,woman,,,,null,,,,
10040,,,survey-text,53,488006,0.0-13.0-3.5,7824,List1A,white,woman,,,,,"{""Q0"":""Ruth is shouting at Beth.""}","<img src=""stim_listA/shout7.gif""</stim_listA>",is shouting at,
null,"<div style=""font-size:60px;"">+</div>",,html-keyboard-response,54,488511,0.0-13.0-0.6,7824,List1A,white,woman,,,,null,,,,
null,"<img src=""stim_listA/meet4.gif""</stim_listA>",,html-keyboard-response,55,490518,0.0-13.0-1.6,7824,List1A,white,woman,,,,null,,,,
null,are meeting each other,,html-keyboard-response,56,492524,0.0-13.0-2.6,7824,List1A,white,woman,,,,null,,,,
11466,,,survey-text,57,503999,0.0-13.0-3.6,7824,List1A,white,woman,,,,,"{""Q0"":""Ruth and Luke are shaking hands.""}","<img src=""stim_listA/meet4.gif""</stim_listA>",are meeting each other,
null,"<div style=""font-size:60px;"">+</div>",,html-keyboard-response,58,504504,0.0-13.0-0.7,7824,List1A,white,woman,,,,null,,,,
null,"<img src=""stim_listA/hug7.gif""</stim_listA>",,html-keyboard-response,59,506516,0.0-13.0-1.7,7824,List1A,white,woman,,,,null,,,,
null,is hugging,,html-keyboard-response,60,508523,0.0-13.0-2.7,7824,List1A,white,woman,,,,null,,,,
8627,,,survey-text,61,517157,0.0-13.0-3.7,7824,List1A,white,woman,,,,,"{""Q0"":""Ruth is hugging Beth.""}","<img src=""stim_listA/hug7.gif""</stim_listA>",is hugging,
null,"<div style=""font-size:60px;"">+</div>",,html-keyboard-response,62,517665,0.0-13.0-0.8,7824,List1A,white,woman,,,,null,,,,
null,"<img src=""stim_listA/meet3.gif""</stim_listA>",,html-keyboard-response,63,519673,0.0-13.0-1.8,7824,List1A,white,woman,,,,null,,,,
null,is meeting,,html-keyboard-response,64,521678,0.0-13.0-2.8,7824,List1A,white,woman,,,,null,,,,
14926,,,survey-text,65,536613,0.0-13.0-3.8,7824,List1A,white,woman,,,,,"{""Q0"":""Ruth and Dave are shaking hands.""}","<img src=""stim_listA/meet3.gif""</stim_listA>",is meeting,
null,"<div style=""font-size:60px;"">+</div>",,html-keyboard-response,66,537131,0.0-13.0-0.9,7824,List1A,white,woman,,,,null,,,,
null,"<img src=""stim_listA/shout2.gif""</stim_listA>",,html-keyboard-response,67,539147,0.0-13.0-1.9,7824,List1A,white,woman,,,,null,,,,
null,are shouting at each other,,html-keyboard-response,68,541155,0.0-13.0-2.9,7824,List1A,white,woman,,,,null,,,,
15119,,,survey-text,69,556281,0.0-13.0-3.9,7824,List1A,white,woman,,,,,"{""Q0"":""Mike and Kate are shouting at each other.""}","<img src=""stim_listA/shout2.gif""</stim_listA>",are shouting at each other,
null,"<div style=""font-size:60px;"">+</div>",,html-keyboard-response,70,556788,0.0-13.0-0.10,7824,List1A,white,woman,,,,null,,,,
null,"<img src=""stim_listA/meet5.gif""</stim_listA>",,html-keyboard-response,71,558794,0.0-13.0-1.10,7824,List1A,white,woman,,,,null,,,,
null,is meeting,,html-keyboard-response,72,560798,0.0-13.0-2.10,7824,List1A,white,woman,,,,null,,,,
8816,,,survey-text,73,569621,0.0-13.0-3.10,7824,List1A,white,woman,,,,,"{""Q0"":""Mike is meeting Dave.""}","<img src=""stim_listA/meet5.gif""</stim_listA>",is meeting,
null,"<div style=""font-size:60px;"">+</div>",,html-keyboard-response,74,570128,0.0-13.0-0.11,7824,List1A,white,woman,,,,null,,,,
null,"<img src=""stim_listA/argue2.gif""</stim_listA>",,html-keyboard-response,75,572141,0.0-13.0-1.11,7824,List1A,white,woman,,,,null,,,,
null,are arguing with each other,,html-keyboard-response,76,574144,0.0-13.0-2.11,7824,List1A,white,woman,,,,null,,,,
15302,,,survey-text,77,589453,0.0-13.0-3.11,7824,List1A,white,woman,,,,,"{""Q0"":""Fred and Kate are arguing with each other.""}","<img src=""stim_listA/argue2.gif""</stim_listA>",are arguing with each other,
null,"<div style=""font-size:60px;"">+</div>",,html-keyboard-response,78,589959,0.0-13.0-0.12,7824,List1A,white,woman,,,,null,,,,
null,"<img src=""stim_listA/hug3.gif""</stim_listA>",,html-keyboard-response,79,591970,0.0-13.0-1.12,7824,List1A,white,woman,,,,null,,,,
null,is hugging,,html-keyboard-response,80,593975,0.0-13.0-2.12,7824,List1A,white,woman,,,,null,,,,
14949,,,survey-text,81,608931,0.0-13.0-3.12,7824,List1A,white,woman,,,,,"{""Q0"":""Ruth is hugging Luke.""}","<img src=""stim_listA/hug3.gif""</stim_listA>",is hugging,
null,"<div style=""font-size:60px;"">+</div>",,html-keyboard-response,82,609442,0.0-13.0-0.13,7824,List1A,white,woman,,,,null,,,,
null,"<img src=""stim_listA/fight1.gif""</stim_listA>",,html-keyboard-response,83,611452,0.0-13.0-1.13,7824,List1A,white,woman,,,,null,,,,
null,is fighting,,html-keyboard-response,84,613458,0.0-13.0-2.13,7824,List1A,white,woman,,,,null,,,,
14611,,,survey-text,85,628076,0.0-13.0-3.13,7824,List1A,white,woman,,,,,"{""Q0"":""Kate is fighting Mike.""}","<img src=""stim_listA/fight1.gif""</stim_listA>",is fighting,
null,"<div style=""font-size:60px;"">+</div>",,html-keyboard-response,86,628582,0.0-13.0-0.14,7824,List1A,white,woman,,,,null,,,,
null,"<img src=""stim_listA/hug8.gif""</stim_listA>",,html-keyboard-response,87,630589,0.0-13.0-1.14,7824,List1A,white,woman,,,,null,,,,
null,are hugging each other,,html-keyboard-response,88,632594,0.0-13.0-2.14,7824,List1A,white,woman,,,,null,,,,
11799,,,survey-text,89,644400,0.0-13.0-3.14,7824,List1A,white,woman,,,,,"{""Q0"":""Kate is hugging Jane.""}","<img src=""stim_listA/hug8.gif""</stim_listA>",are hugging each other,
null,"<div style=""font-size:60px;"">+</div>",,html-keyboard-response,90,644905,0.0-13.0-0.15,7824,List1A,white,woman,,,,null,,,,
null,"<img src=""stim_listA/shout8.gif""</stim_listA>",,html-keyboard-response,91,646912,0.0-13.0-1.15,7824,List1A,white,woman,,,,null,,,,
null,are shouting at each other,,html-keyboard-response,92,648916,0.0-13.0-2.15,7824,List1A,white,woman,,,,null,,,,
21580,,,survey-text,93,670503,0.0-13.0-3.15,7824,List1A,white,woman,,,,,"{""Q0"":""Jane and Kate are shouting at each other.""}","<img src=""stim_listA/shout8.gif""</stim_listA>",are shouting at each other,
null,"<div style=""font-size:60px;"">+</div>",,html-keyboard-response,94,671011,0.0-13.0-0.16,7824,List1A,white,woman,,,,null,,,,
null,"<img src=""stim_listA/meet2.gif""</stim_listA>",,html-keyboard-response,95,673020,0.0-13.0-1.16,7824,List1A,white,woman,,,,null,,,,
null,are meeting each other,,html-keyboard-response,96,675025,0.0-13.0-2.16,7824,List1A,white,woman,,,,null,,,,
13407,,,survey-text,97,688441,0.0-13.0-3.16,7824,List1A,white,woman,,,,,"{""Q0"":""Beth and Fred are meeting each other.""}","<img src=""stim_listA/meet2.gif""</stim_listA>",are meeting each other,
null,"<div style=""font-size:60px;"">+</div>",,html-keyboard-response,98,688943,0.0-13.0-0.17,7824,List1A,white,woman,,,,null,,,,
null,"<img src=""stim_listA/talk3.gif""</stim_listA>",,html-keyboard-response,99,690948,0.0-13.0-1.17,7824,List1A,white,woman,,,,null,,,,
null,is talking to,,html-keyboard-response,100,692954,0.0-13.0-2.17,7824,List1A,white,woman,,,,null,,,,
18392,,,survey-text,101,711352,0.0-13.0-3.17,7824,List1A,white,woman,,,,,"{""Q0"":""Luke is talking to Jane.""}","<img src=""stim_listA/talk3.gif""</stim_listA>",is talking to,
null,"<div style=""font-size:60px;"">+</div>",,html-keyboard-response,102,711857,0.0-13.0-0.18,7824,List1A,white,woman,,,,null,,,,
null,"<img src=""stim_listA/talk6.gif""</stim_listA>",,html-keyboard-response,103,713865,0.0-13.0-1.18,7824,List1A,white,woman,,,,null,,,,
null,are talking to each other,,html-keyboard-response,104,715869,0.0-13.0-2.18,7824,List1A,white,woman,,,,null,,,,
11799,,,survey-text,105,727673,0.0-13.0-3.18,7824,List1A,white,woman,,,,,"{""Q0"":""Mike and Luke are talking to each other.""}","<img src=""stim_listA/talk6.gif""</stim_listA>",are talking to each other,
null,"<div style=""font-size:60px;"">+</div>",,html-keyboard-response,106,728181,0.0-13.0-0.19,7824,List1A,white,woman,,,,null,,,,
null,"<img src=""stim_listA/marry5.gif""</stim_listA>",,html-keyboard-response,107,730192,0.0-13.0-1.19,7824,List1A,white,woman,,,,null,,,,
null,is marrying,,html-keyboard-response,108,732196,0.0-13.0-2.19,7824,List1A,white,woman,,,,null,,,,
10219,,,survey-text,109,742418,0.0-13.0-3.19,7824,List1A,white,woman,,,,,"{""Q0"":""Mike and Luke are touching each other.""}","<img src=""stim_listA/marry5.gif""</stim_listA>",is marrying,
7900,"<img src='img/portrait_matrix_list1.JPG' style='width:900px;height:500px;''></img><p>If you have memorised all the portraits and names and are ready to start, press Continue.</p><p><strong>Please note: Your memory of these faces will be tested 4 times during this experiment.</strong></p>",0,html-button-response,110,750324,0.0-14.0-0.0,7824,List1A,white,woman,,,,,,,,
4269,"<img src=""portrait/BM1.jpg""style=""width:400px;height:400px;""></img>",4,html-button-response,111,755605,0.0-14.0-1.0,7824,List1A,white,woman,,TRUE,4,,,,,
null,CORRECT,,html-keyboard-response,112,757113,0.0-14.0-2.0-0.0,7824,List1A,white,woman,,,,null,,,,
1829,"<img src=""portrait/WM2.jpg""style=""width:400px;height:400px;""></img>",7,html-button-response,113,758955,0.0-14.0-4.0,7824,List1A,white,woman,,TRUE,7,,,,,
null,CORRECT,,html-keyboard-response,114,760460,0.0-14.0-5.0-0.0,7824,List1A,white,woman,,,,null,,,,
3521,"<img src=""portrait/WW2.jpg""style=""width:400px;height:400px;""></img>",3,html-button-response,115,763994,0.0-14.0-7.0,7824,List1A,white,woman,,TRUE,3,,,,,
null,CORRECT,,html-keyboard-response,116,765501,0.0-14.0-8.0-0.0,7824,List1A,white,woman,,,,null,,,,
1919,"<img src=""portrait/WW1.jpg""style=""width:400px;height:400px;""></img>",1,html-button-response,117,767429,0.0-14.0-10.0,7824,List1A,white,woman,,TRUE,1,,,,,
null,CORRECT,,html-keyboard-response,118,768936,0.0-14.0-11.0-0.0,7824,List1A,white,woman,,,,null,,,,
2282,"<img src=""portrait/BM2.jpg""style=""width:400px;height:400px;""></img>",5,html-button-response,119,771229,0.0-14.0-13.0,7824,List1A,white,woman,,TRUE,5,,,,,
null,CORRECT,,html-keyboard-response,120,772737,0.0-14.0-14.0-0.0,7824,List1A,white,woman,,,,null,,,,
3706,"<img src=""portrait/WM1.jpg""style=""width:400px;height:400px;""></img>",6,html-button-response,121,776455,0.0-14.0-16.0,7824,List1A,white,woman,,TRUE,6,,,,,
null,CORRECT,,html-keyboard-response,122,777961,0.0-14.0-17.0-0.0,7824,List1A,white,woman,,,,null,,,,
2742,"<img src=""portrait/BW1.jpg""style=""width:400px;height:400px;""></img>",0,html-button-response,123,780718,0.0-14.0-19.0,7824,List1A,white,woman,,TRUE,0,,,,,
null,CORRECT,,html-keyboard-response,124,782225,0.0-14.0-20.0-0.0,7824,List1A,white,woman,,,,null,,,,
4068,"<img src=""portrait/BW2.jpg""style=""width:400px;height:400px;""></img>",2,html-button-response,125,786301,0.0-14.0-22.0,7824,List1A,white,woman,,TRUE,2,,,,,
null,CORRECT,,html-keyboard-response,126,787811,0.0-14.0-23.0-0.0,7824,List1A,white,woman,,,,null,,,,
2282,<p>You got 8 out of 8 right first time. Press Continue.</p>,0,html-button-response,127,790101,0.0-14.0-25.0,7824,List1A,white,woman,,,,,,,,
null,"<div style=""font-size:60px;"">+</div>",,html-keyboard-response,128,791612,0.0-15.0-0.0,7824,List1A,white,woman,,,,null,,,,
null,"<img src=""stim_listA/kiss8.gif""</stim_listA>",,html-keyboard-response,129,793617,0.0-15.0-1.0,7824,List1A,white,woman,,,,null,,,,
null,are kissing each other,,html-keyboard-response,130,795624,0.0-15.0-2.0,7824,List1A,white,woman,,,,null,,,,
19523,,,survey-text,131,815156,0.0-15.0-3.0,7824,List1A,white,woman,,,,,"{""Q0"":""Kate and Jane are kissing each other.""}","<img src=""stim_listA/kiss8.gif""</stim_listA>",are kissing each other,
null,"<div style=""font-size:60px;"">+</div>",,html-keyboard-response,132,815666,0.0-15.0-0.1,7824,List1A,white,woman,,,,null,,,,
null,"<img src=""stim_listA/argue4.gif""</stim_listA>",,html-keyboard-response,133,817675,0.0-15.0-1.1,7824,List1A,white,woman,,,,null,,,,
null,are arguing with each other,,html-keyboard-response,134,819680,0.0-15.0-2.1,7824,List1A,white,woman,,,,null,,,,
12269,,,survey-text,135,831957,0.0-15.0-3.1,7824,List1A,white,woman,,,,,"{""Q0"":""Luke and Jane are arguing with each other.""}","<img src=""stim_listA/argue4.gif""</stim_listA>",are arguing with each other,
null,"<div style=""font-size:60px;"">+</div>",,html-keyboard-response,136,832465,0.0-15.0-0.2,7824,List1A,white,woman,,,,null,,,,
null,"<img src=""stim_listA/touch2.gif""</stim_listA>",,html-keyboard-response,137,834476,0.0-15.0-1.2,7824,List1A,white,woman,,,,null,,,,
null,are touching each other,,html-keyboard-response,138,836481,0.0-15.0-2.2,7824,List1A,white,woman,,,,null,,,,
13097,,,survey-text,139,849586,0.0-15.0-3.2,7824,List1A,white,woman,,,,,"{""Q0"":""Fred and Beth are touching each other.""}","<img src=""stim_listA/touch2.gif""</stim_listA>",are touching each other,
null,"<div style=""font-size:60px;"">+</div>",,html-keyboard-response,140,850094,0.0-15.0-0.3,7824,List1A,white,woman,,,,null,,,,
null,"<img src=""stim_listA/argue8.gif""</stim_listA>",,html-keyboard-response,141,852102,0.0-15.0-1.3,7824,List1A,white,woman,,,,null,,,,
null,are arguing with each other,,html-keyboard-response,142,854107,0.0-15.0-2.3,7824,List1A,white,woman,,,,null,,,,
9869,,,survey-text,143,863985,0.0-15.0-3.3,7824,List1A,white,woman,,,,,"{""Q0"":""Beth and Jane are arguing with each other.""}","<img src=""stim_listA/argue8.gif""</stim_listA>",are arguing with each other,
null,"<div style=""font-size:60px;"">+</div>",,html-keyboard-response,144,864492,0.0-15.0-0.4,7824,List1A,white,woman,,,,null,,,,
null,"<img src=""stim_listA/argue5.gif""</stim_listA>",,html-keyboard-response,145,866500,0.0-15.0-1.4,7824,List1A,white,woman,,,,null,,,,
null,is arguing with,,html-keyboard-response,146,868508,0.0-15.0-2.4,7824,List1A,white,woman,,,,null,,,,
14738,,,survey-text,147,883253,0.0-15.0-3.4,7824,List1A,white,woman,,,,,"{""Q0"":""Mike is arguing with Luke.""}","<img src=""stim_listA/argue5.gif""</stim_listA>",is arguing with,
null,"<div style=""font-size:60px;"">+</div>",,html-keyboard-response,148,883762,0.0-15.0-0.5,7824,List1A,white,woman,,,,null,,,,
null,"<img src=""stim_listA/fight3.gif""</stim_listA>",,html-keyboard-response,149,885770,0.0-15.0-1.5,7824,List1A,white,woman,,,,null,,,,
null,is fighting,,html-keyboard-response,150,887776,0.0-15.0-2.5,7824,List1A,white,woman,,,,null,,,,
12405,,,survey-text,151,900189,0.0-15.0-3.5,7824,List1A,white,woman,,,,,"{""Q0"":""Dave is fighting Jane.""}","<img src=""stim_listA/fight3.gif""</stim_listA>",is fighting,
null,"<div style=""font-size:60px;"">+</div>",,html-keyboard-response,152,900698,0.0-15.0-0.6,7824,List1A,white,woman,,,,null,,,,
null,"<img src=""stim_listA/dance6.gif""</stim_listA>",,html-keyboard-response,153,902703,0.0-15.0-1.6,7824,List1A,white,woman,,,,null,,,,
null,are dancing with each other,,html-keyboard-response,154,904707,0.0-15.0-2.6,7824,List1A,white,woman,,,,null,,,,
13435,,,survey-text,155,918151,0.0-15.0-3.6,7824,List1A,white,woman,,,,,"{""Q0"":""Mike is dancing with Luke.""}","<img src=""stim_listA/dance6.gif""</stim_listA>",are dancing with each other,
null,"<div style=""font-size:60px;"">+</div>",,html-keyboard-response,156,918657,0.0-15.0-0.7,7824,List1A,white,woman,,,,null,,,,
null,"<img src=""stim_listA/shout1.gif""</stim_listA>",,html-keyboard-response,157,920664,0.0-15.0-1.7,7824,List1A,white,woman,,,,null,,,,
null,is shouting at,,html-keyboard-response,158,922671,0.0-15.0-2.7,7824,List1A,white,woman,,,,null,,,,
10507,,,survey-text,159,933190,0.0-15.0-3.7,7824,List1A,white,woman,,,,,"{""Q0"":""Fred is shouting at Beth.""}","<img src=""stim_listA/shout1.gif""</stim_listA>",is shouting at,
null,"<div style=""font-size:60px;"">+</div>",,html-keyboard-response,160,933699,0.0-15.0-0.8,7824,List1A,white,woman,,,,null,,,,
null,"<img src=""stim_listA/argue7.gif""</stim_listA>",,html-keyboard-response,161,935708,0.0-15.0-1.8,7824,List1A,white,woman,,,,null,,,,
null,is arguing with,,html-keyboard-response,162,937712,0.0-15.0-2.8,7824,List1A,white,woman,,,,null,,,,
9317,,,survey-text,163,947037,0.0-15.0-3.8,7824,List1A,white,woman,,,,,"{""Q0"":""Kate is arguing with Luke.""}","<img src=""stim_listA/argue7.gif""</stim_listA>",is arguing with,
null,"<div style=""font-size:60px;"">+</div>",,html-keyboard-response,164,947545,0.0-15.0-0.9,7824,List1A,white,woman,,,,null,,,,
null,"<img src=""stim_listA/marry2.gif""</stim_listA>",,html-keyboard-response,165,949555,0.0-15.0-1.9,7824,List1A,white,woman,,,,null,,,,
null,are marrying each other,,html-keyboard-response,166,951563,0.0-15.0-2.9,7824,List1A,white,woman,,,,null,,,,
14422,,,survey-text,167,965992,0.0-15.0-3.9,7824,List1A,white,woman,,,,,"{""Q0"":""Fred and Kate are marrying each other.""}","<img src=""stim_listA/marry2.gif""</stim_listA>",are marrying each other,
null,"<div style=""font-size:60px;"">+</div>",,html-keyboard-response,168,966497,0.0-15.0-0.10,7824,List1A,white,woman,,,,null,,,,
null,"<img src=""stim_listA/kiss5.gif""</stim_listA>",,html-keyboard-response,169,968506,0.0-15.0-1.10,7824,List1A,white,woman,,,,null,,,,
null,is kissing,,html-keyboard-response,170,970512,0.0-15.0-2.10,7824,List1A,white,woman,,,,null,,,,
10704,,,survey-text,171,981222,0.0-15.0-3.10,7824,List1A,white,woman,,,,,"{""Q0"":""Fred is kissing Luke.""}","<img src=""stim_listA/kiss5.gif""</stim_listA>",is kissing,
null,"<div style=""font-size:60px;"">+</div>",,html-keyboard-response,172,981726,0.0-15.0-0.11,7824,List1A,white,woman,,,,null,,,,
null,"<img src=""stim_listA/dance4.gif""</stim_listA>",,html-keyboard-response,173,983736,0.0-15.0-1.11,7824,List1A,white,woman,,,,null,,,,
null,are dancing with each other,,html-keyboard-response,174,985742,0.0-15.0-2.11,7824,List1A,white,woman,,,,null,,,,
18625,,,survey-text,175,1004375,0.0-15.0-3.11,7824,List1A,white,woman,,,,,"{""Q0"":""Dave and Ruth are dancing with each other.""}","<img src=""stim_listA/dance4.gif""</stim_listA>",are dancing with each other,
null,"<div style=""font-size:60px;"">+</div>",,html-keyboard-response,176,1004881,0.0-15.0-0.12,7824,List1A,white,woman,,,,null,,,,
null,"<img src=""stim_listA/fight4.gif""</stim_listA>",,html-keyboard-response,177,1006889,0.0-15.0-1.12,7824,List1A,white,woman,,,,null,,,,
null,are fighting each other,,html-keyboard-response,178,1008895,0.0-15.0-2.12,7824,List1A,white,woman,,,,null,,,,
11043,,,survey-text,179,1019947,0.0-15.0-3.12,7824,List1A,white,woman,,,,,"{""Q0"":""Ruth and Luke are fighting each other.""}","<img src=""stim_listA/fight4.gif""</stim_listA>",are fighting each other,
null,"<div style=""font-size:60px;"">+</div>",,html-keyboard-response,180,1020455,0.0-15.0-0.13,7824,List1A,white,woman,,,,null,,,,
null,"<img src=""stim_listA/touch3.gif""</stim_listA>",,html-keyboard-response,181,1022468,0.0-15.0-1.13,7824,List1A,white,woman,,,,null,,,,
null,is touching,,html-keyboard-response,182,1024474,0.0-15.0-2.13,7824,List1A,white,woman,,,,null,,,,
10266,,,survey-text,183,1034748,0.0-15.0-3.13,7824,List1A,white,woman,,,,,"{""Q0"":""Jane is touching Dave.""}","<img src=""stim_listA/touch3.gif""</stim_listA>",is touching,
null,"<div style=""font-size:60px;"">+</div>",,html-keyboard-response,184,1035255,0.0-15.0-0.14,7824,List1A,white,woman,,,,null,,,,
null,"<img src=""stim_listA/dance3.gif""</stim_listA>",,html-keyboard-response,185,1037264,0.0-15.0-1.14,7824,List1A,white,woman,,,,null,,,,
null,is dancing with,,html-keyboard-response,186,1039268,0.0-15.0-2.14,7824,List1A,white,woman,,,,null,,,,
10098,,,survey-text,187,1049374,0.0-15.0-3.14,7824,List1A,white,woman,,,,,"{""Q0"":""Luke is dancing with Jane.""}","<img src=""stim_listA/dance3.gif""</stim_listA>",is dancing with,
null,"<div style=""font-size:60px;"">+</div>",,html-keyboard-response,188,1049882,0.0-15.0-0.15,7824,List1A,white,woman,,,,null,,,,
null,"<img src=""stim_listA/marry4.gif""</stim_listA>",,html-keyboard-response,189,1051894,0.0-15.0-1.15,7824,List1A,white,woman,,,,null,,,,
null,are marrying each other,,html-keyboard-response,190,1053898,0.0-15.0-2.15,7824,List1A,white,woman,,,,null,,,,
11403,,,survey-text,191,1065309,0.0-15.0-3.15,7824,List1A,white,woman,,,,,"{""Q0"":""Jane and Luke are marrying each other.""}","<img src=""stim_listA/marry4.gif""</stim_listA>",are marrying each other,
null,"<div style=""font-size:60px;"">+</div>",,html-keyboard-response,192,1065815,0.0-15.0-0.16,7824,List1A,white,woman,,,,null,,,,
null,"<img src=""stim_listA/marry7.gif""</stim_listA>",,html-keyboard-response,193,1067823,0.0-15.0-1.16,7824,List1A,white,woman,,,,null,,,,
null,is marrying,,html-keyboard-response,194,1069829,0.0-15.0-2.16,7824,List1A,white,woman,,,,null,,,,
11336,,,survey-text,195,1081172,0.0-15.0-3.16,7824,List1A,white,woman,,,,,"{""Q0"":""Kate is marrying Ruth.""}","<img src=""stim_listA/marry7.gif""</stim_listA>",is marrying,
null,"<div style=""font-size:60px;"">+</div>",,html-keyboard-response,196,1081679,0.0-15.0-0.17,7824,List1A,white,woman,,,,null,,,,
null,"<img src=""stim_listA/argue1.gif""</stim_listA>",,html-keyboard-response,197,1083691,0.0-15.0-1.17,7824,List1A,white,woman,,,,null,,,,
null,is arguing with,,html-keyboard-response,198,1085696,0.0-15.0-2.17,7824,List1A,white,woman,,,,null,,,,
8824,,,survey-text,199,1094528,0.0-15.0-3.17,7824,List1A,white,woman,,,,,"{""Q0"":""Mike is arguing with Beth.""}","<img src=""stim_listA/argue1.gif""</stim_listA>",is arguing with,
null,"<div style=""font-size:60px;"">+</div>",,html-keyboard-response,200,1095034,0.0-15.0-0.18,7824,List1A,white,woman,,,,null,,,,
null,"<img src=""stim_listA/touch7.gif""</stim_listA>",,html-keyboard-response,201,1097041,0.0-15.0-1.18,7824,List1A,white,woman,,,,null,,,,
null,is touching,,html-keyboard-response,202,1099046,0.0-15.0-2.18,7824,List1A,white,woman,,,,null,,,,
8670,,,survey-text,203,1107723,0.0-15.0-3.18,7824,List1A,white,woman,,,,,"{""Q0"":""Kate is touching Jane.""}","<img src=""stim_listA/touch7.gif""</stim_listA>",is touching,
null,"<div style=""font-size:60px;"">+</div>",,html-keyboard-response,204,1108228,0.0-15.0-0.19,7824,List1A,white,woman,,,,null,,,,
null,"<img src=""stim_listA/kiss4.gif""</stim_listA>",,html-keyboard-response,205,1110235,0.0-15.0-1.19,7824,List1A,white,woman,,,,null,,,,
null,are kissing each other,,html-keyboard-response,206,1112239,0.0-15.0-2.19,7824,List1A,white,woman,,,,null,,,,
10723,,,survey-text,207,1122976,0.0-15.0-3.19,7824,List1A,white,woman,,,,,"{""Q0"":""Jane and Dave are kissing each other.""}","<img src=""stim_listA/kiss4.gif""</stim_listA>",are kissing each other,
7824,"<img src='img/portrait_matrix_list1.JPG' style='width:900px;height:500px;''></img><p>If you have memorised all the portraits and names and are ready to start, press Continue.</p><p><strong>Please note: Your memory of these faces will be tested 4 times during this experiment.</strong></p>",0,html-button-response,208,1130809,0.0-16.0-0.0,7824,List1A,white,woman,,,,,,,,
3220,"<img src=""portrait/BW1.jpg""style=""width:400px;height:400px;""></img>",0,html-button-response,209,1135042,0.0-16.0-1.0,7824,List1A,white,woman,,TRUE,0,,,,,
null,CORRECT,,html-keyboard-response,210,1136551,0.0-16.0-2.0-0.0,7824,List1A,white,woman,,,,null,,,,
1610,"<img src=""portrait/WW1.jpg""style=""width:400px;height:400px;""></img>",1,html-button-response,211,1138174,0.0-16.0-4.0,7824,List1A,white,woman,,TRUE,1,,,,,
null,CORRECT,,html-keyboard-response,212,1139680,0.0-16.0-5.0-0.0,7824,List1A,white,woman,,,,null,,,,
2104,"<img src=""portrait/BM2.jpg""style=""width:400px;height:400px;""></img>",5,html-button-response,213,1141797,0.0-16.0-7.0,7824,List1A,white,woman,,TRUE,5,,,,,
null,CORRECT,,html-keyboard-response,214,1143304,0.0-16.0-8.0-0.0,7824,List1A,white,woman,,,,null,,,,
1451,"<img src=""portrait/BW2.jpg""style=""width:400px;height:400px;""></img>",2,html-button-response,215,1144764,0.0-16.0-10.0,7824,List1A,white,woman,,TRUE,2,,,,,
null,CORRECT,,html-keyboard-response,216,1146274,0.0-16.0-11.0-0.0,7824,List1A,white,woman,,,,null,,,,
1544,"<img src=""portrait/WW2.jpg""style=""width:400px;height:400px;""></img>",3,html-button-response,217,1147829,0.0-16.0-13.0,7824,List1A,white,woman,,TRUE,3,,,,,
null,CORRECT,,html-keyboard-response,218,1149337,0.0-16.0-14.0-0.0,7824,List1A,white,woman,,,,null,,,,
1625,"<img src=""portrait/BM1.jpg""style=""width:400px;height:400px;""></img>",4,html-button-response,219,1150976,0.0-16.0-16.0,7824,List1A,white,woman,,TRUE,4,,,,,
null,CORRECT,,html-keyboard-response,220,1152484,0.0-16.0-17.0-0.0,7824,List1A,white,woman,,,,null,,,,
3428,"<img src=""portrait/WM1.jpg""style=""width:400px;height:400px;""></img>",6,html-button-response,221,1155925,0.0-16.0-19.0,7824,List1A,white,woman,,TRUE,6,,,,,
null,CORRECT,,html-keyboard-response,222,1157436,0.0-16.0-20.0-0.0,7824,List1A,white,woman,,,,null,,,,
1465,"<img src=""portrait/WM2.jpg""style=""width:400px;height:400px;""></img>",7,html-button-response,223,1158913,0.0-16.0-22.0,7824,List1A,white,woman,,TRUE,7,,,,,
null,CORRECT,,html-keyboard-response,224,1160421,0.0-16.0-23.0-0.0,7824,List1A,white,woman,,,,null,,,,
1370,<p>You got 8 out of 8 right first time. Press Continue.</p>,0,html-button-response,225,1161809,0.0-16.0-25.0,7824,List1A,white,woman,,,,,,,,
null,"<div style=""font-size:60px;"">+</div>",,html-keyboard-response,226,1163319,0.0-17.0-0.0,7824,List1A,white,woman,,,,null,,,,
null,"<img src=""stim_listA/fight5.gif""</stim_listA>",,html-keyboard-response,227,1165328,0.0-17.0-1.0,7824,List1A,white,woman,,,,null,,,,
null,is fighting,,html-keyboard-response,228,1167333,0.0-17.0-2.0,7824,List1A,white,woman,,,,null,,,,
9605,,,survey-text,229,1176945,0.0-17.0-3.0,7824,List1A,white,woman,,,,,"{""Q0"":""Mike is fighting Dave.""}","<img src=""stim_listA/fight5.gif""</stim_listA>",is fighting,
null,"<div style=""font-size:60px;"">+</div>",,html-keyboard-response,230,1177451,0.0-17.0-0.1,7824,List1A,white,woman,,,,null,,,,
null,"<img src=""stim_listA/touch6.gif""</stim_listA>",,html-keyboard-response,231,1179458,0.0-17.0-1.1,7824,List1A,white,woman,,,,null,,,,
null,are touching each other,,html-keyboard-response,232,1181464,0.0-17.0-2.1,7824,List1A,white,woman,,,,null,,,,
7775,,,survey-text,233,1189246,0.0-17.0-3.1,7824,List1A,white,woman,,,,,"{""Q0"":""Fred and Luke are touching each other.""}","<img src=""stim_listA/touch6.gif""</stim_listA>",are touching each other,
null,"<div style=""font-size:60px;"">+</div>",,html-keyboard-response,234,1189751,0.0-17.0-0.2,7824,List1A,white,woman,,,,null,,,,
null,"<img src=""stim_listA/dance7.gif""</stim_listA>",,html-keyboard-response,235,1191760,0.0-17.0-1.2,7824,List1A,white,woman,,,,null,,,,
null,is dancing with,,html-keyboard-response,236,1193765,0.0-17.0-2.2,7824,List1A,white,woman,,,,null,,,,
11102,,,survey-text,237,1204876,0.0-17.0-3.2,7824,List1A,white,woman,,,,,"{""Q0"":""Jane is dancing with Beth.""}","<img src=""stim_listA/dance7.gif""</stim_listA>",is dancing with,
null,"<div style=""font-size:60px;"">+</div>",,html-keyboard-response,238,1205384,0.0-17.0-0.3,7824,List1A,white,woman,,,,null,,,,
null,"<img src=""stim_listA/fight6.gif""</stim_listA>",,html-keyboard-response,239,1207393,0.0-17.0-1.3,7824,List1A,white,woman,,,,null,,,,
null,are fighting each other,,html-keyboard-response,240,1209399,0.0-17.0-2.3,7824,List1A,white,woman,,,,null,,,,
9584,,,survey-text,241,1218992,0.0-17.0-3.3,7824,List1A,white,woman,,,,,"{""Q0"":""Fred and Luke are fighting each other.""}","<img src=""stim_listA/fight6.gif""</stim_listA>",are fighting each other,
null,"<div style=""font-size:60px;"">+</div>",,html-keyboard-response,242,1219499,0.0-17.0-0.4,7824,List1A,white,woman,,,,null,,,,
null,"<img src=""stim_listA/dance5.gif""</stim_listA>",,html-keyboard-response,243,1221512,0.0-17.0-1.4,7824,List1A,white,woman,,,,null,,,,
null,is dancing with,,html-keyboard-response,244,1223518,0.0-17.0-2.4,7824,List1A,white,woman,,,,null,,,,
21116,,,survey-text,245,1244641,0.0-17.0-3.4,7824,List1A,white,woman,,,,,"{""Q0"":""Fred and Luke are touching each other.""}","<img src=""stim_listA/dance5.gif""</stim_listA>",is dancing with,
null,"<div style=""font-size:60px;"">+</div>",,html-keyboard-response,246,1245147,0.0-17.0-0.5,7824,List1A,white,woman,,,,null,,,,
null,"<img src=""stim_listA/fight8.gif""</stim_listA>",,html-keyboard-response,247,1247156,0.0-17.0-1.5,7824,List1A,white,woman,,,,null,,,,
null,are fighting each other,,html-keyboard-response,248,1249160,0.0-17.0-2.5,7824,List1A,white,woman,,,,null,,,,
11781,,,survey-text,249,1260947,0.0-17.0-3.5,7824,List1A,white,woman,,,,,"{""Q0"":""Ruth and Beth are fighting each other.""}","<img src=""stim_listA/fight8.gif""</stim_listA>",are fighting each other,
null,"<div style=""font-size:60px;"">+</div>",,html-keyboard-response,250,1261452,0.0-17.0-0.6,7824,List1A,white,woman,,,,null,,,,
null,"<img src=""stim_listA/talk1.gif""</stim_listA>",,html-keyboard-response,251,1263459,0.0-17.0-1.6,7824,List1A,white,woman,,,,null,,,,
null,is talking to,,html-keyboard-response,252,1265466,0.0-17.0-2.6,7824,List1A,white,woman,,,,null,,,,
10153,,,survey-text,253,1275625,0.0-17.0-3.6,7824,List1A,white,woman,,,,,"{""Q0"":""Fred is talking to Kate.""}","<img src=""stim_listA/talk1.gif""</stim_listA>",is talking to,
null,"<div style=""font-size:60px;"">+</div>",,html-keyboard-response,254,1276130,0.0-17.0-0.7,7824,List1A,white,woman,,,,null,,,,
null,"<img src=""stim_listA/dance8.gif""</stim_listA>",,html-keyboard-response,255,1278137,0.0-17.0-1.7,7824,List1A,white,woman,,,,null,,,,
null,are dancing with each other,,html-keyboard-response,256,1280141,0.0-17.0-2.7,7824,List1A,white,woman,,,,null,,,,
10796,,,survey-text,257,1290943,0.0-17.0-3.7,7824,List1A,white,woman,,,,,"{""Q0"":""Ruth and Kate are dancing with each other.""}","<img src=""stim_listA/dance8.gif""</stim_listA>",are dancing with each other,
null,"<div style=""font-size:60px;"">+</div>",,html-keyboard-response,258,1291448,0.0-17.0-0.8,7824,List1A,white,woman,,,,null,,,,
null,"<img src=""stim_listA/kiss1.gif""</stim_listA>",,html-keyboard-response,259,1293456,0.0-17.0-1.8,7824,List1A,white,woman,,,,null,,,,
null,is kissing,,html-keyboard-response,260,1295461,0.0-17.0-2.8,7824,List1A,white,woman,,,,null,,,,
7845,,,survey-text,261,1303313,0.0-17.0-3.8,7824,List1A,white,woman,,,,,"{""Q0"":""Fred is kissing Beth.""}","<img src=""stim_listA/kiss1.gif""</stim_listA>",is kissing,
null,"<div style=""font-size:60px;"">+</div>",,html-keyboard-response,262,1303819,0.0-17.0-0.9,7824,List1A,white,woman,,,,null,,,,
null,"<img src=""stim_listA/dance1.gif""</stim_listA>",,html-keyboard-response,263,1305831,0.0-17.0-1.9,7824,List1A,white,woman,,,,null,,,,
null,is dancing with,,html-keyboard-response,264,1307836,0.0-17.0-2.9,7824,List1A,white,woman,,,,null,,,,
8646,,,survey-text,265,1316489,0.0-17.0-3.9,7824,List1A,white,woman,,,,,"{""Q0"":""Fred is dancing with Beth.""}","<img src=""stim_listA/dance1.gif""</stim_listA>",is dancing with,
null,"<div style=""font-size:60px;"">+</div>",,html-keyboard-response,266,1316995,0.0-17.0-0.10,7824,List1A,white,woman,,,,null,,,,
null,"<img src=""stim_listA/touch1.gif""</stim_listA>",,html-keyboard-response,267,1319001,0.0-17.0-1.10,7824,List1A,white,woman,,,,null,,,,
null,is touching,,html-keyboard-response,268,1321005,0.0-17.0-2.10,7824,List1A,white,woman,,,,null,,,,
12157,,,survey-text,269,1333169,0.0-17.0-3.10,7824,List1A,white,woman,,,,,"{""Q0"":""Kate is touching Mike.""}","<img src=""stim_listA/touch1.gif""</stim_listA>",is touching,
null,"<div style=""font-size:60px;"">+</div>",,html-keyboard-response,270,1333676,0.0-17.0-0.11,7824,List1A,white,woman,,,,null,,,,
null,"<img src=""stim_listA/argue6.gif""</stim_listA>",,html-keyboard-response,271,1335684,0.0-17.0-1.11,7824,List1A,white,woman,,,,null,,,,
null,are arguing with each other,,html-keyboard-response,272,1337691,0.0-17.0-2.11,7824,List1A,white,woman,,,,null,,,,
14927,,,survey-text,273,1352625,0.0-17.0-3.11,7824,List1A,white,woman,,,,,"{""Q0"":""Fred and Dave are arguing with each other.""}","<img src=""stim_listA/argue6.gif""</stim_listA>",are arguing with each other,
null,"<div style=""font-size:60px;"">+</div>",,html-keyboard-response,274,1353131,0.0-17.0-0.12,7824,List1A,white,woman,,,,null,,,,
null,"<img src=""stim_listA/shout3.gif""</stim_listA>",,html-keyboard-response,275,1355139,0.0-17.0-1.12,7824,List1A,white,woman,,,,null,,,,
null,is shouting at,,html-keyboard-response,276,1357144,0.0-17.0-2.12,7824,List1A,white,woman,,,,null,,,,
12616,,,survey-text,277,1369770,0.0-17.0-3.12,7824,List1A,white,woman,,,,,"{""Q0"":""Ruth is shouting at Luke.""}","<img src=""stim_listA/shout3.gif""</stim_listA>",is shouting at,
null,"<div style=""font-size:60px;"">+</div>",,html-keyboard-response,278,1370276,0.0-17.0-0.13,7824,List1A,white,woman,,,,null,,,,
null,"<img src=""stim_listA/marry6.gif""</stim_listA>",,html-keyboard-response,279,1372283,0.0-17.0-1.13,7824,List1A,white,woman,,,,null,,,,
null,are marrying each other,,html-keyboard-response,280,1374289,0.0-17.0-2.13,7824,List1A,white,woman,,,,null,,,,
8825,,,survey-text,281,1383122,0.0-17.0-3.13,7824,List1A,white,woman,,,,,"{""Q0"":""Fred and Dave are marrying each other.""}","<img src=""stim_listA/marry6.gif""</stim_listA>",are marrying each other,
null,"<div style=""font-size:60px;"">+</div>",,html-keyboard-response,282,1383631,0.0-17.0-0.14,7824,List1A,white,woman,,,,null,,,,
null,"<img src=""stim_listA/talk4.gif""</stim_listA>",,html-keyboard-response,283,1385640,0.0-17.0-1.14,7824,List1A,white,woman,,,,null,,,,
null,are talking to each other,,html-keyboard-response,284,1387646,0.0-17.0-2.14,7824,List1A,white,woman,,,,null,,,,
8858,,,survey-text,285,1396512,0.0-17.0-3.14,7824,List1A,white,woman,,,,,"{""Q0"":""Ruth and Dave are talking to each other.""}","<img src=""stim_listA/talk4.gif""</stim_listA>",are talking to each other,
null,"<div style=""font-size:60px;"">+</div>",,html-keyboard-response,286,1397019,0.0-17.0-0.15,7824,List1A,white,woman,,,,null,,,,
null,"<img src=""stim_listA/dance2.gif""</stim_listA>",,html-keyboard-response,287,1399028,0.0-17.0-1.15,7824,List1A,white,woman,,,,null,,,,
null,are dancing with each other,,html-keyboard-response,288,1401033,0.0-17.0-2.15,7824,List1A,white,woman,,,,null,,,,
9980,,,survey-text,289,1411020,0.0-17.0-3.15,7824,List1A,white,woman,,,,,"{""Q0"":""Mike and Beth are dancing with each other.""}","<img src=""stim_listA/dance2.gif""</stim_listA>",are dancing with each other,
null,"<div style=""font-size:60px;"">+</div>",,html-keyboard-response,290,1411524,0.0-17.0-0.16,7824,List1A,white,woman,,,,null,,,,
null,"<img src=""stim_listA/touch8.gif""</stim_listA>",,html-keyboard-response,291,1413529,0.0-17.0-1.16,7824,List1A,white,woman,,,,null,,,,
null,are touching each other,,html-keyboard-response,292,1415535,0.0-17.0-2.16,7824,List1A,white,woman,,,,null,,,,
9694,,,survey-text,293,1425236,0.0-17.0-3.16,7824,List1A,white,woman,,,,,"{""Q0"":""Ruth and Beth are touching each other.""}","<img src=""stim_listA/touch8.gif""</stim_listA>",are touching each other,
null,"<div style=""font-size:60px;"">+</div>",,html-keyboard-response,294,1425741,0.0-17.0-0.17,7824,List1A,white,woman,,,,null,,,,
null,"<img src=""stim_listA/meet7.gif""</stim_listA>",,html-keyboard-response,295,1427748,0.0-17.0-1.17,7824,List1A,white,woman,,,,null,,,,
null,is meeting,,html-keyboard-response,296,1429753,0.0-17.0-2.17,7824,List1A,white,woman,,,,null,,,,
9113,,,survey-text,297,1438873,0.0-17.0-3.17,7824,List1A,white,woman,,,,,"{""Q0"":""Kate is meeting Jane.""}","<img src=""stim_listA/meet7.gif""</stim_listA>",is meeting,
null,"<div style=""font-size:60px;"">+</div>",,html-keyboard-response,298,1439383,0.0-17.0-0.18,7824,List1A,white,woman,,,,null,,,,
null,"<img src=""stim_listA/hug6.gif""</stim_listA>",,html-keyboard-response,299,1441391,0.0-17.0-1.18,7824,List1A,white,woman,,,,null,,,,
null,are hugging each other,,html-keyboard-response,300,1443394,0.0-17.0-2.18,7824,List1A,white,woman,,,,null,,,,
13234,,,survey-text,301,1456632,0.0-17.0-3.18,7824,List1A,white,woman,,,,,"{""Q0"":""Mike and Dave are hugging each other.""}","<img src=""stim_listA/hug6.gif""</stim_listA>",are hugging each other,
null,"<div style=""font-size:60px;"">+</div>",,html-keyboard-response,302,1457139,0.0-17.0-0.19,7824,List1A,white,woman,,,,null,,,,
null,"<img src=""stim_listA/talk5.gif""</stim_listA>",,html-keyboard-response,303,1459147,0.0-17.0-1.19,7824,List1A,white,woman,,,,null,,,,
null,is talking to,,html-keyboard-response,304,1461153,0.0-17.0-2.19,7824,List1A,white,woman,,,,null,,,,
8434,,,survey-text,305,1469593,0.0-17.0-3.19,7824,List1A,white,woman,,,,,"{""Q0"":""Fred is talking to Dave.""}","<img src=""stim_listA/talk5.gif""</stim_listA>",is talking to,
100179,"<img src='img/portrait_matrix_list1.JPG' style='width:900px;height:500px;''></img><p>If you have memorised all the portraits and names and are ready to start, press Continue.</p><p><strong>Please note: Your memory of these faces will be tested 4 times during this experiment.</strong></p>",0,html-button-response,306,1569780,0.0-18.0-0.0,7824,List1A,white,woman,,,,,,,,
2675,"<img src=""portrait/WW1.jpg""style=""width:400px;height:400px;""></img>",1,html-button-response,307,1573468,0.0-18.0-1.0,7824,List1A,white,woman,,TRUE,1,,,,,
null,CORRECT,,html-keyboard-response,308,1574977,0.0-18.0-2.0-0.0,7824,List1A,white,woman,,,,null,,,,
1668,"<img src=""portrait/BM2.jpg""style=""width:400px;height:400px;""></img>",5,html-button-response,309,1576655,0.0-18.0-4.0,7824,List1A,white,woman,,TRUE,5,,,,,
null,CORRECT,,html-keyboard-response,310,1578166,0.0-18.0-5.0-0.0,7824,List1A,white,woman,,,,null,,,,
2825,"<img src=""portrait/BW1.jpg""style=""width:400px;height:400px;""></img>",0,html-button-response,311,1581005,0.0-18.0-7.0,7824,List1A,white,woman,,TRUE,0,,,,,
null,CORRECT,,html-keyboard-response,312,1582513,0.0-18.0-8.0-0.0,7824,List1A,white,woman,,,,null,,,,
1939,"<img src=""portrait/WM1.jpg""style=""width:400px;height:400px;""></img>",6,html-button-response,313,1584463,0.0-18.0-10.0,7824,List1A,white,woman,,TRUE,6,,,,,
null,CORRECT,,html-keyboard-response,314,1585969,0.0-18.0-11.0-0.0,7824,List1A,white,woman,,,,null,,,,
1883,"<img src=""portrait/BM1.jpg""style=""width:400px;height:400px;""></img>",4,html-button-response,315,1587858,0.0-18.0-13.0,7824,List1A,white,woman,,TRUE,4,,,,,
null,CORRECT,,html-keyboard-response,316,1589364,0.0-18.0-14.0-0.0,7824,List1A,white,woman,,,,null,,,,
1472,"<img src=""portrait/WM2.jpg""style=""width:400px;height:400px;""></img>",7,html-button-response,317,1590846,0.0-18.0-16.0,7824,List1A,white,woman,,TRUE,7,,,,,
null,CORRECT,,html-keyboard-response,318,1592356,0.0-18.0-17.0-0.0,7824,List1A,white,woman,,,,null,,,,
1673,"<img src=""portrait/BW2.jpg""style=""width:400px;height:400px;""></img>",2,html-button-response,319,1594042,0.0-18.0-19.0,7824,List1A,white,woman,,TRUE,2,,,,,
null,CORRECT,,html-keyboard-response,320,1595552,0.0-18.0-20.0-0.0,7824,List1A,white,woman,,,,null,,,,
1407,"<img src=""portrait/WW2.jpg""style=""width:400px;height:400px;""></img>",3,html-button-response,321,1596969,0.0-18.0-22.0,7824,List1A,white,woman,,TRUE,3,,,,,
null,CORRECT,,html-keyboard-response,322,1598477,0.0-18.0-23.0-0.0,7824,List1A,white,woman,,,,null,,,,
2871,<p>You got 8 out of 8 right first time. Press Continue.</p>,0,html-button-response,323,1601360,0.0-18.0-25.0,7824,List1A,white,woman,,,,,,,,
null,"<div style=""font-size:60px;"">+</div>",,html-keyboard-response,324,1602871,0.0-19.0-0.0,7824,List1A,white,woman,,,,null,,,,
null,"<img src=""stim_listA/talk2.gif""</stim_listA>",,html-keyboard-response,325,1604879,0.0-19.0-1.0,7824,List1A,white,woman,,,,null,,,,
null,are talking to each other,,html-keyboard-response,326,1606883,0.0-19.0-2.0,7824,List1A,white,woman,,,,null,,,,
14508,,,survey-text,327,1621397,0.0-19.0-3.0,7824,List1A,white,woman,,,,,"{""Q0"":""Beth and Mike are talking to each other.""}","<img src=""stim_listA/talk2.gif""</stim_listA>",are talking to each other,
null,"<div style=""font-size:60px;"">+</div>",,html-keyboard-response,328,1621905,0.0-19.0-0.1,7824,List1A,white,woman,,,,null,,,,
null,"<img src=""stim_listA/argue3.gif""</stim_listA>",,html-keyboard-response,329,1623914,0.0-19.0-1.1,7824,List1A,white,woman,,,,null,,,,
null,is arguing with,,html-keyboard-response,330,1625920,0.0-19.0-2.1,7824,List1A,white,woman,,,,null,,,,
10497,,,survey-text,331,1636424,0.0-19.0-3.1,7824,List1A,white,woman,,,,,"{""Q0"":""Ruth is arguing with Dave.""}","<img src=""stim_listA/argue3.gif""</stim_listA>",is arguing with,
null,"<div style=""font-size:60px;"">+</div>",,html-keyboard-response,332,1636930,0.0-19.0-0.2,7824,List1A,white,woman,,,,null,,,,
null,"<img src=""stim_listA/shout4.gif""</stim_listA>",,html-keyboard-response,333,1638934,0.0-19.0-1.2,7824,List1A,white,woman,,,,null,,,,
null,are shouting at each other,,html-keyboard-response,334,1640939,0.0-19.0-2.2,7824,List1A,white,woman,,,,null,,,,
10855,,,survey-text,335,1651803,0.0-19.0-3.2,7824,List1A,white,woman,,,,,"{""Q0"":""Jane and Dave are shouting at each other.""}","<img src=""stim_listA/shout4.gif""</stim_listA>",are shouting at each other,
null,"<div style=""font-size:60px;"">+</div>",,html-keyboard-response,336,1652312,0.0-19.0-0.3,7824,List1A,white,woman,,,,null,,,,
null,"<img src=""stim_listA/meet6.gif""</stim_listA>",,html-keyboard-response,337,1654320,0.0-19.0-1.3,7824,List1A,white,woman,,,,null,,,,
null,are meeting each other,,html-keyboard-response,338,1656326,0.0-19.0-2.3,7824,List1A,white,woman,,,,null,,,,
38695,,,survey-text,339,1695030,0.0-19.0-3.3,7824,List1A,white,woman,,,,,"{""Q0"":""Fred and Luke are meeting each other.""}","<img src=""stim_listA/meet6.gif""</stim_listA>",are meeting each other,
null,"<div style=""font-size:60px;"">+</div>",,html-keyboard-response,340,1695539,0.0-19.0-0.4,7824,List1A,white,woman,,,,null,,,,
null,"<img src=""stim_listA/hug5.gif""</stim_listA>",,html-keyboard-response,341,1697550,0.0-19.0-1.4,7824,List1A,white,woman,,,,null,,,,
null,is hugging,,html-keyboard-response,342,1699553,0.0-19.0-2.4,7824,List1A,white,woman,,,,null,,,,
10427,,,survey-text,343,1709984,0.0-19.0-3.4,7824,List1A,white,woman,,,,,"{""Q0"":""Fred is hugging Luke.""}","<img src=""stim_listA/hug5.gif""</stim_listA>",is hugging,
null,"<div style=""font-size:60px;"">+</div>",,html-keyboard-response,344,1710488,0.0-19.0-0.5,7824,List1A,white,woman,,,,null,,,,
null,"<img src=""stim_listA/hug1.gif""</stim_listA>",,html-keyboard-response,345,1712497,0.0-19.0-1.5,7824,List1A,white,woman,,,,null,,,,
null,is hugging,,html-keyboard-response,346,1714504,0.0-19.0-2.5,7824,List1A,white,woman,,,,null,,,,
11042,,,survey-text,347,1725554,0.0-19.0-3.5,7824,List1A,white,woman,,,,,"{""Q0"":""Fred is hugging Beth.""}","<img src=""stim_listA/hug1.gif""</stim_listA>",is hugging,
null,"<div style=""font-size:60px;"">+</div>",,html-keyboard-response,348,1726061,0.0-19.0-0.6,7824,List1A,white,woman,,,,null,,,,
null,"<img src=""stim_listA/kiss2.gif""</stim_listA>",,html-keyboard-response,349,1728064,0.0-19.0-1.6,7824,List1A,white,woman,,,,null,,,,
null,are kissing each other,,html-keyboard-response,350,1730067,0.0-19.0-2.6,7824,List1A,white,woman,,,,null,,,,
10043,,,survey-text,351,1740116,0.0-19.0-3.6,7824,List1A,white,woman,,,,,"{""Q0"":""Kate and Mike are kissing each other.""}","<img src=""stim_listA/kiss2.gif""</stim_listA>",are kissing each other,
null,"<div style=""font-size:60px;"">+</div>",,html-keyboard-response,352,1740624,0.0-19.0-0.7,7824,List1A,white,woman,,,,null,,,,
null,"<img src=""stim_listA/shout6.gif""</stim_listA>",,html-keyboard-response,353,1742631,0.0-19.0-1.7,7824,List1A,white,woman,,,,null,,,,
null,are shouting at each other,,html-keyboard-response,354,1744636,0.0-19.0-2.7,7824,List1A,white,woman,,,,null,,,,
10925,,,survey-text,355,1755566,0.0-19.0-3.7,7824,List1A,white,woman,,,,,"{""Q0"":""Dave and Mike are shouting at each other.""}","<img src=""stim_listA/shout6.gif""</stim_listA>",are shouting at each other,
null,"<div style=""font-size:60px;"">+</div>",,html-keyboard-response,356,1756080,0.0-19.0-0.8,7824,List1A,white,woman,,,,null,,,,
null,"<img src=""stim_listA/marry3.gif""</stim_listA>",,html-keyboard-response,357,1758087,0.0-19.0-1.8,7824,List1A,white,woman,,,,null,,,,
null,is marrying,,html-keyboard-response,358,1760093,0.0-19.0-2.8,7824,List1A,white,woman,,,,null,,,,
8289,,,survey-text,359,1768390,0.0-19.0-3.8,7824,List1A,white,woman,,,,,"{""Q0"":""Ruth is marrying Dave.""}","<img src=""stim_listA/marry3.gif""</stim_listA>",is marrying,
null,"<div style=""font-size:60px;"">+</div>",,html-keyboard-response,360,1768904,0.0-19.0-0.9,7824,List1A,white,woman,,,,null,,,,
null,"<img src=""stim_listA/fight7.gif""</stim_listA>",,html-keyboard-response,361,1770917,0.0-19.0-1.9,7824,List1A,white,woman,,,,null,,,,
null,is fighting,,html-keyboard-response,362,1772922,0.0-19.0-2.9,7824,List1A,white,woman,,,,null,,,,
8347,,,survey-text,363,1781280,0.0-19.0-3.9,7824,List1A,white,woman,,,,,"{""Q0"":""Kate is fighting Jane.""}","<img src=""stim_listA/fight7.gif""</stim_listA>",is fighting,
null,"<div style=""font-size:60px;"">+</div>",,html-keyboard-response,364,1781786,0.0-19.0-0.10,7824,List1A,white,woman,,,,null,,,,
null,"<img src=""stim_listA/shout5.gif""</stim_listA>",,html-keyboard-response,365,1783792,0.0-19.0-1.10,7824,List1A,white,woman,,,,null,,,,
null,is shouting at,,html-keyboard-response,366,1785799,0.0-19.0-2.10,7824,List1A,white,woman,,,,null,,,,
8543,,,survey-text,367,1794349,0.0-19.0-3.10,7824,List1A,white,woman,,,,,"{""Q0"":""Fred is shouting at Luke.""}","<img src=""stim_listA/shout5.gif""</stim_listA>",is shouting at,
null,"<div style=""font-size:60px;"">+</div>",,html-keyboard-response,368,1794855,0.0-19.0-0.11,7824,List1A,white,woman,,,,null,,,,
null,"<img src=""stim_listA/meet8.gif""</stim_listA>",,html-keyboard-response,369,1796864,0.0-19.0-1.11,7824,List1A,white,woman,,,,null,,,,
null,are meeting each other,,html-keyboard-response,370,1798870,0.0-19.0-2.11,7824,List1A,white,woman,,,,null,,,,
9315,,,survey-text,371,1808194,0.0-19.0-3.11,7824,List1A,white,woman,,,,,"{""Q0"":""Ruth and Beth are meeting each other.""}","<img src=""stim_listA/meet8.gif""</stim_listA>",are meeting each other,
null,"<div style=""font-size:60px;"">+</div>",,html-keyboard-response,372,1808700,0.0-19.0-0.12,7824,List1A,white,woman,,,,null,,,,
null,"<img src=""stim_listA/kiss3.gif""</stim_listA>",,html-keyboard-response,373,1810707,0.0-19.0-1.12,7824,List1A,white,woman,,,,null,,,,
null,is kissing,,html-keyboard-response,374,1812711,0.0-19.0-2.12,7824,List1A,white,woman,,,,null,,,,
16408,,,survey-text,375,1829125,0.0-19.0-3.12,7824,List1A,white,woman,,,,,"{""Q0"":""Luke is kissing Ruth.""}","<img src=""stim_listA/kiss3.gif""</stim_listA>",is kissing,
null,"<div style=""font-size:60px;"">+</div>",,html-keyboard-response,376,1829629,0.0-19.0-0.13,7824,List1A,white,woman,,,,null,,,,
null,"<img src=""stim_listA/hug2.gif""</stim_listA>",,html-keyboard-response,377,1831640,0.0-19.0-1.13,7824,List1A,white,woman,,,,null,,,,
null,are hugging each other,,html-keyboard-response,378,1833647,0.0-19.0-2.13,7824,List1A,white,woman,,,,null,,,,
172125,,,survey-text,379,2005776,0.0-19.0-3.13,7824,List1A,white,woman,,,,,"{""Q0"":""Mike and Kate are hugging each other.""}","<img src=""stim_listA/hug2.gif""</stim_listA>",are hugging each other,
null,"<div style=""font-size:60px;"">+</div>",,html-keyboard-response,380,2006281,0.0-19.0-0.14,7824,List1A,white,woman,,,,null,,,,
null,"<img src=""stim_listA/hug4.gif""</stim_listA>",,html-keyboard-response,381,2008289,0.0-19.0-1.14,7824,List1A,white,woman,,,,null,,,,
null,are hugging each other,,html-keyboard-response,382,2010295,0.0-19.0-2.14,7824,List1A,white,woman,,,,null,,,,
7358,,,survey-text,383,2017661,0.0-19.0-3.14,7824,List1A,white,woman,,,,,"{""Q0"":""Jane and Dave are hugging each other.""}","<img src=""stim_listA/hug4.gif""</stim_listA>",are hugging each other,
null,"<div style=""font-size:60px;"">+</div>",,html-keyboard-response,384,2018173,0.0-19.0-0.15,7824,List1A,white,woman,,,,null,,,,
null,"<img src=""stim_listA/touch5.gif""</stim_listA>",,html-keyboard-response,385,2020182,0.0-19.0-1.15,7824,List1A,white,woman,,,,null,,,,
null,is touching,,html-keyboard-response,386,2022186,0.0-19.0-2.15,7824,List1A,white,woman,,,,null,,,,
9750,,,survey-text,387,2031941,0.0-19.0-3.15,7824,List1A,white,woman,,,,,"{""Q0"":""Mike is touching Dave.""}","<img src=""stim_listA/touch5.gif""</stim_listA>",is touching,
null,"<div style=""font-size:60px;"">+</div>",,html-keyboard-response,388,2032449,0.0-19.0-0.16,7824,List1A,white,woman,,,,null,,,,
null,"<img src=""stim_listA/marry8.gif""</stim_listA>",,html-keyboard-response,389,2034458,0.0-19.0-1.16,7824,List1A,white,woman,,,,null,,,,
null,are marrying each other,,html-keyboard-response,390,2036464,0.0-19.0-2.16,7824,List1A,white,woman,,,,null,,,,
33807,,,survey-text,391,2070278,0.0-19.0-3.16,7824,List1A,white,woman,,,,,"{""Q0"":""Jane and Beth are marrying each other.""}","<img src=""stim_listA/marry8.gif""</stim_listA>",are marrying each other,
null,"<div style=""font-size:60px;"">+</div>",,html-keyboard-response,392,2070785,0.0-19.0-0.17,7824,List1A,white,woman,,,,null,,,,
null,"<img src=""stim_listA/kiss6.gif""</stim_listA>",,html-keyboard-response,393,2072794,0.0-19.0-1.17,7824,List1A,white,woman,,,,null,,,,
null,are kissing each other,,html-keyboard-response,394,2074802,0.0-19.0-2.17,7824,List1A,white,woman,,,,null,,,,
10483,,,survey-text,395,2085292,0.0-19.0-3.17,7824,List1A,white,woman,,,,,"{""Q0"":""Mike and Dave are kissing each other.""}","<img src=""stim_listA/kiss6.gif""</stim_listA>",are kissing each other,
null,"<div style=""font-size:60px;"">+</div>",,html-keyboard-response,396,2085797,0.0-19.0-0.18,7824,List1A,white,woman,,,,null,,,,
null,"<img src=""stim_listA/meet1.gif""</stim_listA>",,html-keyboard-response,397,2087807,0.0-19.0-1.18,7824,List1A,white,woman,,,,null,,,,
null,is meeting,,html-keyboard-response,398,2089811,0.0-19.0-2.18,7824,List1A,white,woman,,,,null,,,,
6563,,,survey-text,399,2096378,0.0-19.0-3.18,7824,List1A,white,woman,,,,,"{""Q0"":""Kate is meeting Mike.""}","<img src=""stim_listA/meet1.gif""</stim_listA>",is meeting,
null,"<div style=""font-size:60px;"">+</div>",,html-keyboard-response,400,2096883,0.0-19.0-0.19,7824,List1A,white,woman,,,,null,,,,
null,"<img src=""stim_listA/marry1.gif""</stim_listA>",,html-keyboard-response,401,2098893,0.0-19.0-1.19,7824,List1A,white,woman,,,,null,,,,
null,is marrying,,html-keyboard-response,402,2100897,0.0-19.0-2.19,7824,List1A,white,woman,,,,null,,,,
8981,,,survey-text,403,2109886,0.0-19.0-3.19,7824,List1A,white,woman,,,,,"{""Q0"":""Mike is marrying Beth.""}","<img src=""stim_listA/marry1.gif""</stim_listA>",is marrying,
3726,<p>Thank you for completing that task.</p><p>The final part of this session is a short questionnaire.</p><p>Press Continue.</p>,0,html-button-response,404,2113617,0.0-20.0,7824,List1A,white,woman,,,,,,,,
23512,,,survey-text,405,2138145,0.0-21.0,7824,List1A,white,woman,,,,,"{""Q0"":""34"",""Q1"":""English"",""Q2"":""English"",""Q3"":""Uk"",""Q4"":""British"",""Q5"":""Female""}",,,demographics
46923,,,survey-likert,406,2185116,0.0-22.0,7824,List1A,white,woman,,,,,"{""Q0"":4,""Q1"":3,""Q2"":3,""Q3"":4,""Q4"":4,""Q5"":4,""Q6"":4,""Q7"":3,""Q8"":4,""Q9"":4,""Q10"":4,""Q11"":4,""Q12"":3,""Q13"":3}",,,likert_race
41348,,,survey-likert,407,2226487,0.0-23.0,7824,List1A,white,woman,,,,,"{""Q0"":4,""Q1"":4,""Q2"":5,""Q3"":5,""Q4"":5,""Q5"":4,""Q6"":4,""Q7"":3,""Q8"":5,""Q9"":5,""Q10"":4,""Q11"":4,""Q12"":4,""Q13"":2}",,,likert_gender
5931,,,survey-text,408,2232436,0.0-24.0,7824,List1A,white,woman,,,,,"{""Q0"":""ccc""}",,,worker_id
26782,,,external-html,409,2259369,0.0-25.0,7824,List1A,white,woman,debrief.html,,,,,,,
