rt,stimulus,button_pressed,trial_type,trial_index,time_elapsed,internal_node_id,subject,list,ppt_race,ppt_gender,url,first_guess,correct,key_press,responses,image_type,phrase_type,test_part
2964,Welcome to the experiment. Press Continue to begin.,0,html-button-response,0,2976,0.0-0.0,78624,List1A,white,woman,,,,,,,,
33569,,,external-html,1,37594,0.0-1.0,78624,List1A,white,woman,consent.html,,,,,,,
15506,"<p>On the next page, you will see portraits of 8 people and their names.</p><p>Your first task is to take a few minutes to memorise the names of these people.</p><p>You will have to recall their names during the rest of the experiment, so it is</p><p>essential that you try to memorise these people and their names as best as you can.</p><br><p><strong>You will then be tested on your memory of these names and portraits.</strong></p><br><p>The experiment will start after you have completed this memory test.</p><br><p>Ready?</p>",0,html-button-response,2,53102,0.0-2.0,78624,List1A,white,woman,,,,,,,,
34908,"<img src='img/portrait_matrix_list1.JPG' style='width:900px;height:500px;''></img><p>If you have memorised all the portraits and names and are ready to start, press Continue.</p><p><strong>Please note: Your memory of these faces will be tested 4 times during this experiment.</strong></p>",0,html-button-response,3,89012,0.0-3.0-0.0,78624,List1A,white,woman,,,,,,,,
2963,"<img src=""portrait/WM2.jpg""style=""width:400px;height:400px;""></img>",7,html-button-response,4,92985,0.0-3.0-1.0,78624,List1A,white,woman,,TRUE,7,,,,,
null,CORRECT,,html-keyboard-response,5,94495,0.0-3.0-2.0-0.0,78624,List1A,white,woman,,,,null,,,,
10657,"<img src=""portrait/BW1.jpg""style=""width:400px;height:400px;""></img>",0,html-button-response,6,105156,0.0-3.0-4.0,78624,List1A,white,woman,,TRUE,0,,,,,
null,CORRECT,,html-keyboard-response,7,106664,0.0-3.0-5.0-0.0,78624,List1A,white,woman,,,,null,,,,
2297,"<img src=""portrait/WW2.jpg""style=""width:400px;height:400px;""></img>",3,html-button-response,8,108963,0.0-3.0-7.0,78624,List1A,white,woman,,TRUE,3,,,,,
null,CORRECT,,html-keyboard-response,9,110475,0.0-3.0-8.0-0.0,78624,List1A,white,woman,,,,null,,,,
3173,"<img src=""portrait/BM1.jpg""style=""width:400px;height:400px;""></img>",4,html-button-response,10,113650,0.0-3.0-10.0,78624,List1A,white,woman,,TRUE,4,,,,,
null,CORRECT,,html-keyboard-response,11,115161,0.0-3.0-11.0-0.0,78624,List1A,white,woman,,,,null,,,,
2144,"<img src=""portrait/WW1.jpg""style=""width:400px;height:400px;""></img>",1,html-button-response,12,117307,0.0-3.0-13.0,78624,List1A,white,woman,,TRUE,1,,,,,
null,CORRECT,,html-keyboard-response,13,118812,0.0-3.0-14.0-0.0,78624,List1A,white,woman,,,,null,,,,
2582,"<img src=""portrait/BW2.jpg""style=""width:400px;height:400px;""></img>",2,html-button-response,14,121396,0.0-3.0-16.0,78624,List1A,white,woman,,TRUE,2,,,,,
null,CORRECT,,html-keyboard-response,15,122906,0.0-3.0-17.0-0.0,78624,List1A,white,woman,,,,null,,,,
2076,"<img src=""portrait/WM1.jpg""style=""width:400px;height:400px;""></img>",6,html-button-response,16,124984,0.0-3.0-19.0,78624,List1A,white,woman,,TRUE,6,,,,,
null,CORRECT,,html-keyboard-response,17,126493,0.0-3.0-20.0-0.0,78624,List1A,white,woman,,,,null,,,,
1828,"<img src=""portrait/BM2.jpg""style=""width:400px;height:400px;""></img>",5,html-button-response,18,128323,0.0-3.0-22.0,78624,List1A,white,woman,,TRUE,5,,,,,
null,CORRECT,,html-keyboard-response,19,129835,0.0-3.0-23.0-0.0,78624,List1A,white,woman,,,,null,,,,
1964,<p>You got 8 out of 8 right first time. Press Continue.</p>,0,html-button-response,20,131801,0.0-3.0-25.0,78624,List1A,white,woman,,,,,,,,
17867,"<p>In this experiment, you will view photographs of the people from the memory game interacting.</p><p>By using the <strong>exact</strong> phrase given <i>after</i> the photograph appears and recalling the correct names of the people in the photographs, form a sentence describing the interaction. You do not need to capitalise names.</p><p>Type your answer in the space provided. Please complete every sentence before moving onto the next trial.</p><p>You will only have a few seconds to memorise each given photograph and phrase before you can respond, so try your best to focus.</p><p>An example is given below. Press 'Continue' when you are ready.</p><img src='img/speaking_example_v2.jpg' style='width:800px;height:460px;''></img>",0,html-button-response,21,150677,0.0-4.0,78624,List1A,white,woman,,,,,,,,
2218,"<p>Before the experiment starts, you will watch two example trials. Press 'Continue'.</p>",0,html-button-response,22,153903,0.0-5.0,78624,List1A,white,woman,,,,,,,,
null,<img src='img/speaking_WW.gif'></img>,,html-keyboard-response,23,156911,0.0-6.0,78624,List1A,white,woman,,,,null,,,,
null,<p>is speaking to</p>,,html-keyboard-response,24,158913,0.0-7.0,78624,List1A,white,woman,,,,null,,,,
2683,<p><b>Answer:</b> kate is speaking to beth</p>,0,html-button-response,25,161597,0.0-8.0,78624,List1A,white,woman,,,,,,,,
null,<img src='img/pointing_BM.gif'></img>,,html-keyboard-response,26,164600,0.0-9.0,78624,List1A,white,woman,,,,null,,,,
null,<p>are pointing at each other</p>,,html-keyboard-response,27,166606,0.0-10.0,78624,List1A,white,woman,,,,null,,,,
2665,<p><b>Answer:</b> luke and dave are pointing at each other</p>,0,html-button-response,28,169272,0.0-11.0,78624,List1A,white,woman,,,,,,,,
5317,"<p>Ready to start the experiment?</p><br><p><strong>Remember to describe the picture using a full sentence,</strong></p><p><strong> that combines the names of the people with the given phrase.</strong></p><p><strong> You do not need to capitalise names or use punctuation.</strong></p><br><p>Press 'Continue' to begin.</p>",0,html-button-response,29,175594,0.0-12.0,78624,List1A,white,woman,,,,,,,,
null,"<div style=""font-size:60px;"">+</div>",,html-keyboard-response,30,177107,0.0-13.0-0.0,78624,List1A,white,woman,,,,null,,,,
null,"<img src=""stim_listA/touch6.gif""</stim_listA>",,html-keyboard-response,31,179112,0.0-13.0-1.0,78624,List1A,white,woman,,,,null,,,,
null,are touching each other,,html-keyboard-response,32,181117,0.0-13.0-2.0,78624,List1A,white,woman,,,,null,,,,
9200,,,survey-text,33,190319,0.0-13.0-3.0,78624,List1A,white,woman,,,,,"{""Q0"":""fred and luke are touching each other""}","<img src=""stim_listA/touch6.gif""</stim_listA>",are touching each other,
null,"<div style=""font-size:60px;"">+</div>",,html-keyboard-response,34,190822,0.0-13.0-0.1,78624,List1A,white,woman,,,,null,,,,
null,"<img src=""stim_listA/talk6.gif""</stim_listA>",,html-keyboard-response,35,192828,0.0-13.0-1.1,78624,List1A,white,woman,,,,null,,,,
null,are talking to each other,,html-keyboard-response,36,194831,0.0-13.0-2.1,78624,List1A,white,woman,,,,null,,,,
9064,,,survey-text,37,203897,0.0-13.0-3.1,78624,List1A,white,woman,,,,,"{""Q0"":""Fred and mike are talking to each other""}","<img src=""stim_listA/talk6.gif""</stim_listA>",are talking to each other,
null,"<div style=""font-size:60px;"">+</div>",,html-keyboard-response,38,204400,0.0-13.0-0.2,78624,List1A,white,woman,,,,null,,,,
null,"<img src=""stim_listA/shout7.gif""</stim_listA>",,html-keyboard-response,39,206406,0.0-13.0-1.2,78624,List1A,white,woman,,,,null,,,,
null,is shouting at,,html-keyboard-response,40,208408,0.0-13.0-2.2,78624,List1A,white,woman,,,,null,,,,
5581,,,survey-text,41,213989,0.0-13.0-3.2,78624,List1A,white,woman,,,,,"{""Q0"":""Ruth is shouting at beth""}","<img src=""stim_listA/shout7.gif""</stim_listA>",is shouting at,
null,"<div style=""font-size:60px;"">+</div>",,html-keyboard-response,42,214493,0.0-13.0-0.3,78624,List1A,white,woman,,,,null,,,,
null,"<img src=""stim_listA/talk3.gif""</stim_listA>",,html-keyboard-response,43,216500,0.0-13.0-1.3,78624,List1A,white,woman,,,,null,,,,
null,is talking to,,html-keyboard-response,44,218501,0.0-13.0-2.3,78624,List1A,white,woman,,,,null,,,,
7951,,,survey-text,45,226453,0.0-13.0-3.3,78624,List1A,white,woman,,,,,"{""Q0"":""Luke is talking to Jane""}","<img src=""stim_listA/talk3.gif""</stim_listA>",is talking to,
null,"<div style=""font-size:60px;"">+</div>",,html-keyboard-response,46,226960,0.0-13.0-0.4,78624,List1A,white,woman,,,,null,,,,
null,"<img src=""stim_listA/talk7.gif""</stim_listA>",,html-keyboard-response,47,228964,0.0-13.0-1.4,78624,List1A,white,woman,,,,null,,,,
null,is talking to,,html-keyboard-response,48,230965,0.0-13.0-2.4,78624,List1A,white,woman,,,,null,,,,
5461,,,survey-text,49,236428,0.0-13.0-3.4,78624,List1A,white,woman,,,,,"{""Q0"":""Beth is talking to Jane""}","<img src=""stim_listA/talk7.gif""</stim_listA>",is talking to,
null,"<div style=""font-size:60px;"">+</div>",,html-keyboard-response,50,236935,0.0-13.0-0.5,78624,List1A,white,woman,,,,null,,,,
null,"<img src=""stim_listA/marry5.gif""</stim_listA>",,html-keyboard-response,51,238939,0.0-13.0-1.5,78624,List1A,white,woman,,,,null,,,,
null,is marrying,,html-keyboard-response,52,240940,0.0-13.0-2.5,78624,List1A,white,woman,,,,null,,,,
4615,,,survey-text,53,245557,0.0-13.0-3.5,78624,List1A,white,woman,,,,,"{""Q0"":""Mike is marrying luke""}","<img src=""stim_listA/marry5.gif""</stim_listA>",is marrying,
null,"<div style=""font-size:60px;"">+</div>",,html-keyboard-response,54,246064,0.0-13.0-0.6,78624,List1A,white,woman,,,,null,,,,
null,"<img src=""stim_listA/shout3.gif""</stim_listA>",,html-keyboard-response,55,248069,0.0-13.0-1.6,78624,List1A,white,woman,,,,null,,,,
null,is shouting at,,html-keyboard-response,56,250072,0.0-13.0-2.6,78624,List1A,white,woman,,,,null,,,,
11148,,,survey-text,57,261222,0.0-13.0-3.6,78624,List1A,white,woman,,,,,"{""Q0"":""Luke is shouting at ruth""}","<img src=""stim_listA/shout3.gif""</stim_listA>",is shouting at,
null,"<div style=""font-size:60px;"">+</div>",,html-keyboard-response,58,261729,0.0-13.0-0.7,78624,List1A,white,woman,,,,null,,,,
null,"<img src=""stim_listA/dance5.gif""</stim_listA>",,html-keyboard-response,59,263736,0.0-13.0-1.7,78624,List1A,white,woman,,,,null,,,,
null,is dancing with,,html-keyboard-response,60,265738,0.0-13.0-2.7,78624,List1A,white,woman,,,,null,,,,
5051,,,survey-text,61,270790,0.0-13.0-3.7,78624,List1A,white,woman,,,,,"{""Q0"":""Fred is dancing with dave""}","<img src=""stim_listA/dance5.gif""</stim_listA>",is dancing with,
null,"<div style=""font-size:60px;"">+</div>",,html-keyboard-response,62,271297,0.0-13.0-0.8,78624,List1A,white,woman,,,,null,,,,
null,"<img src=""stim_listA/argue7.gif""</stim_listA>",,html-keyboard-response,63,273301,0.0-13.0-1.8,78624,List1A,white,woman,,,,null,,,,
null,is arguing with,,html-keyboard-response,64,275307,0.0-13.0-2.8,78624,List1A,white,woman,,,,null,,,,
4668,,,survey-text,65,279976,0.0-13.0-3.8,78624,List1A,white,woman,,,,,"{""Q0"":""Kate and jane ""}","<img src=""stim_listA/argue7.gif""</stim_listA>",is arguing with,
null,"<div style=""font-size:60px;"">+</div>",,html-keyboard-response,66,280492,0.0-13.0-0.9,78624,List1A,white,woman,,,,null,,,,
null,"<img src=""stim_listA/dance4.gif""</stim_listA>",,html-keyboard-response,67,282497,0.0-13.0-1.9,78624,List1A,white,woman,,,,null,,,,
null,are dancing with each other,,html-keyboard-response,68,284498,0.0-13.0-2.9,78624,List1A,white,woman,,,,null,,,,
10317,,,survey-text,69,294817,0.0-13.0-3.9,78624,List1A,white,woman,,,,,"{""Q0"":""ruth and dave are dancing with each other""}","<img src=""stim_listA/dance4.gif""</stim_listA>",are dancing with each other,
null,"<div style=""font-size:60px;"">+</div>",,html-keyboard-response,70,295324,0.0-13.0-0.10,78624,List1A,white,woman,,,,null,,,,
null,"<img src=""stim_listA/shout2.gif""</stim_listA>",,html-keyboard-response,71,297327,0.0-13.0-1.10,78624,List1A,white,woman,,,,null,,,,
null,are shouting at each other,,html-keyboard-response,72,299330,0.0-13.0-2.10,78624,List1A,white,woman,,,,null,,,,
7938,,,survey-text,73,307270,0.0-13.0-3.10,78624,List1A,white,woman,,,,,"{""Q0"":""Mike and kate are shouting at each other""}","<img src=""stim_listA/shout2.gif""</stim_listA>",are shouting at each other,
null,"<div style=""font-size:60px;"">+</div>",,html-keyboard-response,74,307776,0.0-13.0-0.11,78624,List1A,white,woman,,,,null,,,,
null,"<img src=""stim_listA/touch5.gif""</stim_listA>",,html-keyboard-response,75,309782,0.0-13.0-1.11,78624,List1A,white,woman,,,,null,,,,
null,is touching,,html-keyboard-response,76,311783,0.0-13.0-2.11,78624,List1A,white,woman,,,,null,,,,
5241,,,survey-text,77,317026,0.0-13.0-3.11,78624,List1A,white,woman,,,,,"{""Q0"":""Mike is touching dave""}","<img src=""stim_listA/touch5.gif""</stim_listA>",is touching,
null,"<div style=""font-size:60px;"">+</div>",,html-keyboard-response,78,317530,0.0-13.0-0.12,78624,List1A,white,woman,,,,null,,,,
null,"<img src=""stim_listA/meet1.gif""</stim_listA>",,html-keyboard-response,79,319535,0.0-13.0-1.12,78624,List1A,white,woman,,,,null,,,,
null,is meeting,,html-keyboard-response,80,321538,0.0-13.0-2.12,78624,List1A,white,woman,,,,null,,,,
4617,,,survey-text,81,326156,0.0-13.0-3.12,78624,List1A,white,woman,,,,,"{""Q0"":""Kate is meeting mike""}","<img src=""stim_listA/meet1.gif""</stim_listA>",is meeting,
null,"<div style=""font-size:60px;"">+</div>",,html-keyboard-response,82,326660,0.0-13.0-0.13,78624,List1A,white,woman,,,,null,,,,
null,"<img src=""stim_listA/shout5.gif""</stim_listA>",,html-keyboard-response,83,328666,0.0-13.0-1.13,78624,List1A,white,woman,,,,null,,,,
null,is shouting at,,html-keyboard-response,84,330667,0.0-13.0-2.13,78624,List1A,white,woman,,,,null,,,,
4776,,,survey-text,85,335445,0.0-13.0-3.13,78624,List1A,white,woman,,,,,"{""Q0"":""fred is shouting at luke""}","<img src=""stim_listA/shout5.gif""</stim_listA>",is shouting at,
null,"<div style=""font-size:60px;"">+</div>",,html-keyboard-response,86,335952,0.0-13.0-0.14,78624,List1A,white,woman,,,,null,,,,
null,"<img src=""stim_listA/marry3.gif""</stim_listA>",,html-keyboard-response,87,337959,0.0-13.0-1.14,78624,List1A,white,woman,,,,null,,,,
null,is marrying,,html-keyboard-response,88,339963,0.0-13.0-2.14,78624,List1A,white,woman,,,,null,,,,
4436,,,survey-text,89,344401,0.0-13.0-3.14,78624,List1A,white,woman,,,,,"{""Q0"":""Ruth is marrying dave""}","<img src=""stim_listA/marry3.gif""</stim_listA>",is marrying,
null,"<div style=""font-size:60px;"">+</div>",,html-keyboard-response,90,344908,0.0-13.0-0.15,78624,List1A,white,woman,,,,null,,,,
null,"<img src=""stim_listA/argue4.gif""</stim_listA>",,html-keyboard-response,91,346910,0.0-13.0-1.15,78624,List1A,white,woman,,,,null,,,,
null,are arguing with each other,,html-keyboard-response,92,348911,0.0-13.0-2.15,78624,List1A,white,woman,,,,null,,,,
11477,,,survey-text,93,360390,0.0-13.0-3.15,78624,List1A,white,woman,,,,,"{""Q0"":""Jane and Luke are arguing with each other ""}","<img src=""stim_listA/argue4.gif""</stim_listA>",are arguing with each other,
null,"<div style=""font-size:60px;"">+</div>",,html-keyboard-response,94,360894,0.0-13.0-0.16,78624,List1A,white,woman,,,,null,,,,
null,"<img src=""stim_listA/hug3.gif""</stim_listA>",,html-keyboard-response,95,362897,0.0-13.0-1.16,78624,List1A,white,woman,,,,null,,,,
null,is hugging,,html-keyboard-response,96,364902,0.0-13.0-2.16,78624,List1A,white,woman,,,,null,,,,
6081,,,survey-text,97,370985,0.0-13.0-3.16,78624,List1A,white,woman,,,,,"{""Q0"":""Luke is hugging ruth""}","<img src=""stim_listA/hug3.gif""</stim_listA>",is hugging,
null,"<div style=""font-size:60px;"">+</div>",,html-keyboard-response,98,371492,0.0-13.0-0.17,78624,List1A,white,woman,,,,null,,,,
null,"<img src=""stim_listA/shout4.gif""</stim_listA>",,html-keyboard-response,99,373497,0.0-13.0-1.17,78624,List1A,white,woman,,,,null,,,,
null,are shouting at each other,,html-keyboard-response,100,375498,0.0-13.0-2.17,78624,List1A,white,woman,,,,null,,,,
10409,,,survey-text,101,385909,0.0-13.0-3.17,78624,List1A,white,woman,,,,,"{""Q0"":""Jane and Dave are shouting at each other""}","<img src=""stim_listA/shout4.gif""</stim_listA>",are shouting at each other,
null,"<div style=""font-size:60px;"">+</div>",,html-keyboard-response,102,386415,0.0-13.0-0.18,78624,List1A,white,woman,,,,null,,,,
null,"<img src=""stim_listA/hug1.gif""</stim_listA>",,html-keyboard-response,103,388419,0.0-13.0-1.18,78624,List1A,white,woman,,,,null,,,,
null,is hugging,,html-keyboard-response,104,390422,0.0-13.0-2.18,78624,List1A,white,woman,,,,null,,,,
5716,,,survey-text,105,396138,0.0-13.0-3.18,78624,List1A,white,woman,,,,,"{""Q0"":""Fred is hugging beth""}","<img src=""stim_listA/hug1.gif""</stim_listA>",is hugging,
null,"<div style=""font-size:60px;"">+</div>",,html-keyboard-response,106,396644,0.0-13.0-0.19,78624,List1A,white,woman,,,,null,,,,
null,"<img src=""stim_listA/dance7.gif""</stim_listA>",,html-keyboard-response,107,398649,0.0-13.0-1.19,78624,List1A,white,woman,,,,null,,,,
null,is dancing with,,html-keyboard-response,108,400650,0.0-13.0-2.19,78624,List1A,white,woman,,,,null,,,,
5330,,,survey-text,109,405982,0.0-13.0-3.19,78624,List1A,white,woman,,,,,"{""Q0"":""Jane is dancing with Beth""}","<img src=""stim_listA/dance7.gif""</stim_listA>",is dancing with,
15222,"<img src='img/portrait_matrix_list1.JPG' style='width:900px;height:500px;''></img><p>If you have memorised all the portraits and names and are ready to start, press Continue.</p><p><strong>Please note: Your memory of these faces will be tested 4 times during this experiment.</strong></p>",0,html-button-response,110,421204,0.0-14.0-0.0,78624,List1A,white,woman,,,,,,,,
2466,"<img src=""portrait/BM2.jpg""style=""width:400px;height:400px;""></img>",5,html-button-response,111,424679,0.0-14.0-1.0,78624,List1A,white,woman,,TRUE,5,,,,,
null,CORRECT,,html-keyboard-response,112,426187,0.0-14.0-2.0-0.0,78624,List1A,white,woman,,,,null,,,,
1852,"<img src=""portrait/WM1.jpg""style=""width:400px;height:400px;""></img>",6,html-button-response,113,428041,0.0-14.0-4.0,78624,List1A,white,woman,,TRUE,6,,,,,
null,CORRECT,,html-keyboard-response,114,429548,0.0-14.0-5.0-0.0,78624,List1A,white,woman,,,,null,,,,
1804,"<img src=""portrait/BW1.jpg""style=""width:400px;height:400px;""></img>",0,html-button-response,115,431354,0.0-14.0-7.0,78624,List1A,white,woman,,TRUE,0,,,,,
null,CORRECT,,html-keyboard-response,116,432861,0.0-14.0-8.0-0.0,78624,List1A,white,woman,,,,null,,,,
1909,"<img src=""portrait/WW1.jpg""style=""width:400px;height:400px;""></img>",1,html-button-response,117,434772,0.0-14.0-10.0,78624,List1A,white,woman,,TRUE,1,,,,,
null,CORRECT,,html-keyboard-response,118,436278,0.0-14.0-11.0-0.0,78624,List1A,white,woman,,,,null,,,,
1755,"<img src=""portrait/WM2.jpg""style=""width:400px;height:400px;""></img>",7,html-button-response,119,438035,0.0-14.0-13.0,78624,List1A,white,woman,,TRUE,7,,,,,
null,CORRECT,,html-keyboard-response,120,439539,0.0-14.0-14.0-0.0,78624,List1A,white,woman,,,,null,,,,
1402,"<img src=""portrait/BM1.jpg""style=""width:400px;height:400px;""></img>",4,html-button-response,121,440943,0.0-14.0-16.0,78624,List1A,white,woman,,TRUE,4,,,,,
null,CORRECT,,html-keyboard-response,122,442454,0.0-14.0-17.0-0.0,78624,List1A,white,woman,,,,null,,,,
7715,"<img src=""portrait/BW2.jpg""style=""width:400px;height:400px;""></img>",2,html-button-response,123,450171,0.0-14.0-19.0,78624,List1A,white,woman,,TRUE,2,,,,,
null,CORRECT,,html-keyboard-response,124,451681,0.0-14.0-20.0-0.0,78624,List1A,white,woman,,,,null,,,,
2096,"<img src=""portrait/WW2.jpg""style=""width:400px;height:400px;""></img>",3,html-button-response,125,453779,0.0-14.0-22.0,78624,List1A,white,woman,,TRUE,3,,,,,
null,CORRECT,,html-keyboard-response,126,455287,0.0-14.0-23.0-0.0,78624,List1A,white,woman,,,,null,,,,
1731,<p>You got 8 out of 8 right first time. Press Continue.</p>,0,html-button-response,127,457020,0.0-14.0-25.0,78624,List1A,white,woman,,,,,,,,
null,"<div style=""font-size:60px;"">+</div>",,html-keyboard-response,128,458533,0.0-15.0-0.0,78624,List1A,white,woman,,,,null,,,,
null,"<img src=""stim_listA/talk8.gif""</stim_listA>",,html-keyboard-response,129,460540,0.0-15.0-1.0,78624,List1A,white,woman,,,,null,,,,
null,are talking to each other,,html-keyboard-response,130,462545,0.0-15.0-2.0,78624,List1A,white,woman,,,,null,,,,
7527,,,survey-text,131,470073,0.0-15.0-3.0,78624,List1A,white,woman,,,,,"{""Q0"":""Kate and ruth are talking to each other""}","<img src=""stim_listA/talk8.gif""</stim_listA>",are talking to each other,
null,"<div style=""font-size:60px;"">+</div>",,html-keyboard-response,132,470579,0.0-15.0-0.1,78624,List1A,white,woman,,,,null,,,,
null,"<img src=""stim_listA/talk5.gif""</stim_listA>",,html-keyboard-response,133,472586,0.0-15.0-1.1,78624,List1A,white,woman,,,,null,,,,
null,is talking to,,html-keyboard-response,134,474587,0.0-15.0-2.1,78624,List1A,white,woman,,,,null,,,,
7411,,,survey-text,135,482000,0.0-15.0-3.1,78624,List1A,white,woman,,,,,"{""Q0"":""fred is talking to dave""}","<img src=""stim_listA/talk5.gif""</stim_listA>",is talking to,
null,"<div style=""font-size:60px;"">+</div>",,html-keyboard-response,136,482506,0.0-15.0-0.2,78624,List1A,white,woman,,,,null,,,,
null,"<img src=""stim_listA/kiss3.gif""</stim_listA>",,html-keyboard-response,137,484510,0.0-15.0-1.2,78624,List1A,white,woman,,,,null,,,,
null,is kissing,,html-keyboard-response,138,486511,0.0-15.0-2.2,78624,List1A,white,woman,,,,null,,,,
6399,,,survey-text,139,492911,0.0-15.0-3.2,78624,List1A,white,woman,,,,,"{""Q0"":""ruth is kissing luke""}","<img src=""stim_listA/kiss3.gif""</stim_listA>",is kissing,
null,"<div style=""font-size:60px;"">+</div>",,html-keyboard-response,140,493418,0.0-15.0-0.3,78624,List1A,white,woman,,,,null,,,,
null,"<img src=""stim_listA/kiss7.gif""</stim_listA>",,html-keyboard-response,141,495426,0.0-15.0-1.3,78624,List1A,white,woman,,,,null,,,,
null,is kissing,,html-keyboard-response,142,497427,0.0-15.0-2.3,78624,List1A,white,woman,,,,null,,,,
4379,,,survey-text,143,501808,0.0-15.0-3.3,78624,List1A,white,woman,,,,,"{""Q0"":""Ruth is kissing beth""}","<img src=""stim_listA/kiss7.gif""</stim_listA>",is kissing,
null,"<div style=""font-size:60px;"">+</div>",,html-keyboard-response,144,502315,0.0-15.0-0.4,78624,List1A,white,woman,,,,null,,,,
null,"<img src=""stim_listA/marry8.gif""</stim_listA>",,html-keyboard-response,145,504320,0.0-15.0-1.4,78624,List1A,white,woman,,,,null,,,,
null,are marrying each other,,html-keyboard-response,146,506321,0.0-15.0-2.4,78624,List1A,white,woman,,,,null,,,,
11278,,,survey-text,147,517601,0.0-15.0-3.4,78624,List1A,white,woman,,,,,"{""Q0"":""Jane and beth are marrying each other""}","<img src=""stim_listA/marry8.gif""</stim_listA>",are marrying each other,
null,"<div style=""font-size:60px;"">+</div>",,html-keyboard-response,148,518108,0.0-15.0-0.5,78624,List1A,white,woman,,,,null,,,,
null,"<img src=""stim_listA/dance1.gif""</stim_listA>",,html-keyboard-response,149,520112,0.0-15.0-1.5,78624,List1A,white,woman,,,,null,,,,
null,is dancing with,,html-keyboard-response,150,522116,0.0-15.0-2.5,78624,List1A,white,woman,,,,null,,,,
6734,,,survey-text,151,528852,0.0-15.0-3.5,78624,List1A,white,woman,,,,,"{""Q0"":""Fred is dancing with kate""}","<img src=""stim_listA/dance1.gif""</stim_listA>",is dancing with,
null,"<div style=""font-size:60px;"">+</div>",,html-keyboard-response,152,529359,0.0-15.0-0.6,78624,List1A,white,woman,,,,null,,,,
null,"<img src=""stim_listA/fight6.gif""</stim_listA>",,html-keyboard-response,153,531366,0.0-15.0-1.6,78624,List1A,white,woman,,,,null,,,,
null,are fighting each other,,html-keyboard-response,154,533368,0.0-15.0-2.6,78624,List1A,white,woman,,,,null,,,,
8710,,,survey-text,155,542080,0.0-15.0-3.6,78624,List1A,white,woman,,,,,"{""Q0"":""Luke and fred are fighting each other""}","<img src=""stim_listA/fight6.gif""</stim_listA>",are fighting each other,
null,"<div style=""font-size:60px;"">+</div>",,html-keyboard-response,156,542584,0.0-15.0-0.7,78624,List1A,white,woman,,,,null,,,,
null,"<img src=""stim_listA/kiss5.gif""</stim_listA>",,html-keyboard-response,157,544589,0.0-15.0-1.7,78624,List1A,white,woman,,,,null,,,,
null,is kissing,,html-keyboard-response,158,546590,0.0-15.0-2.7,78624,List1A,white,woman,,,,null,,,,
4477,,,survey-text,159,551070,0.0-15.0-3.7,78624,List1A,white,woman,,,,,"{""Q0"":""Fred is kissing luke""}","<img src=""stim_listA/kiss5.gif""</stim_listA>",is kissing,
null,"<div style=""font-size:60px;"">+</div>",,html-keyboard-response,160,551574,0.0-15.0-0.8,78624,List1A,white,woman,,,,null,,,,
null,"<img src=""stim_listA/hug4.gif""</stim_listA>",,html-keyboard-response,161,553580,0.0-15.0-1.8,78624,List1A,white,woman,,,,null,,,,
null,are hugging each other,,html-keyboard-response,162,555587,0.0-15.0-2.8,78624,List1A,white,woman,,,,null,,,,
8021,,,survey-text,163,563610,0.0-15.0-3.8,78624,List1A,white,woman,,,,,"{""Q0"":""Jane and dave are hugging each other""}","<img src=""stim_listA/hug4.gif""</stim_listA>",are hugging each other,
null,"<div style=""font-size:60px;"">+</div>",,html-keyboard-response,164,564116,0.0-15.0-0.9,78624,List1A,white,woman,,,,null,,,,
null,"<img src=""stim_listA/shout1.gif""</stim_listA>",,html-keyboard-response,165,566123,0.0-15.0-1.9,78624,List1A,white,woman,,,,null,,,,
null,is shouting at,,html-keyboard-response,166,568125,0.0-15.0-2.9,78624,List1A,white,woman,,,,null,,,,
5008,,,survey-text,167,573133,0.0-15.0-3.9,78624,List1A,white,woman,,,,,"{""Q0"":""luke is shouting at beth""}","<img src=""stim_listA/shout1.gif""</stim_listA>",is shouting at,
null,"<div style=""font-size:60px;"">+</div>",,html-keyboard-response,168,573640,0.0-15.0-0.10,78624,List1A,white,woman,,,,null,,,,
null,"<img src=""stim_listA/touch2.gif""</stim_listA>",,html-keyboard-response,169,575648,0.0-15.0-1.10,78624,List1A,white,woman,,,,null,,,,
null,are touching each other,,html-keyboard-response,170,577650,0.0-15.0-2.10,78624,List1A,white,woman,,,,null,,,,
11053,,,survey-text,171,588705,0.0-15.0-3.10,78624,List1A,white,woman,,,,,"{""Q0"":""fred and beth are touching each other""}","<img src=""stim_listA/touch2.gif""</stim_listA>",are touching each other,
null,"<div style=""font-size:60px;"">+</div>",,html-keyboard-response,172,589212,0.0-15.0-0.11,78624,List1A,white,woman,,,,null,,,,
null,"<img src=""stim_listA/touch4.gif""</stim_listA>",,html-keyboard-response,173,591218,0.0-15.0-1.11,78624,List1A,white,woman,,,,null,,,,
null,are touching each other,,html-keyboard-response,174,593220,0.0-15.0-2.11,78624,List1A,white,woman,,,,null,,,,
6937,,,survey-text,175,600157,0.0-15.0-3.11,78624,List1A,white,woman,,,,,"{""Q0"":""Ruth and Luke are touching each other""}","<img src=""stim_listA/touch4.gif""</stim_listA>",are touching each other,
null,"<div style=""font-size:60px;"">+</div>",,html-keyboard-response,176,600664,0.0-15.0-0.12,78624,List1A,white,woman,,,,null,,,,
null,"<img src=""stim_listA/dance8.gif""</stim_listA>",,html-keyboard-response,177,602671,0.0-15.0-1.12,78624,List1A,white,woman,,,,null,,,,
null,are dancing with each other,,html-keyboard-response,178,604672,0.0-15.0-2.12,78624,List1A,white,woman,,,,null,,,,
8200,,,survey-text,179,612874,0.0-15.0-3.12,78624,List1A,white,woman,,,,,"{""Q0"":""Kate and ruth are dancing with each other""}","<img src=""stim_listA/dance8.gif""</stim_listA>",are dancing with each other,
null,"<div style=""font-size:60px;"">+</div>",,html-keyboard-response,180,613381,0.0-15.0-0.13,78624,List1A,white,woman,,,,null,,,,
null,"<img src=""stim_listA/meet7.gif""</stim_listA>",,html-keyboard-response,181,615385,0.0-15.0-1.13,78624,List1A,white,woman,,,,null,,,,
null,is meeting,,html-keyboard-response,182,617386,0.0-15.0-2.13,78624,List1A,white,woman,,,,null,,,,
4355,,,survey-text,183,621743,0.0-15.0-3.13,78624,List1A,white,woman,,,,,"{""Q0"":""Kate is meeting Jane""}","<img src=""stim_listA/meet7.gif""</stim_listA>",is meeting,
null,"<div style=""font-size:60px;"">+</div>",,html-keyboard-response,184,622249,0.0-15.0-0.14,78624,List1A,white,woman,,,,null,,,,
null,"<img src=""stim_listA/argue1.gif""</stim_listA>",,html-keyboard-response,185,624257,0.0-15.0-1.14,78624,List1A,white,woman,,,,null,,,,
null,is arguing with,,html-keyboard-response,186,626260,0.0-15.0-2.14,78624,List1A,white,woman,,,,null,,,,
6041,,,survey-text,187,632303,0.0-15.0-3.14,78624,List1A,white,woman,,,,,"{""Q0"":""Mike is aruging with beth""}","<img src=""stim_listA/argue1.gif""</stim_listA>",is arguing with,
null,"<div style=""font-size:60px;"">+</div>",,html-keyboard-response,188,632808,0.0-15.0-0.15,78624,List1A,white,woman,,,,null,,,,
null,"<img src=""stim_listA/fight3.gif""</stim_listA>",,html-keyboard-response,189,634812,0.0-15.0-1.15,78624,List1A,white,woman,,,,null,,,,
null,is fighting,,html-keyboard-response,190,636817,0.0-15.0-2.15,78624,List1A,white,woman,,,,null,,,,
6297,,,survey-text,191,643116,0.0-15.0-3.15,78624,List1A,white,woman,,,,,"{""Q0"":""Dave is fighting Jane""}","<img src=""stim_listA/fight3.gif""</stim_listA>",is fighting,
null,"<div style=""font-size:60px;"">+</div>",,html-keyboard-response,192,643619,0.0-15.0-0.16,78624,List1A,white,woman,,,,null,,,,
null,"<img src=""stim_listA/argue6.gif""</stim_listA>",,html-keyboard-response,193,645626,0.0-15.0-1.16,78624,List1A,white,woman,,,,null,,,,
null,are arguing with each other,,html-keyboard-response,194,647628,0.0-15.0-2.16,78624,List1A,white,woman,,,,null,,,,
9453,,,survey-text,195,657083,0.0-15.0-3.16,78624,List1A,white,woman,,,,,"{""Q0"":""fred and dave are aruging with each other""}","<img src=""stim_listA/argue6.gif""</stim_listA>",are arguing with each other,
null,"<div style=""font-size:60px;"">+</div>",,html-keyboard-response,196,657586,0.0-15.0-0.17,78624,List1A,white,woman,,,,null,,,,
null,"<img src=""stim_listA/fight8.gif""</stim_listA>",,html-keyboard-response,197,659590,0.0-15.0-1.17,78624,List1A,white,woman,,,,null,,,,
null,are fighting each other,,html-keyboard-response,198,661591,0.0-15.0-2.17,78624,List1A,white,woman,,,,null,,,,
7430,,,survey-text,199,669022,0.0-15.0-3.17,78624,List1A,white,woman,,,,,"{""Q0"":""Ruth and beth are fighting each other""}","<img src=""stim_listA/fight8.gif""</stim_listA>",are fighting each other,
null,"<div style=""font-size:60px;"">+</div>",,html-keyboard-response,200,669525,0.0-15.0-0.18,78624,List1A,white,woman,,,,null,,,,
null,"<img src=""stim_listA/talk1.gif""</stim_listA>",,html-keyboard-response,201,671533,0.0-15.0-1.18,78624,List1A,white,woman,,,,null,,,,
null,is talking to,,html-keyboard-response,202,673534,0.0-15.0-2.18,78624,List1A,white,woman,,,,null,,,,
5681,,,survey-text,203,679217,0.0-15.0-3.18,78624,List1A,white,woman,,,,,"{""Q0"":""fred is talking to kate""}","<img src=""stim_listA/talk1.gif""</stim_listA>",is talking to,
null,"<div style=""font-size:60px;"">+</div>",,html-keyboard-response,204,679722,0.0-15.0-0.19,78624,List1A,white,woman,,,,null,,,,
null,"<img src=""stim_listA/argue8.gif""</stim_listA>",,html-keyboard-response,205,681727,0.0-15.0-1.19,78624,List1A,white,woman,,,,null,,,,
null,are arguing with each other,,html-keyboard-response,206,683729,0.0-15.0-2.19,78624,List1A,white,woman,,,,null,,,,
9490,,,survey-text,207,693220,0.0-15.0-3.19,78624,List1A,white,woman,,,,,"{""Q0"":""jane and beth are arguing with each other""}","<img src=""stim_listA/argue8.gif""</stim_listA>",are arguing with each other,
8425,"<img src='img/portrait_matrix_list1.JPG' style='width:900px;height:500px;''></img><p>If you have memorised all the portraits and names and are ready to start, press Continue.</p><p><strong>Please note: Your memory of these faces will be tested 4 times during this experiment.</strong></p>",0,html-button-response,208,701647,0.0-16.0-0.0,78624,List1A,white,woman,,,,,,,,
1601,"<img src=""portrait/WM2.jpg""style=""width:400px;height:400px;""></img>",7,html-button-response,209,704251,0.0-16.0-1.0,78624,List1A,white,woman,,TRUE,7,,,,,
null,CORRECT,,html-keyboard-response,210,705755,0.0-16.0-2.0-0.0,78624,List1A,white,woman,,,,null,,,,
2964,"<img src=""portrait/BW1.jpg""style=""width:400px;height:400px;""></img>",0,html-button-response,211,708722,0.0-16.0-4.0,78624,List1A,white,woman,,TRUE,0,,,,,
null,CORRECT,,html-keyboard-response,212,710226,0.0-16.0-5.0-0.0,78624,List1A,white,woman,,,,null,,,,
1731,"<img src=""portrait/WW1.jpg""style=""width:400px;height:400px;""></img>",3,html-button-response,213,711959,0.0-16.0-7.0,78624,List1A,white,woman,,TRUE,1,,,,,
3712,"<img src=""portrait/WW1.jpg""style=""width:400px;height:400px;""></img>",1,html-button-response,214,716680,0.0-16.0-9.0-0.0,78624,List1A,white,woman,,FALSE,1,,,,,
null,CORRECT,,html-keyboard-response,215,718194,0.0-16.0-9.0-1.0-0.0,78624,List1A,white,woman,,,,null,,,,
1180,"<img src=""portrait/WW2.jpg""style=""width:400px;height:400px;""></img>",3,html-button-response,216,719375,0.0-16.0-10.0,78624,List1A,white,woman,,TRUE,3,,,,,
null,CORRECT,,html-keyboard-response,217,720883,0.0-16.0-11.0-0.0,78624,List1A,white,woman,,,,null,,,,
1809,"<img src=""portrait/BM2.jpg""style=""width:400px;height:400px;""></img>",5,html-button-response,218,722694,0.0-16.0-13.0,78624,List1A,white,woman,,TRUE,5,,,,,
null,CORRECT,,html-keyboard-response,219,724206,0.0-16.0-14.0-0.0,78624,List1A,white,woman,,,,null,,,,
1617,"<img src=""portrait/WM1.jpg""style=""width:400px;height:400px;""></img>",6,html-button-response,220,725825,0.0-16.0-16.0,78624,List1A,white,woman,,TRUE,6,,,,,
null,CORRECT,,html-keyboard-response,221,727335,0.0-16.0-17.0-0.0,78624,List1A,white,woman,,,,null,,,,
1572,"<img src=""portrait/BM1.jpg""style=""width:400px;height:400px;""></img>",4,html-button-response,222,728909,0.0-16.0-19.0,78624,List1A,white,woman,,TRUE,4,,,,,
null,CORRECT,,html-keyboard-response,223,730421,0.0-16.0-20.0-0.0,78624,List1A,white,woman,,,,null,,,,
3058,"<img src=""portrait/BW2.jpg""style=""width:400px;height:400px;""></img>",2,html-button-response,224,733482,0.0-16.0-22.0,78624,List1A,white,woman,,TRUE,2,,,,,
null,CORRECT,,html-keyboard-response,225,734990,0.0-16.0-23.0-0.0,78624,List1A,white,woman,,,,null,,,,
1965,<p>You got 7 out of 8 right first time. Press Continue.</p>,0,html-button-response,226,736957,0.0-16.0-25.0,78624,List1A,white,woman,,,,,,,,
3154,"As you did not score 100%, the memory game will repeat. Press Continue.",0,html-button-response,227,741113,0.0-16.0-26.0-0.0,78624,List1A,white,woman,,,,,,,,
4361,"<img src='img/portrait_matrix_list1.JPG' style='width:900px;height:500px;''></img><p>If you have memorised all the portraits and names and are ready to start, press Continue.</p><p><strong>Please note: Your memory of these faces will be tested 4 times during this experiment.</strong></p>",0,html-button-response,228,746482,0.0-16.1-0.1,78624,List1A,white,woman,,,,,,,,
1332,"<img src=""portrait/WM2.jpg""style=""width:400px;height:400px;""></img>",7,html-button-response,229,748822,0.0-16.1-1.1,78624,List1A,white,woman,,TRUE,7,,,,,
null,CORRECT,,html-keyboard-response,230,750327,0.0-16.1-2.1-0.1,78624,List1A,white,woman,,,,null,,,,
2571,"<img src=""portrait/BW1.jpg""style=""width:400px;height:400px;""></img>",0,html-button-response,231,752901,0.0-16.1-4.1,78624,List1A,white,woman,,TRUE,0,,,,,
null,CORRECT,,html-keyboard-response,232,754406,0.0-16.1-5.1-0.1,78624,List1A,white,woman,,,,null,,,,
1709,"<img src=""portrait/WW1.jpg""style=""width:400px;height:400px;""></img>",1,html-button-response,233,756117,0.0-16.1-7.1,78624,List1A,white,woman,,TRUE,1,,,,,
null,CORRECT,,html-keyboard-response,234,757625,0.0-16.1-8.1-0.1,78624,List1A,white,woman,,,,null,,,,
1198,"<img src=""portrait/WW2.jpg""style=""width:400px;height:400px;""></img>",3,html-button-response,235,758825,0.0-16.1-10.1,78624,List1A,white,woman,,TRUE,3,,,,,
null,CORRECT,,html-keyboard-response,236,760336,0.0-16.1-11.1-0.1,78624,List1A,white,woman,,,,null,,,,
1830,"<img src=""portrait/BM2.jpg""style=""width:400px;height:400px;""></img>",5,html-button-response,237,762169,0.0-16.1-13.1,78624,List1A,white,woman,,TRUE,5,,,,,
null,CORRECT,,html-keyboard-response,238,763681,0.0-16.1-14.1-0.1,78624,List1A,white,woman,,,,null,,,,
1537,"<img src=""portrait/WM1.jpg""style=""width:400px;height:400px;""></img>",6,html-button-response,239,765221,0.0-16.1-16.1,78624,List1A,white,woman,,TRUE,6,,,,,
null,CORRECT,,html-keyboard-response,240,766733,0.0-16.1-17.1-0.1,78624,List1A,white,woman,,,,null,,,,
1778,"<img src=""portrait/BM1.jpg""style=""width:400px;height:400px;""></img>",4,html-button-response,241,768515,0.0-16.1-19.1,78624,List1A,white,woman,,TRUE,4,,,,,
null,CORRECT,,html-keyboard-response,242,770028,0.0-16.1-20.1-0.1,78624,List1A,white,woman,,,,null,,,,
1597,"<img src=""portrait/BW2.jpg""style=""width:400px;height:400px;""></img>",2,html-button-response,243,771628,0.0-16.1-22.1,78624,List1A,white,woman,,TRUE,2,,,,,
null,CORRECT,,html-keyboard-response,244,773134,0.0-16.1-23.1-0.1,78624,List1A,white,woman,,,,null,,,,
1414,<p>You got 8 out of 8 right first time. Press Continue.</p>,0,html-button-response,245,774549,0.0-16.1-25.1,78624,List1A,white,woman,,,,,,,,
null,"<div style=""font-size:60px;"">+</div>",,html-keyboard-response,246,776062,0.0-17.0-0.0,78624,List1A,white,woman,,,,null,,,,
null,"<img src=""stim_listA/dance3.gif""</stim_listA>",,html-keyboard-response,247,778071,0.0-17.0-1.0,78624,List1A,white,woman,,,,null,,,,
null,is dancing with,,html-keyboard-response,248,780075,0.0-17.0-2.0,78624,List1A,white,woman,,,,null,,,,
4868,,,survey-text,249,784944,0.0-17.0-3.0,78624,List1A,white,woman,,,,,"{""Q0"":""jane is dancing with luke""}","<img src=""stim_listA/dance3.gif""</stim_listA>",is dancing with,
null,"<div style=""font-size:60px;"">+</div>",,html-keyboard-response,250,785447,0.0-17.0-0.1,78624,List1A,white,woman,,,,null,,,,
null,"<img src=""stim_listA/touch7.gif""</stim_listA>",,html-keyboard-response,251,787454,0.0-17.0-1.1,78624,List1A,white,woman,,,,null,,,,
null,is touching,,html-keyboard-response,252,789455,0.0-17.0-2.1,78624,List1A,white,woman,,,,null,,,,
4017,,,survey-text,253,793474,0.0-17.0-3.1,78624,List1A,white,woman,,,,,"{""Q0"":""kate is touching jane""}","<img src=""stim_listA/touch7.gif""</stim_listA>",is touching,
null,"<div style=""font-size:60px;"">+</div>",,html-keyboard-response,254,793975,0.0-17.0-0.2,78624,List1A,white,woman,,,,null,,,,
null,"<img src=""stim_listA/argue3.gif""</stim_listA>",,html-keyboard-response,255,795978,0.0-17.0-1.2,78624,List1A,white,woman,,,,null,,,,
null,is arguing with,,html-keyboard-response,256,797980,0.0-17.0-2.2,78624,List1A,white,woman,,,,null,,,,
5651,,,survey-text,257,803632,0.0-17.0-3.2,78624,List1A,white,woman,,,,,"{""Q0"":""dave is aruging with ruth""}","<img src=""stim_listA/argue3.gif""</stim_listA>",is arguing with,
null,"<div style=""font-size:60px;"">+</div>",,html-keyboard-response,258,804136,0.0-17.0-0.3,78624,List1A,white,woman,,,,null,,,,
null,"<img src=""stim_listA/dance6.gif""</stim_listA>",,html-keyboard-response,259,806138,0.0-17.0-1.3,78624,List1A,white,woman,,,,null,,,,
null,are dancing with each other,,html-keyboard-response,260,808139,0.0-17.0-2.3,78624,List1A,white,woman,,,,null,,,,
7903,,,survey-text,261,816042,0.0-17.0-3.3,78624,List1A,white,woman,,,,,"{""Q0"":""Luke and mike are dancing with each other""}","<img src=""stim_listA/dance6.gif""</stim_listA>",are dancing with each other,
null,"<div style=""font-size:60px;"">+</div>",,html-keyboard-response,262,816549,0.0-17.0-0.4,78624,List1A,white,woman,,,,null,,,,
null,"<img src=""stim_listA/dance2.gif""</stim_listA>",,html-keyboard-response,263,818557,0.0-17.0-1.4,78624,List1A,white,woman,,,,null,,,,
null,are dancing with each other,,html-keyboard-response,264,820558,0.0-17.0-2.4,78624,List1A,white,woman,,,,null,,,,
9418,,,survey-text,265,829977,0.0-17.0-3.4,78624,List1A,white,woman,,,,,"{""Q0"":""beth and mike are dancing with each other""}","<img src=""stim_listA/dance2.gif""</stim_listA>",are dancing with each other,
null,"<div style=""font-size:60px;"">+</div>",,html-keyboard-response,266,830487,0.0-17.0-0.5,78624,List1A,white,woman,,,,null,,,,
null,"<img src=""stim_listA/touch3.gif""</stim_listA>",,html-keyboard-response,267,832489,0.0-17.0-1.5,78624,List1A,white,woman,,,,null,,,,
null,is touching,,html-keyboard-response,268,834490,0.0-17.0-2.5,78624,List1A,white,woman,,,,null,,,,
4860,,,survey-text,269,839352,0.0-17.0-3.5,78624,List1A,white,woman,,,,,"{""Q0"":""jane is touching dave""}","<img src=""stim_listA/touch3.gif""</stim_listA>",is touching,
null,"<div style=""font-size:60px;"">+</div>",,html-keyboard-response,270,839854,0.0-17.0-0.6,78624,List1A,white,woman,,,,null,,,,
null,"<img src=""stim_listA/fight5.gif""</stim_listA>",,html-keyboard-response,271,841860,0.0-17.0-1.6,78624,List1A,white,woman,,,,null,,,,
null,is fighting,,html-keyboard-response,272,843863,0.0-17.0-2.6,78624,List1A,white,woman,,,,null,,,,
4749,,,survey-text,273,848613,0.0-17.0-3.6,78624,List1A,white,woman,,,,,"{""Q0"":""mike is fighting dave""}","<img src=""stim_listA/fight5.gif""</stim_listA>",is fighting,
null,"<div style=""font-size:60px;"">+</div>",,html-keyboard-response,274,849115,0.0-17.0-0.7,78624,List1A,white,woman,,,,null,,,,
null,"<img src=""stim_listA/argue2.gif""</stim_listA>",,html-keyboard-response,275,851120,0.0-17.0-1.7,78624,List1A,white,woman,,,,null,,,,
null,are arguing with each other,,html-keyboard-response,276,853122,0.0-17.0-2.7,78624,List1A,white,woman,,,,null,,,,
7038,,,survey-text,277,860161,0.0-17.0-3.7,78624,List1A,white,woman,,,,,"{""Q0"":""kate and fred are aruging with each other""}","<img src=""stim_listA/argue2.gif""</stim_listA>",are arguing with each other,
null,"<div style=""font-size:60px;"">+</div>",,html-keyboard-response,278,860663,0.0-17.0-0.8,78624,List1A,white,woman,,,,null,,,,
null,"<img src=""stim_listA/shout6.gif""</stim_listA>",,html-keyboard-response,279,862670,0.0-17.0-1.8,78624,List1A,white,woman,,,,null,,,,
null,are shouting at each other,,html-keyboard-response,280,864671,0.0-17.0-2.8,78624,List1A,white,woman,,,,null,,,,
7895,,,survey-text,281,872567,0.0-17.0-3.8,78624,List1A,white,woman,,,,,"{""Q0"":""dave and mike are shouting at each other""}","<img src=""stim_listA/shout6.gif""</stim_listA>",are shouting at each other,
null,"<div style=""font-size:60px;"">+</div>",,html-keyboard-response,282,873073,0.0-17.0-0.9,78624,List1A,white,woman,,,,null,,,,
null,"<img src=""stim_listA/meet6.gif""</stim_listA>",,html-keyboard-response,283,875082,0.0-17.0-1.9,78624,List1A,white,woman,,,,null,,,,
null,are meeting each other,,html-keyboard-response,284,877085,0.0-17.0-2.9,78624,List1A,white,woman,,,,null,,,,
8061,,,survey-text,285,885148,0.0-17.0-3.9,78624,List1A,white,woman,,,,,"{""Q0"":""Luke and fred are meeting each other""}","<img src=""stim_listA/meet6.gif""</stim_listA>",are meeting each other,
null,"<div style=""font-size:60px;"">+</div>",,html-keyboard-response,286,885655,0.0-17.0-0.10,78624,List1A,white,woman,,,,null,,,,
null,"<img src=""stim_listA/fight7.gif""</stim_listA>",,html-keyboard-response,287,887659,0.0-17.0-1.10,78624,List1A,white,woman,,,,null,,,,
null,is fighting,,html-keyboard-response,288,889660,0.0-17.0-2.10,78624,List1A,white,woman,,,,null,,,,
6588,,,survey-text,289,896248,0.0-17.0-3.10,78624,List1A,white,woman,,,,,"{""Q0"":""beth is fighting jane""}","<img src=""stim_listA/fight7.gif""</stim_listA>",is fighting,
null,"<div style=""font-size:60px;"">+</div>",,html-keyboard-response,290,896751,0.0-17.0-0.11,78624,List1A,white,woman,,,,null,,,,
null,"<img src=""stim_listA/kiss2.gif""</stim_listA>",,html-keyboard-response,291,898758,0.0-17.0-1.11,78624,List1A,white,woman,,,,null,,,,
null,are kissing each other,,html-keyboard-response,292,900766,0.0-17.0-2.11,78624,List1A,white,woman,,,,null,,,,
8680,,,survey-text,293,909447,0.0-17.0-3.11,78624,List1A,white,woman,,,,,"{""Q0"":""mike and kate are kissing each other""}","<img src=""stim_listA/kiss2.gif""</stim_listA>",are kissing each other,
null,"<div style=""font-size:60px;"">+</div>",,html-keyboard-response,294,909954,0.0-17.0-0.12,78624,List1A,white,woman,,,,null,,,,
null,"<img src=""stim_listA/kiss1.gif""</stim_listA>",,html-keyboard-response,295,911962,0.0-17.0-1.12,78624,List1A,white,woman,,,,null,,,,
null,is kissing,,html-keyboard-response,296,913963,0.0-17.0-2.12,78624,List1A,white,woman,,,,null,,,,
6610,,,survey-text,297,920574,0.0-17.0-3.12,78624,List1A,white,woman,,,,,"{""Q0"":""beth is kissing fred""}","<img src=""stim_listA/kiss1.gif""</stim_listA>",is kissing,
null,"<div style=""font-size:60px;"">+</div>",,html-keyboard-response,298,921077,0.0-17.0-0.13,78624,List1A,white,woman,,,,null,,,,
null,"<img src=""stim_listA/fight1.gif""</stim_listA>",,html-keyboard-response,299,923080,0.0-17.0-1.13,78624,List1A,white,woman,,,,null,,,,
null,is fighting,,html-keyboard-response,300,925081,0.0-17.0-2.13,78624,List1A,white,woman,,,,null,,,,
4405,,,survey-text,301,929488,0.0-17.0-3.13,78624,List1A,white,woman,,,,,"{""Q0"":""mike is fighting kate""}","<img src=""stim_listA/fight1.gif""</stim_listA>",is fighting,
null,"<div style=""font-size:60px;"">+</div>",,html-keyboard-response,302,929990,0.0-17.0-0.14,78624,List1A,white,woman,,,,null,,,,
null,"<img src=""stim_listA/hug7.gif""</stim_listA>",,html-keyboard-response,303,931993,0.0-17.0-1.14,78624,List1A,white,woman,,,,null,,,,
null,is hugging,,html-keyboard-response,304,933995,0.0-17.0-2.14,78624,List1A,white,woman,,,,null,,,,
5486,,,survey-text,305,939483,0.0-17.0-3.14,78624,List1A,white,woman,,,,,"{""Q0"":""ruth is hugging beth""}","<img src=""stim_listA/hug7.gif""</stim_listA>",is hugging,
null,"<div style=""font-size:60px;"">+</div>",,html-keyboard-response,306,939990,0.0-17.0-0.15,78624,List1A,white,woman,,,,null,,,,
null,"<img src=""stim_listA/talk2.gif""</stim_listA>",,html-keyboard-response,307,941997,0.0-17.0-1.15,78624,List1A,white,woman,,,,null,,,,
null,are talking to each other,,html-keyboard-response,308,943998,0.0-17.0-2.15,78624,List1A,white,woman,,,,null,,,,
6849,,,survey-text,309,950850,0.0-17.0-3.15,78624,List1A,white,woman,,,,,"{""Q0"":""mike and beth are talking to each other""}","<img src=""stim_listA/talk2.gif""</stim_listA>",are talking to each other,
null,"<div style=""font-size:60px;"">+</div>",,html-keyboard-response,310,951355,0.0-17.0-0.16,78624,List1A,white,woman,,,,null,,,,
null,"<img src=""stim_listA/touch1.gif""</stim_listA>",,html-keyboard-response,311,953363,0.0-17.0-1.16,78624,List1A,white,woman,,,,null,,,,
null,is touching,,html-keyboard-response,312,955364,0.0-17.0-2.16,78624,List1A,white,woman,,,,null,,,,
5887,,,survey-text,313,961252,0.0-17.0-3.16,78624,List1A,white,woman,,,,,"{""Q0"":""mike is touching kate""}","<img src=""stim_listA/touch1.gif""</stim_listA>",is touching,
null,"<div style=""font-size:60px;"">+</div>",,html-keyboard-response,314,961758,0.0-17.0-0.17,78624,List1A,white,woman,,,,null,,,,
null,"<img src=""stim_listA/hug2.gif""</stim_listA>",,html-keyboard-response,315,963761,0.0-17.0-1.17,78624,List1A,white,woman,,,,null,,,,
null,are hugging each other,,html-keyboard-response,316,965766,0.0-17.0-2.17,78624,List1A,white,woman,,,,null,,,,
7955,,,survey-text,317,973723,0.0-17.0-3.17,78624,List1A,white,woman,,,,,"{""Q0"":""mike and kate are hugging each other""}","<img src=""stim_listA/hug2.gif""</stim_listA>",are hugging each other,
null,"<div style=""font-size:60px;"">+</div>",,html-keyboard-response,318,974224,0.0-17.0-0.18,78624,List1A,white,woman,,,,null,,,,
null,"<img src=""stim_listA/marry7.gif""</stim_listA>",,html-keyboard-response,319,976226,0.0-17.0-1.18,78624,List1A,white,woman,,,,null,,,,
null,is marrying,,html-keyboard-response,320,978228,0.0-17.0-2.18,78624,List1A,white,woman,,,,null,,,,
3993,,,survey-text,321,982222,0.0-17.0-3.18,78624,List1A,white,woman,,,,,"{""Q0"":""ruth is marrying kate""}","<img src=""stim_listA/marry7.gif""</stim_listA>",is marrying,
null,"<div style=""font-size:60px;"">+</div>",,html-keyboard-response,322,982727,0.0-17.0-0.19,78624,List1A,white,woman,,,,null,,,,
null,"<img src=""stim_listA/shout8.gif""</stim_listA>",,html-keyboard-response,323,984735,0.0-17.0-1.19,78624,List1A,white,woman,,,,null,,,,
null,are shouting at each other,,html-keyboard-response,324,986742,0.0-17.0-2.19,78624,List1A,white,woman,,,,null,,,,
7764,,,survey-text,325,994507,0.0-17.0-3.19,78624,List1A,white,woman,,,,,"{""Q0"":""jane and kate are shouting at each other ""}","<img src=""stim_listA/shout8.gif""</stim_listA>",are shouting at each other,
3174,"<img src='img/portrait_matrix_list1.JPG' style='width:900px;height:500px;''></img><p>If you have memorised all the portraits and names and are ready to start, press Continue.</p><p><strong>Please note: Your memory of these faces will be tested 4 times during this experiment.</strong></p>",0,html-button-response,326,997683,0.0-18.0-0.0,78624,List1A,white,woman,,,,,,,,
1997,"<img src=""portrait/BW1.jpg""style=""width:400px;height:400px;""></img>",0,html-button-response,327,1000689,0.0-18.0-1.0,78624,List1A,white,woman,,TRUE,0,,,,,
null,CORRECT,,html-keyboard-response,328,1002194,0.0-18.0-2.0-0.0,78624,List1A,white,woman,,,,null,,,,
1961,"<img src=""portrait/BM2.jpg""style=""width:400px;height:400px;""></img>",5,html-button-response,329,1004157,0.0-18.0-4.0,78624,List1A,white,woman,,TRUE,5,,,,,
null,CORRECT,,html-keyboard-response,330,1005668,0.0-18.0-5.0-0.0,78624,List1A,white,woman,,,,null,,,,
1213,"<img src=""portrait/WM1.jpg""style=""width:400px;height:400px;""></img>",6,html-button-response,331,1006883,0.0-18.0-7.0,78624,List1A,white,woman,,TRUE,6,,,,,
null,CORRECT,,html-keyboard-response,332,1008393,0.0-18.0-8.0-0.0,78624,List1A,white,woman,,,,null,,,,
1244,"<img src=""portrait/WM2.jpg""style=""width:400px;height:400px;""></img>",7,html-button-response,333,1009640,0.0-18.0-10.0,78624,List1A,white,woman,,TRUE,7,,,,,
null,CORRECT,,html-keyboard-response,334,1011151,0.0-18.0-11.0-0.0,78624,List1A,white,woman,,,,null,,,,
1539,"<img src=""portrait/BW2.jpg""style=""width:400px;height:400px;""></img>",2,html-button-response,335,1012693,0.0-18.0-13.0,78624,List1A,white,woman,,TRUE,2,,,,,
null,CORRECT,,html-keyboard-response,336,1014206,0.0-18.0-14.0-0.0,78624,List1A,white,woman,,,,null,,,,
1370,"<img src=""portrait/BM1.jpg""style=""width:400px;height:400px;""></img>",4,html-button-response,337,1015578,0.0-18.0-16.0,78624,List1A,white,woman,,TRUE,4,,,,,
null,CORRECT,,html-keyboard-response,338,1017091,0.0-18.0-17.0-0.0,78624,List1A,white,woman,,,,null,,,,
2255,"<img src=""portrait/WW2.jpg""style=""width:400px;height:400px;""></img>",3,html-button-response,339,1019348,0.0-18.0-19.0,78624,List1A,white,woman,,TRUE,3,,,,,
null,CORRECT,,html-keyboard-response,340,1020861,0.0-18.0-20.0-0.0,78624,List1A,white,woman,,,,null,,,,
1328,"<img src=""portrait/WW1.jpg""style=""width:400px;height:400px;""></img>",1,html-button-response,341,1022192,0.0-18.0-22.0,78624,List1A,white,woman,,TRUE,1,,,,,
null,CORRECT,,html-keyboard-response,342,1023701,0.0-18.0-23.0-0.0,78624,List1A,white,woman,,,,null,,,,
1517,<p>You got 8 out of 8 right first time. Press Continue.</p>,0,html-button-response,343,1025220,0.0-18.0-25.0,78624,List1A,white,woman,,,,,,,,
null,"<div style=""font-size:60px;"">+</div>",,html-keyboard-response,344,1026730,0.0-19.0-0.0,78624,List1A,white,woman,,,,null,,,,
null,"<img src=""stim_listA/hug5.gif""</stim_listA>",,html-keyboard-response,345,1028733,0.0-19.0-1.0,78624,List1A,white,woman,,,,null,,,,
null,is hugging,,html-keyboard-response,346,1030734,0.0-19.0-2.0,78624,List1A,white,woman,,,,null,,,,
8352,,,survey-text,347,1039088,0.0-19.0-3.0,78624,List1A,white,woman,,,,,"{""Q0"":""Fred is hugging luke""}","<img src=""stim_listA/hug5.gif""</stim_listA>",is hugging,
null,"<div style=""font-size:60px;"">+</div>",,html-keyboard-response,348,1039595,0.0-19.0-0.1,78624,List1A,white,woman,,,,null,,,,
null,"<img src=""stim_listA/kiss4.gif""</stim_listA>",,html-keyboard-response,349,1041599,0.0-19.0-1.1,78624,List1A,white,woman,,,,null,,,,
null,are kissing each other,,html-keyboard-response,350,1043601,0.0-19.0-2.1,78624,List1A,white,woman,,,,null,,,,
5753,,,survey-text,351,1049354,0.0-19.0-3.1,78624,List1A,white,woman,,,,,"{""Q0"":""jane and dave are kissing each other""}","<img src=""stim_listA/kiss4.gif""</stim_listA>",are kissing each other,
null,"<div style=""font-size:60px;"">+</div>",,html-keyboard-response,352,1049857,0.0-19.0-0.2,78624,List1A,white,woman,,,,null,,,,
null,"<img src=""stim_listA/meet2.gif""</stim_listA>",,html-keyboard-response,353,1051859,0.0-19.0-1.2,78624,List1A,white,woman,,,,null,,,,
null,are meeting each other,,html-keyboard-response,354,1053862,0.0-19.0-2.2,78624,List1A,white,woman,,,,null,,,,
7227,,,survey-text,355,1061089,0.0-19.0-3.2,78624,List1A,white,woman,,,,,"{""Q0"":""beth and fred are meeting each other""}","<img src=""stim_listA/meet2.gif""</stim_listA>",are meeting each other,
null,"<div style=""font-size:60px;"">+</div>",,html-keyboard-response,356,1061597,0.0-19.0-0.3,78624,List1A,white,woman,,,,null,,,,
null,"<img src=""stim_listA/hug8.gif""</stim_listA>",,html-keyboard-response,357,1063603,0.0-19.0-1.3,78624,List1A,white,woman,,,,null,,,,
null,are hugging each other,,html-keyboard-response,358,1065606,0.0-19.0-2.3,78624,List1A,white,woman,,,,null,,,,
5431,,,survey-text,359,1071039,0.0-19.0-3.3,78624,List1A,white,woman,,,,,"{""Q0"":""jane and kate are hugging each other""}","<img src=""stim_listA/hug8.gif""</stim_listA>",are hugging each other,
null,"<div style=""font-size:60px;"">+</div>",,html-keyboard-response,360,1071546,0.0-19.0-0.4,78624,List1A,white,woman,,,,null,,,,
null,"<img src=""stim_listA/kiss8.gif""</stim_listA>",,html-keyboard-response,361,1073554,0.0-19.0-1.4,78624,List1A,white,woman,,,,null,,,,
null,are kissing each other,,html-keyboard-response,362,1075555,0.0-19.0-2.4,78624,List1A,white,woman,,,,null,,,,
6299,,,survey-text,363,1081856,0.0-19.0-3.4,78624,List1A,white,woman,,,,,"{""Q0"":""jane and kate are kissing each other""}","<img src=""stim_listA/kiss8.gif""</stim_listA>",are kissing each other,
null,"<div style=""font-size:60px;"">+</div>",,html-keyboard-response,364,1082360,0.0-19.0-0.5,78624,List1A,white,woman,,,,null,,,,
null,"<img src=""stim_listA/kiss6.gif""</stim_listA>",,html-keyboard-response,365,1084363,0.0-19.0-1.5,78624,List1A,white,woman,,,,null,,,,
null,are kissing each other,,html-keyboard-response,366,1086368,0.0-19.0-2.5,78624,List1A,white,woman,,,,null,,,,
7822,,,survey-text,367,1094193,0.0-19.0-3.5,78624,List1A,white,woman,,,,,"{""Q0"":""mike and dave are kissing each other""}","<img src=""stim_listA/kiss6.gif""</stim_listA>",are kissing each other,
null,"<div style=""font-size:60px;"">+</div>",,html-keyboard-response,368,1094695,0.0-19.0-0.6,78624,List1A,white,woman,,,,null,,,,
null,"<img src=""stim_listA/hug6.gif""</stim_listA>",,html-keyboard-response,369,1096702,0.0-19.0-1.6,78624,List1A,white,woman,,,,null,,,,
null,are hugging each other,,html-keyboard-response,370,1098706,0.0-19.0-2.6,78624,List1A,white,woman,,,,null,,,,
6404,,,survey-text,371,1105112,0.0-19.0-3.6,78624,List1A,white,woman,,,,,"{""Q0"":""mike and dave are hugging each other""}","<img src=""stim_listA/hug6.gif""</stim_listA>",are hugging each other,
null,"<div style=""font-size:60px;"">+</div>",,html-keyboard-response,372,1105616,0.0-19.0-0.7,78624,List1A,white,woman,,,,null,,,,
null,"<img src=""stim_listA/fight4.gif""</stim_listA>",,html-keyboard-response,373,1107624,0.0-19.0-1.7,78624,List1A,white,woman,,,,null,,,,
null,are fighting each other,,html-keyboard-response,374,1109626,0.0-19.0-2.7,78624,List1A,white,woman,,,,null,,,,
8222,,,survey-text,375,1117850,0.0-19.0-3.7,78624,List1A,white,woman,,,,,"{""Q0"":""ruth and luke are fighting each other""}","<img src=""stim_listA/fight4.gif""</stim_listA>",are fighting each other,
null,"<div style=""font-size:60px;"">+</div>",,html-keyboard-response,376,1118354,0.0-19.0-0.8,78624,List1A,white,woman,,,,null,,,,
null,"<img src=""stim_listA/marry2.gif""</stim_listA>",,html-keyboard-response,377,1120360,0.0-19.0-1.8,78624,List1A,white,woman,,,,null,,,,
null,are marrying each other,,html-keyboard-response,378,1122361,0.0-19.0-2.8,78624,List1A,white,woman,,,,null,,,,
6463,,,survey-text,379,1128825,0.0-19.0-3.8,78624,List1A,white,woman,,,,,"{""Q0"":""kate and fred are marrying each other""}","<img src=""stim_listA/marry2.gif""</stim_listA>",are marrying each other,
null,"<div style=""font-size:60px;"">+</div>",,html-keyboard-response,380,1129332,0.0-19.0-0.9,78624,List1A,white,woman,,,,null,,,,
null,"<img src=""stim_listA/touch8.gif""</stim_listA>",,html-keyboard-response,381,1131339,0.0-19.0-1.9,78624,List1A,white,woman,,,,null,,,,
null,are touching each other,,html-keyboard-response,382,1133341,0.0-19.0-2.9,78624,List1A,white,woman,,,,null,,,,
6294,,,survey-text,383,1139637,0.0-19.0-3.9,78624,List1A,white,woman,,,,,"{""Q0"":""ruth and beth are touching each other""}","<img src=""stim_listA/touch8.gif""</stim_listA>",are touching each other,
null,"<div style=""font-size:60px;"">+</div>",,html-keyboard-response,384,1140143,0.0-19.0-0.10,78624,List1A,white,woman,,,,null,,,,
null,"<img src=""stim_listA/meet3.gif""</stim_listA>",,html-keyboard-response,385,1142146,0.0-19.0-1.10,78624,List1A,white,woman,,,,null,,,,
null,is meeting,,html-keyboard-response,386,1144149,0.0-19.0-2.10,78624,List1A,white,woman,,,,null,,,,
6198,,,survey-text,387,1150349,0.0-19.0-3.10,78624,List1A,white,woman,,,,,"{""Q0"":""dave is meeting jane ""}","<img src=""stim_listA/meet3.gif""</stim_listA>",is meeting,
null,"<div style=""font-size:60px;"">+</div>",,html-keyboard-response,388,1150851,0.0-19.0-0.11,78624,List1A,white,woman,,,,null,,,,
null,"<img src=""stim_listA/talk4.gif""</stim_listA>",,html-keyboard-response,389,1152857,0.0-19.0-1.11,78624,List1A,white,woman,,,,null,,,,
null,are talking to each other,,html-keyboard-response,390,1154858,0.0-19.0-2.11,78624,List1A,white,woman,,,,null,,,,
7644,,,survey-text,391,1162505,0.0-19.0-3.11,78624,List1A,white,woman,,,,,"{""Q0"":""ruth and dave are talking to each other""}","<img src=""stim_listA/talk4.gif""</stim_listA>",are talking to each other,
null,"<div style=""font-size:60px;"">+</div>",,html-keyboard-response,392,1163007,0.0-19.0-0.12,78624,List1A,white,woman,,,,null,,,,
null,"<img src=""stim_listA/meet8.gif""</stim_listA>",,html-keyboard-response,393,1165014,0.0-19.0-1.12,78624,List1A,white,woman,,,,null,,,,
null,are meeting each other,,html-keyboard-response,394,1167019,0.0-19.0-2.12,78624,List1A,white,woman,,,,null,,,,
5930,,,survey-text,395,1172951,0.0-19.0-3.12,78624,List1A,white,woman,,,,,"{""Q0"":""ruth and beth are meeting each other""}","<img src=""stim_listA/meet8.gif""</stim_listA>",are meeting each other,
null,"<div style=""font-size:60px;"">+</div>",,html-keyboard-response,396,1173454,0.0-19.0-0.13,78624,List1A,white,woman,,,,null,,,,
null,"<img src=""stim_listA/marry4.gif""</stim_listA>",,html-keyboard-response,397,1175462,0.0-19.0-1.13,78624,List1A,white,woman,,,,null,,,,
null,are marrying each other,,html-keyboard-response,398,1177463,0.0-19.0-2.13,78624,List1A,white,woman,,,,null,,,,
5935,,,survey-text,399,1183399,0.0-19.0-3.13,78624,List1A,white,woman,,,,,"{""Q0"":""jane and luke are marrying each other""}","<img src=""stim_listA/marry4.gif""</stim_listA>",are marrying each other,
null,"<div style=""font-size:60px;"">+</div>",,html-keyboard-response,400,1183903,0.0-19.0-0.14,78624,List1A,white,woman,,,,null,,,,
null,"<img src=""stim_listA/argue5.gif""</stim_listA>",,html-keyboard-response,401,1185910,0.0-19.0-1.14,78624,List1A,white,woman,,,,null,,,,
null,is arguing with,,html-keyboard-response,402,1187911,0.0-19.0-2.14,78624,List1A,white,woman,,,,null,,,,
5132,,,survey-text,403,1193045,0.0-19.0-3.14,78624,List1A,white,woman,,,,,"{""Q0"":""mike is aruging with luke""}","<img src=""stim_listA/argue5.gif""</stim_listA>",is arguing with,
null,"<div style=""font-size:60px;"">+</div>",,html-keyboard-response,404,1193549,0.0-19.0-0.15,78624,List1A,white,woman,,,,null,,,,
null,"<img src=""stim_listA/fight2.gif""</stim_listA>",,html-keyboard-response,405,1195553,0.0-19.0-1.15,78624,List1A,white,woman,,,,null,,,,
null,are fighting each other,,html-keyboard-response,406,1197560,0.0-19.0-2.15,78624,List1A,white,woman,,,,null,,,,
6526,,,survey-text,407,1204088,0.0-19.0-3.15,78624,List1A,white,woman,,,,,"{""Q0"":""beth and fred are fighting each other ""}","<img src=""stim_listA/fight2.gif""</stim_listA>",are fighting each other,
null,"<div style=""font-size:60px;"">+</div>",,html-keyboard-response,408,1204589,0.0-19.0-0.16,78624,List1A,white,woman,,,,null,,,,
null,"<img src=""stim_listA/marry1.gif""</stim_listA>",,html-keyboard-response,409,1206593,0.0-19.0-1.16,78624,List1A,white,woman,,,,null,,,,
null,is marrying,,html-keyboard-response,410,1208595,0.0-19.0-2.16,78624,List1A,white,woman,,,,null,,,,
3802,,,survey-text,411,1212398,0.0-19.0-3.16,78624,List1A,white,woman,,,,,"{""Q0"":""mike is marrying beth""}","<img src=""stim_listA/marry1.gif""</stim_listA>",is marrying,
null,"<div style=""font-size:60px;"">+</div>",,html-keyboard-response,412,1212901,0.0-19.0-0.17,78624,List1A,white,woman,,,,null,,,,
null,"<img src=""stim_listA/meet4.gif""</stim_listA>",,html-keyboard-response,413,1214909,0.0-19.0-1.17,78624,List1A,white,woman,,,,null,,,,
null,are meeting each other,,html-keyboard-response,414,1216915,0.0-19.0-2.17,78624,List1A,white,woman,,,,null,,,,
6096,,,survey-text,415,1223012,0.0-19.0-3.17,78624,List1A,white,woman,,,,,"{""Q0"":""ruth and luke are meeting each other""}","<img src=""stim_listA/meet4.gif""</stim_listA>",are meeting each other,
null,"<div style=""font-size:60px;"">+</div>",,html-keyboard-response,416,1223517,0.0-19.0-0.18,78624,List1A,white,woman,,,,null,,,,
null,"<img src=""stim_listA/marry6.gif""</stim_listA>",,html-keyboard-response,417,1225524,0.0-19.0-1.18,78624,List1A,white,woman,,,,null,,,,
null,are marrying each other,,html-keyboard-response,418,1227526,0.0-19.0-2.18,78624,List1A,white,woman,,,,null,,,,
6288,,,survey-text,419,1233815,0.0-19.0-3.18,78624,List1A,white,woman,,,,,"{""Q0"":""fred and dave are marrying each other""}","<img src=""stim_listA/marry6.gif""</stim_listA>",are marrying each other,
null,"<div style=""font-size:60px;"">+</div>",,html-keyboard-response,420,1234321,0.0-19.0-0.19,78624,List1A,white,woman,,,,null,,,,
null,"<img src=""stim_listA/meet5.gif""</stim_listA>",,html-keyboard-response,421,1236328,0.0-19.0-1.19,78624,List1A,white,woman,,,,null,,,,
null,is meeting,,html-keyboard-response,422,1238330,0.0-19.0-2.19,78624,List1A,white,woman,,,,null,,,,
4331,,,survey-text,423,1242662,0.0-19.0-3.19,78624,List1A,white,woman,,,,,"{""Q0"":""mike is meeting dave""}","<img src=""stim_listA/meet5.gif""</stim_listA>",is meeting,
3726,<p>Thank you for completing that task.</p><p>The final part of this session is a short questionnaire.</p><p>Press Continue.</p>,0,html-button-response,424,1246390,0.0-20.0,78624,List1A,white,woman,,,,,,,,
16009,,,survey-text,425,1263407,0.0-21.0,78624,List1A,white,woman,,,,,"{""Q0"":""23"",""Q1"":""English"",""Q2"":""English"",""Q3"":""England "",""Q4"":""White "",""Q5"":""female ""}",,,demographics
77572,,,survey-likert,426,1340992,0.0-22.0,78624,List1A,white,woman,,,,,"{""Q0"":4,""Q1"":3,""Q2"":4,""Q3"":5,""Q4"":1,""Q5"":4,""Q6"":4,""Q7"":1,""Q8"":1,""Q9"":1,""Q10"":4,""Q11"":2,""Q12"":4,""Q13"":4}",,,likert_race
46902,,,survey-likert,427,1387903,0.0-23.0,78624,List1A,white,woman,,,,,"{""Q0"":5,""Q1"":5,""Q2"":6,""Q3"":5,""Q4"":5,""Q5"":2,""Q6"":4,""Q7"":5,""Q8"":6,""Q9"":6,""Q10"":4,""Q11"":4,""Q12"":5,""Q13"":4}",,,likert_gender
7060,,,survey-text,428,1394966,0.0-24.0,78624,List1A,white,woman,,,,,"{""Q0"":""ccc""}",,,worker_id
20525,,,external-html,429,1415571,0.0-25.0,78624,List1A,white,woman,debrief.html,,,,,,,
