rt,stimulus,button_pressed,trial_type,trial_index,time_elapsed,internal_node_id,subject,list,ppt_race,ppt_gender,url,first_guess,correct,key_press,responses,image_type,phrase_type,test_part
2250,Welcome to the experiment. Press Continue to begin.,0,html-button-response,0,2256,0.0-0.0,791,List1B,white,woman,,,,,,,,
16244,,,external-html,1,19819,0.0-1.0,791,List1B,white,woman,consent.html,,,,,,,
9326,"<p>On the next page, you will see portraits of 8 people and their names.</p><p>Your first task is to take a few minutes to memorise the names of these people.</p><p>You will have to recall their names during the rest of the experiment, so it is</p><p>essential that you try to memorise these people and their names as best as you can.</p><br><p><strong>You will then be tested on your memory of these names and portraits.</strong></p><br><p>The experiment will start after you have completed this memory test.</p><br><p>Ready?</p>",0,html-button-response,2,29147,0.0-2.0,791,List1B,white,woman,,,,,,,,
73795,"<img src='img/portrait_matrix_list1.JPG' style='width:900px;height:500px;''></img><p>If you have memorised all the portraits and names and are ready to start, press Continue.</p><p><strong>Please note: Your memory of these faces will be tested 4 times during this experiment.</strong></p>",0,html-button-response,3,103953,0.0-3.0-0.0,791,List1B,white,woman,,,,,,,,
2538,"<img src=""portrait/WM2.jpg""style=""width:400px;height:400px;""></img>",7,html-button-response,4,107503,0.0-3.0-1.0,791,List1B,white,woman,,TRUE,7,,,,,
null,CORRECT,,html-keyboard-response,5,109036,0.0-3.0-2.0-0.0,791,List1B,white,woman,,,,null,,,,
5670,"<img src=""portrait/BM1.jpg""style=""width:400px;height:400px;""></img>",5,html-button-response,6,114709,0.0-3.0-4.0,791,List1B,white,woman,,TRUE,4,,,,,
2770,"<img src=""portrait/BM1.jpg""style=""width:400px;height:400px;""></img>",4,html-button-response,7,118485,0.0-3.0-6.0-0.0,791,List1B,white,woman,,FALSE,4,,,,,
null,CORRECT,,html-keyboard-response,8,120013,0.0-3.0-6.0-1.0-0.0,791,List1B,white,woman,,,,null,,,,
2546,"<img src=""portrait/BW2.jpg""style=""width:400px;height:400px;""></img>",2,html-button-response,9,122561,0.0-3.0-7.0,791,List1B,white,woman,,TRUE,2,,,,,
null,CORRECT,,html-keyboard-response,10,124074,0.0-3.0-8.0-0.0,791,List1B,white,woman,,,,null,,,,
6954,"<img src=""portrait/BW1.jpg""style=""width:400px;height:400px;""></img>",3,html-button-response,11,131030,0.0-3.0-10.0,791,List1B,white,woman,,TRUE,0,,,,,
2093,"<img src=""portrait/BW1.jpg""style=""width:400px;height:400px;""></img>",0,html-button-response,12,134128,0.0-3.0-12.0-0.0,791,List1B,white,woman,,FALSE,0,,,,,
null,CORRECT,,html-keyboard-response,13,135645,0.0-3.0-12.0-1.0-0.0,791,List1B,white,woman,,,,null,,,,
3519,"<img src=""portrait/WM1.jpg""style=""width:400px;height:400px;""></img>",6,html-button-response,14,139166,0.0-3.0-13.0,791,List1B,white,woman,,TRUE,6,,,,,
null,CORRECT,,html-keyboard-response,15,140669,0.0-3.0-14.0-0.0,791,List1B,white,woman,,,,null,,,,
2221,"<img src=""portrait/WW2.jpg""style=""width:400px;height:400px;""></img>",3,html-button-response,16,142890,0.0-3.0-16.0,791,List1B,white,woman,,TRUE,3,,,,,
null,CORRECT,,html-keyboard-response,17,144394,0.0-3.0-17.0-0.0,791,List1B,white,woman,,,,null,,,,
3082,"<img src=""portrait/BM2.jpg""style=""width:400px;height:400px;""></img>",5,html-button-response,18,147477,0.0-3.0-19.0,791,List1B,white,woman,,TRUE,5,,,,,
null,CORRECT,,html-keyboard-response,19,148995,0.0-3.0-20.0-0.0,791,List1B,white,woman,,,,null,,,,
4371,"<img src=""portrait/WW1.jpg""style=""width:400px;height:400px;""></img>",1,html-button-response,20,153368,0.0-3.0-22.0,791,List1B,white,woman,,TRUE,1,,,,,
null,CORRECT,,html-keyboard-response,21,154875,0.0-3.0-23.0-0.0,791,List1B,white,woman,,,,null,,,,
1665,<p>You got 6 out of 8 right first time. Press Continue.</p>,0,html-button-response,22,156543,0.0-3.0-25.0,791,List1B,white,woman,,,,,,,,
2130,"As you did not score 100%, the memory game will repeat. Press Continue.",0,html-button-response,23,159689,0.0-3.0-26.0-0.0,791,List1B,white,woman,,,,,,,,
27250,"<img src='img/portrait_matrix_list1.JPG' style='width:900px;height:500px;''></img><p>If you have memorised all the portraits and names and are ready to start, press Continue.</p><p><strong>Please note: Your memory of these faces will be tested 4 times during this experiment.</strong></p>",0,html-button-response,24,187953,0.0-3.1-0.1,791,List1B,white,woman,,,,,,,,
1408,"<img src=""portrait/WM2.jpg""style=""width:400px;height:400px;""></img>",7,html-button-response,25,190373,0.0-3.1-1.1,791,List1B,white,woman,,TRUE,7,,,,,
null,CORRECT,,html-keyboard-response,26,191887,0.0-3.1-2.1-0.1,791,List1B,white,woman,,,,null,,,,
1864,"<img src=""portrait/BM1.jpg""style=""width:400px;height:400px;""></img>",4,html-button-response,27,193754,0.0-3.1-4.1,791,List1B,white,woman,,TRUE,4,,,,,
null,CORRECT,,html-keyboard-response,28,195272,0.0-3.1-5.1-0.1,791,List1B,white,woman,,,,null,,,,
1998,"<img src=""portrait/BW2.jpg""style=""width:400px;height:400px;""></img>",2,html-button-response,29,197272,0.0-3.1-7.1,791,List1B,white,woman,,TRUE,2,,,,,
null,CORRECT,,html-keyboard-response,30,198782,0.0-3.1-8.1-0.1,791,List1B,white,woman,,,,null,,,,
2309,"<img src=""portrait/BW1.jpg""style=""width:400px;height:400px;""></img>",0,html-button-response,31,201094,0.0-3.1-10.1,791,List1B,white,woman,,TRUE,0,,,,,
null,CORRECT,,html-keyboard-response,32,202607,0.0-3.1-11.1-0.1,791,List1B,white,woman,,,,null,,,,
2286,"<img src=""portrait/WM1.jpg""style=""width:400px;height:400px;""></img>",6,html-button-response,33,204895,0.0-3.1-13.1,791,List1B,white,woman,,TRUE,6,,,,,
null,CORRECT,,html-keyboard-response,34,206404,0.0-3.1-14.1-0.1,791,List1B,white,woman,,,,null,,,,
2639,"<img src=""portrait/WW2.jpg""style=""width:400px;height:400px;""></img>",3,html-button-response,35,209053,0.0-3.1-16.1,791,List1B,white,woman,,TRUE,3,,,,,
null,CORRECT,,html-keyboard-response,36,210578,0.0-3.1-17.1-0.1,791,List1B,white,woman,,,,null,,,,
2264,"<img src=""portrait/BM2.jpg""style=""width:400px;height:400px;""></img>",5,html-button-response,37,212845,0.0-3.1-19.1,791,List1B,white,woman,,TRUE,5,,,,,
null,CORRECT,,html-keyboard-response,38,214370,0.0-3.1-20.1-0.1,791,List1B,white,woman,,,,null,,,,
1911,"<img src=""portrait/WW1.jpg""style=""width:400px;height:400px;""></img>",1,html-button-response,39,216284,0.0-3.1-22.1,791,List1B,white,woman,,TRUE,1,,,,,
null,CORRECT,,html-keyboard-response,40,217801,0.0-3.1-23.1-0.1,791,List1B,white,woman,,,,null,,,,
1441,<p>You got 8 out of 8 right first time. Press Continue.</p>,0,html-button-response,41,219244,0.0-3.1-25.1,791,List1B,white,woman,,,,,,,,
27032,"<p>In this experiment, you will view photographs of the people from the memory game interacting.</p><p>By using the <strong>exact</strong> phrase given <i>after</i> the photograph appears and recalling the correct names of the people in the photographs, form a sentence describing the interaction. You do not need to capitalise names.</p><p>Type your answer in the space provided. Please complete every sentence before moving onto the next trial.</p><p>You will only have a few seconds to memorise each given photograph and phrase before you can respond, so try your best to focus.</p><p>An example is given below. Press 'Continue' when you are ready.</p><img src='img/speaking_example_v2.jpg' style='width:800px;height:460px;''></img>",0,html-button-response,42,247280,0.0-4.0,791,List1B,white,woman,,,,,,,,
2006,"<p>Before the experiment starts, you will watch two example trials. Press 'Continue'.</p>",0,html-button-response,43,250288,0.0-5.0,791,List1B,white,woman,,,,,,,,
null,<img src='img/speaking_WW.gif'></img>,,html-keyboard-response,44,253298,0.0-6.0,791,List1B,white,woman,,,,null,,,,
null,<p>is speaking to</p>,,html-keyboard-response,45,255300,0.0-7.0,791,List1B,white,woman,,,,null,,,,
2528,<p><b>Answer:</b> kate is speaking to beth</p>,0,html-button-response,46,257829,0.0-8.0,791,List1B,white,woman,,,,,,,,
null,<img src='img/pointing_BM.gif'></img>,,html-keyboard-response,47,260832,0.0-9.0,791,List1B,white,woman,,,,null,,,,
null,<p>are pointing at each other</p>,,html-keyboard-response,48,262834,0.0-10.0,791,List1B,white,woman,,,,null,,,,
2577,<p><b>Answer:</b> luke and dave are pointing at each other</p>,0,html-button-response,49,265413,0.0-11.0,791,List1B,white,woman,,,,,,,,
5328,"<p>Ready to start the experiment?</p><br><p><strong>Remember to describe the picture using a full sentence,</strong></p><p><strong>that combines the names of the people with the given phrase.</strong></p><p><strong>If you do not do this correctly you will not be paid.</strong></p><p><strong> You do not need to capitalise names or use punctuation.</strong></p><br><p>Press 'Continue' to begin.</p>",0,html-button-response,50,271756,0.0-12.0,791,List1B,white,woman,,,,,,,,
null,"<div style=""font-size:60px;"">+</div>",,html-keyboard-response,51,273259,0.0-13.0-0.0,791,List1B,white,woman,,,,null,,,,
null,"<img src=""stim_listB/dance6.gif""</stim_listB>",,html-keyboard-response,52,275265,0.0-13.0-1.0,791,List1B,white,woman,,,,null,,,,
null,are dancing with each other,,html-keyboard-response,53,277267,0.0-13.0-2.0,791,List1B,white,woman,,,,null,,,,
9860,,,survey-text,54,287131,0.0-13.0-3.0,791,List1B,white,woman,,,,,"{""Q0"":""Mike and Luke are dancing together""}","<img src=""stim_listB/dance6.gif""</stim_listB>",are dancing with each other,
null,"<div style=""font-size:60px;"">+</div>",,html-keyboard-response,55,287647,0.0-13.0-0.1,791,List1B,white,woman,,,,null,,,,
null,"<img src=""stim_listB/fight8.gif""</stim_listB>",,html-keyboard-response,56,289649,0.0-13.0-1.1,791,List1B,white,woman,,,,null,,,,
null,are fighting each other,,html-keyboard-response,57,291651,0.0-13.0-2.1,791,List1B,white,woman,,,,null,,,,
9734,,,survey-text,58,301387,0.0-13.0-3.1,791,List1B,white,woman,,,,,"{""Q0"":""Ruth and Beth are fighting each other""}","<img src=""stim_listB/fight8.gif""</stim_listB>",are fighting each other,
null,"<div style=""font-size:60px;"">+</div>",,html-keyboard-response,59,301904,0.0-13.0-0.2,791,List1B,white,woman,,,,null,,,,
null,"<img src=""stim_listB/shout5.gif""</stim_listB>",,html-keyboard-response,60,303911,0.0-13.0-1.2,791,List1B,white,woman,,,,null,,,,
null,is shouting at,,html-keyboard-response,61,305919,0.0-13.0-2.2,791,List1B,white,woman,,,,null,,,,
8115,,,survey-text,62,314036,0.0-13.0-3.2,791,List1B,white,woman,,,,,"{""Q0"":""Luke is shouting at Mike""}","<img src=""stim_listB/shout5.gif""</stim_listB>",is shouting at,
null,"<div style=""font-size:60px;"">+</div>",,html-keyboard-response,63,314554,0.0-13.0-0.3,791,List1B,white,woman,,,,null,,,,
null,"<img src=""stim_listB/shout2.gif""</stim_listB>",,html-keyboard-response,64,316568,0.0-13.0-1.3,791,List1B,white,woman,,,,null,,,,
null,are shouting at each other,,html-keyboard-response,65,318583,0.0-13.0-2.3,791,List1B,white,woman,,,,null,,,,
8591,,,survey-text,66,327176,0.0-13.0-3.3,791,List1B,white,woman,,,,,"{""Q0"":""Mike and Kate are shouting at each other""}","<img src=""stim_listB/shout2.gif""</stim_listB>",are shouting at each other,
null,"<div style=""font-size:60px;"">+</div>",,html-keyboard-response,67,327684,0.0-13.0-0.4,791,List1B,white,woman,,,,null,,,,
null,"<img src=""stim_listB/shout7.gif""</stim_listB>",,html-keyboard-response,68,329687,0.0-13.0-1.4,791,List1B,white,woman,,,,null,,,,
null,is shouting at,,html-keyboard-response,69,331702,0.0-13.0-2.4,791,List1B,white,woman,,,,null,,,,
8861,,,survey-text,70,340565,0.0-13.0-3.4,791,List1B,white,woman,,,,,"{""Q0"":""Ruth is shouting at Beth""}","<img src=""stim_listB/shout7.gif""</stim_listB>",is shouting at,
null,"<div style=""font-size:60px;"">+</div>",,html-keyboard-response,71,341071,0.0-13.0-0.5,791,List1B,white,woman,,,,null,,,,
null,"<img src=""stim_listB/fight1.gif""</stim_listB>",,html-keyboard-response,72,343075,0.0-13.0-1.5,791,List1B,white,woman,,,,null,,,,
null,is fighting,,html-keyboard-response,73,345076,0.0-13.0-2.5,791,List1B,white,woman,,,,null,,,,
5325,,,survey-text,74,350402,0.0-13.0-3.5,791,List1B,white,woman,,,,,"{""Q0"":""Kate is fighting Mike""}","<img src=""stim_listB/fight1.gif""</stim_listB>",is fighting,
null,"<div style=""font-size:60px;"">+</div>",,html-keyboard-response,75,350907,0.0-13.0-0.6,791,List1B,white,woman,,,,null,,,,
null,"<img src=""stim_listB/dance7.gif""</stim_listB>",,html-keyboard-response,76,352910,0.0-13.0-1.6,791,List1B,white,woman,,,,null,,,,
null,is dancing with,,html-keyboard-response,77,354918,0.0-13.0-2.6,791,List1B,white,woman,,,,null,,,,
8252,,,survey-text,78,363170,0.0-13.0-3.6,791,List1B,white,woman,,,,,"{""Q0"":""Jane is dancing with Beth""}","<img src=""stim_listB/dance7.gif""</stim_listB>",is dancing with,
null,"<div style=""font-size:60px;"">+</div>",,html-keyboard-response,79,363672,0.0-13.0-0.7,791,List1B,white,woman,,,,null,,,,
null,"<img src=""stim_listB/meet3.gif""</stim_listB>",,html-keyboard-response,80,365690,0.0-13.0-1.7,791,List1B,white,woman,,,,null,,,,
null,is meeting,,html-keyboard-response,81,367692,0.0-13.0-2.7,791,List1B,white,woman,,,,null,,,,
8164,,,survey-text,82,375858,0.0-13.0-3.7,791,List1B,white,woman,,,,,"{""Q0"":""Jane is meeting David""}","<img src=""stim_listB/meet3.gif""</stim_listB>",is meeting,
null,"<div style=""font-size:60px;"">+</div>",,html-keyboard-response,83,376360,0.0-13.0-0.8,791,List1B,white,woman,,,,null,,,,
null,"<img src=""stim_listB/argue7.gif""</stim_listB>",,html-keyboard-response,84,378364,0.0-13.0-1.8,791,List1B,white,woman,,,,null,,,,
null,is arguing with,,html-keyboard-response,85,380376,0.0-13.0-2.8,791,List1B,white,woman,,,,null,,,,
9803,,,survey-text,86,390181,0.0-13.0-3.8,791,List1B,white,woman,,,,,"{""Q0"":""Kate is arguing with Ruth""}","<img src=""stim_listB/argue7.gif""</stim_listB>",is arguing with,
null,"<div style=""font-size:60px;"">+</div>",,html-keyboard-response,87,390695,0.0-13.0-0.9,791,List1B,white,woman,,,,null,,,,
null,"<img src=""stim_listB/talk6.gif""</stim_listB>",,html-keyboard-response,88,392711,0.0-13.0-1.9,791,List1B,white,woman,,,,null,,,,
null,are talking to each other,,html-keyboard-response,89,394720,0.0-13.0-2.9,791,List1B,white,woman,,,,null,,,,
9898,,,survey-text,90,404619,0.0-13.0-3.9,791,List1B,white,woman,,,,,"{""Q0"":""Mike and Luke are talking to each other""}","<img src=""stim_listB/talk6.gif""</stim_listB>",are talking to each other,
null,"<div style=""font-size:60px;"">+</div>",,html-keyboard-response,91,405126,0.0-13.0-0.10,791,List1B,white,woman,,,,null,,,,
null,"<img src=""stim_listB/hug8.gif""</stim_listB>",,html-keyboard-response,92,407138,0.0-13.0-1.10,791,List1B,white,woman,,,,null,,,,
null,are hugging each other,,html-keyboard-response,93,409141,0.0-13.0-2.10,791,List1B,white,woman,,,,null,,,,
8015,,,survey-text,94,417158,0.0-13.0-3.10,791,List1B,white,woman,,,,,"{""Q0"":""Jane and Kate are hugging each other""}","<img src=""stim_listB/hug8.gif""</stim_listB>",are hugging each other,
null,"<div style=""font-size:60px;"">+</div>",,html-keyboard-response,95,417674,0.0-13.0-0.11,791,List1B,white,woman,,,,null,,,,
null,"<img src=""stim_listB/kiss7.gif""</stim_listB>",,html-keyboard-response,96,419677,0.0-13.0-1.11,791,List1B,white,woman,,,,null,,,,
null,is kissing,,html-keyboard-response,97,421681,0.0-13.0-2.11,791,List1B,white,woman,,,,null,,,,
8004,,,survey-text,98,429686,0.0-13.0-3.11,791,List1B,white,woman,,,,,"{""Q0"":""Beth and Jane is kissing""}","<img src=""stim_listB/kiss7.gif""</stim_listB>",is kissing,
null,"<div style=""font-size:60px;"">+</div>",,html-keyboard-response,99,430189,0.0-13.0-0.12,791,List1B,white,woman,,,,null,,,,
null,"<img src=""stim_listB/marry5.gif""</stim_listB>",,html-keyboard-response,100,432193,0.0-13.0-1.12,791,List1B,white,woman,,,,null,,,,
null,is marrying,,html-keyboard-response,101,434195,0.0-13.0-2.12,791,List1B,white,woman,,,,null,,,,
7763,,,survey-text,102,441960,0.0-13.0-3.12,791,List1B,white,woman,,,,,"{""Q0"":""Mike is marrying Luke""}","<img src=""stim_listB/marry5.gif""</stim_listB>",is marrying,
null,"<div style=""font-size:60px;"">+</div>",,html-keyboard-response,103,442469,0.0-13.0-0.13,791,List1B,white,woman,,,,null,,,,
null,"<img src=""stim_listB/marry6.gif""</stim_listB>",,html-keyboard-response,104,444481,0.0-13.0-1.13,791,List1B,white,woman,,,,null,,,,
null,are marrying each other,,html-keyboard-response,105,446493,0.0-13.0-2.13,791,List1B,white,woman,,,,null,,,,
11329,,,survey-text,106,457823,0.0-13.0-3.13,791,List1B,white,woman,,,,,"{""Q0"":""Fred and David are marrying each other""}","<img src=""stim_listB/marry6.gif""</stim_listB>",are marrying each other,
null,"<div style=""font-size:60px;"">+</div>",,html-keyboard-response,107,458325,0.0-13.0-0.14,791,List1B,white,woman,,,,null,,,,
null,"<img src=""stim_listB/talk4.gif""</stim_listB>",,html-keyboard-response,108,460333,0.0-13.0-1.14,791,List1B,white,woman,,,,null,,,,
null,are talking to each other,,html-keyboard-response,109,462335,0.0-13.0-2.14,791,List1B,white,woman,,,,null,,,,
10717,,,survey-text,110,473054,0.0-13.0-3.14,791,List1B,white,woman,,,,,"{""Q0"":""David and Ruth are talking""}","<img src=""stim_listB/talk4.gif""</stim_listB>",are talking to each other,
null,"<div style=""font-size:60px;"">+</div>",,html-keyboard-response,111,473563,0.0-13.0-0.15,791,List1B,white,woman,,,,null,,,,
null,"<img src=""stim_listB/hug1.gif""</stim_listB>",,html-keyboard-response,112,475566,0.0-13.0-1.15,791,List1B,white,woman,,,,null,,,,
null,is hugging,,html-keyboard-response,113,477573,0.0-13.0-2.15,791,List1B,white,woman,,,,null,,,,
7536,,,survey-text,114,485110,0.0-13.0-3.15,791,List1B,white,woman,,,,,"{""Q0"":""Fred and Beth is hugging""}","<img src=""stim_listB/hug1.gif""</stim_listB>",is hugging,
null,"<div style=""font-size:60px;"">+</div>",,html-keyboard-response,115,485612,0.0-13.0-0.16,791,List1B,white,woman,,,,null,,,,
null,"<img src=""stim_listB/talk5.gif""</stim_listB>",,html-keyboard-response,116,487622,0.0-13.0-1.16,791,List1B,white,woman,,,,null,,,,
null,is talking to,,html-keyboard-response,117,489625,0.0-13.0-2.16,791,List1B,white,woman,,,,null,,,,
6121,,,survey-text,118,495747,0.0-13.0-3.16,791,List1B,white,woman,,,,,"{""Q0"":""Fred is talking to David""}","<img src=""stim_listB/talk5.gif""</stim_listB>",is talking to,
null,"<div style=""font-size:60px;"">+</div>",,html-keyboard-response,119,496249,0.0-13.0-0.17,791,List1B,white,woman,,,,null,,,,
null,"<img src=""stim_listB/dance5.gif""</stim_listB>",,html-keyboard-response,120,498252,0.0-13.0-1.17,791,List1B,white,woman,,,,null,,,,
null,is dancing with,,html-keyboard-response,121,500262,0.0-13.0-2.17,791,List1B,white,woman,,,,null,,,,
6944,,,survey-text,122,507206,0.0-13.0-3.17,791,List1B,white,woman,,,,,"{""Q0"":""Fred is dancing with David""}","<img src=""stim_listB/dance5.gif""</stim_listB>",is dancing with,
null,"<div style=""font-size:60px;"">+</div>",,html-keyboard-response,123,507708,0.0-13.0-0.18,791,List1B,white,woman,,,,null,,,,
null,"<img src=""stim_listB/dance8.gif""</stim_listB>",,html-keyboard-response,124,509718,0.0-13.0-1.18,791,List1B,white,woman,,,,null,,,,
null,are dancing with each other,,html-keyboard-response,125,511725,0.0-13.0-2.18,791,List1B,white,woman,,,,null,,,,
10201,,,survey-text,126,521928,0.0-13.0-3.18,791,List1B,white,woman,,,,,"{""Q0"":""Ruth and Kate is dancing with each other""}","<img src=""stim_listB/dance8.gif""</stim_listB>",are dancing with each other,
null,"<div style=""font-size:60px;"">+</div>",,html-keyboard-response,127,522444,0.0-13.0-0.19,791,List1B,white,woman,,,,null,,,,
null,"<img src=""stim_listB/dance1.gif""</stim_listB>",,html-keyboard-response,128,524447,0.0-13.0-1.19,791,List1B,white,woman,,,,null,,,,
null,is dancing with,,html-keyboard-response,129,526459,0.0-13.0-2.19,791,List1B,white,woman,,,,null,,,,
5271,,,survey-text,130,531732,0.0-13.0-3.19,791,List1B,white,woman,,,,,"{""Q0"":""Kate is dancing with Fred""}","<img src=""stim_listB/dance1.gif""</stim_listB>",is dancing with,
7138,"<img src='img/portrait_matrix_list1.JPG' style='width:900px;height:500px;''></img><p>If you have memorised all the portraits and names and are ready to start, press Continue.</p><p><strong>Please note: Your memory of these faces will be tested 4 times during this experiment.</strong></p>",0,html-button-response,131,538871,0.0-14.0-0.0,791,List1B,white,woman,,,,,,,,
1886,"<img src=""portrait/WW2.jpg""style=""width:400px;height:400px;""></img>",3,html-button-response,132,541760,0.0-14.0-1.0,791,List1B,white,woman,,TRUE,3,,,,,
null,CORRECT,,html-keyboard-response,133,543263,0.0-14.0-2.0-0.0,791,List1B,white,woman,,,,null,,,,
3125,"<img src=""portrait/BW1.jpg""style=""width:400px;height:400px;""></img>",0,html-button-response,134,546391,0.0-14.0-4.0,791,List1B,white,woman,,TRUE,0,,,,,
null,CORRECT,,html-keyboard-response,135,547898,0.0-14.0-5.0-0.0,791,List1B,white,woman,,,,null,,,,
2152,"<img src=""portrait/WM1.jpg""style=""width:400px;height:400px;""></img>",6,html-button-response,136,550052,0.0-14.0-7.0,791,List1B,white,woman,,TRUE,6,,,,,
null,CORRECT,,html-keyboard-response,137,551577,0.0-14.0-8.0-0.0,791,List1B,white,woman,,,,null,,,,
1772,"<img src=""portrait/BM2.jpg""style=""width:400px;height:400px;""></img>",5,html-button-response,138,553352,0.0-14.0-10.0,791,List1B,white,woman,,TRUE,5,,,,,
null,CORRECT,,html-keyboard-response,139,554858,0.0-14.0-11.0-0.0,791,List1B,white,woman,,,,null,,,,
2604,"<img src=""portrait/WM2.jpg""style=""width:400px;height:400px;""></img>",7,html-button-response,140,557464,0.0-14.0-13.0,791,List1B,white,woman,,TRUE,7,,,,,
null,CORRECT,,html-keyboard-response,141,558984,0.0-14.0-14.0-0.0,791,List1B,white,woman,,,,null,,,,
4254,"<img src=""portrait/BW2.jpg""style=""width:400px;height:400px;""></img>",2,html-button-response,142,563240,0.0-14.0-16.0,791,List1B,white,woman,,TRUE,2,,,,,
null,CORRECT,,html-keyboard-response,143,564758,0.0-14.0-17.0-0.0,791,List1B,white,woman,,,,null,,,,
1984,"<img src=""portrait/BM1.jpg""style=""width:400px;height:400px;""></img>",4,html-button-response,144,566745,0.0-14.0-19.0,791,List1B,white,woman,,TRUE,4,,,,,
null,CORRECT,,html-keyboard-response,145,568257,0.0-14.0-20.0-0.0,791,List1B,white,woman,,,,null,,,,
2998,"<img src=""portrait/WW1.jpg""style=""width:400px;height:400px;""></img>",1,html-button-response,146,571258,0.0-14.0-22.0,791,List1B,white,woman,,TRUE,1,,,,,
null,CORRECT,,html-keyboard-response,147,572774,0.0-14.0-23.0-0.0,791,List1B,white,woman,,,,null,,,,
2000,<p>You got 8 out of 8 right first time. Press Continue.</p>,0,html-button-response,148,574775,0.0-14.0-25.0,791,List1B,white,woman,,,,,,,,
null,"<div style=""font-size:60px;"">+</div>",,html-keyboard-response,149,576278,0.0-15.0-0.0,791,List1B,white,woman,,,,null,,,,
null,"<img src=""stim_listB/touch1.gif""</stim_listB>",,html-keyboard-response,150,578288,0.0-15.0-1.0,791,List1B,white,woman,,,,null,,,,
null,is touching,,html-keyboard-response,151,580291,0.0-15.0-2.0,791,List1B,white,woman,,,,null,,,,
11379,,,survey-text,152,591672,0.0-15.0-3.0,791,List1B,white,woman,,,,,"{""Q0"":""Kate is touching Mike""}","<img src=""stim_listB/touch1.gif""</stim_listB>",is touching,
null,"<div style=""font-size:60px;"">+</div>",,html-keyboard-response,153,592176,0.0-15.0-0.1,791,List1B,white,woman,,,,null,,,,
null,"<img src=""stim_listB/shout4.gif""</stim_listB>",,html-keyboard-response,154,594179,0.0-15.0-1.1,791,List1B,white,woman,,,,null,,,,
null,are shouting at each other,,html-keyboard-response,155,596195,0.0-15.0-2.1,791,List1B,white,woman,,,,null,,,,
12519,,,survey-text,156,608716,0.0-15.0-3.1,791,List1B,white,woman,,,,,"{""Q0"":""Dave and Jane are shouting at each other""}","<img src=""stim_listB/shout4.gif""</stim_listB>",are shouting at each other,
null,"<div style=""font-size:60px;"">+</div>",,html-keyboard-response,157,609219,0.0-15.0-0.2,791,List1B,white,woman,,,,null,,,,
null,"<img src=""stim_listB/argue1.gif""</stim_listB>",,html-keyboard-response,158,611221,0.0-15.0-1.2,791,List1B,white,woman,,,,null,,,,
null,is arguing with,,html-keyboard-response,159,613232,0.0-15.0-2.2,791,List1B,white,woman,,,,null,,,,
8189,,,survey-text,160,621423,0.0-15.0-3.2,791,List1B,white,woman,,,,,"{""Q0"":""Mike is arguing with Beth""}","<img src=""stim_listB/argue1.gif""</stim_listB>",is arguing with,
null,"<div style=""font-size:60px;"">+</div>",,html-keyboard-response,161,621935,0.0-15.0-0.3,791,List1B,white,woman,,,,null,,,,
null,"<img src=""stim_listB/fight3.gif""</stim_listB>",,html-keyboard-response,162,623949,0.0-15.0-1.3,791,List1B,white,woman,,,,null,,,,
null,is fighting,,html-keyboard-response,163,625951,0.0-15.0-2.3,791,List1B,white,woman,,,,null,,,,
5877,,,survey-text,164,631830,0.0-15.0-3.3,791,List1B,white,woman,,,,,"{""Q0"":""Dave is fighting Jane""}","<img src=""stim_listB/fight3.gif""</stim_listB>",is fighting,
null,"<div style=""font-size:60px;"">+</div>",,html-keyboard-response,165,632335,0.0-15.0-0.4,791,List1B,white,woman,,,,null,,,,
null,"<img src=""stim_listB/dance4.gif""</stim_listB>",,html-keyboard-response,166,634338,0.0-15.0-1.4,791,List1B,white,woman,,,,null,,,,
null,are dancing with each other,,html-keyboard-response,167,636349,0.0-15.0-2.4,791,List1B,white,woman,,,,null,,,,
10007,,,survey-text,168,646358,0.0-15.0-3.4,791,List1B,white,woman,,,,,"{""Q0"":""Ruth and Dave are dancing with each other""}","<img src=""stim_listB/dance4.gif""</stim_listB>",are dancing with each other,
null,"<div style=""font-size:60px;"">+</div>",,html-keyboard-response,169,646860,0.0-15.0-0.5,791,List1B,white,woman,,,,null,,,,
null,"<img src=""stim_listB/touch2.gif""</stim_listB>",,html-keyboard-response,170,648874,0.0-15.0-1.5,791,List1B,white,woman,,,,null,,,,
null,are touching each other,,html-keyboard-response,171,650876,0.0-15.0-2.5,791,List1B,white,woman,,,,null,,,,
8060,,,survey-text,172,658938,0.0-15.0-3.5,791,List1B,white,woman,,,,,"{""Q0"":""Beth and Fred are touching each other""}","<img src=""stim_listB/touch2.gif""</stim_listB>",are touching each other,
null,"<div style=""font-size:60px;"">+</div>",,html-keyboard-response,173,659444,0.0-15.0-0.6,791,List1B,white,woman,,,,null,,,,
null,"<img src=""stim_listB/meet6.gif""</stim_listB>",,html-keyboard-response,174,661447,0.0-15.0-1.6,791,List1B,white,woman,,,,null,,,,
null,are meeting each other,,html-keyboard-response,175,663459,0.0-15.0-2.6,791,List1B,white,woman,,,,null,,,,
6840,,,survey-text,176,670303,0.0-15.0-3.6,791,List1B,white,woman,,,,,"{""Q0"":""Luke and Fred are meeting each other""}","<img src=""stim_listB/meet6.gif""</stim_listB>",are meeting each other,
null,"<div style=""font-size:60px;"">+</div>",,html-keyboard-response,177,670806,0.0-15.0-0.7,791,List1B,white,woman,,,,null,,,,
null,"<img src=""stim_listB/talk2.gif""</stim_listB>",,html-keyboard-response,178,672823,0.0-15.0-1.7,791,List1B,white,woman,,,,null,,,,
null,are talking to each other,,html-keyboard-response,179,674825,0.0-15.0-2.7,791,List1B,white,woman,,,,null,,,,
9717,,,survey-text,180,684543,0.0-15.0-3.7,791,List1B,white,woman,,,,,"{""Q0"":""Beth and Mike are talking to each other""}","<img src=""stim_listB/talk2.gif""</stim_listB>",are talking to each other,
null,"<div style=""font-size:60px;"">+</div>",,html-keyboard-response,181,685056,0.0-15.0-0.8,791,List1B,white,woman,,,,null,,,,
null,"<img src=""stim_listB/hug2.gif""</stim_listB>",,html-keyboard-response,182,687059,0.0-15.0-1.8,791,List1B,white,woman,,,,null,,,,
null,are hugging each other,,html-keyboard-response,183,689062,0.0-15.0-2.8,791,List1B,white,woman,,,,null,,,,
6484,,,survey-text,184,695547,0.0-15.0-3.8,791,List1B,white,woman,,,,,"{""Q0"":""Mike and Kate are hugging each other""}","<img src=""stim_listB/hug2.gif""</stim_listB>",are hugging each other,
null,"<div style=""font-size:60px;"">+</div>",,html-keyboard-response,185,696053,0.0-15.0-0.9,791,List1B,white,woman,,,,null,,,,
null,"<img src=""stim_listB/meet4.gif""</stim_listB>",,html-keyboard-response,186,698057,0.0-15.0-1.9,791,List1B,white,woman,,,,null,,,,
null,are meeting each other,,html-keyboard-response,187,700059,0.0-15.0-2.9,791,List1B,white,woman,,,,null,,,,
7343,,,survey-text,188,707404,0.0-15.0-3.9,791,List1B,white,woman,,,,,"{""Q0"":""Ruth and Luke are meeting each other""}","<img src=""stim_listB/meet4.gif""</stim_listB>",are meeting each other,
null,"<div style=""font-size:60px;"">+</div>",,html-keyboard-response,189,707907,0.0-15.0-0.10,791,List1B,white,woman,,,,null,,,,
null,"<img src=""stim_listB/kiss6.gif""</stim_listB>",,html-keyboard-response,190,709910,0.0-15.0-1.10,791,List1B,white,woman,,,,null,,,,
null,are kissing each other,,html-keyboard-response,191,711926,0.0-15.0-2.10,791,List1B,white,woman,,,,null,,,,
6550,,,survey-text,192,718478,0.0-15.0-3.10,791,List1B,white,woman,,,,,"{""Q0"":""Dave and Mike are kissing each other""}","<img src=""stim_listB/kiss6.gif""</stim_listB>",are kissing each other,
null,"<div style=""font-size:60px;"">+</div>",,html-keyboard-response,193,718992,0.0-15.0-0.11,791,List1B,white,woman,,,,null,,,,
null,"<img src=""stim_listB/marry1.gif""</stim_listB>",,html-keyboard-response,194,721001,0.0-15.0-1.11,791,List1B,white,woman,,,,null,,,,
null,is marrying,,html-keyboard-response,195,723006,0.0-15.0-2.11,791,List1B,white,woman,,,,null,,,,
6034,,,survey-text,196,729042,0.0-15.0-3.11,791,List1B,white,woman,,,,,"{""Q0"":""Beth is marrying Mike""}","<img src=""stim_listB/marry1.gif""</stim_listB>",is marrying,
null,"<div style=""font-size:60px;"">+</div>",,html-keyboard-response,197,729557,0.0-15.0-0.12,791,List1B,white,woman,,,,null,,,,
null,"<img src=""stim_listB/marry2.gif""</stim_listB>",,html-keyboard-response,198,731566,0.0-15.0-1.12,791,List1B,white,woman,,,,null,,,,
null,are marrying each other,,html-keyboard-response,199,733569,0.0-15.0-2.12,791,List1B,white,woman,,,,null,,,,
8782,,,survey-text,200,742352,0.0-15.0-3.12,791,List1B,white,woman,,,,,"{""Q0"":""Fred and Kate are marrying each other""}","<img src=""stim_listB/marry2.gif""</stim_listB>",are marrying each other,
null,"<div style=""font-size:60px;"">+</div>",,html-keyboard-response,201,742854,0.0-15.0-0.13,791,List1B,white,woman,,,,null,,,,
null,"<img src=""stim_listB/marry3.gif""</stim_listB>",,html-keyboard-response,202,744867,0.0-15.0-1.13,791,List1B,white,woman,,,,null,,,,
null,is marrying,,html-keyboard-response,203,746876,0.0-15.0-2.13,791,List1B,white,woman,,,,null,,,,
5775,,,survey-text,204,752652,0.0-15.0-3.13,791,List1B,white,woman,,,,,"{""Q0"":""Ruth is marrying Dave""}","<img src=""stim_listB/marry3.gif""</stim_listB>",is marrying,
null,"<div style=""font-size:60px;"">+</div>",,html-keyboard-response,205,753160,0.0-15.0-0.14,791,List1B,white,woman,,,,null,,,,
null,"<img src=""stim_listB/fight5.gif""</stim_listB>",,html-keyboard-response,206,755176,0.0-15.0-1.14,791,List1B,white,woman,,,,null,,,,
null,is fighting,,html-keyboard-response,207,757191,0.0-15.0-2.14,791,List1B,white,woman,,,,null,,,,
5975,,,survey-text,208,763168,0.0-15.0-3.14,791,List1B,white,woman,,,,,"{""Q0"":""Mike is fighting Dave""}","<img src=""stim_listB/fight5.gif""</stim_listB>",is fighting,
null,"<div style=""font-size:60px;"">+</div>",,html-keyboard-response,209,763669,0.0-15.0-0.15,791,List1B,white,woman,,,,null,,,,
null,"<img src=""stim_listB/talk1.gif""</stim_listB>",,html-keyboard-response,210,765676,0.0-15.0-1.15,791,List1B,white,woman,,,,null,,,,
null,is talking to,,html-keyboard-response,211,767678,0.0-15.0-2.15,791,List1B,white,woman,,,,null,,,,
5986,,,survey-text,212,773664,0.0-15.0-3.15,791,List1B,white,woman,,,,,"{""Q0"":""Fred is talking to Kate""}","<img src=""stim_listB/talk1.gif""</stim_listB>",is talking to,
null,"<div style=""font-size:60px;"">+</div>",,html-keyboard-response,213,774174,0.0-15.0-0.16,791,List1B,white,woman,,,,null,,,,
null,"<img src=""stim_listB/fight7.gif""</stim_listB>",,html-keyboard-response,214,776176,0.0-15.0-1.16,791,List1B,white,woman,,,,null,,,,
null,is fighting,,html-keyboard-response,215,778179,0.0-15.0-2.16,791,List1B,white,woman,,,,null,,,,
6939,,,survey-text,216,785119,0.0-15.0-3.16,791,List1B,white,woman,,,,,"{""Q0"":""Kate is fighting Jane""}","<img src=""stim_listB/fight7.gif""</stim_listB>",is fighting,
null,"<div style=""font-size:60px;"">+</div>",,html-keyboard-response,217,785621,0.0-15.0-0.17,791,List1B,white,woman,,,,null,,,,
null,"<img src=""stim_listB/talk8.gif""</stim_listB>",,html-keyboard-response,218,787626,0.0-15.0-1.17,791,List1B,white,woman,,,,null,,,,
null,are talking to each other,,html-keyboard-response,219,789633,0.0-15.0-2.17,791,List1B,white,woman,,,,null,,,,
10259,,,survey-text,220,799893,0.0-15.0-3.17,791,List1B,white,woman,,,,,"{""Q0"":""Kate and Ruth are talking to each other""}","<img src=""stim_listB/talk8.gif""</stim_listB>",are talking to each other,
null,"<div style=""font-size:60px;"">+</div>",,html-keyboard-response,221,800402,0.0-15.0-0.18,791,List1B,white,woman,,,,null,,,,
null,"<img src=""stim_listB/talk7.gif""</stim_listB>",,html-keyboard-response,222,802406,0.0-15.0-1.18,791,List1B,white,woman,,,,null,,,,
null,is talking to,,html-keyboard-response,223,804421,0.0-15.0-2.18,791,List1B,white,woman,,,,null,,,,
5563,,,survey-text,224,809987,0.0-15.0-3.18,791,List1B,white,woman,,,,,"{""Q0"":""Beth is talking to Jane""}","<img src=""stim_listB/talk7.gif""</stim_listB>",is talking to,
null,"<div style=""font-size:60px;"">+</div>",,html-keyboard-response,225,810490,0.0-15.0-0.19,791,List1B,white,woman,,,,null,,,,
null,"<img src=""stim_listB/argue4.gif""</stim_listB>",,html-keyboard-response,226,812508,0.0-15.0-1.19,791,List1B,white,woman,,,,null,,,,
null,are arguing with each other,,html-keyboard-response,227,814515,0.0-15.0-2.19,791,List1B,white,woman,,,,null,,,,
7691,,,survey-text,228,822208,0.0-15.0-3.19,791,List1B,white,woman,,,,,"{""Q0"":""Jane and Luke are arguing with each other""}","<img src=""stim_listB/argue4.gif""</stim_listB>",are arguing with each other,
3816,"<img src='img/portrait_matrix_list1.JPG' style='width:900px;height:500px;''></img><p>If you have memorised all the portraits and names and are ready to start, press Continue.</p><p><strong>Please note: Your memory of these faces will be tested 4 times during this experiment.</strong></p>",0,html-button-response,229,826026,0.0-16.0-0.0,791,List1B,white,woman,,,,,,,,
3459,"<img src=""portrait/BW2.jpg""style=""width:400px;height:400px;""></img>",2,html-button-response,230,830501,0.0-16.0-1.0,791,List1B,white,woman,,TRUE,2,,,,,
null,CORRECT,,html-keyboard-response,231,832019,0.0-16.0-2.0-0.0,791,List1B,white,woman,,,,null,,,,
1562,"<img src=""portrait/WM2.jpg""style=""width:400px;height:400px;""></img>",7,html-button-response,232,833585,0.0-16.0-4.0,791,List1B,white,woman,,TRUE,7,,,,,
null,CORRECT,,html-keyboard-response,233,835108,0.0-16.0-5.0-0.0,791,List1B,white,woman,,,,null,,,,
2301,"<img src=""portrait/WM1.jpg""style=""width:400px;height:400px;""></img>",6,html-button-response,234,837412,0.0-16.0-7.0,791,List1B,white,woman,,TRUE,6,,,,,
null,CORRECT,,html-keyboard-response,235,838936,0.0-16.0-8.0-0.0,791,List1B,white,woman,,,,null,,,,
1439,"<img src=""portrait/WW2.jpg""style=""width:400px;height:400px;""></img>",3,html-button-response,236,840378,0.0-16.0-10.0,791,List1B,white,woman,,TRUE,3,,,,,
null,CORRECT,,html-keyboard-response,237,841887,0.0-16.0-11.0-0.0,791,List1B,white,woman,,,,null,,,,
1572,"<img src=""portrait/WW1.jpg""style=""width:400px;height:400px;""></img>",1,html-button-response,238,843462,0.0-16.0-13.0,791,List1B,white,woman,,TRUE,1,,,,,
null,CORRECT,,html-keyboard-response,239,844972,0.0-16.0-14.0-0.0,791,List1B,white,woman,,,,null,,,,
1218,"<img src=""portrait/BW1.jpg""style=""width:400px;height:400px;""></img>",0,html-button-response,240,846193,0.0-16.0-16.0,791,List1B,white,woman,,TRUE,0,,,,,
null,CORRECT,,html-keyboard-response,241,847699,0.0-16.0-17.0-0.0,791,List1B,white,woman,,,,null,,,,
1477,"<img src=""portrait/BM1.jpg""style=""width:400px;height:400px;""></img>",4,html-button-response,242,849179,0.0-16.0-19.0,791,List1B,white,woman,,TRUE,4,,,,,
null,CORRECT,,html-keyboard-response,243,850682,0.0-16.0-20.0-0.0,791,List1B,white,woman,,,,null,,,,
1706,"<img src=""portrait/BM2.jpg""style=""width:400px;height:400px;""></img>",5,html-button-response,244,852390,0.0-16.0-22.0,791,List1B,white,woman,,TRUE,5,,,,,
null,CORRECT,,html-keyboard-response,245,853902,0.0-16.0-23.0-0.0,791,List1B,white,woman,,,,null,,,,
1158,<p>You got 8 out of 8 right first time. Press Continue.</p>,0,html-button-response,246,855063,0.0-16.0-25.0,791,List1B,white,woman,,,,,,,,
null,"<div style=""font-size:60px;"">+</div>",,html-keyboard-response,247,856576,0.0-17.0-0.0,791,List1B,white,woman,,,,null,,,,
null,"<img src=""stim_listB/meet5.gif""</stim_listB>",,html-keyboard-response,248,858582,0.0-17.0-1.0,791,List1B,white,woman,,,,null,,,,
null,is meeting,,html-keyboard-response,249,860596,0.0-17.0-2.0,791,List1B,white,woman,,,,null,,,,
5196,,,survey-text,250,865792,0.0-17.0-3.0,791,List1B,white,woman,,,,,"{""Q0"":""Mike is meeting Dave""}","<img src=""stim_listB/meet5.gif""</stim_listB>",is meeting,
null,"<div style=""font-size:60px;"">+</div>",,html-keyboard-response,251,866298,0.0-17.0-0.1,791,List1B,white,woman,,,,null,,,,
null,"<img src=""stim_listB/touch5.gif""</stim_listB>",,html-keyboard-response,252,868310,0.0-17.0-1.1,791,List1B,white,woman,,,,null,,,,
null,is touching,,html-keyboard-response,253,870312,0.0-17.0-2.1,791,List1B,white,woman,,,,null,,,,
5200,,,survey-text,254,875514,0.0-17.0-3.1,791,List1B,white,woman,,,,,"{""Q0"":""Mike is touching Dave""}","<img src=""stim_listB/touch5.gif""</stim_listB>",is touching,
null,"<div style=""font-size:60px;"">+</div>",,html-keyboard-response,255,876030,0.0-17.0-0.2,791,List1B,white,woman,,,,null,,,,
null,"<img src=""stim_listB/argue8.gif""</stim_listB>",,html-keyboard-response,256,878041,0.0-17.0-1.2,791,List1B,white,woman,,,,null,,,,
null,are arguing with each other,,html-keyboard-response,257,880044,0.0-17.0-2.2,791,List1B,white,woman,,,,null,,,,
30770,,,survey-text,258,910816,0.0-17.0-3.2,791,List1B,white,woman,,,,,"{""Q0"":""Beth and Jane are arguing with each other""}","<img src=""stim_listB/argue8.gif""</stim_listB>",are arguing with each other,
null,"<div style=""font-size:60px;"">+</div>",,html-keyboard-response,259,911317,0.0-17.0-0.3,791,List1B,white,woman,,,,null,,,,
null,"<img src=""stim_listB/kiss5.gif""</stim_listB>",,html-keyboard-response,260,913321,0.0-17.0-1.3,791,List1B,white,woman,,,,null,,,,
null,is kissing,,html-keyboard-response,261,915323,0.0-17.0-2.3,791,List1B,white,woman,,,,null,,,,
6350,,,survey-text,262,921674,0.0-17.0-3.3,791,List1B,white,woman,,,,,"{""Q0"":""Fred is kissing Luke""}","<img src=""stim_listB/kiss5.gif""</stim_listB>",is kissing,
null,"<div style=""font-size:60px;"">+</div>",,html-keyboard-response,263,922177,0.0-17.0-0.4,791,List1B,white,woman,,,,null,,,,
null,"<img src=""stim_listB/meet7.gif""</stim_listB>",,html-keyboard-response,264,924183,0.0-17.0-1.4,791,List1B,white,woman,,,,null,,,,
null,is meeting,,html-keyboard-response,265,926184,0.0-17.0-2.4,791,List1B,white,woman,,,,null,,,,
6197,,,survey-text,266,932384,0.0-17.0-3.4,791,List1B,white,woman,,,,,"{""Q0"":""Kate is meeting Jane""}","<img src=""stim_listB/meet7.gif""</stim_listB>",is meeting,
null,"<div style=""font-size:60px;"">+</div>",,html-keyboard-response,267,932886,0.0-17.0-0.5,791,List1B,white,woman,,,,null,,,,
null,"<img src=""stim_listB/argue6.gif""</stim_listB>",,html-keyboard-response,268,934903,0.0-17.0-1.5,791,List1B,white,woman,,,,null,,,,
null,are arguing with each other,,html-keyboard-response,269,936916,0.0-17.0-2.5,791,List1B,white,woman,,,,null,,,,
10407,,,survey-text,270,947325,0.0-17.0-3.5,791,List1B,white,woman,,,,,"{""Q0"":""Fred and Dave are arguing with each other""}","<img src=""stim_listB/argue6.gif""</stim_listB>",are arguing with each other,
null,"<div style=""font-size:60px;"">+</div>",,html-keyboard-response,271,947827,0.0-17.0-0.6,791,List1B,white,woman,,,,null,,,,
null,"<img src=""stim_listB/talk3.gif""</stim_listB>",,html-keyboard-response,272,949830,0.0-17.0-1.6,791,List1B,white,woman,,,,null,,,,
null,is talking to,,html-keyboard-response,273,951838,0.0-17.0-2.6,791,List1B,white,woman,,,,null,,,,
5403,,,survey-text,274,957242,0.0-17.0-3.6,791,List1B,white,woman,,,,,"{""Q0"":""Jane is talking to Luke""}","<img src=""stim_listB/talk3.gif""</stim_listB>",is talking to,
null,"<div style=""font-size:60px;"">+</div>",,html-keyboard-response,275,957755,0.0-17.0-0.7,791,List1B,white,woman,,,,null,,,,
null,"<img src=""stim_listB/touch4.gif""</stim_listB>",,html-keyboard-response,276,959759,0.0-17.0-1.7,791,List1B,white,woman,,,,null,,,,
null,are touching each other,,html-keyboard-response,277,961768,0.0-17.0-2.7,791,List1B,white,woman,,,,null,,,,
8505,,,survey-text,278,970275,0.0-17.0-3.7,791,List1B,white,woman,,,,,"{""Q0"":""Ruth and Luke are touching each other""}","<img src=""stim_listB/touch4.gif""</stim_listB>",are touching each other,
null,"<div style=""font-size:60px;"">+</div>",,html-keyboard-response,279,970777,0.0-17.0-0.8,791,List1B,white,woman,,,,null,,,,
null,"<img src=""stim_listB/shout3.gif""</stim_listB>",,html-keyboard-response,280,972788,0.0-17.0-1.8,791,List1B,white,woman,,,,null,,,,
null,is shouting at,,html-keyboard-response,281,974790,0.0-17.0-2.8,791,List1B,white,woman,,,,null,,,,
7555,,,survey-text,282,982347,0.0-17.0-3.8,791,List1B,white,woman,,,,,"{""Q0"":""Ruth is shouting at Luke""}","<img src=""stim_listB/shout3.gif""</stim_listB>",is shouting at,
null,"<div style=""font-size:60px;"">+</div>",,html-keyboard-response,283,982853,0.0-17.0-0.9,791,List1B,white,woman,,,,null,,,,
null,"<img src=""stim_listB/kiss2.gif""</stim_listB>",,html-keyboard-response,284,984870,0.0-17.0-1.9,791,List1B,white,woman,,,,null,,,,
null,are kissing each other,,html-keyboard-response,285,986879,0.0-17.0-2.9,791,List1B,white,woman,,,,null,,,,
5326,,,survey-text,286,992206,0.0-17.0-3.9,791,List1B,white,woman,,,,,"{""Q0"":""Mike and Kate are kissing each other""}","<img src=""stim_listB/kiss2.gif""</stim_listB>",are kissing each other,
null,"<div style=""font-size:60px;"">+</div>",,html-keyboard-response,287,992708,0.0-17.0-0.10,791,List1B,white,woman,,,,null,,,,
null,"<img src=""stim_listB/meet2.gif""</stim_listB>",,html-keyboard-response,288,994712,0.0-17.0-1.10,791,List1B,white,woman,,,,null,,,,
null,are meeting each other,,html-keyboard-response,289,996728,0.0-17.0-2.10,791,List1B,white,woman,,,,null,,,,
6341,,,survey-text,290,1003071,0.0-17.0-3.10,791,List1B,white,woman,,,,,"{""Q0"":""Beth and Fred are meeting each other""}","<img src=""stim_listB/meet2.gif""</stim_listB>",are meeting each other,
null,"<div style=""font-size:60px;"">+</div>",,html-keyboard-response,291,1003584,0.0-17.0-0.11,791,List1B,white,woman,,,,null,,,,
null,"<img src=""stim_listB/argue5.gif""</stim_listB>",,html-keyboard-response,292,1005595,0.0-17.0-1.11,791,List1B,white,woman,,,,null,,,,
null,is arguing with,,html-keyboard-response,293,1007597,0.0-17.0-2.11,791,List1B,white,woman,,,,null,,,,
5861,,,survey-text,294,1013460,0.0-17.0-3.11,791,List1B,white,woman,,,,,"{""Q0"":""Mike is arguing with Luke""}","<img src=""stim_listB/argue5.gif""</stim_listB>",is arguing with,
null,"<div style=""font-size:60px;"">+</div>",,html-keyboard-response,295,1013963,0.0-17.0-0.12,791,List1B,white,woman,,,,null,,,,
null,"<img src=""stim_listB/argue2.gif""</stim_listB>",,html-keyboard-response,296,1015966,0.0-17.0-1.12,791,List1B,white,woman,,,,null,,,,
null,are arguing with each other,,html-keyboard-response,297,1017968,0.0-17.0-2.12,791,List1B,white,woman,,,,null,,,,
10439,,,survey-text,298,1028410,0.0-17.0-3.12,791,List1B,white,woman,,,,,"{""Q0"":""Fred and Kate are arguing with each other""}","<img src=""stim_listB/argue2.gif""</stim_listB>",are arguing with each other,
null,"<div style=""font-size:60px;"">+</div>",,html-keyboard-response,299,1028915,0.0-17.0-0.13,791,List1B,white,woman,,,,null,,,,
null,"<img src=""stim_listB/fight6.gif""</stim_listB>",,html-keyboard-response,300,1030925,0.0-17.0-1.13,791,List1B,white,woman,,,,null,,,,
null,are fighting each other,,html-keyboard-response,301,1032934,0.0-17.0-2.13,791,List1B,white,woman,,,,null,,,,
5736,,,survey-text,302,1038671,0.0-17.0-3.13,791,List1B,white,woman,,,,,"{""Q0"":""Fred and Luke are fighting each other""}","<img src=""stim_listB/fight6.gif""</stim_listB>",are fighting each other,
null,"<div style=""font-size:60px;"">+</div>",,html-keyboard-response,303,1039179,0.0-17.0-0.14,791,List1B,white,woman,,,,null,,,,
null,"<img src=""stim_listB/touch8.gif""</stim_listB>",,html-keyboard-response,304,1041181,0.0-17.0-1.14,791,List1B,white,woman,,,,null,,,,
null,are touching each other,,html-keyboard-response,305,1043184,0.0-17.0-2.14,791,List1B,white,woman,,,,null,,,,
8136,,,survey-text,306,1051322,0.0-17.0-3.14,791,List1B,white,woman,,,,,"{""Q0"":""Beth and Ruth are touching each other""}","<img src=""stim_listB/touch8.gif""</stim_listB>",are touching each other,
null,"<div style=""font-size:60px;"">+</div>",,html-keyboard-response,307,1051834,0.0-17.0-0.15,791,List1B,white,woman,,,,null,,,,
null,"<img src=""stim_listB/touch3.gif""</stim_listB>",,html-keyboard-response,308,1053852,0.0-17.0-1.15,791,List1B,white,woman,,,,null,,,,
null,is touching,,html-keyboard-response,309,1055864,0.0-17.0-2.15,791,List1B,white,woman,,,,null,,,,
4945,,,survey-text,310,1060811,0.0-17.0-3.15,791,List1B,white,woman,,,,,"{""Q0"":""Jane is touching Dave""}","<img src=""stim_listB/touch3.gif""</stim_listB>",is touching,
null,"<div style=""font-size:60px;"">+</div>",,html-keyboard-response,311,1061317,0.0-17.0-0.16,791,List1B,white,woman,,,,null,,,,
null,"<img src=""stim_listB/meet8.gif""</stim_listB>",,html-keyboard-response,312,1063321,0.0-17.0-1.16,791,List1B,white,woman,,,,null,,,,
null,are meeting each other,,html-keyboard-response,313,1065337,0.0-17.0-2.16,791,List1B,white,woman,,,,null,,,,
10385,,,survey-text,314,1075723,0.0-17.0-3.16,791,List1B,white,woman,,,,,"{""Q0"":""Beth and Ruth are meeting each other""}","<img src=""stim_listB/meet8.gif""</stim_listB>",are meeting each other,
null,"<div style=""font-size:60px;"">+</div>",,html-keyboard-response,315,1076231,0.0-17.0-0.17,791,List1B,white,woman,,,,null,,,,
null,"<img src=""stim_listB/hug6.gif""</stim_listB>",,html-keyboard-response,316,1078247,0.0-17.0-1.17,791,List1B,white,woman,,,,null,,,,
null,are hugging each other,,html-keyboard-response,317,1080249,0.0-17.0-2.17,791,List1B,white,woman,,,,null,,,,
9914,,,survey-text,318,1090165,0.0-17.0-3.17,791,List1B,white,woman,,,,,"{""Q0"":""Mike and Dave are hugging each other""}","<img src=""stim_listB/hug6.gif""</stim_listB>",are hugging each other,
null,"<div style=""font-size:60px;"">+</div>",,html-keyboard-response,319,1090666,0.0-17.0-0.18,791,List1B,white,woman,,,,null,,,,
null,"<img src=""stim_listB/shout1.gif""</stim_listB>",,html-keyboard-response,320,1092684,0.0-17.0-1.18,791,List1B,white,woman,,,,null,,,,
null,is shouting at,,html-keyboard-response,321,1094693,0.0-17.0-2.18,791,List1B,white,woman,,,,null,,,,
8728,,,survey-text,322,1103421,0.0-17.0-3.18,791,List1B,white,woman,,,,,"{""Q0"":""Beth is shouting at Fred""}","<img src=""stim_listB/shout1.gif""</stim_listB>",is shouting at,
null,"<div style=""font-size:60px;"">+</div>",,html-keyboard-response,323,1103927,0.0-17.0-0.19,791,List1B,white,woman,,,,null,,,,
null,"<img src=""stim_listB/kiss1.gif""</stim_listB>",,html-keyboard-response,324,1105944,0.0-17.0-1.19,791,List1B,white,woman,,,,null,,,,
null,is kissing,,html-keyboard-response,325,1107945,0.0-17.0-2.19,791,List1B,white,woman,,,,null,,,,
5912,,,survey-text,326,1113859,0.0-17.0-3.19,791,List1B,white,woman,,,,,"{""Q0"":""Beth is kissing Fred""}","<img src=""stim_listB/kiss1.gif""</stim_listB>",is kissing,
4316,"<img src='img/portrait_matrix_list1.JPG' style='width:900px;height:500px;''></img><p>If you have memorised all the portraits and names and are ready to start, press Continue.</p><p><strong>Please note: Your memory of these faces will be tested 4 times during this experiment.</strong></p>",0,html-button-response,327,1118177,0.0-18.0-0.0,791,List1B,white,woman,,,,,,,,
1890,"<img src=""portrait/BM2.jpg""style=""width:400px;height:400px;""></img>",5,html-button-response,328,1121085,0.0-18.0-1.0,791,List1B,white,woman,,TRUE,5,,,,,
null,CORRECT,,html-keyboard-response,329,1122603,0.0-18.0-2.0-0.0,791,List1B,white,woman,,,,null,,,,
2131,"<img src=""portrait/BW1.jpg""style=""width:400px;height:400px;""></img>",0,html-button-response,330,1124737,0.0-18.0-4.0,791,List1B,white,woman,,TRUE,0,,,,,
null,CORRECT,,html-keyboard-response,331,1126255,0.0-18.0-5.0-0.0,791,List1B,white,woman,,,,null,,,,
1211,"<img src=""portrait/WW2.jpg""style=""width:400px;height:400px;""></img>",3,html-button-response,332,1127469,0.0-18.0-7.0,791,List1B,white,woman,,TRUE,3,,,,,
null,CORRECT,,html-keyboard-response,333,1128985,0.0-18.0-8.0-0.0,791,List1B,white,woman,,,,null,,,,
1428,"<img src=""portrait/BW2.jpg""style=""width:400px;height:400px;""></img>",2,html-button-response,334,1130415,0.0-18.0-10.0,791,List1B,white,woman,,TRUE,2,,,,,
null,CORRECT,,html-keyboard-response,335,1131926,0.0-18.0-11.0-0.0,791,List1B,white,woman,,,,null,,,,
1453,"<img src=""portrait/BM1.jpg""style=""width:400px;height:400px;""></img>",4,html-button-response,336,1133382,0.0-18.0-13.0,791,List1B,white,woman,,TRUE,4,,,,,
null,CORRECT,,html-keyboard-response,337,1134898,0.0-18.0-14.0-0.0,791,List1B,white,woman,,,,null,,,,
1918,"<img src=""portrait/WM1.jpg""style=""width:400px;height:400px;""></img>",6,html-button-response,338,1136819,0.0-18.0-16.0,791,List1B,white,woman,,TRUE,6,,,,,
null,CORRECT,,html-keyboard-response,339,1138323,0.0-18.0-17.0-0.0,791,List1B,white,woman,,,,null,,,,
1675,"<img src=""portrait/WW1.jpg""style=""width:400px;height:400px;""></img>",1,html-button-response,340,1140001,0.0-18.0-19.0,791,List1B,white,woman,,TRUE,1,,,,,
null,CORRECT,,html-keyboard-response,341,1141521,0.0-18.0-20.0-0.0,791,List1B,white,woman,,,,null,,,,
2148,"<img src=""portrait/WM2.jpg""style=""width:400px;height:400px;""></img>",7,html-button-response,342,1143672,0.0-18.0-22.0,791,List1B,white,woman,,TRUE,7,,,,,
null,CORRECT,,html-keyboard-response,343,1145179,0.0-18.0-23.0-0.0,791,List1B,white,woman,,,,null,,,,
1311,<p>You got 8 out of 8 right first time. Press Continue.</p>,0,html-button-response,344,1146492,0.0-18.0-25.0,791,List1B,white,woman,,,,,,,,
null,"<div style=""font-size:60px;"">+</div>",,html-keyboard-response,345,1147999,0.0-19.0-0.0,791,List1B,white,woman,,,,null,,,,
null,"<img src=""stim_listB/hug7.gif""</stim_listB>",,html-keyboard-response,346,1150012,0.0-19.0-1.0,791,List1B,white,woman,,,,null,,,,
null,is hugging,,html-keyboard-response,347,1152014,0.0-19.0-2.0,791,List1B,white,woman,,,,null,,,,
6979,,,survey-text,348,1158995,0.0-19.0-3.0,791,List1B,white,woman,,,,,"{""Q0"":""Ruth is hugging Beth""}","<img src=""stim_listB/hug7.gif""</stim_listB>",is hugging,
null,"<div style=""font-size:60px;"">+</div>",,html-keyboard-response,349,1159500,0.0-19.0-0.1,791,List1B,white,woman,,,,null,,,,
null,"<img src=""stim_listB/hug5.gif""</stim_listB>",,html-keyboard-response,350,1161509,0.0-19.0-1.1,791,List1B,white,woman,,,,null,,,,
null,is hugging,,html-keyboard-response,351,1163516,0.0-19.0-2.1,791,List1B,white,woman,,,,null,,,,
4505,,,survey-text,352,1168022,0.0-19.0-3.1,791,List1B,white,woman,,,,,"{""Q0"":""Fred is hugging Luke""}","<img src=""stim_listB/hug5.gif""</stim_listB>",is hugging,
null,"<div style=""font-size:60px;"">+</div>",,html-keyboard-response,353,1168531,0.0-19.0-0.2,791,List1B,white,woman,,,,null,,,,
null,"<img src=""stim_listB/shout8.gif""</stim_listB>",,html-keyboard-response,354,1170537,0.0-19.0-1.2,791,List1B,white,woman,,,,null,,,,
null,are shouting at each other,,html-keyboard-response,355,1172552,0.0-19.0-2.2,791,List1B,white,woman,,,,null,,,,
7216,,,survey-text,356,1179771,0.0-19.0-3.2,791,List1B,white,woman,,,,,"{""Q0"":""Kate and Jane are shouting at each other""}","<img src=""stim_listB/shout8.gif""</stim_listB>",are shouting at each other,
null,"<div style=""font-size:60px;"">+</div>",,html-keyboard-response,357,1180280,0.0-19.0-0.3,791,List1B,white,woman,,,,null,,,,
null,"<img src=""stim_listB/kiss3.gif""</stim_listB>",,html-keyboard-response,358,1182284,0.0-19.0-1.3,791,List1B,white,woman,,,,null,,,,
null,is kissing,,html-keyboard-response,359,1184291,0.0-19.0-2.3,791,List1B,white,woman,,,,null,,,,
4888,,,survey-text,360,1189180,0.0-19.0-3.3,791,List1B,white,woman,,,,,"{""Q0"":""Ruth is kissing Luke""}","<img src=""stim_listB/kiss3.gif""</stim_listB>",is kissing,
null,"<div style=""font-size:60px;"">+</div>",,html-keyboard-response,361,1189682,0.0-19.0-0.4,791,List1B,white,woman,,,,null,,,,
null,"<img src=""stim_listB/fight4.gif""</stim_listB>",,html-keyboard-response,362,1191687,0.0-19.0-1.4,791,List1B,white,woman,,,,null,,,,
null,are fighting each other,,html-keyboard-response,363,1193695,0.0-19.0-2.4,791,List1B,white,woman,,,,null,,,,
8163,,,survey-text,364,1201859,0.0-19.0-3.4,791,List1B,white,woman,,,,,"{""Q0"":""Ruth and Luke are fighting each other""}","<img src=""stim_listB/fight4.gif""</stim_listB>",are fighting each other,
null,"<div style=""font-size:60px;"">+</div>",,html-keyboard-response,365,1202374,0.0-19.0-0.5,791,List1B,white,woman,,,,null,,,,
null,"<img src=""stim_listB/meet1.gif""</stim_listB>",,html-keyboard-response,366,1204379,0.0-19.0-1.5,791,List1B,white,woman,,,,null,,,,
null,is meeting,,html-keyboard-response,367,1206396,0.0-19.0-2.5,791,List1B,white,woman,,,,null,,,,
5116,,,survey-text,368,1211513,0.0-19.0-3.5,791,List1B,white,woman,,,,,"{""Q0"":""Kate is meeting Mike""}","<img src=""stim_listB/meet1.gif""</stim_listB>",is meeting,
null,"<div style=""font-size:60px;"">+</div>",,html-keyboard-response,369,1212025,0.0-19.0-0.6,791,List1B,white,woman,,,,null,,,,
null,"<img src=""stim_listB/marry7.gif""</stim_listB>",,html-keyboard-response,370,1214028,0.0-19.0-1.6,791,List1B,white,woman,,,,null,,,,
null,is marrying,,html-keyboard-response,371,1216037,0.0-19.0-2.6,791,List1B,white,woman,,,,null,,,,
5785,,,survey-text,372,1221824,0.0-19.0-3.6,791,List1B,white,woman,,,,,"{""Q0"":""Kate is marrying Ruth""}","<img src=""stim_listB/marry7.gif""</stim_listB>",is marrying,
null,"<div style=""font-size:60px;"">+</div>",,html-keyboard-response,373,1222338,0.0-19.0-0.7,791,List1B,white,woman,,,,null,,,,
null,"<img src=""stim_listB/hug4.gif""</stim_listB>",,html-keyboard-response,374,1224345,0.0-19.0-1.7,791,List1B,white,woman,,,,null,,,,
null,are hugging each other,,html-keyboard-response,375,1226355,0.0-19.0-2.7,791,List1B,white,woman,,,,null,,,,
8559,,,survey-text,376,1234916,0.0-19.0-3.7,791,List1B,white,woman,,,,,"{""Q0"":""Jane and Dave are hugging each other""}","<img src=""stim_listB/hug4.gif""</stim_listB>",are hugging each other,
null,"<div style=""font-size:60px;"">+</div>",,html-keyboard-response,377,1235422,0.0-19.0-0.8,791,List1B,white,woman,,,,null,,,,
null,"<img src=""stim_listB/marry4.gif""</stim_listB>",,html-keyboard-response,378,1237426,0.0-19.0-1.8,791,List1B,white,woman,,,,null,,,,
null,are marrying each other,,html-keyboard-response,379,1239428,0.0-19.0-2.8,791,List1B,white,woman,,,,null,,,,
7902,,,survey-text,380,1247331,0.0-19.0-3.8,791,List1B,white,woman,,,,,"{""Q0"":""Jane and Luke are marrying each other""}","<img src=""stim_listB/marry4.gif""</stim_listB>",are marrying each other,
null,"<div style=""font-size:60px;"">+</div>",,html-keyboard-response,381,1247840,0.0-19.0-0.9,791,List1B,white,woman,,,,null,,,,
null,"<img src=""stim_listB/fight2.gif""</stim_listB>",,html-keyboard-response,382,1249844,0.0-19.0-1.9,791,List1B,white,woman,,,,null,,,,
null,are fighting each other,,html-keyboard-response,383,1251855,0.0-19.0-2.9,791,List1B,white,woman,,,,null,,,,
7234,,,survey-text,384,1259091,0.0-19.0-3.9,791,List1B,white,woman,,,,,"{""Q0"":""Beth and Fred are fighting each other""}","<img src=""stim_listB/fight2.gif""</stim_listB>",are fighting each other,
null,"<div style=""font-size:60px;"">+</div>",,html-keyboard-response,385,1259601,0.0-19.0-0.10,791,List1B,white,woman,,,,null,,,,
null,"<img src=""stim_listB/dance3.gif""</stim_listB>",,html-keyboard-response,386,1261612,0.0-19.0-1.10,791,List1B,white,woman,,,,null,,,,
null,is dancing with,,html-keyboard-response,387,1263615,0.0-19.0-2.10,791,List1B,white,woman,,,,null,,,,
6234,,,survey-text,388,1269851,0.0-19.0-3.10,791,List1B,white,woman,,,,,"{""Q0"":""Jane is dancing with Luke""}","<img src=""stim_listB/dance3.gif""</stim_listB>",is dancing with,
null,"<div style=""font-size:60px;"">+</div>",,html-keyboard-response,389,1270362,0.0-19.0-0.11,791,List1B,white,woman,,,,null,,,,
null,"<img src=""stim_listB/kiss4.gif""</stim_listB>",,html-keyboard-response,390,1272365,0.0-19.0-1.11,791,List1B,white,woman,,,,null,,,,
null,are kissing each other,,html-keyboard-response,391,1274368,0.0-19.0-2.11,791,List1B,white,woman,,,,null,,,,
6387,,,survey-text,392,1280758,0.0-19.0-3.11,791,List1B,white,woman,,,,,"{""Q0"":""Jane and Dave are kissing each other""}","<img src=""stim_listB/kiss4.gif""</stim_listB>",are kissing each other,
null,"<div style=""font-size:60px;"">+</div>",,html-keyboard-response,393,1281264,0.0-19.0-0.12,791,List1B,white,woman,,,,null,,,,
null,"<img src=""stim_listB/touch7.gif""</stim_listB>",,html-keyboard-response,394,1283269,0.0-19.0-1.12,791,List1B,white,woman,,,,null,,,,
null,is touching,,html-keyboard-response,395,1285278,0.0-19.0-2.12,791,List1B,white,woman,,,,null,,,,
8276,,,survey-text,396,1293556,0.0-19.0-3.12,791,List1B,white,woman,,,,,"{""Q0"":""Jane and Kate is touching""}","<img src=""stim_listB/touch7.gif""</stim_listB>",is touching,
null,"<div style=""font-size:60px;"">+</div>",,html-keyboard-response,397,1294059,0.0-19.0-0.13,791,List1B,white,woman,,,,null,,,,
null,"<img src=""stim_listB/dance2.gif""</stim_listB>",,html-keyboard-response,398,1296065,0.0-19.0-1.13,791,List1B,white,woman,,,,null,,,,
null,are dancing with each other,,html-keyboard-response,399,1298067,0.0-19.0-2.13,791,List1B,white,woman,,,,null,,,,
8387,,,survey-text,400,1306457,0.0-19.0-3.13,791,List1B,white,woman,,,,,"{""Q0"":""Mike and Beth are dancing with each other""}","<img src=""stim_listB/dance2.gif""</stim_listB>",are dancing with each other,
null,"<div style=""font-size:60px;"">+</div>",,html-keyboard-response,401,1306965,0.0-19.0-0.14,791,List1B,white,woman,,,,null,,,,
null,"<img src=""stim_listB/marry8.gif""</stim_listB>",,html-keyboard-response,402,1308973,0.0-19.0-1.14,791,List1B,white,woman,,,,null,,,,
null,are marrying each other,,html-keyboard-response,403,1310974,0.0-19.0-2.14,791,List1B,white,woman,,,,null,,,,
7729,,,survey-text,404,1318705,0.0-19.0-3.14,791,List1B,white,woman,,,,,"{""Q0"":""Jane and Beth are marrying each other""}","<img src=""stim_listB/marry8.gif""</stim_listB>",are marrying each other,
null,"<div style=""font-size:60px;"">+</div>",,html-keyboard-response,405,1319207,0.0-19.0-0.15,791,List1B,white,woman,,,,null,,,,
null,"<img src=""stim_listB/shout6.gif""</stim_listB>",,html-keyboard-response,406,1321216,0.0-19.0-1.15,791,List1B,white,woman,,,,null,,,,
null,are shouting at each other,,html-keyboard-response,407,1323230,0.0-19.0-2.15,791,List1B,white,woman,,,,null,,,,
10972,,,survey-text,408,1334203,0.0-19.0-3.15,791,List1B,white,woman,,,,,"{""Q0"":""Mike and Dave are shouting at each other""}","<img src=""stim_listB/shout6.gif""</stim_listB>",are shouting at each other,
null,"<div style=""font-size:60px;"">+</div>",,html-keyboard-response,409,1334705,0.0-19.0-0.16,791,List1B,white,woman,,,,null,,,,
null,"<img src=""stim_listB/kiss8.gif""</stim_listB>",,html-keyboard-response,410,1336709,0.0-19.0-1.16,791,List1B,white,woman,,,,null,,,,
null,are kissing each other,,html-keyboard-response,411,1338711,0.0-19.0-2.16,791,List1B,white,woman,,,,null,,,,
6829,,,survey-text,412,1345542,0.0-19.0-3.16,791,List1B,white,woman,,,,,"{""Q0"":""Jane and Kate are kissing each other""}","<img src=""stim_listB/kiss8.gif""</stim_listB>",are kissing each other,
null,"<div style=""font-size:60px;"">+</div>",,html-keyboard-response,413,1346044,0.0-19.0-0.17,791,List1B,white,woman,,,,null,,,,
null,"<img src=""stim_listB/touch6.gif""</stim_listB>",,html-keyboard-response,414,1348061,0.0-19.0-1.17,791,List1B,white,woman,,,,null,,,,
null,are touching each other,,html-keyboard-response,415,1350064,0.0-19.0-2.17,791,List1B,white,woman,,,,null,,,,
7636,,,survey-text,416,1357701,0.0-19.0-3.17,791,List1B,white,woman,,,,,"{""Q0"":""Fred and Luke are touching each other""}","<img src=""stim_listB/touch6.gif""</stim_listB>",are touching each other,
null,"<div style=""font-size:60px;"">+</div>",,html-keyboard-response,417,1358203,0.0-19.0-0.18,791,List1B,white,woman,,,,null,,,,
null,"<img src=""stim_listB/hug3.gif""</stim_listB>",,html-keyboard-response,418,1360219,0.0-19.0-1.18,791,List1B,white,woman,,,,null,,,,
null,is hugging,,html-keyboard-response,419,1362229,0.0-19.0-2.18,791,List1B,white,woman,,,,null,,,,
16260,,,survey-text,420,1378490,0.0-19.0-3.18,791,List1B,white,woman,,,,,"{""Q0"":""Luke is hugging Ruth""}","<img src=""stim_listB/hug3.gif""</stim_listB>",is hugging,
null,"<div style=""font-size:60px;"">+</div>",,html-keyboard-response,421,1378994,0.0-19.0-0.19,791,List1B,white,woman,,,,null,,,,
null,"<img src=""stim_listB/argue3.gif""</stim_listB>",,html-keyboard-response,422,1381008,0.0-19.0-1.19,791,List1B,white,woman,,,,null,,,,
null,is arguing with,,html-keyboard-response,423,1383024,0.0-19.0-2.19,791,List1B,white,woman,,,,null,,,,
6205,,,survey-text,424,1389230,0.0-19.0-3.19,791,List1B,white,woman,,,,,"{""Q0"":""Dave is arguing with Ruth""}","<img src=""stim_listB/argue3.gif""</stim_listB>",is arguing with,
2496,<p>Thank you for completing that task.</p><p>The final part of this session is a short questionnaire.</p><p>Press Continue.</p>,0,html-button-response,425,1391727,0.0-20.0,791,List1B,white,woman,,,,,,,,
18882,,,survey-text,426,1411621,0.0-21.0,791,List1B,white,woman,,,,,"{""Q0"":""44"",""Q1"":""English"",""Q2"":""English"",""Q3"":""England"",""Q4"":""White"",""Q5"":""Female""}",,,demographics
63795,,,survey-likert,427,1475422,0.0-22.0,791,List1B,white,woman,,,,,"{""Q0"":0,""Q1"":0,""Q2"":0,""Q3"":3,""Q4"":1,""Q5"":3,""Q6"":3,""Q7"":0,""Q8"":0,""Q9"":0,""Q10"":3,""Q11"":1,""Q12"":1,""Q13"":0}",,,likert_race
48097,,,survey-likert,428,1523525,0.0-23.0,791,List1B,white,woman,,,,,"{""Q0"":4,""Q1"":5,""Q2"":5,""Q3"":5,""Q4"":5,""Q5"":2,""Q6"":5,""Q7"":1,""Q8"":6,""Q9"":6,""Q10"":1,""Q11"":3,""Q12"":3,""Q13"":0}",,,likert_gender
11154,,,survey-text,429,1534681,0.0-24.0,791,List1B,white,woman,,,,,"{""Q0"":""ccc""}",,,worker_id
21582,,,external-html,430,1556346,0.0-25.0,791,List1B,white,woman,debrief.html,,,,,,,
