rt,stimulus,button_pressed,trial_type,trial_index,time_elapsed,internal_node_id,subject,list,ppt_race,ppt_gender,url,first_guess,correct,key_press,responses,image_type,phrase_type,test_part
2553,Welcome to the experiment. Press Continue to begin.,0,html-button-response,0,2557,0.0-0.0,82873,List1B,black,woman,,,,,,,,
171980,,,external-html,1,175671,0.0-1.0,82873,List1B,black,woman,consent.html,,,,,,,
109285,"<p>On the next page, you will see portraits of 8 people and their names.</p><p>Your first task is to take a few minutes to memorise the names of these people.</p><p>You will have to recall their names during the rest of the experiment, so it is</p><p>essential that you try to memorise these people and their names as best as you can.</p><br><p><strong>You will then be tested on your memory of these names and portraits.</strong></p><br><p>The experiment will start after you have completed this memory test.</p><br><p>Ready?</p>",0,html-button-response,2,284958,0.0-2.0,82873,List1B,black,woman,,,,,,,,
95309,"<img src='img/portrait_matrix_list1.JPG' style='width:900px;height:500px;''></img><p>If you have memorised all the portraits and names and are ready to start, press Continue.</p><p><strong>Please note: Your memory of these faces will be tested 4 times during this experiment.</strong></p>",0,html-button-response,3,381274,0.0-3.0-0.0,82873,List1B,black,woman,,,,,,,,
4759,"<img src=""portrait/BM2.jpg""style=""width:400px;height:400px;""></img>",5,html-button-response,4,387042,0.0-3.0-1.0,82873,List1B,black,woman,,TRUE,5,,,,,
null,CORRECT,,html-keyboard-response,5,388551,0.0-3.0-2.0-0.0,82873,List1B,black,woman,,,,null,,,,
1977,"<img src=""portrait/WM2.jpg""style=""width:400px;height:400px;""></img>",7,html-button-response,6,390531,0.0-3.0-4.0,82873,List1B,black,woman,,TRUE,7,,,,,
null,CORRECT,,html-keyboard-response,7,392040,0.0-3.0-5.0-0.0,82873,List1B,black,woman,,,,null,,,,
9369,"<img src=""portrait/BM1.jpg""style=""width:400px;height:400px;""></img>",4,html-button-response,8,401411,0.0-3.0-7.0,82873,List1B,black,woman,,TRUE,4,,,,,
null,CORRECT,,html-keyboard-response,9,402921,0.0-3.0-8.0-0.0,82873,List1B,black,woman,,,,null,,,,
2529,"<img src=""portrait/BW2.jpg""style=""width:400px;height:400px;""></img>",2,html-button-response,10,405453,0.0-3.0-10.0,82873,List1B,black,woman,,TRUE,2,,,,,
null,CORRECT,,html-keyboard-response,11,406962,0.0-3.0-11.0-0.0,82873,List1B,black,woman,,,,null,,,,
5766,"<img src=""portrait/WM1.jpg""style=""width:400px;height:400px;""></img>",6,html-button-response,12,412730,0.0-3.0-13.0,82873,List1B,black,woman,,TRUE,6,,,,,
null,CORRECT,,html-keyboard-response,13,414238,0.0-3.0-14.0-0.0,82873,List1B,black,woman,,,,null,,,,
2113,"<img src=""portrait/WW2.jpg""style=""width:400px;height:400px;""></img>",3,html-button-response,14,416352,0.0-3.0-16.0,82873,List1B,black,woman,,TRUE,3,,,,,
null,CORRECT,,html-keyboard-response,15,417859,0.0-3.0-17.0-0.0,82873,List1B,black,woman,,,,null,,,,
2183,"<img src=""portrait/BW1.jpg""style=""width:400px;height:400px;""></img>",0,html-button-response,16,420045,0.0-3.0-19.0,82873,List1B,black,woman,,TRUE,0,,,,,
null,CORRECT,,html-keyboard-response,17,421550,0.0-3.0-20.0-0.0,82873,List1B,black,woman,,,,null,,,,
1999,"<img src=""portrait/WW1.jpg""style=""width:400px;height:400px;""></img>",1,html-button-response,18,423551,0.0-3.0-22.0,82873,List1B,black,woman,,TRUE,1,,,,,
null,CORRECT,,html-keyboard-response,19,425060,0.0-3.0-23.0-0.0,82873,List1B,black,woman,,,,null,,,,
3353,<p>You got 8 out of 8 right first time. Press Continue.</p>,0,html-button-response,20,428416,0.0-3.0-25.0,82873,List1B,black,woman,,,,,,,,
68652,"<p>In this experiment, you will view photographs of the people from the memory game interacting.</p><p>By using the <strong>exact</strong> phrase given <i>after</i> the photograph appears and recalling the correct names of the people in the photographs, form a sentence describing the interaction. You do not need to capitalise names.</p><p>Type your answer in the space provided. Please complete every sentence before moving onto the next trial.</p><p>You will only have a few seconds to memorise each given photograph and phrase before you can respond, so try your best to focus.</p><p>An example is given below. Press 'Continue' when you are ready.</p><img src='img/speaking_example_v2.jpg' style='width:800px;height:460px;''></img>",0,html-button-response,21,498074,0.0-4.0,82873,List1B,black,woman,,,,,,,,
2906,"<p>Before the experiment starts, you will watch two example trials. Press 'Continue'.</p>",0,html-button-response,22,501985,0.0-5.0,82873,List1B,black,woman,,,,,,,,
null,<img src='img/speaking_WW.gif'></img>,,html-keyboard-response,23,504990,0.0-6.0,82873,List1B,black,woman,,,,null,,,,
null,<p>is speaking to</p>,,html-keyboard-response,24,506996,0.0-7.0,82873,List1B,black,woman,,,,null,,,,
2598,<p><b>Answer:</b> kate is speaking to beth</p>,0,html-button-response,25,509596,0.0-8.0,82873,List1B,black,woman,,,,,,,,
null,<img src='img/pointing_BM.gif'></img>,,html-keyboard-response,26,512604,0.0-9.0,82873,List1B,black,woman,,,,null,,,,
null,<p>are pointing at each other</p>,,html-keyboard-response,27,514608,0.0-10.0,82873,List1B,black,woman,,,,null,,,,
3635,<p><b>Answer:</b> luke and dave are pointing at each other</p>,0,html-button-response,28,518246,0.0-11.0,82873,List1B,black,woman,,,,,,,,
30317,"<p>Ready to start the experiment?</p><br><p><strong>Remember to describe the picture using a full sentence,</strong></p><p><strong>that combines the names of the people with the given phrase.</strong></p><p><strong>If you do not do this correctly you will not be paid.</strong></p><p><strong> You do not need to capitalise names or use punctuation.</strong></p><br><p>Press 'Continue' to begin.</p>",0,html-button-response,29,549569,0.0-12.0,82873,List1B,black,woman,,,,,,,,
null,"<div style=""font-size:60px;"">+</div>",,html-keyboard-response,30,551073,0.0-13.0-0.0,82873,List1B,black,woman,,,,null,,,,
null,"<img src=""stim_listB/meet2.gif""</stim_listB>",,html-keyboard-response,31,553081,0.0-13.0-1.0,82873,List1B,black,woman,,,,null,,,,
null,are meeting each other,,html-keyboard-response,32,555086,0.0-13.0-2.0,82873,List1B,black,woman,,,,null,,,,
116707,,,survey-text,33,671796,0.0-13.0-3.0,82873,List1B,black,woman,,,,,"{""Q0"":""Beth and Luke are meeting each other.""}","<img src=""stim_listB/meet2.gif""</stim_listB>",are meeting each other,
null,"<div style=""font-size:60px;"">+</div>",,html-keyboard-response,34,672302,0.0-13.0-0.1,82873,List1B,black,woman,,,,null,,,,
null,"<img src=""stim_listB/marry3.gif""</stim_listB>",,html-keyboard-response,35,674304,0.0-13.0-1.1,82873,List1B,black,woman,,,,null,,,,
null,is marrying,,html-keyboard-response,36,676309,0.0-13.0-2.1,82873,List1B,black,woman,,,,null,,,,
11220,,,survey-text,37,687531,0.0-13.0-3.1,82873,List1B,black,woman,,,,,"{""Q0"":""Dave is marrying Ruth.""}","<img src=""stim_listB/marry3.gif""</stim_listB>",is marrying,
null,"<div style=""font-size:60px;"">+</div>",,html-keyboard-response,38,688036,0.0-13.0-0.2,82873,List1B,black,woman,,,,null,,,,
null,"<img src=""stim_listB/shout2.gif""</stim_listB>",,html-keyboard-response,39,690041,0.0-13.0-1.2,82873,List1B,black,woman,,,,null,,,,
null,are shouting at each other,,html-keyboard-response,40,692046,0.0-13.0-2.2,82873,List1B,black,woman,,,,null,,,,
15175,,,survey-text,41,707223,0.0-13.0-3.2,82873,List1B,black,woman,,,,,"{""Q0"":""Mike and Kate are shouting at eachother.""}","<img src=""stim_listB/shout2.gif""</stim_listB>",are shouting at each other,
null,"<div style=""font-size:60px;"">+</div>",,html-keyboard-response,42,707728,0.0-13.0-0.3,82873,List1B,black,woman,,,,null,,,,
null,"<img src=""stim_listB/marry8.gif""</stim_listB>",,html-keyboard-response,43,709734,0.0-13.0-1.3,82873,List1B,black,woman,,,,null,,,,
null,are marrying each other,,html-keyboard-response,44,711738,0.0-13.0-2.3,82873,List1B,black,woman,,,,null,,,,
14472,,,survey-text,45,726212,0.0-13.0-3.3,82873,List1B,black,woman,,,,,"{""Q0"":""Beth and Jane are marrying each other.""}","<img src=""stim_listB/marry8.gif""</stim_listB>",are marrying each other,
null,"<div style=""font-size:60px;"">+</div>",,html-keyboard-response,46,726715,0.0-13.0-0.4,82873,List1B,black,woman,,,,null,,,,
null,"<img src=""stim_listB/kiss1.gif""</stim_listB>",,html-keyboard-response,47,728720,0.0-13.0-1.4,82873,List1B,black,woman,,,,null,,,,
null,is kissing,,html-keyboard-response,48,730724,0.0-13.0-2.4,82873,List1B,black,woman,,,,null,,,,
35667,,,survey-text,49,766392,0.0-13.0-3.4,82873,List1B,black,woman,,,,,"{""Q0"":""Beth is kissing Fred.""}","<img src=""stim_listB/kiss1.gif""</stim_listB>",is kissing,
null,"<div style=""font-size:60px;"">+</div>",,html-keyboard-response,50,766897,0.0-13.0-0.5,82873,List1B,black,woman,,,,null,,,,
null,"<img src=""stim_listB/fight5.gif""</stim_listB>",,html-keyboard-response,51,768903,0.0-13.0-1.5,82873,List1B,black,woman,,,,null,,,,
null,is fighting,,html-keyboard-response,52,770907,0.0-13.0-2.5,82873,List1B,black,woman,,,,null,,,,
12868,,,survey-text,53,783777,0.0-13.0-3.5,82873,List1B,black,woman,,,,,"{""Q0"":""Dave is fighting Mike.""}","<img src=""stim_listB/fight5.gif""</stim_listB>",is fighting,
null,"<div style=""font-size:60px;"">+</div>",,html-keyboard-response,54,784280,0.0-13.0-0.6,82873,List1B,black,woman,,,,null,,,,
null,"<img src=""stim_listB/touch5.gif""</stim_listB>",,html-keyboard-response,55,786286,0.0-13.0-1.6,82873,List1B,black,woman,,,,null,,,,
null,is touching,,html-keyboard-response,56,788289,0.0-13.0-2.6,82873,List1B,black,woman,,,,null,,,,
7427,,,survey-text,57,795719,0.0-13.0-3.6,82873,List1B,black,woman,,,,,"{""Q0"":""Dave is touching Mike.""}","<img src=""stim_listB/touch5.gif""</stim_listB>",is touching,
null,"<div style=""font-size:60px;"">+</div>",,html-keyboard-response,58,796223,0.0-13.0-0.7,82873,List1B,black,woman,,,,null,,,,
null,"<img src=""stim_listB/shout3.gif""</stim_listB>",,html-keyboard-response,59,798229,0.0-13.0-1.7,82873,List1B,black,woman,,,,null,,,,
null,is shouting at,,html-keyboard-response,60,800233,0.0-13.0-2.7,82873,List1B,black,woman,,,,null,,,,
8671,,,survey-text,61,808906,0.0-13.0-3.7,82873,List1B,black,woman,,,,,"{""Q0"":""Ruth is shouting at Luke.""}","<img src=""stim_listB/shout3.gif""</stim_listB>",is shouting at,
null,"<div style=""font-size:60px;"">+</div>",,html-keyboard-response,62,809409,0.0-13.0-0.8,82873,List1B,black,woman,,,,null,,,,
null,"<img src=""stim_listB/hug7.gif""</stim_listB>",,html-keyboard-response,63,811416,0.0-13.0-1.8,82873,List1B,black,woman,,,,null,,,,
null,is hugging,,html-keyboard-response,64,813421,0.0-13.0-2.8,82873,List1B,black,woman,,,,null,,,,
7387,,,survey-text,65,820810,0.0-13.0-3.8,82873,List1B,black,woman,,,,,"{""Q0"":""Ruth is hugging Beth.""}","<img src=""stim_listB/hug7.gif""</stim_listB>",is hugging,
null,"<div style=""font-size:60px;"">+</div>",,html-keyboard-response,66,821316,0.0-13.0-0.9,82873,List1B,black,woman,,,,null,,,,
null,"<img src=""stim_listB/argue6.gif""</stim_listB>",,html-keyboard-response,67,823322,0.0-13.0-1.9,82873,List1B,black,woman,,,,null,,,,
null,are arguing with each other,,html-keyboard-response,68,825328,0.0-13.0-2.9,82873,List1B,black,woman,,,,null,,,,
11978,,,survey-text,69,837308,0.0-13.0-3.9,82873,List1B,black,woman,,,,,"{""Q0"":""Fred and Dave are arguing with each other.""}","<img src=""stim_listB/argue6.gif""</stim_listB>",are arguing with each other,
null,"<div style=""font-size:60px;"">+</div>",,html-keyboard-response,70,837812,0.0-13.0-0.10,82873,List1B,black,woman,,,,null,,,,
null,"<img src=""stim_listB/meet5.gif""</stim_listB>",,html-keyboard-response,71,839817,0.0-13.0-1.10,82873,List1B,black,woman,,,,null,,,,
null,is meeting,,html-keyboard-response,72,841819,0.0-13.0-2.10,82873,List1B,black,woman,,,,null,,,,
6280,,,survey-text,73,848102,0.0-13.0-3.10,82873,List1B,black,woman,,,,,"{""Q0"":""Dave is meeting Mike.""}","<img src=""stim_listB/meet5.gif""</stim_listB>",is meeting,
null,"<div style=""font-size:60px;"">+</div>",,html-keyboard-response,74,848606,0.0-13.0-0.11,82873,List1B,black,woman,,,,null,,,,
null,"<img src=""stim_listB/shout6.gif""</stim_listB>",,html-keyboard-response,75,850613,0.0-13.0-1.11,82873,List1B,black,woman,,,,null,,,,
null,are shouting at each other,,html-keyboard-response,76,852616,0.0-13.0-2.11,82873,List1B,black,woman,,,,null,,,,
12383,,,survey-text,77,865001,0.0-13.0-3.11,82873,List1B,black,woman,,,,,"{""Q0"":""Mike and Dave are shouting at each other.""}","<img src=""stim_listB/shout6.gif""</stim_listB>",are shouting at each other,
null,"<div style=""font-size:60px;"">+</div>",,html-keyboard-response,78,865506,0.0-13.0-0.12,82873,List1B,black,woman,,,,null,,,,
null,"<img src=""stim_listB/touch8.gif""</stim_listB>",,html-keyboard-response,79,867511,0.0-13.0-1.12,82873,List1B,black,woman,,,,null,,,,
null,are touching each other,,html-keyboard-response,80,869515,0.0-13.0-2.12,82873,List1B,black,woman,,,,null,,,,
12692,,,survey-text,81,882209,0.0-13.0-3.12,82873,List1B,black,woman,,,,,"{""Q0"":""Beth and Ruth are touching each other.""}","<img src=""stim_listB/touch8.gif""</stim_listB>",are touching each other,
null,"<div style=""font-size:60px;"">+</div>",,html-keyboard-response,82,882711,0.0-13.0-0.13,82873,List1B,black,woman,,,,null,,,,
null,"<img src=""stim_listB/fight8.gif""</stim_listB>",,html-keyboard-response,83,884717,0.0-13.0-1.13,82873,List1B,black,woman,,,,null,,,,
null,are fighting each other,,html-keyboard-response,84,886720,0.0-13.0-2.13,82873,List1B,black,woman,,,,null,,,,
17065,,,survey-text,85,903787,0.0-13.0-3.13,82873,List1B,black,woman,,,,,"{""Q0"":""Beth and Ruth are fighting each other.""}","<img src=""stim_listB/fight8.gif""</stim_listB>",are fighting each other,
null,"<div style=""font-size:60px;"">+</div>",,html-keyboard-response,86,904292,0.0-13.0-0.14,82873,List1B,black,woman,,,,null,,,,
null,"<img src=""stim_listB/dance3.gif""</stim_listB>",,html-keyboard-response,87,906299,0.0-13.0-1.14,82873,List1B,black,woman,,,,null,,,,
null,is dancing with,,html-keyboard-response,88,908301,0.0-13.0-2.14,82873,List1B,black,woman,,,,null,,,,
7601,,,survey-text,89,915905,0.0-13.0-3.14,82873,List1B,black,woman,,,,,"{""Q0"":""Jane is dancing with Luke.""}","<img src=""stim_listB/dance3.gif""</stim_listB>",is dancing with,
null,"<div style=""font-size:60px;"">+</div>",,html-keyboard-response,90,916411,0.0-13.0-0.15,82873,List1B,black,woman,,,,null,,,,
null,"<img src=""stim_listB/fight1.gif""</stim_listB>",,html-keyboard-response,91,918417,0.0-13.0-1.15,82873,List1B,black,woman,,,,null,,,,
null,is fighting,,html-keyboard-response,92,920421,0.0-13.0-2.15,82873,List1B,black,woman,,,,null,,,,
7041,,,survey-text,93,927464,0.0-13.0-3.15,82873,List1B,black,woman,,,,,"{""Q0"":""Kate is fighting Mike.""}","<img src=""stim_listB/fight1.gif""</stim_listB>",is fighting,
null,"<div style=""font-size:60px;"">+</div>",,html-keyboard-response,94,927967,0.0-13.0-0.16,82873,List1B,black,woman,,,,null,,,,
null,"<img src=""stim_listB/argue2.gif""</stim_listB>",,html-keyboard-response,95,929975,0.0-13.0-1.16,82873,List1B,black,woman,,,,null,,,,
null,are arguing with each other,,html-keyboard-response,96,931977,0.0-13.0-2.16,82873,List1B,black,woman,,,,null,,,,
13101,,,survey-text,97,945079,0.0-13.0-3.16,82873,List1B,black,woman,,,,,"{""Q0"":""Fred and Kate are arguing with each other.""}","<img src=""stim_listB/argue2.gif""</stim_listB>",are arguing with each other,
null,"<div style=""font-size:60px;"">+</div>",,html-keyboard-response,98,945582,0.0-13.0-0.17,82873,List1B,black,woman,,,,null,,,,
null,"<img src=""stim_listB/fight2.gif""</stim_listB>",,html-keyboard-response,99,947588,0.0-13.0-1.17,82873,List1B,black,woman,,,,null,,,,
null,are fighting each other,,html-keyboard-response,100,949591,0.0-13.0-2.17,82873,List1B,black,woman,,,,null,,,,
17492,,,survey-text,101,967086,0.0-13.0-3.17,82873,List1B,black,woman,,,,,"{""Q0"":""Fred and Beth are fighting with each other.""}","<img src=""stim_listB/fight2.gif""</stim_listB>",are fighting each other,
null,"<div style=""font-size:60px;"">+</div>",,html-keyboard-response,102,967589,0.0-13.0-0.18,82873,List1B,black,woman,,,,null,,,,
null,"<img src=""stim_listB/shout4.gif""</stim_listB>",,html-keyboard-response,103,969594,0.0-13.0-1.18,82873,List1B,black,woman,,,,null,,,,
null,are shouting at each other,,html-keyboard-response,104,971597,0.0-13.0-2.18,82873,List1B,black,woman,,,,null,,,,
13547,,,survey-text,105,985145,0.0-13.0-3.18,82873,List1B,black,woman,,,,,"{""Q0"":""Dave and Jane are shouting at each other.""}","<img src=""stim_listB/shout4.gif""</stim_listB>",are shouting at each other,
null,"<div style=""font-size:60px;"">+</div>",,html-keyboard-response,106,985649,0.0-13.0-0.19,82873,List1B,black,woman,,,,null,,,,
null,"<img src=""stim_listB/dance8.gif""</stim_listB>",,html-keyboard-response,107,987655,0.0-13.0-1.19,82873,List1B,black,woman,,,,null,,,,
null,are dancing with each other,,html-keyboard-response,108,989659,0.0-13.0-2.19,82873,List1B,black,woman,,,,null,,,,
17552,,,survey-text,109,1007213,0.0-13.0-3.19,82873,List1B,black,woman,,,,,"{""Q0"":""Kate and Ruth are dancing with each other.""}","<img src=""stim_listB/dance8.gif""</stim_listB>",are dancing with each other,
19297,"<img src='img/portrait_matrix_list1.JPG' style='width:900px;height:500px;''></img><p>If you have memorised all the portraits and names and are ready to start, press Continue.</p><p><strong>Please note: Your memory of these faces will be tested 4 times during this experiment.</strong></p>",0,html-button-response,110,1026511,0.0-14.0-0.0,82873,List1B,black,woman,,,,,,,,
3033,"<img src=""portrait/BM1.jpg""style=""width:400px;height:400px;""></img>",4,html-button-response,111,1030552,0.0-14.0-1.0,82873,List1B,black,woman,,TRUE,4,,,,,
null,CORRECT,,html-keyboard-response,112,1032059,0.0-14.0-2.0-0.0,82873,List1B,black,woman,,,,null,,,,
1861,"<img src=""portrait/WM2.jpg""style=""width:400px;height:400px;""></img>",7,html-button-response,113,1033924,0.0-14.0-4.0,82873,List1B,black,woman,,TRUE,7,,,,,
null,CORRECT,,html-keyboard-response,114,1035431,0.0-14.0-5.0-0.0,82873,List1B,black,woman,,,,null,,,,
2293,"<img src=""portrait/BW1.jpg""style=""width:400px;height:400px;""></img>",0,html-button-response,115,1037726,0.0-14.0-7.0,82873,List1B,black,woman,,TRUE,0,,,,,
null,CORRECT,,html-keyboard-response,116,1039237,0.0-14.0-8.0-0.0,82873,List1B,black,woman,,,,null,,,,
2848,"<img src=""portrait/WM1.jpg""style=""width:400px;height:400px;""></img>",6,html-button-response,117,1042088,0.0-14.0-10.0,82873,List1B,black,woman,,TRUE,6,,,,,
null,CORRECT,,html-keyboard-response,118,1043597,0.0-14.0-11.0-0.0,82873,List1B,black,woman,,,,null,,,,
2201,"<img src=""portrait/WW1.jpg""style=""width:400px;height:400px;""></img>",1,html-button-response,119,1045801,0.0-14.0-13.0,82873,List1B,black,woman,,TRUE,1,,,,,
null,CORRECT,,html-keyboard-response,120,1047308,0.0-14.0-14.0-0.0,82873,List1B,black,woman,,,,null,,,,
2554,"<img src=""portrait/BM2.jpg""style=""width:400px;height:400px;""></img>",5,html-button-response,121,1049866,0.0-14.0-16.0,82873,List1B,black,woman,,TRUE,5,,,,,
null,CORRECT,,html-keyboard-response,122,1051370,0.0-14.0-17.0-0.0,82873,List1B,black,woman,,,,null,,,,
3378,"<img src=""portrait/BW2.jpg""style=""width:400px;height:400px;""></img>",2,html-button-response,123,1054751,0.0-14.0-19.0,82873,List1B,black,woman,,TRUE,2,,,,,
null,CORRECT,,html-keyboard-response,124,1056259,0.0-14.0-20.0-0.0,82873,List1B,black,woman,,,,null,,,,
1866,"<img src=""portrait/WW2.jpg""style=""width:400px;height:400px;""></img>",3,html-button-response,125,1058128,0.0-14.0-22.0,82873,List1B,black,woman,,TRUE,3,,,,,
null,CORRECT,,html-keyboard-response,126,1059636,0.0-14.0-23.0-0.0,82873,List1B,black,woman,,,,null,,,,
1750,<p>You got 8 out of 8 right first time. Press Continue.</p>,0,html-button-response,127,1061389,0.0-14.0-25.0,82873,List1B,black,woman,,,,,,,,
null,"<div style=""font-size:60px;"">+</div>",,html-keyboard-response,128,1062902,0.0-15.0-0.0,82873,List1B,black,woman,,,,null,,,,
null,"<img src=""stim_listB/kiss3.gif""</stim_listB>",,html-keyboard-response,129,1064906,0.0-15.0-1.0,82873,List1B,black,woman,,,,null,,,,
null,is kissing,,html-keyboard-response,130,1066910,0.0-15.0-2.0,82873,List1B,black,woman,,,,null,,,,
13490,,,survey-text,131,1080401,0.0-15.0-3.0,82873,List1B,black,woman,,,,,"{""Q0"":""Ruth is kissing Luke.""}","<img src=""stim_listB/kiss3.gif""</stim_listB>",is kissing,
null,"<div style=""font-size:60px;"">+</div>",,html-keyboard-response,132,1080906,0.0-15.0-0.1,82873,List1B,black,woman,,,,null,,,,
null,"<img src=""stim_listB/argue7.gif""</stim_listB>",,html-keyboard-response,133,1082911,0.0-15.0-1.1,82873,List1B,black,woman,,,,null,,,,
null,is arguing with,,html-keyboard-response,134,1084915,0.0-15.0-2.1,82873,List1B,black,woman,,,,null,,,,
10031,,,survey-text,135,1094947,0.0-15.0-3.1,82873,List1B,black,woman,,,,,"{""Q0"":""Ruth is arguing with Kate.""}","<img src=""stim_listB/argue7.gif""</stim_listB>",is arguing with,
null,"<div style=""font-size:60px;"">+</div>",,html-keyboard-response,136,1095453,0.0-15.0-0.2,82873,List1B,black,woman,,,,null,,,,
null,"<img src=""stim_listB/shout7.gif""</stim_listB>",,html-keyboard-response,137,1097458,0.0-15.0-1.2,82873,List1B,black,woman,,,,null,,,,
null,is shouting at,,html-keyboard-response,138,1099461,0.0-15.0-2.2,82873,List1B,black,woman,,,,null,,,,
9267,,,survey-text,139,1108730,0.0-15.0-3.2,82873,List1B,black,woman,,,,,"{""Q0"":""Ruth is shouting at Beth.""}","<img src=""stim_listB/shout7.gif""</stim_listB>",is shouting at,
null,"<div style=""font-size:60px;"">+</div>",,html-keyboard-response,140,1109234,0.0-15.0-0.3,82873,List1B,black,woman,,,,null,,,,
null,"<img src=""stim_listB/marry1.gif""</stim_listB>",,html-keyboard-response,141,1111241,0.0-15.0-1.3,82873,List1B,black,woman,,,,null,,,,
null,is marrying,,html-keyboard-response,142,1113243,0.0-15.0-2.3,82873,List1B,black,woman,,,,null,,,,
8499,,,survey-text,143,1121744,0.0-15.0-3.3,82873,List1B,black,woman,,,,,"{""Q0"":""Beth is marrying Mike.""}","<img src=""stim_listB/marry1.gif""</stim_listB>",is marrying,
null,"<div style=""font-size:60px;"">+</div>",,html-keyboard-response,144,1122249,0.0-15.0-0.4,82873,List1B,black,woman,,,,null,,,,
null,"<img src=""stim_listB/marry5.gif""</stim_listB>",,html-keyboard-response,145,1124255,0.0-15.0-1.4,82873,List1B,black,woman,,,,null,,,,
null,is marrying,,html-keyboard-response,146,1126258,0.0-15.0-2.4,82873,List1B,black,woman,,,,null,,,,
6385,,,survey-text,147,1132645,0.0-15.0-3.4,82873,List1B,black,woman,,,,,"{""Q0"":""Mike is marrying Luke.""}","<img src=""stim_listB/marry5.gif""</stim_listB>",is marrying,
null,"<div style=""font-size:60px;"">+</div>",,html-keyboard-response,148,1133149,0.0-15.0-0.5,82873,List1B,black,woman,,,,null,,,,
null,"<img src=""stim_listB/talk6.gif""</stim_listB>",,html-keyboard-response,149,1135156,0.0-15.0-1.5,82873,List1B,black,woman,,,,null,,,,
null,are talking to each other,,html-keyboard-response,150,1137161,0.0-15.0-2.5,82873,List1B,black,woman,,,,null,,,,
16067,,,survey-text,151,1153231,0.0-15.0-3.5,82873,List1B,black,woman,,,,,"{""Q0"":""Mike and Luke are talking to each other.""}","<img src=""stim_listB/talk6.gif""</stim_listB>",are talking to each other,
null,"<div style=""font-size:60px;"">+</div>",,html-keyboard-response,152,1153735,0.0-15.0-0.6,82873,List1B,black,woman,,,,null,,,,
null,"<img src=""stim_listB/touch7.gif""</stim_listB>",,html-keyboard-response,153,1155739,0.0-15.0-1.6,82873,List1B,black,woman,,,,null,,,,
null,is touching,,html-keyboard-response,154,1157743,0.0-15.0-2.6,82873,List1B,black,woman,,,,null,,,,
10302,,,survey-text,155,1168046,0.0-15.0-3.6,82873,List1B,black,woman,,,,,"{""Q0"":""Kate is touching Jane.""}","<img src=""stim_listB/touch7.gif""</stim_listB>",is touching,
null,"<div style=""font-size:60px;"">+</div>",,html-keyboard-response,156,1168551,0.0-15.0-0.7,82873,List1B,black,woman,,,,null,,,,
null,"<img src=""stim_listB/touch2.gif""</stim_listB>",,html-keyboard-response,157,1170558,0.0-15.0-1.7,82873,List1B,black,woman,,,,null,,,,
null,are touching each other,,html-keyboard-response,158,1172560,0.0-15.0-2.7,82873,List1B,black,woman,,,,null,,,,
13835,,,survey-text,159,1186398,0.0-15.0-3.7,82873,List1B,black,woman,,,,,"{""Q0"":""Fred and Beth are touching each other.""}","<img src=""stim_listB/touch2.gif""</stim_listB>",are touching each other,
null,"<div style=""font-size:60px;"">+</div>",,html-keyboard-response,160,1186903,0.0-15.0-0.8,82873,List1B,black,woman,,,,null,,,,
null,"<img src=""stim_listB/argue3.gif""</stim_listB>",,html-keyboard-response,161,1188910,0.0-15.0-1.8,82873,List1B,black,woman,,,,null,,,,
null,is arguing with,,html-keyboard-response,162,1190915,0.0-15.0-2.8,82873,List1B,black,woman,,,,null,,,,
10274,,,survey-text,163,1201191,0.0-15.0-3.8,82873,List1B,black,woman,,,,,"{""Q0"":""Ruth is arguing with Dave.""}","<img src=""stim_listB/argue3.gif""</stim_listB>",is arguing with,
null,"<div style=""font-size:60px;"">+</div>",,html-keyboard-response,164,1201695,0.0-15.0-0.9,82873,List1B,black,woman,,,,null,,,,
null,"<img src=""stim_listB/argue8.gif""</stim_listB>",,html-keyboard-response,165,1203700,0.0-15.0-1.9,82873,List1B,black,woman,,,,null,,,,
null,are arguing with each other,,html-keyboard-response,166,1205704,0.0-15.0-2.9,82873,List1B,black,woman,,,,null,,,,
16287,,,survey-text,167,1221994,0.0-15.0-3.9,82873,List1B,black,woman,,,,,"{""Q0"":""Beth and Jane are arguing with each other.""}","<img src=""stim_listB/argue8.gif""</stim_listB>",are arguing with each other,
null,"<div style=""font-size:60px;"">+</div>",,html-keyboard-response,168,1222498,0.0-15.0-0.10,82873,List1B,black,woman,,,,null,,,,
null,"<img src=""stim_listB/fight3.gif""</stim_listB>",,html-keyboard-response,169,1224503,0.0-15.0-1.10,82873,List1B,black,woman,,,,null,,,,
null,is fighting,,html-keyboard-response,170,1226507,0.0-15.0-2.10,82873,List1B,black,woman,,,,null,,,,
9535,,,survey-text,171,1236045,0.0-15.0-3.10,82873,List1B,black,woman,,,,,"{""Q0"":""Jane is fighting Dave.""}","<img src=""stim_listB/fight3.gif""</stim_listB>",is fighting,
null,"<div style=""font-size:60px;"">+</div>",,html-keyboard-response,172,1236548,0.0-15.0-0.11,82873,List1B,black,woman,,,,null,,,,
null,"<img src=""stim_listB/talk1.gif""</stim_listB>",,html-keyboard-response,173,1238555,0.0-15.0-1.11,82873,List1B,black,woman,,,,null,,,,
null,is talking to,,html-keyboard-response,174,1240561,0.0-15.0-2.11,82873,List1B,black,woman,,,,null,,,,
10104,,,survey-text,175,1250667,0.0-15.0-3.11,82873,List1B,black,woman,,,,,"{""Q0"":""Kate is talking to Fred.""}","<img src=""stim_listB/talk1.gif""</stim_listB>",is talking to,
null,"<div style=""font-size:60px;"">+</div>",,html-keyboard-response,176,1251171,0.0-15.0-0.12,82873,List1B,black,woman,,,,null,,,,
null,"<img src=""stim_listB/kiss2.gif""</stim_listB>",,html-keyboard-response,177,1253175,0.0-15.0-1.12,82873,List1B,black,woman,,,,null,,,,
null,are kissing each other,,html-keyboard-response,178,1255179,0.0-15.0-2.12,82873,List1B,black,woman,,,,null,,,,
9496,,,survey-text,179,1264677,0.0-15.0-3.12,82873,List1B,black,woman,,,,,"{""Q0"":""Mike and Kate are kissing each other.""}","<img src=""stim_listB/kiss2.gif""</stim_listB>",are kissing each other,
null,"<div style=""font-size:60px;"">+</div>",,html-keyboard-response,180,1265180,0.0-15.0-0.13,82873,List1B,black,woman,,,,null,,,,
null,"<img src=""stim_listB/marry7.gif""</stim_listB>",,html-keyboard-response,181,1267186,0.0-15.0-1.13,82873,List1B,black,woman,,,,null,,,,
null,is marrying,,html-keyboard-response,182,1269191,0.0-15.0-2.13,82873,List1B,black,woman,,,,null,,,,
9987,,,survey-text,183,1279180,0.0-15.0-3.13,82873,List1B,black,woman,,,,,"{""Q0"":""Ruth is marrying Kate.""}","<img src=""stim_listB/marry7.gif""</stim_listB>",is marrying,
null,"<div style=""font-size:60px;"">+</div>",,html-keyboard-response,184,1279685,0.0-15.0-0.14,82873,List1B,black,woman,,,,null,,,,
null,"<img src=""stim_listB/dance6.gif""</stim_listB>",,html-keyboard-response,185,1281689,0.0-15.0-1.14,82873,List1B,black,woman,,,,null,,,,
null,are dancing with each other,,html-keyboard-response,186,1283694,0.0-15.0-2.14,82873,List1B,black,woman,,,,null,,,,
10662,,,survey-text,187,1294359,0.0-15.0-3.14,82873,List1B,black,woman,,,,,"{""Q0"":""Mike and Luke are dancing with each other.""}","<img src=""stim_listB/dance6.gif""</stim_listB>",are dancing with each other,
null,"<div style=""font-size:60px;"">+</div>",,html-keyboard-response,188,1294863,0.0-15.0-0.15,82873,List1B,black,woman,,,,null,,,,
null,"<img src=""stim_listB/argue5.gif""</stim_listB>",,html-keyboard-response,189,1296868,0.0-15.0-1.15,82873,List1B,black,woman,,,,null,,,,
null,is arguing with,,html-keyboard-response,190,1298875,0.0-15.0-2.15,82873,List1B,black,woman,,,,null,,,,
22024,,,survey-text,191,1320900,0.0-15.0-3.15,82873,List1B,black,woman,,,,,"{""Q0"":""Luke is arguing with Mike.""}","<img src=""stim_listB/argue5.gif""</stim_listB>",is arguing with,
null,"<div style=""font-size:60px;"">+</div>",,html-keyboard-response,192,1321404,0.0-15.0-0.16,82873,List1B,black,woman,,,,null,,,,
null,"<img src=""stim_listB/kiss8.gif""</stim_listB>",,html-keyboard-response,193,1323411,0.0-15.0-1.16,82873,List1B,black,woman,,,,null,,,,
null,are kissing each other,,html-keyboard-response,194,1325415,0.0-15.0-2.16,82873,List1B,black,woman,,,,null,,,,
18820,,,survey-text,195,1344238,0.0-15.0-3.16,82873,List1B,black,woman,,,,,"{""Q0"":""Kate and Jane are kissing each other.""}","<img src=""stim_listB/kiss8.gif""</stim_listB>",are kissing each other,
null,"<div style=""font-size:60px;"">+</div>",,html-keyboard-response,196,1344742,0.0-15.0-0.17,82873,List1B,black,woman,,,,null,,,,
null,"<img src=""stim_listB/shout8.gif""</stim_listB>",,html-keyboard-response,197,1346747,0.0-15.0-1.17,82873,List1B,black,woman,,,,null,,,,
null,are shouting at each other,,html-keyboard-response,198,1348751,0.0-15.0-2.17,82873,List1B,black,woman,,,,null,,,,
13581,,,survey-text,199,1362334,0.0-15.0-3.17,82873,List1B,black,woman,,,,,"{""Q0"":""Kate and Jane are shouting at each other.""}","<img src=""stim_listB/shout8.gif""</stim_listB>",are shouting at each other,
null,"<div style=""font-size:60px;"">+</div>",,html-keyboard-response,200,1362839,0.0-15.0-0.18,82873,List1B,black,woman,,,,null,,,,
null,"<img src=""stim_listB/talk5.gif""</stim_listB>",,html-keyboard-response,201,1364844,0.0-15.0-1.18,82873,List1B,black,woman,,,,null,,,,
null,is talking to,,html-keyboard-response,202,1366849,0.0-15.0-2.18,82873,List1B,black,woman,,,,null,,,,
7449,,,survey-text,203,1374300,0.0-15.0-3.18,82873,List1B,black,woman,,,,,"{""Q0"":""Dave is talking to Fred.""}","<img src=""stim_listB/talk5.gif""</stim_listB>",is talking to,
null,"<div style=""font-size:60px;"">+</div>",,html-keyboard-response,204,1374802,0.0-15.0-0.19,82873,List1B,black,woman,,,,null,,,,
null,"<img src=""stim_listB/dance5.gif""</stim_listB>",,html-keyboard-response,205,1376809,0.0-15.0-1.19,82873,List1B,black,woman,,,,null,,,,
null,is dancing with,,html-keyboard-response,206,1378812,0.0-15.0-2.19,82873,List1B,black,woman,,,,null,,,,
8005,,,survey-text,207,1386819,0.0-15.0-3.19,82873,List1B,black,woman,,,,,"{""Q0"":""Dave is dancing with Fred.""}","<img src=""stim_listB/dance5.gif""</stim_listB>",is dancing with,
35933,"<img src='img/portrait_matrix_list1.JPG' style='width:900px;height:500px;''></img><p>If you have memorised all the portraits and names and are ready to start, press Continue.</p><p><strong>Please note: Your memory of these faces will be tested 4 times during this experiment.</strong></p>",0,html-button-response,208,1422754,0.0-16.0-0.0,82873,List1B,black,woman,,,,,,,,
1976,"<img src=""portrait/WW2.jpg""style=""width:400px;height:400px;""></img>",3,html-button-response,209,1425738,0.0-16.0-1.0,82873,List1B,black,woman,,TRUE,3,,,,,
null,CORRECT,,html-keyboard-response,210,1427247,0.0-16.0-2.0-0.0,82873,List1B,black,woman,,,,null,,,,
2496,"<img src=""portrait/WW1.jpg""style=""width:400px;height:400px;""></img>",1,html-button-response,211,1429745,0.0-16.0-4.0,82873,List1B,black,woman,,TRUE,1,,,,,
null,CORRECT,,html-keyboard-response,212,1431252,0.0-16.0-5.0-0.0,82873,List1B,black,woman,,,,null,,,,
2063,"<img src=""portrait/BM2.jpg""style=""width:400px;height:400px;""></img>",5,html-button-response,213,1433319,0.0-16.0-7.0,82873,List1B,black,woman,,TRUE,5,,,,,
null,CORRECT,,html-keyboard-response,214,1434825,0.0-16.0-8.0-0.0,82873,List1B,black,woman,,,,null,,,,
3037,"<img src=""portrait/WM1.jpg""style=""width:400px;height:400px;""></img>",6,html-button-response,215,1437866,0.0-16.0-10.0,82873,List1B,black,woman,,TRUE,6,,,,,
null,CORRECT,,html-keyboard-response,216,1439373,0.0-16.0-11.0-0.0,82873,List1B,black,woman,,,,null,,,,
2593,"<img src=""portrait/BW2.jpg""style=""width:400px;height:400px;""></img>",2,html-button-response,217,1441969,0.0-16.0-13.0,82873,List1B,black,woman,,TRUE,2,,,,,
null,CORRECT,,html-keyboard-response,218,1443476,0.0-16.0-14.0-0.0,82873,List1B,black,woman,,,,null,,,,
2876,"<img src=""portrait/BM1.jpg""style=""width:400px;height:400px;""></img>",4,html-button-response,219,1446355,0.0-16.0-16.0,82873,List1B,black,woman,,TRUE,4,,,,,
null,CORRECT,,html-keyboard-response,220,1447860,0.0-16.0-17.0-0.0,82873,List1B,black,woman,,,,null,,,,
2060,"<img src=""portrait/BW1.jpg""style=""width:400px;height:400px;""></img>",0,html-button-response,221,1449923,0.0-16.0-19.0,82873,List1B,black,woman,,TRUE,0,,,,,
null,CORRECT,,html-keyboard-response,222,1451429,0.0-16.0-20.0-0.0,82873,List1B,black,woman,,,,null,,,,
2295,"<img src=""portrait/WM2.jpg""style=""width:400px;height:400px;""></img>",7,html-button-response,223,1453728,0.0-16.0-22.0,82873,List1B,black,woman,,TRUE,7,,,,,
null,CORRECT,,html-keyboard-response,224,1455237,0.0-16.0-23.0-0.0,82873,List1B,black,woman,,,,null,,,,
2181,<p>You got 8 out of 8 right first time. Press Continue.</p>,0,html-button-response,225,1457421,0.0-16.0-25.0,82873,List1B,black,woman,,,,,,,,
null,"<div style=""font-size:60px;"">+</div>",,html-keyboard-response,226,1458927,0.0-17.0-0.0,82873,List1B,black,woman,,,,null,,,,
null,"<img src=""stim_listB/hug2.gif""</stim_listB>",,html-keyboard-response,227,1460934,0.0-17.0-1.0,82873,List1B,black,woman,,,,null,,,,
null,are hugging each other,,html-keyboard-response,228,1462941,0.0-17.0-2.0,82873,List1B,black,woman,,,,null,,,,
16956,,,survey-text,229,1479901,0.0-17.0-3.0,82873,List1B,black,woman,,,,,"{""Q0"":""Mike and Kate are hugging each other.""}","<img src=""stim_listB/hug2.gif""</stim_listB>",are hugging each other,
null,"<div style=""font-size:60px;"">+</div>",,html-keyboard-response,230,1480406,0.0-17.0-0.1,82873,List1B,black,woman,,,,null,,,,
null,"<img src=""stim_listB/hug3.gif""</stim_listB>",,html-keyboard-response,231,1482410,0.0-17.0-1.1,82873,List1B,black,woman,,,,null,,,,
null,is hugging,,html-keyboard-response,232,1484413,0.0-17.0-2.1,82873,List1B,black,woman,,,,null,,,,
6942,,,survey-text,233,1491356,0.0-17.0-3.1,82873,List1B,black,woman,,,,,"{""Q0"":""Ruth is hugging Luke.""}","<img src=""stim_listB/hug3.gif""</stim_listB>",is hugging,
null,"<div style=""font-size:60px;"">+</div>",,html-keyboard-response,234,1491859,0.0-17.0-0.2,82873,List1B,black,woman,,,,null,,,,
null,"<img src=""stim_listB/meet7.gif""</stim_listB>",,html-keyboard-response,235,1493863,0.0-17.0-1.2,82873,List1B,black,woman,,,,null,,,,
null,is meeting,,html-keyboard-response,236,1495865,0.0-17.0-2.2,82873,List1B,black,woman,,,,null,,,,
7326,,,survey-text,237,1503193,0.0-17.0-3.2,82873,List1B,black,woman,,,,,"{""Q0"":""Jane is meeting Kate.""}","<img src=""stim_listB/meet7.gif""</stim_listB>",is meeting,
null,"<div style=""font-size:60px;"">+</div>",,html-keyboard-response,238,1503698,0.0-17.0-0.3,82873,List1B,black,woman,,,,null,,,,
null,"<img src=""stim_listB/marry2.gif""</stim_listB>",,html-keyboard-response,239,1505705,0.0-17.0-1.3,82873,List1B,black,woman,,,,null,,,,
null,are marrying each other,,html-keyboard-response,240,1507710,0.0-17.0-2.3,82873,List1B,black,woman,,,,null,,,,
9165,,,survey-text,241,1516877,0.0-17.0-3.3,82873,List1B,black,woman,,,,,"{""Q0"":""Fred and Kate are marrying each other.""}","<img src=""stim_listB/marry2.gif""</stim_listB>",are marrying each other,
null,"<div style=""font-size:60px;"">+</div>",,html-keyboard-response,242,1517382,0.0-17.0-0.4,82873,List1B,black,woman,,,,null,,,,
null,"<img src=""stim_listB/marry6.gif""</stim_listB>",,html-keyboard-response,243,1519389,0.0-17.0-1.4,82873,List1B,black,woman,,,,null,,,,
null,are marrying each other,,html-keyboard-response,244,1521394,0.0-17.0-2.4,82873,List1B,black,woman,,,,null,,,,
10143,,,survey-text,245,1531540,0.0-17.0-3.4,82873,List1B,black,woman,,,,,"{""Q0"":""Fred and Dave are marrying each other.""}","<img src=""stim_listB/marry6.gif""</stim_listB>",are marrying each other,
null,"<div style=""font-size:60px;"">+</div>",,html-keyboard-response,246,1532044,0.0-17.0-0.5,82873,List1B,black,woman,,,,null,,,,
null,"<img src=""stim_listB/fight4.gif""</stim_listB>",,html-keyboard-response,247,1534049,0.0-17.0-1.5,82873,List1B,black,woman,,,,null,,,,
null,are fighting each other,,html-keyboard-response,248,1536054,0.0-17.0-2.5,82873,List1B,black,woman,,,,null,,,,
11878,,,survey-text,249,1547935,0.0-17.0-3.5,82873,List1B,black,woman,,,,,"{""Q0"":""Ruth and Luke are fighting each other.""}","<img src=""stim_listB/fight4.gif""</stim_listB>",are fighting each other,
null,"<div style=""font-size:60px;"">+</div>",,html-keyboard-response,250,1548438,0.0-17.0-0.6,82873,List1B,black,woman,,,,null,,,,
null,"<img src=""stim_listB/hug1.gif""</stim_listB>",,html-keyboard-response,251,1550442,0.0-17.0-1.6,82873,List1B,black,woman,,,,null,,,,
null,is hugging,,html-keyboard-response,252,1552446,0.0-17.0-2.6,82873,List1B,black,woman,,,,null,,,,
13849,,,survey-text,253,1566297,0.0-17.0-3.6,82873,List1B,black,woman,,,,,"{""Q0"":""Beth is hugging Fred.""}","<img src=""stim_listB/hug1.gif""</stim_listB>",is hugging,
null,"<div style=""font-size:60px;"">+</div>",,html-keyboard-response,254,1566799,0.0-17.0-0.7,82873,List1B,black,woman,,,,null,,,,
null,"<img src=""stim_listB/meet6.gif""</stim_listB>",,html-keyboard-response,255,1568806,0.0-17.0-1.7,82873,List1B,black,woman,,,,null,,,,
null,are meeting each other,,html-keyboard-response,256,1570810,0.0-17.0-2.7,82873,List1B,black,woman,,,,null,,,,
9460,,,survey-text,257,1580271,0.0-17.0-3.7,82873,List1B,black,woman,,,,,"{""Q0"":""Fred and Luke are meeting each other.""}","<img src=""stim_listB/meet6.gif""</stim_listB>",are meeting each other,
null,"<div style=""font-size:60px;"">+</div>",,html-keyboard-response,258,1580776,0.0-17.0-0.8,82873,List1B,black,woman,,,,null,,,,
null,"<img src=""stim_listB/dance2.gif""</stim_listB>",,html-keyboard-response,259,1582783,0.0-17.0-1.8,82873,List1B,black,woman,,,,null,,,,
null,are dancing with each other,,html-keyboard-response,260,1584789,0.0-17.0-2.8,82873,List1B,black,woman,,,,null,,,,
13898,,,survey-text,261,1598690,0.0-17.0-3.8,82873,List1B,black,woman,,,,,"{""Q0"":""Mike and Beth are dancing with each other.""}","<img src=""stim_listB/dance2.gif""</stim_listB>",are dancing with each other,
null,"<div style=""font-size:60px;"">+</div>",,html-keyboard-response,262,1599196,0.0-17.0-0.9,82873,List1B,black,woman,,,,null,,,,
null,"<img src=""stim_listB/hug4.gif""</stim_listB>",,html-keyboard-response,263,1601200,0.0-17.0-1.9,82873,List1B,black,woman,,,,null,,,,
null,are hugging each other,,html-keyboard-response,264,1603202,0.0-17.0-2.9,82873,List1B,black,woman,,,,null,,,,
19908,,,survey-text,265,1623113,0.0-17.0-3.9,82873,List1B,black,woman,,,,,"{""Q0"":""Dave and Jane are dancing with each other.""}","<img src=""stim_listB/hug4.gif""</stim_listB>",are hugging each other,
null,"<div style=""font-size:60px;"">+</div>",,html-keyboard-response,266,1623617,0.0-17.0-0.10,82873,List1B,black,woman,,,,null,,,,
null,"<img src=""stim_listB/talk4.gif""</stim_listB>",,html-keyboard-response,267,1625624,0.0-17.0-1.10,82873,List1B,black,woman,,,,null,,,,
null,are talking to each other,,html-keyboard-response,268,1627628,0.0-17.0-2.10,82873,List1B,black,woman,,,,null,,,,
29010,,,survey-text,269,1656640,0.0-17.0-3.10,82873,List1B,black,woman,,,,,"{""Q0"":""Ruth and Dave are talking to each other.""}","<img src=""stim_listB/talk4.gif""</stim_listB>",are talking to each other,
null,"<div style=""font-size:60px;"">+</div>",,html-keyboard-response,270,1657145,0.0-17.0-0.11,82873,List1B,black,woman,,,,null,,,,
null,"<img src=""stim_listB/talk2.gif""</stim_listB>",,html-keyboard-response,271,1659152,0.0-17.0-1.11,82873,List1B,black,woman,,,,null,,,,
null,are talking to each other,,html-keyboard-response,272,1661158,0.0-17.0-2.11,82873,List1B,black,woman,,,,null,,,,
10539,,,survey-text,273,1671698,0.0-17.0-3.11,82873,List1B,black,woman,,,,,"{""Q0"":""Mike and Beth are talking to each other.""}","<img src=""stim_listB/talk2.gif""</stim_listB>",are talking to each other,
null,"<div style=""font-size:60px;"">+</div>",,html-keyboard-response,274,1672202,0.0-17.0-0.12,82873,List1B,black,woman,,,,null,,,,
null,"<img src=""stim_listB/shout5.gif""</stim_listB>",,html-keyboard-response,275,1674207,0.0-17.0-1.12,82873,List1B,black,woman,,,,null,,,,
null,is shouting at,,html-keyboard-response,276,1676211,0.0-17.0-2.12,82873,List1B,black,woman,,,,null,,,,
8236,,,survey-text,277,1684451,0.0-17.0-3.12,82873,List1B,black,woman,,,,,"{""Q0"":""Luke is shouting at Fred.""}","<img src=""stim_listB/shout5.gif""</stim_listB>",is shouting at,
null,"<div style=""font-size:60px;"">+</div>",,html-keyboard-response,278,1684955,0.0-17.0-0.13,82873,List1B,black,woman,,,,null,,,,
null,"<img src=""stim_listB/dance4.gif""</stim_listB>",,html-keyboard-response,279,1686959,0.0-17.0-1.13,82873,List1B,black,woman,,,,null,,,,
null,are dancing with each other,,html-keyboard-response,280,1688964,0.0-17.0-2.13,82873,List1B,black,woman,,,,null,,,,
16192,,,survey-text,281,1705157,0.0-17.0-3.13,82873,List1B,black,woman,,,,,"{""Q0"":""Dave and Ruth are dancing with each other.""}","<img src=""stim_listB/dance4.gif""</stim_listB>",are dancing with each other,
null,"<div style=""font-size:60px;"">+</div>",,html-keyboard-response,282,1705662,0.0-17.0-0.14,82873,List1B,black,woman,,,,null,,,,
null,"<img src=""stim_listB/dance7.gif""</stim_listB>",,html-keyboard-response,283,1707666,0.0-17.0-1.14,82873,List1B,black,woman,,,,null,,,,
null,is dancing with,,html-keyboard-response,284,1709671,0.0-17.0-2.14,82873,List1B,black,woman,,,,null,,,,
12760,,,survey-text,285,1722432,0.0-17.0-3.14,82873,List1B,black,woman,,,,,"{""Q0"":""Jane is dancing with Beth.""}","<img src=""stim_listB/dance7.gif""</stim_listB>",is dancing with,
null,"<div style=""font-size:60px;"">+</div>",,html-keyboard-response,286,1722935,0.0-17.0-0.15,82873,List1B,black,woman,,,,null,,,,
null,"<img src=""stim_listB/meet3.gif""</stim_listB>",,html-keyboard-response,287,1724942,0.0-17.0-1.15,82873,List1B,black,woman,,,,null,,,,
null,is meeting,,html-keyboard-response,288,1726948,0.0-17.0-2.15,82873,List1B,black,woman,,,,null,,,,
9587,,,survey-text,289,1736538,0.0-17.0-3.15,82873,List1B,black,woman,,,,,"{""Q0"":""Jane is meeting Dave.""}","<img src=""stim_listB/meet3.gif""</stim_listB>",is meeting,
null,"<div style=""font-size:60px;"">+</div>",,html-keyboard-response,290,1737042,0.0-17.0-0.16,82873,List1B,black,woman,,,,null,,,,
null,"<img src=""stim_listB/meet1.gif""</stim_listB>",,html-keyboard-response,291,1739048,0.0-17.0-1.16,82873,List1B,black,woman,,,,null,,,,
null,is meeting,,html-keyboard-response,292,1741052,0.0-17.0-2.16,82873,List1B,black,woman,,,,null,,,,
6782,,,survey-text,293,1747835,0.0-17.0-3.16,82873,List1B,black,woman,,,,,"{""Q0"":""Kate is meeting Mike.""}","<img src=""stim_listB/meet1.gif""</stim_listB>",is meeting,
null,"<div style=""font-size:60px;"">+</div>",,html-keyboard-response,294,1748339,0.0-17.0-0.17,82873,List1B,black,woman,,,,null,,,,
null,"<img src=""stim_listB/kiss5.gif""</stim_listB>",,html-keyboard-response,295,1750346,0.0-17.0-1.17,82873,List1B,black,woman,,,,null,,,,
null,is kissing,,html-keyboard-response,296,1752351,0.0-17.0-2.17,82873,List1B,black,woman,,,,null,,,,
9690,,,survey-text,297,1762043,0.0-17.0-3.17,82873,List1B,black,woman,,,,,"{""Q0"":""Fred is kissing Luke.""}","<img src=""stim_listB/kiss5.gif""</stim_listB>",is kissing,
null,"<div style=""font-size:60px;"">+</div>",,html-keyboard-response,298,1762546,0.0-17.0-0.18,82873,List1B,black,woman,,,,null,,,,
null,"<img src=""stim_listB/meet4.gif""</stim_listB>",,html-keyboard-response,299,1764551,0.0-17.0-1.18,82873,List1B,black,woman,,,,null,,,,
null,are meeting each other,,html-keyboard-response,300,1766555,0.0-17.0-2.18,82873,List1B,black,woman,,,,null,,,,
10435,,,survey-text,301,1776992,0.0-17.0-3.18,82873,List1B,black,woman,,,,,"{""Q0"":""Luke and Ruth are meeting each other.""}","<img src=""stim_listB/meet4.gif""</stim_listB>",are meeting each other,
null,"<div style=""font-size:60px;"">+</div>",,html-keyboard-response,302,1777495,0.0-17.0-0.19,82873,List1B,black,woman,,,,null,,,,
null,"<img src=""stim_listB/kiss4.gif""</stim_listB>",,html-keyboard-response,303,1779504,0.0-17.0-1.19,82873,List1B,black,woman,,,,null,,,,
null,are kissing each other,,html-keyboard-response,304,1781507,0.0-17.0-2.19,82873,List1B,black,woman,,,,null,,,,
9049,,,survey-text,305,1790558,0.0-17.0-3.19,82873,List1B,black,woman,,,,,"{""Q0"":""Dave and Jane are kissing each other.""}","<img src=""stim_listB/kiss4.gif""</stim_listB>",are kissing each other,
13262,"<img src='img/portrait_matrix_list1.JPG' style='width:900px;height:500px;''></img><p>If you have memorised all the portraits and names and are ready to start, press Continue.</p><p><strong>Please note: Your memory of these faces will be tested 4 times during this experiment.</strong></p>",0,html-button-response,306,1803822,0.0-18.0-0.0,82873,List1B,black,woman,,,,,,,,
2045,"<img src=""portrait/BW1.jpg""style=""width:400px;height:400px;""></img>",0,html-button-response,307,1806874,0.0-18.0-1.0,82873,List1B,black,woman,,TRUE,0,,,,,
null,CORRECT,,html-keyboard-response,308,1808381,0.0-18.0-2.0-0.0,82873,List1B,black,woman,,,,null,,,,
2217,"<img src=""portrait/BM1.jpg""style=""width:400px;height:400px;""></img>",4,html-button-response,309,1810601,0.0-18.0-4.0,82873,List1B,black,woman,,TRUE,4,,,,,
null,CORRECT,,html-keyboard-response,310,1812110,0.0-18.0-5.0-0.0,82873,List1B,black,woman,,,,null,,,,
2323,"<img src=""portrait/BM2.jpg""style=""width:400px;height:400px;""></img>",5,html-button-response,311,1814436,0.0-18.0-7.0,82873,List1B,black,woman,,TRUE,5,,,,,
null,CORRECT,,html-keyboard-response,312,1815944,0.0-18.0-8.0-0.0,82873,List1B,black,woman,,,,null,,,,
1876,"<img src=""portrait/WW2.jpg""style=""width:400px;height:400px;""></img>",3,html-button-response,313,1817822,0.0-18.0-10.0,82873,List1B,black,woman,,TRUE,3,,,,,
null,CORRECT,,html-keyboard-response,314,1819328,0.0-18.0-11.0-0.0,82873,List1B,black,woman,,,,null,,,,
2215,"<img src=""portrait/WW1.jpg""style=""width:400px;height:400px;""></img>",1,html-button-response,315,1821551,0.0-18.0-13.0,82873,List1B,black,woman,,TRUE,1,,,,,
null,CORRECT,,html-keyboard-response,316,1823058,0.0-18.0-14.0-0.0,82873,List1B,black,woman,,,,null,,,,
1890,"<img src=""portrait/BW2.jpg""style=""width:400px;height:400px;""></img>",2,html-button-response,317,1824952,0.0-18.0-16.0,82873,List1B,black,woman,,TRUE,2,,,,,
null,CORRECT,,html-keyboard-response,318,1826458,0.0-18.0-17.0-0.0,82873,List1B,black,woman,,,,null,,,,
3280,"<img src=""portrait/WM1.jpg""style=""width:400px;height:400px;""></img>",6,html-button-response,319,1829741,0.0-18.0-19.0,82873,List1B,black,woman,,TRUE,6,,,,,
null,CORRECT,,html-keyboard-response,320,1831247,0.0-18.0-20.0-0.0,82873,List1B,black,woman,,,,null,,,,
1715,"<img src=""portrait/WM2.jpg""style=""width:400px;height:400px;""></img>",7,html-button-response,321,1832966,0.0-18.0-22.0,82873,List1B,black,woman,,TRUE,7,,,,,
null,CORRECT,,html-keyboard-response,322,1834474,0.0-18.0-23.0-0.0,82873,List1B,black,woman,,,,null,,,,
2236,<p>You got 8 out of 8 right first time. Press Continue.</p>,0,html-button-response,323,1836713,0.0-18.0-25.0,82873,List1B,black,woman,,,,,,,,
null,"<div style=""font-size:60px;"">+</div>",,html-keyboard-response,324,1838223,0.0-19.0-0.0,82873,List1B,black,woman,,,,null,,,,
null,"<img src=""stim_listB/shout1.gif""</stim_listB>",,html-keyboard-response,325,1840228,0.0-19.0-1.0,82873,List1B,black,woman,,,,null,,,,
null,is shouting at,,html-keyboard-response,326,1842232,0.0-19.0-2.0,82873,List1B,black,woman,,,,null,,,,
8914,,,survey-text,327,1851149,0.0-19.0-3.0,82873,List1B,black,woman,,,,,"{""Q0"":""Beth is shouting at Fred.""}","<img src=""stim_listB/shout1.gif""</stim_listB>",is shouting at,
null,"<div style=""font-size:60px;"">+</div>",,html-keyboard-response,328,1851654,0.0-19.0-0.1,82873,List1B,black,woman,,,,null,,,,
null,"<img src=""stim_listB/talk8.gif""</stim_listB>",,html-keyboard-response,329,1853658,0.0-19.0-1.1,82873,List1B,black,woman,,,,null,,,,
null,are talking to each other,,html-keyboard-response,330,1855664,0.0-19.0-2.1,82873,List1B,black,woman,,,,null,,,,
11426,,,survey-text,331,1867091,0.0-19.0-3.1,82873,List1B,black,woman,,,,,"{""Q0"":""Kate and Ruth are talking to each other.""}","<img src=""stim_listB/talk8.gif""</stim_listB>",are talking to each other,
null,"<div style=""font-size:60px;"">+</div>",,html-keyboard-response,332,1867598,0.0-19.0-0.2,82873,List1B,black,woman,,,,null,,,,
null,"<img src=""stim_listB/fight7.gif""</stim_listB>",,html-keyboard-response,333,1869605,0.0-19.0-1.2,82873,List1B,black,woman,,,,null,,,,
null,is fighting,,html-keyboard-response,334,1871611,0.0-19.0-2.2,82873,List1B,black,woman,,,,null,,,,
7215,,,survey-text,335,1878828,0.0-19.0-3.2,82873,List1B,black,woman,,,,,"{""Q0"":""Jane is fighting Kate.""}","<img src=""stim_listB/fight7.gif""</stim_listB>",is fighting,
null,"<div style=""font-size:60px;"">+</div>",,html-keyboard-response,336,1879334,0.0-19.0-0.3,82873,List1B,black,woman,,,,null,,,,
null,"<img src=""stim_listB/dance1.gif""</stim_listB>",,html-keyboard-response,337,1881340,0.0-19.0-1.3,82873,List1B,black,woman,,,,null,,,,
null,is dancing with,,html-keyboard-response,338,1883342,0.0-19.0-2.3,82873,List1B,black,woman,,,,null,,,,
6755,,,survey-text,339,1890099,0.0-19.0-3.3,82873,List1B,black,woman,,,,,"{""Q0"":""Kate is dancing with Fred.""}","<img src=""stim_listB/dance1.gif""</stim_listB>",is dancing with,
null,"<div style=""font-size:60px;"">+</div>",,html-keyboard-response,340,1890604,0.0-19.0-0.4,82873,List1B,black,woman,,,,null,,,,
null,"<img src=""stim_listB/talk3.gif""</stim_listB>",,html-keyboard-response,341,1892610,0.0-19.0-1.4,82873,List1B,black,woman,,,,null,,,,
null,is talking to,,html-keyboard-response,342,1894613,0.0-19.0-2.4,82873,List1B,black,woman,,,,null,,,,
11578,,,survey-text,343,1906193,0.0-19.0-3.4,82873,List1B,black,woman,,,,,"{""Q0"":""Jane is talking to Luke.""}","<img src=""stim_listB/talk3.gif""</stim_listB>",is talking to,
null,"<div style=""font-size:60px;"">+</div>",,html-keyboard-response,344,1906695,0.0-19.0-0.5,82873,List1B,black,woman,,,,null,,,,
null,"<img src=""stim_listB/argue4.gif""</stim_listB>",,html-keyboard-response,345,1908701,0.0-19.0-1.5,82873,List1B,black,woman,,,,null,,,,
null,are arguing with each other,,html-keyboard-response,346,1910707,0.0-19.0-2.5,82873,List1B,black,woman,,,,null,,,,
11710,,,survey-text,347,1922419,0.0-19.0-3.5,82873,List1B,black,woman,,,,,"{""Q0"":""Jane and Luke are arguing with each other.""}","<img src=""stim_listB/argue4.gif""</stim_listB>",are arguing with each other,
null,"<div style=""font-size:60px;"">+</div>",,html-keyboard-response,348,1922924,0.0-19.0-0.6,82873,List1B,black,woman,,,,null,,,,
null,"<img src=""stim_listB/hug5.gif""</stim_listB>",,html-keyboard-response,349,1924928,0.0-19.0-1.6,82873,List1B,black,woman,,,,null,,,,
null,is hugging,,html-keyboard-response,350,1926932,0.0-19.0-2.6,82873,List1B,black,woman,,,,null,,,,
9386,,,survey-text,351,1936320,0.0-19.0-3.6,82873,List1B,black,woman,,,,,"{""Q0"":""Luke is hugging Fred.""}","<img src=""stim_listB/hug5.gif""</stim_listB>",is hugging,
null,"<div style=""font-size:60px;"">+</div>",,html-keyboard-response,352,1936824,0.0-19.0-0.7,82873,List1B,black,woman,,,,null,,,,
null,"<img src=""stim_listB/touch1.gif""</stim_listB>",,html-keyboard-response,353,1938829,0.0-19.0-1.7,82873,List1B,black,woman,,,,null,,,,
null,is touching,,html-keyboard-response,354,1940831,0.0-19.0-2.7,82873,List1B,black,woman,,,,null,,,,
7512,,,survey-text,355,1948346,0.0-19.0-3.7,82873,List1B,black,woman,,,,,"{""Q0"":""Kate is touching Mike.""}","<img src=""stim_listB/touch1.gif""</stim_listB>",is touching,
null,"<div style=""font-size:60px;"">+</div>",,html-keyboard-response,356,1948847,0.0-19.0-0.8,82873,List1B,black,woman,,,,null,,,,
null,"<img src=""stim_listB/hug8.gif""</stim_listB>",,html-keyboard-response,357,1950854,0.0-19.0-1.8,82873,List1B,black,woman,,,,null,,,,
null,are hugging each other,,html-keyboard-response,358,1952860,0.0-19.0-2.8,82873,List1B,black,woman,,,,null,,,,
13859,,,survey-text,359,1966721,0.0-19.0-3.8,82873,List1B,black,woman,,,,,"{""Q0"":""Kate and Jane are hugging each other.""}","<img src=""stim_listB/hug8.gif""</stim_listB>",are hugging each other,
null,"<div style=""font-size:60px;"">+</div>",,html-keyboard-response,360,1967223,0.0-19.0-0.9,82873,List1B,black,woman,,,,null,,,,
null,"<img src=""stim_listB/argue1.gif""</stim_listB>",,html-keyboard-response,361,1969227,0.0-19.0-1.9,82873,List1B,black,woman,,,,null,,,,
null,is arguing with,,html-keyboard-response,362,1971230,0.0-19.0-2.9,82873,List1B,black,woman,,,,null,,,,
27004,,,survey-text,363,1998235,0.0-19.0-3.9,82873,List1B,black,woman,,,,,"{""Q0"":""Beth is arguing with Mike.""}","<img src=""stim_listB/argue1.gif""</stim_listB>",is arguing with,
null,"<div style=""font-size:60px;"">+</div>",,html-keyboard-response,364,1998737,0.0-19.0-0.10,82873,List1B,black,woman,,,,null,,,,
null,"<img src=""stim_listB/marry4.gif""</stim_listB>",,html-keyboard-response,365,2000742,0.0-19.0-1.10,82873,List1B,black,woman,,,,null,,,,
null,are marrying each other,,html-keyboard-response,366,2002747,0.0-19.0-2.10,82873,List1B,black,woman,,,,null,,,,
10560,,,survey-text,367,2013310,0.0-19.0-3.10,82873,List1B,black,woman,,,,,"{""Q0"":""Jane and Luke are marrying each other.""}","<img src=""stim_listB/marry4.gif""</stim_listB>",are marrying each other,
null,"<div style=""font-size:60px;"">+</div>",,html-keyboard-response,368,2013813,0.0-19.0-0.11,82873,List1B,black,woman,,,,null,,,,
null,"<img src=""stim_listB/touch4.gif""</stim_listB>",,html-keyboard-response,369,2015819,0.0-19.0-1.11,82873,List1B,black,woman,,,,null,,,,
null,are touching each other,,html-keyboard-response,370,2017825,0.0-19.0-2.11,82873,List1B,black,woman,,,,null,,,,
9723,,,survey-text,371,2027550,0.0-19.0-3.11,82873,List1B,black,woman,,,,,"{""Q0"":""Luke and Ruth are touching each other.""}","<img src=""stim_listB/touch4.gif""</stim_listB>",are touching each other,
null,"<div style=""font-size:60px;"">+</div>",,html-keyboard-response,372,2028052,0.0-19.0-0.12,82873,List1B,black,woman,,,,null,,,,
null,"<img src=""stim_listB/meet8.gif""</stim_listB>",,html-keyboard-response,373,2030059,0.0-19.0-1.12,82873,List1B,black,woman,,,,null,,,,
null,are meeting each other,,html-keyboard-response,374,2032064,0.0-19.0-2.12,82873,List1B,black,woman,,,,null,,,,
11018,,,survey-text,375,2043083,0.0-19.0-3.12,82873,List1B,black,woman,,,,,"{""Q0"":""Beth and Ruth are meeting each other.""}","<img src=""stim_listB/meet8.gif""</stim_listB>",are meeting each other,
null,"<div style=""font-size:60px;"">+</div>",,html-keyboard-response,376,2043589,0.0-19.0-0.13,82873,List1B,black,woman,,,,null,,,,
null,"<img src=""stim_listB/touch6.gif""</stim_listB>",,html-keyboard-response,377,2045596,0.0-19.0-1.13,82873,List1B,black,woman,,,,null,,,,
null,are touching each other,,html-keyboard-response,378,2047599,0.0-19.0-2.13,82873,List1B,black,woman,,,,null,,,,
16688,,,survey-text,379,2064290,0.0-19.0-3.13,82873,List1B,black,woman,,,,,"{""Q0"":""Fred and Luke are touching each other.""}","<img src=""stim_listB/touch6.gif""</stim_listB>",are touching each other,
null,"<div style=""font-size:60px;"">+</div>",,html-keyboard-response,380,2064795,0.0-19.0-0.14,82873,List1B,black,woman,,,,null,,,,
null,"<img src=""stim_listB/kiss7.gif""</stim_listB>",,html-keyboard-response,381,2066801,0.0-19.0-1.14,82873,List1B,black,woman,,,,null,,,,
null,is kissing,,html-keyboard-response,382,2068803,0.0-19.0-2.14,82873,List1B,black,woman,,,,null,,,,
7413,,,survey-text,383,2076218,0.0-19.0-3.14,82873,List1B,black,woman,,,,,"{""Q0"":""Ruth is kissing Beth.""}","<img src=""stim_listB/kiss7.gif""</stim_listB>",is kissing,
null,"<div style=""font-size:60px;"">+</div>",,html-keyboard-response,384,2076724,0.0-19.0-0.15,82873,List1B,black,woman,,,,null,,,,
null,"<img src=""stim_listB/hug6.gif""</stim_listB>",,html-keyboard-response,385,2078729,0.0-19.0-1.15,82873,List1B,black,woman,,,,null,,,,
null,are hugging each other,,html-keyboard-response,386,2080732,0.0-19.0-2.15,82873,List1B,black,woman,,,,null,,,,
12129,,,survey-text,387,2092862,0.0-19.0-3.15,82873,List1B,black,woman,,,,,"{""Q0"":""Dave and Mike are hugging each other.""}","<img src=""stim_listB/hug6.gif""</stim_listB>",are hugging each other,
null,"<div style=""font-size:60px;"">+</div>",,html-keyboard-response,388,2093366,0.0-19.0-0.16,82873,List1B,black,woman,,,,null,,,,
null,"<img src=""stim_listB/touch3.gif""</stim_listB>",,html-keyboard-response,389,2095373,0.0-19.0-1.16,82873,List1B,black,woman,,,,null,,,,
null,is touching,,html-keyboard-response,390,2097377,0.0-19.0-2.16,82873,List1B,black,woman,,,,null,,,,
13543,,,survey-text,391,2110922,0.0-19.0-3.16,82873,List1B,black,woman,,,,,"{""Q0"":""Jane is touching Dave.""}","<img src=""stim_listB/touch3.gif""</stim_listB>",is touching,
null,"<div style=""font-size:60px;"">+</div>",,html-keyboard-response,392,2111427,0.0-19.0-0.17,82873,List1B,black,woman,,,,null,,,,
null,"<img src=""stim_listB/talk7.gif""</stim_listB>",,html-keyboard-response,393,2113434,0.0-19.0-1.17,82873,List1B,black,woman,,,,null,,,,
null,is talking to,,html-keyboard-response,394,2115439,0.0-19.0-2.17,82873,List1B,black,woman,,,,null,,,,
7392,,,survey-text,395,2122833,0.0-19.0-3.17,82873,List1B,black,woman,,,,,"{""Q0"":""Jane is talking to Beth.""}","<img src=""stim_listB/talk7.gif""</stim_listB>",is talking to,
null,"<div style=""font-size:60px;"">+</div>",,html-keyboard-response,396,2123335,0.0-19.0-0.18,82873,List1B,black,woman,,,,null,,,,
null,"<img src=""stim_listB/fight6.gif""</stim_listB>",,html-keyboard-response,397,2125339,0.0-19.0-1.18,82873,List1B,black,woman,,,,null,,,,
null,are fighting each other,,html-keyboard-response,398,2127341,0.0-19.0-2.18,82873,List1B,black,woman,,,,null,,,,
11643,,,survey-text,399,2138986,0.0-19.0-3.18,82873,List1B,black,woman,,,,,"{""Q0"":""Fred and Luke are fighting each other.""}","<img src=""stim_listB/fight6.gif""</stim_listB>",are fighting each other,
null,"<div style=""font-size:60px;"">+</div>",,html-keyboard-response,400,2139488,0.0-19.0-0.19,82873,List1B,black,woman,,,,null,,,,
null,"<img src=""stim_listB/kiss6.gif""</stim_listB>",,html-keyboard-response,401,2141493,0.0-19.0-1.19,82873,List1B,black,woman,,,,null,,,,
null,are kissing each other,,html-keyboard-response,402,2143496,0.0-19.0-2.19,82873,List1B,black,woman,,,,null,,,,
9901,,,survey-text,403,2153401,0.0-19.0-3.19,82873,List1B,black,woman,,,,,"{""Q0"":""Mike and Dave are kissing each other.""}","<img src=""stim_listB/kiss6.gif""</stim_listB>",are kissing each other,
3547,<p>Thank you for completing that task.</p><p>The final part of this session is a short questionnaire.</p><p>Press Continue.</p>,0,html-button-response,404,2156950,0.0-20.0,82873,List1B,black,woman,,,,,,,,
33802,,,survey-text,405,2191757,0.0-21.0,82873,List1B,black,woman,,,,,"{""Q0"":""30"",""Q1"":""english"",""Q2"":""english"",""Q3"":""canada"",""Q4"":""black and white"",""Q5"":""female""}",,,demographics
93276,,,survey-likert,406,2285039,0.0-22.0,82873,List1B,black,woman,,,,,"{""Q0"":4,""Q1"":3,""Q2"":4,""Q3"":5,""Q4"":5,""Q5"":4,""Q6"":4,""Q7"":5,""Q8"":5,""Q9"":5,""Q10"":5,""Q11"":4,""Q12"":5,""Q13"":3}",,,likert_race
49609,,,survey-likert,407,2334654,0.0-23.0,82873,List1B,black,woman,,,,,"{""Q0"":4,""Q1"":5,""Q2"":6,""Q3"":5,""Q4"":5,""Q5"":5,""Q6"":6,""Q7"":5,""Q8"":5,""Q9"":5,""Q10"":4,""Q11"":3,""Q12"":5,""Q13"":4}",,,likert_gender
12455,,,survey-text,408,2347111,0.0-24.0,82873,List1B,black,woman,,,,,"{""Q0"":""ccc""}",,,worker_id
38291,,,external-html,409,2385642,0.0-25.0,82873,List1B,black,woman,debrief.html,,,,,,,
