rt,stimulus,button_pressed,trial_type,trial_index,time_elapsed,internal_node_id,subject,list,ppt_race,ppt_gender,url,first_guess,correct,key_press,responses,image_type,phrase_type,test_part
1654,Welcome to the experiment. Press Continue to begin.,0,html-button-response,0,1657,0.0-0.0,84387,List1A,white,woman,,,,,,,,
14127,,,external-html,1,17362,0.0-1.0,84387,List1A,white,woman,consent.html,,,,,,,
10605,"<p>On the next page, you will see portraits of 8 people and their names.</p><p>Your first task is to take a few minutes to memorise the names of these people.</p><p>You will have to recall their names during the rest of the experiment, so it is</p><p>essential that you try to memorise these people and their names as best as you can.</p><br><p><strong>You will then be tested on your memory of these names and portraits.</strong></p><br><p>The experiment will start after you have completed this memory test.</p><br><p>Ready?</p>",0,html-button-response,2,27969,0.0-2.0,84387,List1A,white,woman,,,,,,,,
26548,"<img src='img/portrait_matrix_list1.JPG' style='width:900px;height:500px;''></img><p>If you have memorised all the portraits and names and are ready to start, press Continue.</p><p><strong>Please note: Your memory of these faces will be tested 4 times during this experiment.</strong></p>",0,html-button-response,3,55521,0.0-3.0-0.0,84387,List1A,white,woman,,,,,,,,
3907,"<img src=""portrait/BM1.jpg""style=""width:400px;height:400px;""></img>",4,html-button-response,4,60433,0.0-3.0-1.0,84387,List1A,white,woman,,TRUE,4,,,,,
null,CORRECT,,html-keyboard-response,5,61941,0.0-3.0-2.0-0.0,84387,List1A,white,woman,,,,null,,,,
6591,"<img src=""portrait/WM2.jpg""style=""width:400px;height:400px;""></img>",7,html-button-response,6,68538,0.0-3.0-4.0,84387,List1A,white,woman,,TRUE,7,,,,,
null,CORRECT,,html-keyboard-response,7,70043,0.0-3.0-5.0-0.0,84387,List1A,white,woman,,,,null,,,,
5328,"<img src=""portrait/WW1.jpg""style=""width:400px;height:400px;""></img>",1,html-button-response,8,75379,0.0-3.0-7.0,84387,List1A,white,woman,,TRUE,1,,,,,
null,CORRECT,,html-keyboard-response,9,76883,0.0-3.0-8.0-0.0,84387,List1A,white,woman,,,,null,,,,
3419,"<img src=""portrait/WW2.jpg""style=""width:400px;height:400px;""></img>",3,html-button-response,10,80304,0.0-3.0-10.0,84387,List1A,white,woman,,TRUE,3,,,,,
null,CORRECT,,html-keyboard-response,11,81808,0.0-3.0-11.0-0.0,84387,List1A,white,woman,,,,null,,,,
3885,"<img src=""portrait/BW1.jpg""style=""width:400px;height:400px;""></img>",0,html-button-response,12,85697,0.0-3.0-13.0,84387,List1A,white,woman,,TRUE,0,,,,,
null,CORRECT,,html-keyboard-response,13,87199,0.0-3.0-14.0-0.0,84387,List1A,white,woman,,,,null,,,,
3489,"<img src=""portrait/WM1.jpg""style=""width:400px;height:400px;""></img>",6,html-button-response,14,90688,0.0-3.0-16.0,84387,List1A,white,woman,,TRUE,6,,,,,
null,CORRECT,,html-keyboard-response,15,92193,0.0-3.0-17.0-0.0,84387,List1A,white,woman,,,,null,,,,
2717,"<img src=""portrait/BW2.jpg""style=""width:400px;height:400px;""></img>",2,html-button-response,16,94913,0.0-3.0-19.0,84387,List1A,white,woman,,TRUE,2,,,,,
null,CORRECT,,html-keyboard-response,17,96418,0.0-3.0-20.0-0.0,84387,List1A,white,woman,,,,null,,,,
2907,"<img src=""portrait/BM2.jpg""style=""width:400px;height:400px;""></img>",5,html-button-response,18,99328,0.0-3.0-22.0,84387,List1A,white,woman,,TRUE,5,,,,,
null,CORRECT,,html-keyboard-response,19,100833,0.0-3.0-23.0-0.0,84387,List1A,white,woman,,,,null,,,,
1125,<p>You got 8 out of 8 right first time. Press Continue.</p>,0,html-button-response,20,101960,0.0-3.0-25.0,84387,List1A,white,woman,,,,,,,,
22987,"<p>In this experiment, you will view photographs of the people from the memory game interacting.</p><p>By using the <strong>exact</strong> phrase given <i>after</i> the photograph appears and recalling the correct names of the people in the photographs, form a sentence describing the interaction. You do not need to capitalise names.</p><p>Type your answer in the space provided. Please complete every sentence before moving onto the next trial.</p><p>You will only have a few seconds to memorise each given photograph and phrase before you can respond, so try your best to focus.</p><p>An example is given below. Press 'Continue' when you are ready.</p><img src='img/speaking_example_v2.jpg' style='width:800px;height:460px;''></img>",0,html-button-response,21,125954,0.0-4.0,84387,List1A,white,woman,,,,,,,,
1519,"<p>Before the experiment starts, you will watch two example trials. Press 'Continue'.</p>",0,html-button-response,22,128473,0.0-5.0,84387,List1A,white,woman,,,,,,,,
null,<img src='img/speaking_WW.gif'></img>,,html-keyboard-response,23,131475,0.0-6.0,84387,List1A,white,woman,,,,null,,,,
null,<p>is speaking to</p>,,html-keyboard-response,24,133477,0.0-7.0,84387,List1A,white,woman,,,,null,,,,
4668,<p><b>Answer:</b> kate is speaking to beth</p>,0,html-button-response,25,138145,0.0-8.0,84387,List1A,white,woman,,,,,,,,
null,<img src='img/pointing_BM.gif'></img>,,html-keyboard-response,26,141149,0.0-9.0,84387,List1A,white,woman,,,,null,,,,
null,<p>are pointing at each other</p>,,html-keyboard-response,27,143152,0.0-10.0,84387,List1A,white,woman,,,,null,,,,
1608,<p><b>Answer:</b> luke and dave are pointing at each other</p>,0,html-button-response,28,144761,0.0-11.0,84387,List1A,white,woman,,,,,,,,
2117,"<p>Ready to start the experiment?</p><br><p><strong>Remember to describe the picture using a full sentence,</strong></p><p><strong> that combines the names of the people with the given phrase.</strong></p><p><strong> You do not need to capitalise names or use punctuation.</strong></p><br><p>Press 'Continue' to begin.</p>",0,html-button-response,29,147881,0.0-12.0,84387,List1A,white,woman,,,,,,,,
null,"<div style=""font-size:60px;"">+</div>",,html-keyboard-response,30,149382,0.0-13.0-0.0,84387,List1A,white,woman,,,,null,,,,
null,"<img src=""stim_listA/touch5.gif""</stim_listA>",,html-keyboard-response,31,151385,0.0-13.0-1.0,84387,List1A,white,woman,,,,null,,,,
null,is touching,,html-keyboard-response,32,153388,0.0-13.0-2.0,84387,List1A,white,woman,,,,null,,,,
7436,,,survey-text,33,160825,0.0-13.0-3.0,84387,List1A,white,woman,,,,,"{""Q0"":""mike is touching dave""}","<img src=""stim_listA/touch5.gif""</stim_listA>",is touching,
null,"<div style=""font-size:60px;"">+</div>",,html-keyboard-response,34,161327,0.0-13.0-0.1,84387,List1A,white,woman,,,,null,,,,
null,"<img src=""stim_listA/hug3.gif""</stim_listA>",,html-keyboard-response,35,163331,0.0-13.0-1.1,84387,List1A,white,woman,,,,null,,,,
null,is hugging,,html-keyboard-response,36,165334,0.0-13.0-2.1,84387,List1A,white,woman,,,,null,,,,
9535,,,survey-text,37,174873,0.0-13.0-3.1,84387,List1A,white,woman,,,,,"{""Q0"":""luke is hugging ruth""}","<img src=""stim_listA/hug3.gif""</stim_listA>",is hugging,
null,"<div style=""font-size:60px;"">+</div>",,html-keyboard-response,38,175375,0.0-13.0-0.2,84387,List1A,white,woman,,,,null,,,,
null,"<img src=""stim_listA/argue3.gif""</stim_listA>",,html-keyboard-response,39,177378,0.0-13.0-1.2,84387,List1A,white,woman,,,,null,,,,
null,is arguing with,,html-keyboard-response,40,179379,0.0-13.0-2.2,84387,List1A,white,woman,,,,null,,,,
6941,,,survey-text,41,186321,0.0-13.0-3.2,84387,List1A,white,woman,,,,,"{""Q0"":""dave is arguing with ruth""}","<img src=""stim_listA/argue3.gif""</stim_listA>",is arguing with,
null,"<div style=""font-size:60px;"">+</div>",,html-keyboard-response,42,186823,0.0-13.0-0.3,84387,List1A,white,woman,,,,null,,,,
null,"<img src=""stim_listA/talk1.gif""</stim_listA>",,html-keyboard-response,43,188824,0.0-13.0-1.3,84387,List1A,white,woman,,,,null,,,,
null,is talking to,,html-keyboard-response,44,190825,0.0-13.0-2.3,84387,List1A,white,woman,,,,null,,,,
8064,,,survey-text,45,198889,0.0-13.0-3.3,84387,List1A,white,woman,,,,,"{""Q0"":""fred is talking to kate""}","<img src=""stim_listA/talk1.gif""</stim_listA>",is talking to,
null,"<div style=""font-size:60px;"">+</div>",,html-keyboard-response,46,199392,0.0-13.0-0.4,84387,List1A,white,woman,,,,null,,,,
null,"<img src=""stim_listA/shout8.gif""</stim_listA>",,html-keyboard-response,47,201394,0.0-13.0-1.4,84387,List1A,white,woman,,,,null,,,,
null,are shouting at each other,,html-keyboard-response,48,203397,0.0-13.0-2.4,84387,List1A,white,woman,,,,null,,,,
9130,,,survey-text,49,212529,0.0-13.0-3.4,84387,List1A,white,woman,,,,,"{""Q0"":""beth is shouting to jane""}","<img src=""stim_listA/shout8.gif""</stim_listA>",are shouting at each other,
null,"<div style=""font-size:60px;"">+</div>",,html-keyboard-response,50,213032,0.0-13.0-0.5,84387,List1A,white,woman,,,,null,,,,
null,"<img src=""stim_listA/dance2.gif""</stim_listA>",,html-keyboard-response,51,215035,0.0-13.0-1.5,84387,List1A,white,woman,,,,null,,,,
null,are dancing with each other,,html-keyboard-response,52,217036,0.0-13.0-2.5,84387,List1A,white,woman,,,,null,,,,
7010,,,survey-text,53,224049,0.0-13.0-3.5,84387,List1A,white,woman,,,,,"{""Q0"":""beth is dancing with mike""}","<img src=""stim_listA/dance2.gif""</stim_listA>",are dancing with each other,
null,"<div style=""font-size:60px;"">+</div>",,html-keyboard-response,54,224550,0.0-13.0-0.6,84387,List1A,white,woman,,,,null,,,,
null,"<img src=""stim_listA/talk3.gif""</stim_listA>",,html-keyboard-response,55,226553,0.0-13.0-1.6,84387,List1A,white,woman,,,,null,,,,
null,is talking to,,html-keyboard-response,56,228556,0.0-13.0-2.6,84387,List1A,white,woman,,,,null,,,,
6179,,,survey-text,57,234737,0.0-13.0-3.6,84387,List1A,white,woman,,,,,"{""Q0"":""luke is talking to jane""}","<img src=""stim_listA/talk3.gif""</stim_listA>",is talking to,
null,"<div style=""font-size:60px;"">+</div>",,html-keyboard-response,58,235239,0.0-13.0-0.7,84387,List1A,white,woman,,,,null,,,,
null,"<img src=""stim_listA/kiss1.gif""</stim_listA>",,html-keyboard-response,59,237241,0.0-13.0-1.7,84387,List1A,white,woman,,,,null,,,,
null,is kissing,,html-keyboard-response,60,239242,0.0-13.0-2.7,84387,List1A,white,woman,,,,null,,,,
5998,,,survey-text,61,245241,0.0-13.0-3.7,84387,List1A,white,woman,,,,,"{""Q0"":""fred is kissing beth""}","<img src=""stim_listA/kiss1.gif""</stim_listA>",is kissing,
null,"<div style=""font-size:60px;"">+</div>",,html-keyboard-response,62,245742,0.0-13.0-0.8,84387,List1A,white,woman,,,,null,,,,
null,"<img src=""stim_listA/argue5.gif""</stim_listA>",,html-keyboard-response,63,247745,0.0-13.0-1.8,84387,List1A,white,woman,,,,null,,,,
null,is arguing with,,html-keyboard-response,64,249747,0.0-13.0-2.8,84387,List1A,white,woman,,,,null,,,,
6852,,,survey-text,65,256601,0.0-13.0-3.8,84387,List1A,white,woman,,,,,"{""Q0"":""luke is arguing with mike""}","<img src=""stim_listA/argue5.gif""</stim_listA>",is arguing with,
null,"<div style=""font-size:60px;"">+</div>",,html-keyboard-response,66,257102,0.0-13.0-0.9,84387,List1A,white,woman,,,,null,,,,
null,"<img src=""stim_listA/talk7.gif""</stim_listA>",,html-keyboard-response,67,259104,0.0-13.0-1.9,84387,List1A,white,woman,,,,null,,,,
null,is talking to,,html-keyboard-response,68,261105,0.0-13.0-2.9,84387,List1A,white,woman,,,,null,,,,
7031,,,survey-text,69,268138,0.0-13.0-3.9,84387,List1A,white,woman,,,,,"{""Q0"":""beth is talking to jane""}","<img src=""stim_listA/talk7.gif""</stim_listA>",is talking to,
null,"<div style=""font-size:60px;"">+</div>",,html-keyboard-response,70,268641,0.0-13.0-0.10,84387,List1A,white,woman,,,,null,,,,
null,"<img src=""stim_listA/marry8.gif""</stim_listA>",,html-keyboard-response,71,270646,0.0-13.0-1.10,84387,List1A,white,woman,,,,null,,,,
null,are marrying each other,,html-keyboard-response,72,272649,0.0-13.0-2.10,84387,List1A,white,woman,,,,null,,,,
11219,,,survey-text,73,283873,0.0-13.0-3.10,84387,List1A,white,woman,,,,,"{""Q0"":""jane and beth are marrying each other""}","<img src=""stim_listA/marry8.gif""</stim_listA>",are marrying each other,
null,"<div style=""font-size:60px;"">+</div>",,html-keyboard-response,74,284376,0.0-13.0-0.11,84387,List1A,white,woman,,,,null,,,,
null,"<img src=""stim_listA/marry3.gif""</stim_listA>",,html-keyboard-response,75,286379,0.0-13.0-1.11,84387,List1A,white,woman,,,,null,,,,
null,is marrying,,html-keyboard-response,76,288384,0.0-13.0-2.11,84387,List1A,white,woman,,,,null,,,,
7564,,,survey-text,77,295953,0.0-13.0-3.11,84387,List1A,white,woman,,,,,"{""Q0"":""ruth is marrying dave""}","<img src=""stim_listA/marry3.gif""</stim_listA>",is marrying,
null,"<div style=""font-size:60px;"">+</div>",,html-keyboard-response,78,296455,0.0-13.0-0.12,84387,List1A,white,woman,,,,null,,,,
null,"<img src=""stim_listA/shout4.gif""</stim_listA>",,html-keyboard-response,79,298457,0.0-13.0-1.12,84387,List1A,white,woman,,,,null,,,,
null,are shouting at each other,,html-keyboard-response,80,300459,0.0-13.0-2.12,84387,List1A,white,woman,,,,null,,,,
10516,,,survey-text,81,310977,0.0-13.0-3.12,84387,List1A,white,woman,,,,,"{""Q0"":""jane and dave are shouting at each other""}","<img src=""stim_listA/shout4.gif""</stim_listA>",are shouting at each other,
null,"<div style=""font-size:60px;"">+</div>",,html-keyboard-response,82,311479,0.0-13.0-0.13,84387,List1A,white,woman,,,,null,,,,
null,"<img src=""stim_listA/meet1.gif""</stim_listA>",,html-keyboard-response,83,313481,0.0-13.0-1.13,84387,List1A,white,woman,,,,null,,,,
null,is meeting,,html-keyboard-response,84,315484,0.0-13.0-2.13,84387,List1A,white,woman,,,,null,,,,
9394,,,survey-text,85,324881,0.0-13.0-3.13,84387,List1A,white,woman,,,,,"{""Q0"":""mike is meeting ruth""}","<img src=""stim_listA/meet1.gif""</stim_listA>",is meeting,
null,"<div style=""font-size:60px;"">+</div>",,html-keyboard-response,86,325382,0.0-13.0-0.14,84387,List1A,white,woman,,,,null,,,,
null,"<img src=""stim_listA/fight2.gif""</stim_listA>",,html-keyboard-response,87,327385,0.0-13.0-1.14,84387,List1A,white,woman,,,,null,,,,
null,are fighting each other,,html-keyboard-response,88,329386,0.0-13.0-2.14,84387,List1A,white,woman,,,,null,,,,
14742,,,survey-text,89,344130,0.0-13.0-3.14,84387,List1A,white,woman,,,,,"{""Q0"":""fred and beth are fighting each other""}","<img src=""stim_listA/fight2.gif""</stim_listA>",are fighting each other,
null,"<div style=""font-size:60px;"">+</div>",,html-keyboard-response,90,344632,0.0-13.0-0.15,84387,List1A,white,woman,,,,null,,,,
null,"<img src=""stim_listA/kiss2.gif""</stim_listA>",,html-keyboard-response,91,346634,0.0-13.0-1.15,84387,List1A,white,woman,,,,null,,,,
null,are kissing each other,,html-keyboard-response,92,348641,0.0-13.0-2.15,84387,List1A,white,woman,,,,null,,,,
8109,,,survey-text,93,356753,0.0-13.0-3.15,84387,List1A,white,woman,,,,,"{""Q0"":""kate and mike are kissing each other""}","<img src=""stim_listA/kiss2.gif""</stim_listA>",are kissing each other,
null,"<div style=""font-size:60px;"">+</div>",,html-keyboard-response,94,357256,0.0-13.0-0.16,84387,List1A,white,woman,,,,null,,,,
null,"<img src=""stim_listA/touch4.gif""</stim_listA>",,html-keyboard-response,95,359261,0.0-13.0-1.16,84387,List1A,white,woman,,,,null,,,,
null,are touching each other,,html-keyboard-response,96,361266,0.0-13.0-2.16,84387,List1A,white,woman,,,,null,,,,
11683,,,survey-text,97,372953,0.0-13.0-3.16,84387,List1A,white,woman,,,,,"{""Q0"":""luke and ruth are touching each other""}","<img src=""stim_listA/touch4.gif""</stim_listA>",are touching each other,
null,"<div style=""font-size:60px;"">+</div>",,html-keyboard-response,98,373455,0.0-13.0-0.17,84387,List1A,white,woman,,,,null,,,,
null,"<img src=""stim_listA/dance1.gif""</stim_listA>",,html-keyboard-response,99,375458,0.0-13.0-1.17,84387,List1A,white,woman,,,,null,,,,
null,is dancing with,,html-keyboard-response,100,377461,0.0-13.0-2.17,84387,List1A,white,woman,,,,null,,,,
7556,,,survey-text,101,385017,0.0-13.0-3.17,84387,List1A,white,woman,,,,,"{""Q0"":""kate is dancing with fred""}","<img src=""stim_listA/dance1.gif""</stim_listA>",is dancing with,
null,"<div style=""font-size:60px;"">+</div>",,html-keyboard-response,102,385519,0.0-13.0-0.18,84387,List1A,white,woman,,,,null,,,,
null,"<img src=""stim_listA/touch8.gif""</stim_listA>",,html-keyboard-response,103,387524,0.0-13.0-1.18,84387,List1A,white,woman,,,,null,,,,
null,are touching each other,,html-keyboard-response,104,389525,0.0-13.0-2.18,84387,List1A,white,woman,,,,null,,,,
8458,,,survey-text,105,397985,0.0-13.0-3.18,84387,List1A,white,woman,,,,,"{""Q0"":""ruth and beth are touching each other""}","<img src=""stim_listA/touch8.gif""</stim_listA>",are touching each other,
null,"<div style=""font-size:60px;"">+</div>",,html-keyboard-response,106,398489,0.0-13.0-0.19,84387,List1A,white,woman,,,,null,,,,
null,"<img src=""stim_listA/meet3.gif""</stim_listA>",,html-keyboard-response,107,400491,0.0-13.0-1.19,84387,List1A,white,woman,,,,null,,,,
null,is meeting,,html-keyboard-response,108,402493,0.0-13.0-2.19,84387,List1A,white,woman,,,,null,,,,
7163,,,survey-text,109,409657,0.0-13.0-3.19,84387,List1A,white,woman,,,,,"{""Q0"":""dave is meeting jane""}","<img src=""stim_listA/meet3.gif""</stim_listA>",is meeting,
7110,"<img src='img/portrait_matrix_list1.JPG' style='width:900px;height:500px;''></img><p>If you have memorised all the portraits and names and are ready to start, press Continue.</p><p><strong>Please note: Your memory of these faces will be tested 4 times during this experiment.</strong></p>",0,html-button-response,110,416770,0.0-14.0-0.0,84387,List1A,white,woman,,,,,,,,
3184,"<img src=""portrait/BM2.jpg""style=""width:400px;height:400px;""></img>",5,html-button-response,111,420961,0.0-14.0-1.0,84387,List1A,white,woman,,TRUE,5,,,,,
null,CORRECT,,html-keyboard-response,112,422465,0.0-14.0-2.0-0.0,84387,List1A,white,woman,,,,null,,,,
2870,"<img src=""portrait/WM1.jpg""style=""width:400px;height:400px;""></img>",6,html-button-response,113,425337,0.0-14.0-4.0,84387,List1A,white,woman,,TRUE,6,,,,,
null,CORRECT,,html-keyboard-response,114,426841,0.0-14.0-5.0-0.0,84387,List1A,white,woman,,,,null,,,,
1948,"<img src=""portrait/WW2.jpg""style=""width:400px;height:400px;""></img>",3,html-button-response,115,428793,0.0-14.0-7.0,84387,List1A,white,woman,,TRUE,3,,,,,
null,CORRECT,,html-keyboard-response,116,430295,0.0-14.0-8.0-0.0,84387,List1A,white,woman,,,,null,,,,
2960,"<img src=""portrait/BM1.jpg""style=""width:400px;height:400px;""></img>",4,html-button-response,117,433258,0.0-14.0-10.0,84387,List1A,white,woman,,TRUE,4,,,,,
null,CORRECT,,html-keyboard-response,118,434761,0.0-14.0-11.0-0.0,84387,List1A,white,woman,,,,null,,,,
3300,"<img src=""portrait/BW1.jpg""style=""width:400px;height:400px;""></img>",0,html-button-response,119,438063,0.0-14.0-13.0,84387,List1A,white,woman,,TRUE,0,,,,,
null,CORRECT,,html-keyboard-response,120,439567,0.0-14.0-14.0-0.0,84387,List1A,white,woman,,,,null,,,,
1985,"<img src=""portrait/WM2.jpg""style=""width:400px;height:400px;""></img>",7,html-button-response,121,441560,0.0-14.0-16.0,84387,List1A,white,woman,,TRUE,7,,,,,
null,CORRECT,,html-keyboard-response,122,443063,0.0-14.0-17.0-0.0,84387,List1A,white,woman,,,,null,,,,
2945,"<img src=""portrait/WW1.jpg""style=""width:400px;height:400px;""></img>",1,html-button-response,123,446009,0.0-14.0-19.0,84387,List1A,white,woman,,TRUE,1,,,,,
null,CORRECT,,html-keyboard-response,124,447514,0.0-14.0-20.0-0.0,84387,List1A,white,woman,,,,null,,,,
2204,"<img src=""portrait/BW2.jpg""style=""width:400px;height:400px;""></img>",2,html-button-response,125,449721,0.0-14.0-22.0,84387,List1A,white,woman,,TRUE,2,,,,,
null,CORRECT,,html-keyboard-response,126,451227,0.0-14.0-23.0-0.0,84387,List1A,white,woman,,,,null,,,,
1108,<p>You got 8 out of 8 right first time. Press Continue.</p>,0,html-button-response,127,452337,0.0-14.0-25.0,84387,List1A,white,woman,,,,,,,,
null,"<div style=""font-size:60px;"">+</div>",,html-keyboard-response,128,453844,0.0-15.0-0.0,84387,List1A,white,woman,,,,null,,,,
null,"<img src=""stim_listA/dance8.gif""</stim_listA>",,html-keyboard-response,129,455848,0.0-15.0-1.0,84387,List1A,white,woman,,,,null,,,,
null,are dancing with each other,,html-keyboard-response,130,457852,0.0-15.0-2.0,84387,List1A,white,woman,,,,null,,,,
9363,,,survey-text,131,467216,0.0-15.0-3.0,84387,List1A,white,woman,,,,,"{""Q0"":""ruth and kate are dancing with each other""}","<img src=""stim_listA/dance8.gif""</stim_listA>",are dancing with each other,
null,"<div style=""font-size:60px;"">+</div>",,html-keyboard-response,132,467718,0.0-15.0-0.1,84387,List1A,white,woman,,,,null,,,,
null,"<img src=""stim_listA/shout6.gif""</stim_listA>",,html-keyboard-response,133,469720,0.0-15.0-1.1,84387,List1A,white,woman,,,,null,,,,
null,are shouting at each other,,html-keyboard-response,134,471721,0.0-15.0-2.1,84387,List1A,white,woman,,,,null,,,,
8078,,,survey-text,135,479801,0.0-15.0-3.1,84387,List1A,white,woman,,,,,"{""Q0"":""mike and dave are shouting at each other""}","<img src=""stim_listA/shout6.gif""</stim_listA>",are shouting at each other,
null,"<div style=""font-size:60px;"">+</div>",,html-keyboard-response,136,480303,0.0-15.0-0.2,84387,List1A,white,woman,,,,null,,,,
null,"<img src=""stim_listA/fight5.gif""</stim_listA>",,html-keyboard-response,137,482307,0.0-15.0-1.2,84387,List1A,white,woman,,,,null,,,,
null,is fighting,,html-keyboard-response,138,484309,0.0-15.0-2.2,84387,List1A,white,woman,,,,null,,,,
9650,,,survey-text,139,493961,0.0-15.0-3.2,84387,List1A,white,woman,,,,,"{""Q0"":""dave is fighting mike""}","<img src=""stim_listA/fight5.gif""</stim_listA>",is fighting,
null,"<div style=""font-size:60px;"">+</div>",,html-keyboard-response,140,494462,0.0-15.0-0.3,84387,List1A,white,woman,,,,null,,,,
null,"<img src=""stim_listA/hug7.gif""</stim_listA>",,html-keyboard-response,141,496464,0.0-15.0-1.3,84387,List1A,white,woman,,,,null,,,,
null,is hugging,,html-keyboard-response,142,498466,0.0-15.0-2.3,84387,List1A,white,woman,,,,null,,,,
6126,,,survey-text,143,504593,0.0-15.0-3.3,84387,List1A,white,woman,,,,,"{""Q0"":""ruth is hugging beth""}","<img src=""stim_listA/hug7.gif""</stim_listA>",is hugging,
null,"<div style=""font-size:60px;"">+</div>",,html-keyboard-response,144,505095,0.0-15.0-0.4,84387,List1A,white,woman,,,,null,,,,
null,"<img src=""stim_listA/argue1.gif""</stim_listA>",,html-keyboard-response,145,507097,0.0-15.0-1.4,84387,List1A,white,woman,,,,null,,,,
null,is arguing with,,html-keyboard-response,146,509101,0.0-15.0-2.4,84387,List1A,white,woman,,,,null,,,,
6715,,,survey-text,147,515816,0.0-15.0-3.4,84387,List1A,white,woman,,,,,"{""Q0"":""mike is arguing with beth""}","<img src=""stim_listA/argue1.gif""</stim_listA>",is arguing with,
null,"<div style=""font-size:60px;"">+</div>",,html-keyboard-response,148,516318,0.0-15.0-0.5,84387,List1A,white,woman,,,,null,,,,
null,"<img src=""stim_listA/talk5.gif""</stim_listA>",,html-keyboard-response,149,518321,0.0-15.0-1.5,84387,List1A,white,woman,,,,null,,,,
null,is talking to,,html-keyboard-response,150,520321,0.0-15.0-2.5,84387,List1A,white,woman,,,,null,,,,
7678,,,survey-text,151,528000,0.0-15.0-3.5,84387,List1A,white,woman,,,,,"{""Q0"":""fred is talking to dave""}","<img src=""stim_listA/talk5.gif""</stim_listA>",is talking to,
null,"<div style=""font-size:60px;"">+</div>",,html-keyboard-response,152,528503,0.0-15.0-0.6,84387,List1A,white,woman,,,,null,,,,
null,"<img src=""stim_listA/shout2.gif""</stim_listA>",,html-keyboard-response,153,530504,0.0-15.0-1.6,84387,List1A,white,woman,,,,null,,,,
null,are shouting at each other,,html-keyboard-response,154,532505,0.0-15.0-2.6,84387,List1A,white,woman,,,,null,,,,
61591,,,survey-text,155,594097,0.0-15.0-3.6,84387,List1A,white,woman,,,,,"{""Q0"":""mike and kate are shouting at each other""}","<img src=""stim_listA/shout2.gif""</stim_listA>",are shouting at each other,
null,"<div style=""font-size:60px;"">+</div>",,html-keyboard-response,156,594600,0.0-15.0-0.7,84387,List1A,white,woman,,,,null,,,,
null,"<img src=""stim_listA/shout1.gif""</stim_listA>",,html-keyboard-response,157,596602,0.0-15.0-1.7,84387,List1A,white,woman,,,,null,,,,
null,is shouting at,,html-keyboard-response,158,598606,0.0-15.0-2.7,84387,List1A,white,woman,,,,null,,,,
11330,,,survey-text,159,609937,0.0-15.0-3.7,84387,List1A,white,woman,,,,,"{""Q0"":""mike is shouting at kate""}","<img src=""stim_listA/shout1.gif""</stim_listA>",is shouting at,
null,"<div style=""font-size:60px;"">+</div>",,html-keyboard-response,160,610439,0.0-15.0-0.8,84387,List1A,white,woman,,,,null,,,,
null,"<img src=""stim_listA/marry7.gif""</stim_listA>",,html-keyboard-response,161,612443,0.0-15.0-1.8,84387,List1A,white,woman,,,,null,,,,
null,is marrying,,html-keyboard-response,162,614447,0.0-15.0-2.8,84387,List1A,white,woman,,,,null,,,,
9112,,,survey-text,163,623561,0.0-15.0-3.8,84387,List1A,white,woman,,,,,"{""Q0"":""ruth is marrying kate""}","<img src=""stim_listA/marry7.gif""</stim_listA>",is marrying,
null,"<div style=""font-size:60px;"">+</div>",,html-keyboard-response,164,624062,0.0-15.0-0.9,84387,List1A,white,woman,,,,null,,,,
null,"<img src=""stim_listA/meet6.gif""</stim_listA>",,html-keyboard-response,165,626065,0.0-15.0-1.9,84387,List1A,white,woman,,,,null,,,,
null,are meeting each other,,html-keyboard-response,166,628068,0.0-15.0-2.9,84387,List1A,white,woman,,,,null,,,,
9402,,,survey-text,167,637473,0.0-15.0-3.9,84387,List1A,white,woman,,,,,"{""Q0"":""luke and fred are meeting each other""}","<img src=""stim_listA/meet6.gif""</stim_listA>",are meeting each other,
null,"<div style=""font-size:60px;"">+</div>",,html-keyboard-response,168,637976,0.0-15.0-0.10,84387,List1A,white,woman,,,,null,,,,
null,"<img src=""stim_listA/marry6.gif""</stim_listA>",,html-keyboard-response,169,639979,0.0-15.0-1.10,84387,List1A,white,woman,,,,null,,,,
null,are marrying each other,,html-keyboard-response,170,641982,0.0-15.0-2.10,84387,List1A,white,woman,,,,null,,,,
9482,,,survey-text,171,651465,0.0-15.0-3.10,84387,List1A,white,woman,,,,,"{""Q0"":""dave and fred are marrying each other""}","<img src=""stim_listA/marry6.gif""</stim_listA>",are marrying each other,
null,"<div style=""font-size:60px;"">+</div>",,html-keyboard-response,172,651966,0.0-15.0-0.11,84387,List1A,white,woman,,,,null,,,,
null,"<img src=""stim_listA/talk8.gif""</stim_listA>",,html-keyboard-response,173,653968,0.0-15.0-1.11,84387,List1A,white,woman,,,,null,,,,
null,are talking to each other,,html-keyboard-response,174,655971,0.0-15.0-2.11,84387,List1A,white,woman,,,,null,,,,
10227,,,survey-text,175,666200,0.0-15.0-3.11,84387,List1A,white,woman,,,,,"{""Q0"":""kate and ruth are talking to each other""}","<img src=""stim_listA/talk8.gif""</stim_listA>",are talking to each other,
null,"<div style=""font-size:60px;"">+</div>",,html-keyboard-response,176,666702,0.0-15.0-0.12,84387,List1A,white,woman,,,,null,,,,
null,"<img src=""stim_listA/fight6.gif""</stim_listA>",,html-keyboard-response,177,668703,0.0-15.0-1.12,84387,List1A,white,woman,,,,null,,,,
null,are fighting each other,,html-keyboard-response,178,670706,0.0-15.0-2.12,84387,List1A,white,woman,,,,null,,,,
9294,,,survey-text,179,680001,0.0-15.0-3.12,84387,List1A,white,woman,,,,,"{""Q0"":""luke and fred are fighting each other""}","<img src=""stim_listA/fight6.gif""</stim_listA>",are fighting each other,
null,"<div style=""font-size:60px;"">+</div>",,html-keyboard-response,180,680504,0.0-15.0-0.13,84387,List1A,white,woman,,,,null,,,,
null,"<img src=""stim_listA/touch2.gif""</stim_listA>",,html-keyboard-response,181,682505,0.0-15.0-1.13,84387,List1A,white,woman,,,,null,,,,
null,are touching each other,,html-keyboard-response,182,684507,0.0-15.0-2.13,84387,List1A,white,woman,,,,null,,,,
10916,,,survey-text,183,695425,0.0-15.0-3.13,84387,List1A,white,woman,,,,,"{""Q0"":""fred and beth are touching each other""}","<img src=""stim_listA/touch2.gif""</stim_listA>",are touching each other,
null,"<div style=""font-size:60px;"">+</div>",,html-keyboard-response,184,695926,0.0-15.0-0.14,84387,List1A,white,woman,,,,null,,,,
null,"<img src=""stim_listA/hug4.gif""</stim_listA>",,html-keyboard-response,185,697928,0.0-15.0-1.14,84387,List1A,white,woman,,,,null,,,,
null,are hugging each other,,html-keyboard-response,186,699929,0.0-15.0-2.14,84387,List1A,white,woman,,,,null,,,,
10967,,,survey-text,187,710897,0.0-15.0-3.14,84387,List1A,white,woman,,,,,"{""Q0"":""jane and fred are hugging each other""}","<img src=""stim_listA/hug4.gif""</stim_listA>",are hugging each other,
null,"<div style=""font-size:60px;"">+</div>",,html-keyboard-response,188,711398,0.0-15.0-0.15,84387,List1A,white,woman,,,,null,,,,
null,"<img src=""stim_listA/talk6.gif""</stim_listA>",,html-keyboard-response,189,713401,0.0-15.0-1.15,84387,List1A,white,woman,,,,null,,,,
null,are talking to each other,,html-keyboard-response,190,715403,0.0-15.0-2.15,84387,List1A,white,woman,,,,null,,,,
11004,,,survey-text,191,726409,0.0-15.0-3.15,84387,List1A,white,woman,,,,,"{""Q0"":""mike and dave are talking to each other""}","<img src=""stim_listA/talk6.gif""</stim_listA>",are talking to each other,
null,"<div style=""font-size:60px;"">+</div>",,html-keyboard-response,192,726911,0.0-15.0-0.16,84387,List1A,white,woman,,,,null,,,,
null,"<img src=""stim_listA/talk4.gif""</stim_listA>",,html-keyboard-response,193,728912,0.0-15.0-1.16,84387,List1A,white,woman,,,,null,,,,
null,are talking to each other,,html-keyboard-response,194,730914,0.0-15.0-2.16,84387,List1A,white,woman,,,,null,,,,
8509,,,survey-text,195,739425,0.0-15.0-3.16,84387,List1A,white,woman,,,,,"{""Q0"":""dave and ruth are talking to each other""}","<img src=""stim_listA/talk4.gif""</stim_listA>",are talking to each other,
null,"<div style=""font-size:60px;"">+</div>",,html-keyboard-response,196,739926,0.0-15.0-0.17,84387,List1A,white,woman,,,,null,,,,
null,"<img src=""stim_listA/hug5.gif""</stim_listA>",,html-keyboard-response,197,741928,0.0-15.0-1.17,84387,List1A,white,woman,,,,null,,,,
null,is hugging,,html-keyboard-response,198,743929,0.0-15.0-2.17,84387,List1A,white,woman,,,,null,,,,
8342,,,survey-text,199,752273,0.0-15.0-3.17,84387,List1A,white,woman,,,,,"{""Q0"":""luke is hugging fred""}","<img src=""stim_listA/hug5.gif""</stim_listA>",is hugging,
null,"<div style=""font-size:60px;"">+</div>",,html-keyboard-response,200,752775,0.0-15.0-0.18,84387,List1A,white,woman,,,,null,,,,
null,"<img src=""stim_listA/kiss8.gif""</stim_listA>",,html-keyboard-response,201,754777,0.0-15.0-1.18,84387,List1A,white,woman,,,,null,,,,
null,are kissing each other,,html-keyboard-response,202,756778,0.0-15.0-2.18,84387,List1A,white,woman,,,,null,,,,
9935,,,survey-text,203,766714,0.0-15.0-3.18,84387,List1A,white,woman,,,,,"{""Q0"":""kate and ruth are kissing each other""}","<img src=""stim_listA/kiss8.gif""</stim_listA>",are kissing each other,
null,"<div style=""font-size:60px;"">+</div>",,html-keyboard-response,204,767215,0.0-15.0-0.19,84387,List1A,white,woman,,,,null,,,,
null,"<img src=""stim_listA/fight4.gif""</stim_listA>",,html-keyboard-response,205,769223,0.0-15.0-1.19,84387,List1A,white,woman,,,,null,,,,
null,are fighting each other,,html-keyboard-response,206,771229,0.0-15.0-2.19,84387,List1A,white,woman,,,,null,,,,
11585,,,survey-text,207,782818,0.0-15.0-3.19,84387,List1A,white,woman,,,,,"{""Q0"":""ruth and luke are fighting each other""}","<img src=""stim_listA/fight4.gif""</stim_listA>",are fighting each other,
3829,"<img src='img/portrait_matrix_list1.JPG' style='width:900px;height:500px;''></img><p>If you have memorised all the portraits and names and are ready to start, press Continue.</p><p><strong>Please note: Your memory of these faces will be tested 4 times during this experiment.</strong></p>",0,html-button-response,208,786650,0.0-16.0-0.0,84387,List1A,white,woman,,,,,,,,
2224,"<img src=""portrait/WM2.jpg""style=""width:400px;height:400px;""></img>",7,html-button-response,209,789881,0.0-16.0-1.0,84387,List1A,white,woman,,TRUE,7,,,,,
null,CORRECT,,html-keyboard-response,210,791384,0.0-16.0-2.0-0.0,84387,List1A,white,woman,,,,null,,,,
2303,"<img src=""portrait/BM1.jpg""style=""width:400px;height:400px;""></img>",4,html-button-response,211,793689,0.0-16.0-4.0,84387,List1A,white,woman,,TRUE,4,,,,,
null,CORRECT,,html-keyboard-response,212,795193,0.0-16.0-5.0-0.0,84387,List1A,white,woman,,,,null,,,,
2397,"<img src=""portrait/WM1.jpg""style=""width:400px;height:400px;""></img>",6,html-button-response,213,797593,0.0-16.0-7.0,84387,List1A,white,woman,,TRUE,6,,,,,
null,CORRECT,,html-keyboard-response,214,799095,0.0-16.0-8.0-0.0,84387,List1A,white,woman,,,,null,,,,
3585,"<img src=""portrait/WW1.jpg""style=""width:400px;height:400px;""></img>",1,html-button-response,215,802681,0.0-16.0-10.0,84387,List1A,white,woman,,TRUE,1,,,,,
null,CORRECT,,html-keyboard-response,216,804185,0.0-16.0-11.0-0.0,84387,List1A,white,woman,,,,null,,,,
2637,"<img src=""portrait/BW2.jpg""style=""width:400px;height:400px;""></img>",2,html-button-response,217,806825,0.0-16.0-13.0,84387,List1A,white,woman,,TRUE,2,,,,,
null,CORRECT,,html-keyboard-response,218,808328,0.0-16.0-14.0-0.0,84387,List1A,white,woman,,,,null,,,,
3271,"<img src=""portrait/BM2.jpg""style=""width:400px;height:400px;""></img>",5,html-button-response,219,811601,0.0-16.0-16.0,84387,List1A,white,woman,,TRUE,5,,,,,
null,CORRECT,,html-keyboard-response,220,813106,0.0-16.0-17.0-0.0,84387,List1A,white,woman,,,,null,,,,
4453,"<img src=""portrait/BW1.jpg""style=""width:400px;height:400px;""></img>",0,html-button-response,221,817561,0.0-16.0-19.0,84387,List1A,white,woman,,TRUE,0,,,,,
null,CORRECT,,html-keyboard-response,222,819065,0.0-16.0-20.0-0.0,84387,List1A,white,woman,,,,null,,,,
1711,"<img src=""portrait/WW2.jpg""style=""width:400px;height:400px;""></img>",3,html-button-response,223,820777,0.0-16.0-22.0,84387,List1A,white,woman,,TRUE,3,,,,,
null,CORRECT,,html-keyboard-response,224,822281,0.0-16.0-23.0-0.0,84387,List1A,white,woman,,,,null,,,,
1045,<p>You got 8 out of 8 right first time. Press Continue.</p>,0,html-button-response,225,823328,0.0-16.0-25.0,84387,List1A,white,woman,,,,,,,,
null,"<div style=""font-size:60px;"">+</div>",,html-keyboard-response,226,824833,0.0-17.0-0.0,84387,List1A,white,woman,,,,null,,,,
null,"<img src=""stim_listA/marry4.gif""</stim_listA>",,html-keyboard-response,227,826835,0.0-17.0-1.0,84387,List1A,white,woman,,,,null,,,,
null,are marrying each other,,html-keyboard-response,228,828837,0.0-17.0-2.0,84387,List1A,white,woman,,,,null,,,,
11267,,,survey-text,229,840105,0.0-17.0-3.0,84387,List1A,white,woman,,,,,"{""Q0"":""luke and jane are marrying each other""}","<img src=""stim_listA/marry4.gif""</stim_listA>",are marrying each other,
null,"<div style=""font-size:60px;"">+</div>",,html-keyboard-response,230,840607,0.0-17.0-0.1,84387,List1A,white,woman,,,,null,,,,
null,"<img src=""stim_listA/meet7.gif""</stim_listA>",,html-keyboard-response,231,842611,0.0-17.0-1.1,84387,List1A,white,woman,,,,null,,,,
null,is meeting,,html-keyboard-response,232,844613,0.0-17.0-2.1,84387,List1A,white,woman,,,,null,,,,
5281,,,survey-text,233,849897,0.0-17.0-3.1,84387,List1A,white,woman,,,,,"{""Q0"":""kate is meeting jane""}","<img src=""stim_listA/meet7.gif""</stim_listA>",is meeting,
null,"<div style=""font-size:60px;"">+</div>",,html-keyboard-response,234,850398,0.0-17.0-0.2,84387,List1A,white,woman,,,,null,,,,
null,"<img src=""stim_listA/dance5.gif""</stim_listA>",,html-keyboard-response,235,852402,0.0-17.0-1.2,84387,List1A,white,woman,,,,null,,,,
null,is dancing with,,html-keyboard-response,236,854406,0.0-17.0-2.2,84387,List1A,white,woman,,,,null,,,,
7518,,,survey-text,237,861930,0.0-17.0-3.2,84387,List1A,white,woman,,,,,"{""Q0"":""fred is dancing with dave""}","<img src=""stim_listA/dance5.gif""</stim_listA>",is dancing with,
null,"<div style=""font-size:60px;"">+</div>",,html-keyboard-response,238,862432,0.0-17.0-0.3,84387,List1A,white,woman,,,,null,,,,
null,"<img src=""stim_listA/meet2.gif""</stim_listA>",,html-keyboard-response,239,864436,0.0-17.0-1.3,84387,List1A,white,woman,,,,null,,,,
null,are meeting each other,,html-keyboard-response,240,866439,0.0-17.0-2.3,84387,List1A,white,woman,,,,null,,,,
9447,,,survey-text,241,875889,0.0-17.0-3.3,84387,List1A,white,woman,,,,,"{""Q0"":""beth and fred are meeting each other""}","<img src=""stim_listA/meet2.gif""</stim_listA>",are meeting each other,
null,"<div style=""font-size:60px;"">+</div>",,html-keyboard-response,242,876391,0.0-17.0-0.4,84387,List1A,white,woman,,,,null,,,,
null,"<img src=""stim_listA/dance4.gif""</stim_listA>",,html-keyboard-response,243,878392,0.0-17.0-1.4,84387,List1A,white,woman,,,,null,,,,
null,are dancing with each other,,html-keyboard-response,244,880394,0.0-17.0-2.4,84387,List1A,white,woman,,,,null,,,,
10301,,,survey-text,245,890697,0.0-17.0-3.4,84387,List1A,white,woman,,,,,"{""Q0"":""ruth and dave are dancing with each other""}","<img src=""stim_listA/dance4.gif""</stim_listA>",are dancing with each other,
null,"<div style=""font-size:60px;"">+</div>",,html-keyboard-response,246,891199,0.0-17.0-0.5,84387,List1A,white,woman,,,,null,,,,
null,"<img src=""stim_listA/touch7.gif""</stim_listA>",,html-keyboard-response,247,893201,0.0-17.0-1.5,84387,List1A,white,woman,,,,null,,,,
null,is touching,,html-keyboard-response,248,895203,0.0-17.0-2.5,84387,List1A,white,woman,,,,null,,,,
6084,,,survey-text,249,901289,0.0-17.0-3.5,84387,List1A,white,woman,,,,,"{""Q0"":""kate is touching jane""}","<img src=""stim_listA/touch7.gif""</stim_listA>",is touching,
null,"<div style=""font-size:60px;"">+</div>",,html-keyboard-response,250,901790,0.0-17.0-0.6,84387,List1A,white,woman,,,,null,,,,
null,"<img src=""stim_listA/meet5.gif""</stim_listA>",,html-keyboard-response,251,903792,0.0-17.0-1.6,84387,List1A,white,woman,,,,null,,,,
null,is meeting,,html-keyboard-response,252,905793,0.0-17.0-2.6,84387,List1A,white,woman,,,,null,,,,
5015,,,survey-text,253,910808,0.0-17.0-3.6,84387,List1A,white,woman,,,,,"{""Q0"":""mike is meeting dave""}","<img src=""stim_listA/meet5.gif""</stim_listA>",is meeting,
null,"<div style=""font-size:60px;"">+</div>",,html-keyboard-response,254,911311,0.0-17.0-0.7,84387,List1A,white,woman,,,,null,,,,
null,"<img src=""stim_listA/shout5.gif""</stim_listA>",,html-keyboard-response,255,913312,0.0-17.0-1.7,84387,List1A,white,woman,,,,null,,,,
null,is shouting at,,html-keyboard-response,256,915313,0.0-17.0-2.7,84387,List1A,white,woman,,,,null,,,,
7685,,,survey-text,257,923002,0.0-17.0-3.7,84387,List1A,white,woman,,,,,"{""Q0"":""fred is shouting at luke""}","<img src=""stim_listA/shout5.gif""</stim_listA>",is shouting at,
null,"<div style=""font-size:60px;"">+</div>",,html-keyboard-response,258,923504,0.0-17.0-0.8,84387,List1A,white,woman,,,,null,,,,
null,"<img src=""stim_listA/dance6.gif""</stim_listA>",,html-keyboard-response,259,925512,0.0-17.0-1.8,84387,List1A,white,woman,,,,null,,,,
null,are dancing with each other,,html-keyboard-response,260,927517,0.0-17.0-2.8,84387,List1A,white,woman,,,,null,,,,
11713,,,survey-text,261,939233,0.0-17.0-3.8,84387,List1A,white,woman,,,,,"{""Q0"":""luke and mike are dancing with each other""}","<img src=""stim_listA/dance6.gif""</stim_listA>",are dancing with each other,
null,"<div style=""font-size:60px;"">+</div>",,html-keyboard-response,262,939736,0.0-17.0-0.9,84387,List1A,white,woman,,,,null,,,,
null,"<img src=""stim_listA/hug6.gif""</stim_listA>",,html-keyboard-response,263,941738,0.0-17.0-1.9,84387,List1A,white,woman,,,,null,,,,
null,are hugging each other,,html-keyboard-response,264,943742,0.0-17.0-2.9,84387,List1A,white,woman,,,,null,,,,
8354,,,survey-text,265,952097,0.0-17.0-3.9,84387,List1A,white,woman,,,,,"{""Q0"":""dave and mike are hugging each other""}","<img src=""stim_listA/hug6.gif""</stim_listA>",are hugging each other,
null,"<div style=""font-size:60px;"">+</div>",,html-keyboard-response,266,952599,0.0-17.0-0.10,84387,List1A,white,woman,,,,null,,,,
null,"<img src=""stim_listA/touch1.gif""</stim_listA>",,html-keyboard-response,267,954603,0.0-17.0-1.10,84387,List1A,white,woman,,,,null,,,,
null,is touching,,html-keyboard-response,268,956608,0.0-17.0-2.10,84387,List1A,white,woman,,,,null,,,,
7326,,,survey-text,269,963938,0.0-17.0-3.10,84387,List1A,white,woman,,,,,"{""Q0"":""mike is touching kate""}","<img src=""stim_listA/touch1.gif""</stim_listA>",is touching,
null,"<div style=""font-size:60px;"">+</div>",,html-keyboard-response,270,964442,0.0-17.0-0.11,84387,List1A,white,woman,,,,null,,,,
null,"<img src=""stim_listA/dance3.gif""</stim_listA>",,html-keyboard-response,271,966446,0.0-17.0-1.11,84387,List1A,white,woman,,,,null,,,,
null,is dancing with,,html-keyboard-response,272,968448,0.0-17.0-2.11,84387,List1A,white,woman,,,,null,,,,
7327,,,survey-text,273,975777,0.0-17.0-3.11,84387,List1A,white,woman,,,,,"{""Q0"":""luke is dancing with jane""}","<img src=""stim_listA/dance3.gif""</stim_listA>",is dancing with,
null,"<div style=""font-size:60px;"">+</div>",,html-keyboard-response,274,976279,0.0-17.0-0.12,84387,List1A,white,woman,,,,null,,,,
null,"<img src=""stim_listA/hug1.gif""</stim_listA>",,html-keyboard-response,275,978281,0.0-17.0-1.12,84387,List1A,white,woman,,,,null,,,,
null,is hugging,,html-keyboard-response,276,980283,0.0-17.0-2.12,84387,List1A,white,woman,,,,null,,,,
4859,,,survey-text,277,985145,0.0-17.0-3.12,84387,List1A,white,woman,,,,,"{""Q0"":""fred is hugging beth""}","<img src=""stim_listA/hug1.gif""</stim_listA>",is hugging,
null,"<div style=""font-size:60px;"">+</div>",,html-keyboard-response,278,985647,0.0-17.0-0.13,84387,List1A,white,woman,,,,null,,,,
null,"<img src=""stim_listA/touch3.gif""</stim_listA>",,html-keyboard-response,279,987650,0.0-17.0-1.13,84387,List1A,white,woman,,,,null,,,,
null,is touching,,html-keyboard-response,280,989652,0.0-17.0-2.13,84387,List1A,white,woman,,,,null,,,,
6451,,,survey-text,281,996105,0.0-17.0-3.13,84387,List1A,white,woman,,,,,"{""Q0"":""dave is touching jane""}","<img src=""stim_listA/touch3.gif""</stim_listA>",is touching,
null,"<div style=""font-size:60px;"">+</div>",,html-keyboard-response,282,996607,0.0-17.0-0.14,84387,List1A,white,woman,,,,null,,,,
null,"<img src=""stim_listA/kiss7.gif""</stim_listA>",,html-keyboard-response,283,998610,0.0-17.0-1.14,84387,List1A,white,woman,,,,null,,,,
null,is kissing,,html-keyboard-response,284,1000611,0.0-17.0-2.14,84387,List1A,white,woman,,,,null,,,,
5046,,,survey-text,285,1005657,0.0-17.0-3.14,84387,List1A,white,woman,,,,,"{""Q0"":""beth is kissing ruth""}","<img src=""stim_listA/kiss7.gif""</stim_listA>",is kissing,
null,"<div style=""font-size:60px;"">+</div>",,html-keyboard-response,286,1006159,0.0-17.0-0.15,84387,List1A,white,woman,,,,null,,,,
null,"<img src=""stim_listA/meet4.gif""</stim_listA>",,html-keyboard-response,287,1008160,0.0-17.0-1.15,84387,List1A,white,woman,,,,null,,,,
null,are meeting each other,,html-keyboard-response,288,1010161,0.0-17.0-2.15,84387,List1A,white,woman,,,,null,,,,
6767,,,survey-text,289,1016929,0.0-17.0-3.15,84387,List1A,white,woman,,,,,"{""Q0"":""luke and ruth are meeting each other""}","<img src=""stim_listA/meet4.gif""</stim_listA>",are meeting each other,
null,"<div style=""font-size:60px;"">+</div>",,html-keyboard-response,290,1017430,0.0-17.0-0.16,84387,List1A,white,woman,,,,null,,,,
null,"<img src=""stim_listA/argue4.gif""</stim_listA>",,html-keyboard-response,291,1019431,0.0-17.0-1.16,84387,List1A,white,woman,,,,null,,,,
null,are arguing with each other,,html-keyboard-response,292,1021433,0.0-17.0-2.16,84387,List1A,white,woman,,,,null,,,,
8990,,,survey-text,293,1030425,0.0-17.0-3.16,84387,List1A,white,woman,,,,,"{""Q0"":""luke and jane are arguing with each other""}","<img src=""stim_listA/argue4.gif""</stim_listA>",are arguing with each other,
null,"<div style=""font-size:60px;"">+</div>",,html-keyboard-response,294,1030926,0.0-17.0-0.17,84387,List1A,white,woman,,,,null,,,,
null,"<img src=""stim_listA/fight7.gif""</stim_listA>",,html-keyboard-response,295,1032930,0.0-17.0-1.17,84387,List1A,white,woman,,,,null,,,,
null,is fighting,,html-keyboard-response,296,1034932,0.0-17.0-2.17,84387,List1A,white,woman,,,,null,,,,
10261,,,survey-text,297,1045193,0.0-17.0-3.17,84387,List1A,white,woman,,,,,"{""Q0"":""jane is fighting beth""}","<img src=""stim_listA/fight7.gif""</stim_listA>",is fighting,
null,"<div style=""font-size:60px;"">+</div>",,html-keyboard-response,298,1045694,0.0-17.0-0.18,84387,List1A,white,woman,,,,null,,,,
null,"<img src=""stim_listA/touch6.gif""</stim_listA>",,html-keyboard-response,299,1047696,0.0-17.0-1.18,84387,List1A,white,woman,,,,null,,,,
null,are touching each other,,html-keyboard-response,300,1049697,0.0-17.0-2.18,84387,List1A,white,woman,,,,null,,,,
7992,,,survey-text,301,1057689,0.0-17.0-3.18,84387,List1A,white,woman,,,,,"{""Q0"":""luke and fred are touching each other""}","<img src=""stim_listA/touch6.gif""</stim_listA>",are touching each other,
null,"<div style=""font-size:60px;"">+</div>",,html-keyboard-response,302,1058190,0.0-17.0-0.19,84387,List1A,white,woman,,,,null,,,,
null,"<img src=""stim_listA/kiss3.gif""</stim_listA>",,html-keyboard-response,303,1060191,0.0-17.0-1.19,84387,List1A,white,woman,,,,null,,,,
null,is kissing,,html-keyboard-response,304,1062194,0.0-17.0-2.19,84387,List1A,white,woman,,,,null,,,,
7150,,,survey-text,305,1069345,0.0-17.0-3.19,84387,List1A,white,woman,,,,,"{""Q0"":""luke is kissing ruth""}","<img src=""stim_listA/kiss3.gif""</stim_listA>",is kissing,
1591,"<img src='img/portrait_matrix_list1.JPG' style='width:900px;height:500px;''></img><p>If you have memorised all the portraits and names and are ready to start, press Continue.</p><p><strong>Please note: Your memory of these faces will be tested 4 times during this experiment.</strong></p>",0,html-button-response,306,1070938,0.0-18.0-0.0,84387,List1A,white,woman,,,,,,,,
2100,"<img src=""portrait/BM1.jpg""style=""width:400px;height:400px;""></img>",4,html-button-response,307,1074041,0.0-18.0-1.0,84387,List1A,white,woman,,TRUE,4,,,,,
null,CORRECT,,html-keyboard-response,308,1075543,0.0-18.0-2.0-0.0,84387,List1A,white,woman,,,,null,,,,
2112,"<img src=""portrait/BM2.jpg""style=""width:400px;height:400px;""></img>",5,html-button-response,309,1077657,0.0-18.0-4.0,84387,List1A,white,woman,,TRUE,5,,,,,
null,CORRECT,,html-keyboard-response,310,1079161,0.0-18.0-5.0-0.0,84387,List1A,white,woman,,,,null,,,,
2566,"<img src=""portrait/BW2.jpg""style=""width:400px;height:400px;""></img>",2,html-button-response,311,1081729,0.0-18.0-7.0,84387,List1A,white,woman,,TRUE,2,,,,,
null,CORRECT,,html-keyboard-response,312,1083232,0.0-18.0-8.0-0.0,84387,List1A,white,woman,,,,null,,,,
2920,"<img src=""portrait/WW1.jpg""style=""width:400px;height:400px;""></img>",1,html-button-response,313,1086154,0.0-18.0-10.0,84387,List1A,white,woman,,TRUE,1,,,,,
null,CORRECT,,html-keyboard-response,314,1087658,0.0-18.0-11.0-0.0,84387,List1A,white,woman,,,,null,,,,
4244,"<img src=""portrait/BW1.jpg""style=""width:400px;height:400px;""></img>",0,html-button-response,315,1091906,0.0-18.0-13.0,84387,List1A,white,woman,,TRUE,0,,,,,
null,CORRECT,,html-keyboard-response,316,1093410,0.0-18.0-14.0-0.0,84387,List1A,white,woman,,,,null,,,,
2316,"<img src=""portrait/WM1.jpg""style=""width:400px;height:400px;""></img>",6,html-button-response,317,1095731,0.0-18.0-16.0,84387,List1A,white,woman,,TRUE,6,,,,,
null,CORRECT,,html-keyboard-response,318,1097234,0.0-18.0-17.0-0.0,84387,List1A,white,woman,,,,null,,,,
1194,"<img src=""portrait/WM2.jpg""style=""width:400px;height:400px;""></img>",7,html-button-response,319,1098434,0.0-18.0-19.0,84387,List1A,white,woman,,TRUE,7,,,,,
null,CORRECT,,html-keyboard-response,320,1099938,0.0-18.0-20.0-0.0,84387,List1A,white,woman,,,,null,,,,
1748,"<img src=""portrait/WW2.jpg""style=""width:400px;height:400px;""></img>",3,html-button-response,321,1101689,0.0-18.0-22.0,84387,List1A,white,woman,,TRUE,3,,,,,
null,CORRECT,,html-keyboard-response,322,1103193,0.0-18.0-23.0-0.0,84387,List1A,white,woman,,,,null,,,,
965,<p>You got 8 out of 8 right first time. Press Continue.</p>,0,html-button-response,323,1104160,0.0-18.0-25.0,84387,List1A,white,woman,,,,,,,,
null,"<div style=""font-size:60px;"">+</div>",,html-keyboard-response,324,1105667,0.0-19.0-0.0,84387,List1A,white,woman,,,,null,,,,
null,"<img src=""stim_listA/meet8.gif""</stim_listA>",,html-keyboard-response,325,1107671,0.0-19.0-1.0,84387,List1A,white,woman,,,,null,,,,
null,are meeting each other,,html-keyboard-response,326,1109673,0.0-19.0-2.0,84387,List1A,white,woman,,,,null,,,,
7959,,,survey-text,327,1117633,0.0-19.0-3.0,84387,List1A,white,woman,,,,,"{""Q0"":""beth and ruth are meeting each other""}","<img src=""stim_listA/meet8.gif""</stim_listA>",are meeting each other,
null,"<div style=""font-size:60px;"">+</div>",,html-keyboard-response,328,1118135,0.0-19.0-0.1,84387,List1A,white,woman,,,,null,,,,
null,"<img src=""stim_listA/marry5.gif""</stim_listA>",,html-keyboard-response,329,1120139,0.0-19.0-1.1,84387,List1A,white,woman,,,,null,,,,
null,is marrying,,html-keyboard-response,330,1122141,0.0-19.0-2.1,84387,List1A,white,woman,,,,null,,,,
5730,,,survey-text,331,1127873,0.0-19.0-3.1,84387,List1A,white,woman,,,,,"{""Q0"":""mike is marrying luke""}","<img src=""stim_listA/marry5.gif""</stim_listA>",is marrying,
null,"<div style=""font-size:60px;"">+</div>",,html-keyboard-response,332,1128376,0.0-19.0-0.2,84387,List1A,white,woman,,,,null,,,,
null,"<img src=""stim_listA/argue6.gif""</stim_listA>",,html-keyboard-response,333,1130379,0.0-19.0-1.2,84387,List1A,white,woman,,,,null,,,,
null,are arguing with each other,,html-keyboard-response,334,1132380,0.0-19.0-2.2,84387,List1A,white,woman,,,,null,,,,
9539,,,survey-text,335,1141921,0.0-19.0-3.2,84387,List1A,white,woman,,,,,"{""Q0"":""fred and dave are arguing with each other""}","<img src=""stim_listA/argue6.gif""</stim_listA>",are arguing with each other,
null,"<div style=""font-size:60px;"">+</div>",,html-keyboard-response,336,1142422,0.0-19.0-0.3,84387,List1A,white,woman,,,,null,,,,
null,"<img src=""stim_listA/marry2.gif""</stim_listA>",,html-keyboard-response,337,1144426,0.0-19.0-1.3,84387,List1A,white,woman,,,,null,,,,
null,are marrying each other,,html-keyboard-response,338,1146428,0.0-19.0-2.3,84387,List1A,white,woman,,,,null,,,,
10205,,,survey-text,339,1156633,0.0-19.0-3.3,84387,List1A,white,woman,,,,,"{""Q0"":""fred and kate are marrying each other""}","<img src=""stim_listA/marry2.gif""</stim_listA>",are marrying each other,
null,"<div style=""font-size:60px;"">+</div>",,html-keyboard-response,340,1157138,0.0-19.0-0.4,84387,List1A,white,woman,,,,null,,,,
null,"<img src=""stim_listA/fight3.gif""</stim_listA>",,html-keyboard-response,341,1159141,0.0-19.0-1.4,84387,List1A,white,woman,,,,null,,,,
null,is fighting,,html-keyboard-response,342,1161143,0.0-19.0-2.4,84387,List1A,white,woman,,,,null,,,,
8385,,,survey-text,343,1169529,0.0-19.0-3.4,84387,List1A,white,woman,,,,,"{""Q0"":""dave is fighting jane""}","<img src=""stim_listA/fight3.gif""</stim_listA>",is fighting,
null,"<div style=""font-size:60px;"">+</div>",,html-keyboard-response,344,1170031,0.0-19.0-0.5,84387,List1A,white,woman,,,,null,,,,
null,"<img src=""stim_listA/argue2.gif""</stim_listA>",,html-keyboard-response,345,1172032,0.0-19.0-1.5,84387,List1A,white,woman,,,,null,,,,
null,are arguing with each other,,html-keyboard-response,346,1174033,0.0-19.0-2.5,84387,List1A,white,woman,,,,null,,,,
9030,,,survey-text,347,1183066,0.0-19.0-3.5,84387,List1A,white,woman,,,,,"{""Q0"":""fred and kate are arguing with each other""}","<img src=""stim_listA/argue2.gif""</stim_listA>",are arguing with each other,
null,"<div style=""font-size:60px;"">+</div>",,html-keyboard-response,348,1183569,0.0-19.0-0.6,84387,List1A,white,woman,,,,null,,,,
null,"<img src=""stim_listA/fight8.gif""</stim_listA>",,html-keyboard-response,349,1185573,0.0-19.0-1.6,84387,List1A,white,woman,,,,null,,,,
null,are fighting each other,,html-keyboard-response,350,1187576,0.0-19.0-2.6,84387,List1A,white,woman,,,,null,,,,
8895,,,survey-text,351,1196473,0.0-19.0-3.6,84387,List1A,white,woman,,,,,"{""Q0"":""ruth and beth are fighting each other""}","<img src=""stim_listA/fight8.gif""</stim_listA>",are fighting each other,
null,"<div style=""font-size:60px;"">+</div>",,html-keyboard-response,352,1196975,0.0-19.0-0.7,84387,List1A,white,woman,,,,null,,,,
null,"<img src=""stim_listA/talk2.gif""</stim_listA>",,html-keyboard-response,353,1198976,0.0-19.0-1.7,84387,List1A,white,woman,,,,null,,,,
null,are talking to each other,,html-keyboard-response,354,1200979,0.0-19.0-2.7,84387,List1A,white,woman,,,,null,,,,
23354,,,survey-text,355,1224337,0.0-19.0-3.7,84387,List1A,white,woman,,,,,"{""Q0"":""mike and beth are talking to each other""}","<img src=""stim_listA/talk2.gif""</stim_listA>",are talking to each other,
null,"<div style=""font-size:60px;"">+</div>",,html-keyboard-response,356,1224839,0.0-19.0-0.8,84387,List1A,white,woman,,,,null,,,,
null,"<img src=""stim_listA/argue7.gif""</stim_listA>",,html-keyboard-response,357,1226842,0.0-19.0-1.8,84387,List1A,white,woman,,,,null,,,,
null,is arguing with,,html-keyboard-response,358,1228845,0.0-19.0-2.8,84387,List1A,white,woman,,,,null,,,,
8540,,,survey-text,359,1237386,0.0-19.0-3.8,84387,List1A,white,woman,,,,,"{""Q0"":""kate is arguing with ruth""}","<img src=""stim_listA/argue7.gif""</stim_listA>",is arguing with,
null,"<div style=""font-size:60px;"">+</div>",,html-keyboard-response,360,1237887,0.0-19.0-0.9,84387,List1A,white,woman,,,,null,,,,
null,"<img src=""stim_listA/argue8.gif""</stim_listA>",,html-keyboard-response,361,1239891,0.0-19.0-1.9,84387,List1A,white,woman,,,,null,,,,
null,are arguing with each other,,html-keyboard-response,362,1241894,0.0-19.0-2.9,84387,List1A,white,woman,,,,null,,,,
9656,,,survey-text,363,1251553,0.0-19.0-3.9,84387,List1A,white,woman,,,,,"{""Q0"":""jane and beth are arguing with each other""}","<img src=""stim_listA/argue8.gif""</stim_listA>",are arguing with each other,
null,"<div style=""font-size:60px;"">+</div>",,html-keyboard-response,364,1252055,0.0-19.0-0.10,84387,List1A,white,woman,,,,null,,,,
null,"<img src=""stim_listA/marry1.gif""</stim_listA>",,html-keyboard-response,365,1254058,0.0-19.0-1.10,84387,List1A,white,woman,,,,null,,,,
null,is marrying,,html-keyboard-response,366,1256061,0.0-19.0-2.10,84387,List1A,white,woman,,,,null,,,,
5642,,,survey-text,367,1261705,0.0-19.0-3.10,84387,List1A,white,woman,,,,,"{""Q0"":""mike is marrying beth""}","<img src=""stim_listA/marry1.gif""</stim_listA>",is marrying,
null,"<div style=""font-size:60px;"">+</div>",,html-keyboard-response,368,1262207,0.0-19.0-0.11,84387,List1A,white,woman,,,,null,,,,
null,"<img src=""stim_listA/dance7.gif""</stim_listA>",,html-keyboard-response,369,1264208,0.0-19.0-1.11,84387,List1A,white,woman,,,,null,,,,
null,is dancing with,,html-keyboard-response,370,1266210,0.0-19.0-2.11,84387,List1A,white,woman,,,,null,,,,
6694,,,survey-text,371,1272905,0.0-19.0-3.11,84387,List1A,white,woman,,,,,"{""Q0"":""jane is dancing with beth""}","<img src=""stim_listA/dance7.gif""</stim_listA>",is dancing with,
null,"<div style=""font-size:60px;"">+</div>",,html-keyboard-response,372,1273408,0.0-19.0-0.12,84387,List1A,white,woman,,,,null,,,,
null,"<img src=""stim_listA/hug8.gif""</stim_listA>",,html-keyboard-response,373,1275409,0.0-19.0-1.12,84387,List1A,white,woman,,,,null,,,,
null,are hugging each other,,html-keyboard-response,374,1277412,0.0-19.0-2.12,84387,List1A,white,woman,,,,null,,,,
8332,,,survey-text,375,1285745,0.0-19.0-3.12,84387,List1A,white,woman,,,,,"{""Q0"":""jane and kate are hugging each other""}","<img src=""stim_listA/hug8.gif""</stim_listA>",are hugging each other,
null,"<div style=""font-size:60px;"">+</div>",,html-keyboard-response,376,1286246,0.0-19.0-0.13,84387,List1A,white,woman,,,,null,,,,
null,"<img src=""stim_listA/shout3.gif""</stim_listA>",,html-keyboard-response,377,1288249,0.0-19.0-1.13,84387,List1A,white,woman,,,,null,,,,
null,is shouting at,,html-keyboard-response,378,1290252,0.0-19.0-2.13,84387,List1A,white,woman,,,,null,,,,
12484,,,survey-text,379,1302737,0.0-19.0-3.13,84387,List1A,white,woman,,,,,"{""Q0"":""luke is shouting at ruth""}","<img src=""stim_listA/shout3.gif""</stim_listA>",is shouting at,
null,"<div style=""font-size:60px;"">+</div>",,html-keyboard-response,380,1303240,0.0-19.0-0.14,84387,List1A,white,woman,,,,null,,,,
null,"<img src=""stim_listA/kiss4.gif""</stim_listA>",,html-keyboard-response,381,1305244,0.0-19.0-1.14,84387,List1A,white,woman,,,,null,,,,
null,are kissing each other,,html-keyboard-response,382,1307249,0.0-19.0-2.14,84387,List1A,white,woman,,,,null,,,,
6686,,,survey-text,383,1313937,0.0-19.0-3.14,84387,List1A,white,woman,,,,,"{""Q0"":""dave and jane are kissing each other""}","<img src=""stim_listA/kiss4.gif""</stim_listA>",are kissing each other,
null,"<div style=""font-size:60px;"">+</div>",,html-keyboard-response,384,1314440,0.0-19.0-0.15,84387,List1A,white,woman,,,,null,,,,
null,"<img src=""stim_listA/fight1.gif""</stim_listA>",,html-keyboard-response,385,1316444,0.0-19.0-1.15,84387,List1A,white,woman,,,,null,,,,
null,is fighting,,html-keyboard-response,386,1318447,0.0-19.0-2.15,84387,List1A,white,woman,,,,null,,,,
10186,,,survey-text,387,1328634,0.0-19.0-3.15,84387,List1A,white,woman,,,,,"{""Q0"":""mike is fighting kate""}","<img src=""stim_listA/fight1.gif""</stim_listA>",is fighting,
null,"<div style=""font-size:60px;"">+</div>",,html-keyboard-response,388,1329136,0.0-19.0-0.16,84387,List1A,white,woman,,,,null,,,,
null,"<img src=""stim_listA/kiss6.gif""</stim_listA>",,html-keyboard-response,389,1331143,0.0-19.0-1.16,84387,List1A,white,woman,,,,null,,,,
null,are kissing each other,,html-keyboard-response,390,1333148,0.0-19.0-2.16,84387,List1A,white,woman,,,,null,,,,
6867,,,survey-text,391,1340017,0.0-19.0-3.16,84387,List1A,white,woman,,,,,"{""Q0"":""dave and mike are kissing each other""}","<img src=""stim_listA/kiss6.gif""</stim_listA>",are kissing each other,
null,"<div style=""font-size:60px;"">+</div>",,html-keyboard-response,392,1340520,0.0-19.0-0.17,84387,List1A,white,woman,,,,null,,,,
null,"<img src=""stim_listA/kiss5.gif""</stim_listA>",,html-keyboard-response,393,1342523,0.0-19.0-1.17,84387,List1A,white,woman,,,,null,,,,
null,is kissing,,html-keyboard-response,394,1344524,0.0-19.0-2.17,84387,List1A,white,woman,,,,null,,,,
5084,,,survey-text,395,1349609,0.0-19.0-3.17,84387,List1A,white,woman,,,,,"{""Q0"":""fred is kissing luke""}","<img src=""stim_listA/kiss5.gif""</stim_listA>",is kissing,
null,"<div style=""font-size:60px;"">+</div>",,html-keyboard-response,396,1350112,0.0-19.0-0.18,84387,List1A,white,woman,,,,null,,,,
null,"<img src=""stim_listA/hug2.gif""</stim_listA>",,html-keyboard-response,397,1352114,0.0-19.0-1.18,84387,List1A,white,woman,,,,null,,,,
null,are hugging each other,,html-keyboard-response,398,1354116,0.0-19.0-2.18,84387,List1A,white,woman,,,,null,,,,
8164,,,survey-text,399,1362281,0.0-19.0-3.18,84387,List1A,white,woman,,,,,"{""Q0"":""kate and mike are hugging each other""}","<img src=""stim_listA/hug2.gif""</stim_listA>",are hugging each other,
null,"<div style=""font-size:60px;"">+</div>",,html-keyboard-response,400,1362782,0.0-19.0-0.19,84387,List1A,white,woman,,,,null,,,,
null,"<img src=""stim_listA/shout7.gif""</stim_listA>",,html-keyboard-response,401,1364787,0.0-19.0-1.19,84387,List1A,white,woman,,,,null,,,,
null,is shouting at,,html-keyboard-response,402,1366787,0.0-19.0-2.19,84387,List1A,white,woman,,,,null,,,,
9549,,,survey-text,403,1376337,0.0-19.0-3.19,84387,List1A,white,woman,,,,,"{""Q0"":""ruth is shouting at beth""}","<img src=""stim_listA/shout7.gif""</stim_listA>",is shouting at,
1567,<p>Thank you for completing that task.</p><p>The final part of this session is a short questionnaire.</p><p>Press Continue.</p>,0,html-button-response,404,1377905,0.0-20.0,84387,List1A,white,woman,,,,,,,,
21333,,,survey-text,405,1400242,0.0-21.0,84387,List1A,white,woman,,,,,"{""Q0"":""29"",""Q1"":""english"",""Q2"":""english"",""Q3"":""england"",""Q4"":""while"",""Q5"":""female""}",,,demographics
35397,,,survey-likert,406,1435646,0.0-22.0,84387,List1A,white,woman,,,,,"{""Q0"":5,""Q1"":5,""Q2"":5,""Q3"":6,""Q4"":6,""Q5"":5,""Q6"":5,""Q7"":2,""Q8"":5,""Q9"":5,""Q10"":2,""Q11"":2,""Q12"":4,""Q13"":2}",,,likert_race
29385,,,survey-likert,407,1465039,0.0-23.0,84387,List1A,white,woman,,,,,"{""Q0"":2,""Q1"":2,""Q2"":2,""Q3"":2,""Q4"":2,""Q5"":4,""Q6"":2,""Q7"":2,""Q8"":2,""Q9"":2,""Q10"":1,""Q11"":1,""Q12"":1,""Q13"":1}",,,likert_gender
10062,,,survey-text,408,1475105,0.0-24.0,84387,List1A,white,woman,,,,,"{""Q0"":""ccc""}",,,worker_id
17292,,,external-html,409,1495297,0.0-25.0,84387,List1A,white,woman,debrief.html,,,,,,,
