rt,stimulus,button_pressed,trial_type,trial_index,time_elapsed,internal_node_id,subject,list,ppt_race,ppt_gender,url,first_guess,correct,key_press,responses,image_type,phrase_type,test_part
203114,Welcome to the experiment. Press Continue to begin.,0,html-button-response,0,203116,0.0-0.0,86403,List1A,white,man,,,,,,,,
3748,,,external-html,1,208396,0.0-1.0,86403,List1A,white,man,consent.html,,,,,,,
16429,"<p>On the next page, you will see portraits of 8 people and their names.</p><p>Your first task is to take a few minutes to memorise the names of these people.</p><p>You will have to recall their names during the rest of the experiment, so it is</p><p>essential that you try to memorise these people and their names as best as you can.</p><br><p><strong>You will then be tested on your memory of these names and portraits.</strong></p><br><p>The experiment will start after you have completed this memory test.</p><br><p>Ready?</p>",0,html-button-response,2,224828,0.0-2.0,86403,List1A,white,man,,,,,,,,
64337,"<img src='img/portrait_matrix_list1.JPG' style='width:900px;height:500px;''></img><p>If you have memorised all the portraits and names and are ready to start, press Continue.</p><p><strong>Please note: Your memory of these faces will be tested 4 times during this experiment.</strong></p>",0,html-button-response,3,290169,0.0-3.0-0.0,86403,List1A,white,man,,,,,,,,
4257,"<img src=""portrait/BW1.jpg""style=""width:400px;height:400px;""></img>",0,html-button-response,4,295429,0.0-3.0-1.0,86403,List1A,white,man,,TRUE,0,,,,,
null,CORRECT,,html-keyboard-response,5,296935,0.0-3.0-2.0-0.0,86403,List1A,white,man,,,,null,,,,
3276,"<img src=""portrait/WW1.jpg""style=""width:400px;height:400px;""></img>",1,html-button-response,6,300214,0.0-3.0-4.0,86403,List1A,white,man,,TRUE,1,,,,,
null,CORRECT,,html-keyboard-response,7,301718,0.0-3.0-5.0-0.0,86403,List1A,white,man,,,,null,,,,
2771,"<img src=""portrait/WM1.jpg""style=""width:400px;height:400px;""></img>",6,html-button-response,8,304490,0.0-3.0-7.0,86403,List1A,white,man,,TRUE,6,,,,,
null,CORRECT,,html-keyboard-response,9,305992,0.0-3.0-8.0-0.0,86403,List1A,white,man,,,,null,,,,
5817,"<img src=""portrait/WW2.jpg""style=""width:400px;height:400px;""></img>",3,html-button-response,10,311810,0.0-3.0-10.0,86403,List1A,white,man,,TRUE,3,,,,,
null,CORRECT,,html-keyboard-response,11,313313,0.0-3.0-11.0-0.0,86403,List1A,white,man,,,,null,,,,
5240,"<img src=""portrait/BM2.jpg""style=""width:400px;height:400px;""></img>",5,html-button-response,12,318554,0.0-3.0-13.0,86403,List1A,white,man,,TRUE,5,,,,,
null,CORRECT,,html-keyboard-response,13,320058,0.0-3.0-14.0-0.0,86403,List1A,white,man,,,,null,,,,
8951,"<img src=""portrait/WM2.jpg""style=""width:400px;height:400px;""></img>",7,html-button-response,14,329011,0.0-3.0-16.0,86403,List1A,white,man,,TRUE,7,,,,,
null,CORRECT,,html-keyboard-response,15,330515,0.0-3.0-17.0-0.0,86403,List1A,white,man,,,,null,,,,
7306,"<img src=""portrait/BM1.jpg""style=""width:400px;height:400px;""></img>",4,html-button-response,16,337823,0.0-3.0-19.0,86403,List1A,white,man,,TRUE,4,,,,,
null,CORRECT,,html-keyboard-response,17,339326,0.0-3.0-20.0-0.0,86403,List1A,white,man,,,,null,,,,
3179,"<img src=""portrait/BW2.jpg""style=""width:400px;height:400px;""></img>",2,html-button-response,18,342507,0.0-3.0-22.0,86403,List1A,white,man,,TRUE,2,,,,,
null,CORRECT,,html-keyboard-response,19,344010,0.0-3.0-23.0-0.0,86403,List1A,white,man,,,,null,,,,
2071,<p>You got 8 out of 8 right first time. Press Continue.</p>,0,html-button-response,20,346083,0.0-3.0-25.0,86403,List1A,white,man,,,,,,,,
27552,"<p>In this experiment, you will view photographs of the people from the memory game interacting.</p><p>By using the <strong>exact</strong> phrase given <i>after</i> the photograph appears and recalling the correct names of the people in the photographs, form a sentence describing the interaction. You do not need to capitalise names.</p><p>Type your answer in the space provided. Please complete every sentence before moving onto the next trial.</p><p>You will only have a few seconds to memorise each given photograph and phrase before you can respond, so try your best to focus.</p><p>An example is given below. Press 'Continue' when you are ready.</p><img src='img/speaking_example_v2.jpg' style='width:800px;height:460px;''></img>",0,html-button-response,21,374641,0.0-4.0,86403,List1A,white,man,,,,,,,,
3465,"<p>Before the experiment starts, you will watch two example trials. Press 'Continue'.</p>",0,html-button-response,22,379109,0.0-5.0,86403,List1A,white,man,,,,,,,,
null,<img src='img/speaking_WW.gif'></img>,,html-keyboard-response,23,382113,0.0-6.0,86403,List1A,white,man,,,,null,,,,
null,<p>is speaking to</p>,,html-keyboard-response,24,384115,0.0-7.0,86403,List1A,white,man,,,,null,,,,
6811,<p><b>Answer:</b> kate is speaking to beth</p>,0,html-button-response,25,390927,0.0-8.0,86403,List1A,white,man,,,,,,,,
null,<img src='img/pointing_BM.gif'></img>,,html-keyboard-response,26,393930,0.0-9.0,86403,List1A,white,man,,,,null,,,,
null,<p>are pointing at each other</p>,,html-keyboard-response,27,395932,0.0-10.0,86403,List1A,white,man,,,,null,,,,
1986,<p><b>Answer:</b> luke and dave are pointing at each other</p>,0,html-button-response,28,397920,0.0-11.0,86403,List1A,white,man,,,,,,,,
6468,"<p>Ready to start the experiment?</p><br><p><strong>Remember to describe the picture using a full sentence,</strong></p><p><strong>that combines the names of the people with the given phrase.</strong></p><p><strong>If you do not do this correctly you will not be paid.</strong></p><p><strong> You do not need to capitalise names or use punctuation.</strong></p><br><p>Press 'Continue' to begin.</p>",0,html-button-response,29,405390,0.0-12.0,86403,List1A,white,man,,,,,,,,
null,"<div style=""font-size:60px;"">+</div>",,html-keyboard-response,30,406893,0.0-13.0-0.0,86403,List1A,white,man,,,,null,,,,
null,"<img src=""stim_listA/fight7.gif""</stim_listA>",,html-keyboard-response,31,408896,0.0-13.0-1.0,86403,List1A,white,man,,,,null,,,,
null,is fighting,,html-keyboard-response,32,410898,0.0-13.0-2.0,86403,List1A,white,man,,,,null,,,,
23041,,,survey-text,33,433942,0.0-13.0-3.0,86403,List1A,white,man,,,,,"{""Q0"":""beth and jane are fighting""}","<img src=""stim_listA/fight7.gif""</stim_listA>",is fighting,
null,"<div style=""font-size:60px;"">+</div>",,html-keyboard-response,34,434445,0.0-13.0-0.1,86403,List1A,white,man,,,,null,,,,
null,"<img src=""stim_listA/shout6.gif""</stim_listA>",,html-keyboard-response,35,436447,0.0-13.0-1.1,86403,List1A,white,man,,,,null,,,,
null,are shouting at each other,,html-keyboard-response,36,438449,0.0-13.0-2.1,86403,List1A,white,man,,,,null,,,,
7630,,,survey-text,37,446081,0.0-13.0-3.1,86403,List1A,white,man,,,,,"{""Q0"":""luke and mike are shouting""}","<img src=""stim_listA/shout6.gif""</stim_listA>",are shouting at each other,
null,"<div style=""font-size:60px;"">+</div>",,html-keyboard-response,38,446583,0.0-13.0-0.2,86403,List1A,white,man,,,,null,,,,
null,"<img src=""stim_listA/hug2.gif""</stim_listA>",,html-keyboard-response,39,448584,0.0-13.0-1.2,86403,List1A,white,man,,,,null,,,,
null,are hugging each other,,html-keyboard-response,40,450587,0.0-13.0-2.2,86403,List1A,white,man,,,,null,,,,
21452,,,survey-text,41,472041,0.0-13.0-3.2,86403,List1A,white,man,,,,,"{""Q0"":""beth and mike are hugging each other""}","<img src=""stim_listA/hug2.gif""</stim_listA>",are hugging each other,
null,"<div style=""font-size:60px;"">+</div>",,html-keyboard-response,42,472543,0.0-13.0-0.3,86403,List1A,white,man,,,,null,,,,
null,"<img src=""stim_listA/argue3.gif""</stim_listA>",,html-keyboard-response,43,474546,0.0-13.0-1.3,86403,List1A,white,man,,,,null,,,,
null,is arguing with,,html-keyboard-response,44,476548,0.0-13.0-2.3,86403,List1A,white,man,,,,null,,,,
8057,,,survey-text,45,484606,0.0-13.0-3.3,86403,List1A,white,man,,,,,"{""Q0"":""luke is arguin with ruth""}","<img src=""stim_listA/argue3.gif""</stim_listA>",is arguing with,
null,"<div style=""font-size:60px;"">+</div>",,html-keyboard-response,46,485108,0.0-13.0-0.4,86403,List1A,white,man,,,,null,,,,
null,"<img src=""stim_listA/kiss6.gif""</stim_listA>",,html-keyboard-response,47,487111,0.0-13.0-1.4,86403,List1A,white,man,,,,null,,,,
null,are kissing each other,,html-keyboard-response,48,489112,0.0-13.0-2.4,86403,List1A,white,man,,,,null,,,,
21791,,,survey-text,49,510905,0.0-13.0-3.4,86403,List1A,white,man,,,,,"{""Q0"":""dave and mike are fighting each other""}","<img src=""stim_listA/kiss6.gif""</stim_listA>",are kissing each other,
null,"<div style=""font-size:60px;"">+</div>",,html-keyboard-response,50,511407,0.0-13.0-0.5,86403,List1A,white,man,,,,null,,,,
null,"<img src=""stim_listA/shout2.gif""</stim_listA>",,html-keyboard-response,51,513409,0.0-13.0-1.5,86403,List1A,white,man,,,,null,,,,
null,are shouting at each other,,html-keyboard-response,52,515412,0.0-13.0-2.5,86403,List1A,white,man,,,,null,,,,
9506,,,survey-text,53,524919,0.0-13.0-3.5,86403,List1A,white,man,,,,,"{""Q0"":""kate and mike are shouting at each other""}","<img src=""stim_listA/shout2.gif""</stim_listA>",are shouting at each other,
null,"<div style=""font-size:60px;"">+</div>",,html-keyboard-response,54,525422,0.0-13.0-0.6,86403,List1A,white,man,,,,null,,,,
null,"<img src=""stim_listA/hug6.gif""</stim_listA>",,html-keyboard-response,55,527424,0.0-13.0-1.6,86403,List1A,white,man,,,,null,,,,
null,are hugging each other,,html-keyboard-response,56,529427,0.0-13.0-2.6,86403,List1A,white,man,,,,null,,,,
12166,,,survey-text,57,541595,0.0-13.0-3.6,86403,List1A,white,man,,,,,"{""Q0"":""dave and mike are hugging each other""}","<img src=""stim_listA/hug6.gif""</stim_listA>",are hugging each other,
null,"<div style=""font-size:60px;"">+</div>",,html-keyboard-response,58,542097,0.0-13.0-0.7,86403,List1A,white,man,,,,null,,,,
null,"<img src=""stim_listA/marry6.gif""</stim_listA>",,html-keyboard-response,59,544100,0.0-13.0-1.7,86403,List1A,white,man,,,,null,,,,
null,are marrying each other,,html-keyboard-response,60,546103,0.0-13.0-2.7,86403,List1A,white,man,,,,null,,,,
9132,,,survey-text,61,555237,0.0-13.0-3.7,86403,List1A,white,man,,,,,"{""Q0"":""luke and fred are marrying each other""}","<img src=""stim_listA/marry6.gif""</stim_listA>",are marrying each other,
null,"<div style=""font-size:60px;"">+</div>",,html-keyboard-response,62,555739,0.0-13.0-0.8,86403,List1A,white,man,,,,null,,,,
null,"<img src=""stim_listA/fight3.gif""</stim_listA>",,html-keyboard-response,63,557742,0.0-13.0-1.8,86403,List1A,white,man,,,,null,,,,
null,is fighting,,html-keyboard-response,64,559744,0.0-13.0-2.8,86403,List1A,white,man,,,,null,,,,
10160,,,survey-text,65,569906,0.0-13.0-3.8,86403,List1A,white,man,,,,,"{""Q0"":""dave is fighting jane""}","<img src=""stim_listA/fight3.gif""</stim_listA>",is fighting,
null,"<div style=""font-size:60px;"">+</div>",,html-keyboard-response,66,570409,0.0-13.0-0.9,86403,List1A,white,man,,,,null,,,,
null,"<img src=""stim_listA/kiss3.gif""</stim_listA>",,html-keyboard-response,67,572411,0.0-13.0-1.9,86403,List1A,white,man,,,,null,,,,
null,is kissing,,html-keyboard-response,68,574413,0.0-13.0-2.9,86403,List1A,white,man,,,,null,,,,
8128,,,survey-text,69,582543,0.0-13.0-3.9,86403,List1A,white,man,,,,,"{""Q0"":""luke is kissing ruth""}","<img src=""stim_listA/kiss3.gif""</stim_listA>",is kissing,
null,"<div style=""font-size:60px;"">+</div>",,html-keyboard-response,70,583046,0.0-13.0-0.10,86403,List1A,white,man,,,,null,,,,
null,"<img src=""stim_listA/kiss5.gif""</stim_listA>",,html-keyboard-response,71,585049,0.0-13.0-1.10,86403,List1A,white,man,,,,null,,,,
null,is kissing,,html-keyboard-response,72,587050,0.0-13.0-2.10,86403,List1A,white,man,,,,null,,,,
12585,,,survey-text,73,599637,0.0-13.0-3.10,86403,List1A,white,man,,,,,"{""Q0"":""luke is kissing fred""}","<img src=""stim_listA/kiss5.gif""</stim_listA>",is kissing,
null,"<div style=""font-size:60px;"">+</div>",,html-keyboard-response,74,600139,0.0-13.0-0.11,86403,List1A,white,man,,,,null,,,,
null,"<img src=""stim_listA/touch7.gif""</stim_listA>",,html-keyboard-response,75,602141,0.0-13.0-1.11,86403,List1A,white,man,,,,null,,,,
null,is touching,,html-keyboard-response,76,604144,0.0-13.0-2.11,86403,List1A,white,man,,,,null,,,,
6924,,,survey-text,77,611069,0.0-13.0-3.11,86403,List1A,white,man,,,,,"{""Q0"":""kate is touching jane""}","<img src=""stim_listA/touch7.gif""</stim_listA>",is touching,
null,"<div style=""font-size:60px;"">+</div>",,html-keyboard-response,78,611572,0.0-13.0-0.12,86403,List1A,white,man,,,,null,,,,
null,"<img src=""stim_listA/argue1.gif""</stim_listA>",,html-keyboard-response,79,613575,0.0-13.0-1.12,86403,List1A,white,man,,,,null,,,,
null,is arguing with,,html-keyboard-response,80,615577,0.0-13.0-2.12,86403,List1A,white,man,,,,null,,,,
8028,,,survey-text,81,623605,0.0-13.0-3.12,86403,List1A,white,man,,,,,"{""Q0"":""beth is arguing with mike""}","<img src=""stim_listA/argue1.gif""</stim_listA>",is arguing with,
null,"<div style=""font-size:60px;"">+</div>",,html-keyboard-response,82,624107,0.0-13.0-0.13,86403,List1A,white,man,,,,null,,,,
null,"<img src=""stim_listA/shout3.gif""</stim_listA>",,html-keyboard-response,83,626109,0.0-13.0-1.13,86403,List1A,white,man,,,,null,,,,
null,is shouting at,,html-keyboard-response,84,628111,0.0-13.0-2.13,86403,List1A,white,man,,,,null,,,,
11556,,,survey-text,85,639669,0.0-13.0-3.13,86403,List1A,white,man,,,,,"{""Q0"":""luke is shouting at ruth""}","<img src=""stim_listA/shout3.gif""</stim_listA>",is shouting at,
null,"<div style=""font-size:60px;"">+</div>",,html-keyboard-response,86,640172,0.0-13.0-0.14,86403,List1A,white,man,,,,null,,,,
null,"<img src=""stim_listA/talk1.gif""</stim_listA>",,html-keyboard-response,87,642175,0.0-13.0-1.14,86403,List1A,white,man,,,,null,,,,
null,is talking to,,html-keyboard-response,88,644177,0.0-13.0-2.14,86403,List1A,white,man,,,,null,,,,
14080,,,survey-text,89,658259,0.0-13.0-3.14,86403,List1A,white,man,,,,,"{""Q0"":""fred is talking to kate""}","<img src=""stim_listA/talk1.gif""</stim_listA>",is talking to,
null,"<div style=""font-size:60px;"">+</div>",,html-keyboard-response,90,658761,0.0-13.0-0.15,86403,List1A,white,man,,,,null,,,,
null,"<img src=""stim_listA/fight1.gif""</stim_listA>",,html-keyboard-response,91,660764,0.0-13.0-1.15,86403,List1A,white,man,,,,null,,,,
null,is fighting,,html-keyboard-response,92,662766,0.0-13.0-2.15,86403,List1A,white,man,,,,null,,,,
85790,,,survey-text,93,748558,0.0-13.0-3.15,86403,List1A,white,man,,,,,"{""Q0"":""luke is talking to ruth""}","<img src=""stim_listA/fight1.gif""</stim_listA>",is fighting,
null,"<div style=""font-size:60px;"">+</div>",,html-keyboard-response,94,749060,0.0-13.0-0.16,86403,List1A,white,man,,,,null,,,,
null,"<img src=""stim_listA/meet4.gif""</stim_listA>",,html-keyboard-response,95,751063,0.0-13.0-1.16,86403,List1A,white,man,,,,null,,,,
null,are meeting each other,,html-keyboard-response,96,753065,0.0-13.0-2.16,86403,List1A,white,man,,,,null,,,,
15407,,,survey-text,97,768473,0.0-13.0-3.16,86403,List1A,white,man,,,,,"{""Q0"":""luke and ruth are meeting each other""}","<img src=""stim_listA/meet4.gif""</stim_listA>",are meeting each other,
null,"<div style=""font-size:60px;"">+</div>",,html-keyboard-response,98,768974,0.0-13.0-0.17,86403,List1A,white,man,,,,null,,,,
null,"<img src=""stim_listA/argue7.gif""</stim_listA>",,html-keyboard-response,99,770977,0.0-13.0-1.17,86403,List1A,white,man,,,,null,,,,
null,is arguing with,,html-keyboard-response,100,772980,0.0-13.0-2.17,86403,List1A,white,man,,,,null,,,,
7129,,,survey-text,101,780110,0.0-13.0-3.17,86403,List1A,white,man,,,,,"{""Q0"":""beth is arguing with ruth""}","<img src=""stim_listA/argue7.gif""</stim_listA>",is arguing with,
null,"<div style=""font-size:60px;"">+</div>",,html-keyboard-response,102,780612,0.0-13.0-0.18,86403,List1A,white,man,,,,null,,,,
null,"<img src=""stim_listA/fight8.gif""</stim_listA>",,html-keyboard-response,103,782614,0.0-13.0-1.18,86403,List1A,white,man,,,,null,,,,
null,are fighting each other,,html-keyboard-response,104,784616,0.0-13.0-2.18,86403,List1A,white,man,,,,null,,,,
12712,,,survey-text,105,797330,0.0-13.0-3.18,86403,List1A,white,man,,,,,"{""Q0"":""ruth and beth are fighting each other""}","<img src=""stim_listA/fight8.gif""</stim_listA>",are fighting each other,
null,"<div style=""font-size:60px;"">+</div>",,html-keyboard-response,106,797833,0.0-13.0-0.19,86403,List1A,white,man,,,,null,,,,
null,"<img src=""stim_listA/kiss8.gif""</stim_listA>",,html-keyboard-response,107,799836,0.0-13.0-1.19,86403,List1A,white,man,,,,null,,,,
null,are kissing each other,,html-keyboard-response,108,801837,0.0-13.0-2.19,86403,List1A,white,man,,,,null,,,,
13308,,,survey-text,109,815147,0.0-13.0-3.19,86403,List1A,white,man,,,,,"{""Q0"":""kate and jane are kissing each other""}","<img src=""stim_listA/kiss8.gif""</stim_listA>",are kissing each other,
20245,"<img src='img/portrait_matrix_list1.JPG' style='width:900px;height:500px;''></img><p>If you have memorised all the portraits and names and are ready to start, press Continue.</p><p><strong>Please note: Your memory of these faces will be tested 4 times during this experiment.</strong></p>",0,html-button-response,110,835394,0.0-14.0-0.0,86403,List1A,white,man,,,,,,,,
1338,"<img src=""portrait/WM1.jpg""style=""width:400px;height:400px;""></img>",6,html-button-response,111,837735,0.0-14.0-1.0,86403,List1A,white,man,,TRUE,6,,,,,
null,CORRECT,,html-keyboard-response,112,839238,0.0-14.0-2.0-0.0,86403,List1A,white,man,,,,null,,,,
1397,"<img src=""portrait/BW2.jpg""style=""width:400px;height:400px;""></img>",2,html-button-response,113,840637,0.0-14.0-4.0,86403,List1A,white,man,,TRUE,2,,,,,
null,CORRECT,,html-keyboard-response,114,842141,0.0-14.0-5.0-0.0,86403,List1A,white,man,,,,null,,,,
2647,"<img src=""portrait/WM2.jpg""style=""width:400px;height:400px;""></img>",7,html-button-response,115,844789,0.0-14.0-7.0,86403,List1A,white,man,,TRUE,7,,,,,
null,CORRECT,,html-keyboard-response,116,846293,0.0-14.0-8.0-0.0,86403,List1A,white,man,,,,null,,,,
2741,"<img src=""portrait/BM2.jpg""style=""width:400px;height:400px;""></img>",5,html-button-response,117,849038,0.0-14.0-10.0,86403,List1A,white,man,,TRUE,5,,,,,
null,CORRECT,,html-keyboard-response,118,850541,0.0-14.0-11.0-0.0,86403,List1A,white,man,,,,null,,,,
2258,"<img src=""portrait/WW2.jpg""style=""width:400px;height:400px;""></img>",3,html-button-response,119,852800,0.0-14.0-13.0,86403,List1A,white,man,,TRUE,3,,,,,
null,CORRECT,,html-keyboard-response,120,854303,0.0-14.0-14.0-0.0,86403,List1A,white,man,,,,null,,,,
4628,"<img src=""portrait/BW1.jpg""style=""width:400px;height:400px;""></img>",0,html-button-response,121,858933,0.0-14.0-16.0,86403,List1A,white,man,,TRUE,0,,,,,
null,CORRECT,,html-keyboard-response,122,860436,0.0-14.0-17.0-0.0,86403,List1A,white,man,,,,null,,,,
5450,"<img src=""portrait/WW1.jpg""style=""width:400px;height:400px;""></img>",1,html-button-response,123,865888,0.0-14.0-19.0,86403,List1A,white,man,,TRUE,1,,,,,
null,CORRECT,,html-keyboard-response,124,867390,0.0-14.0-20.0-0.0,86403,List1A,white,man,,,,null,,,,
2558,"<img src=""portrait/BM1.jpg""style=""width:400px;height:400px;""></img>",4,html-button-response,125,869951,0.0-14.0-22.0,86403,List1A,white,man,,TRUE,4,,,,,
null,CORRECT,,html-keyboard-response,126,871455,0.0-14.0-23.0-0.0,86403,List1A,white,man,,,,null,,,,
4747,<p>You got 8 out of 8 right first time. Press Continue.</p>,0,html-button-response,127,876203,0.0-14.0-25.0,86403,List1A,white,man,,,,,,,,
null,"<div style=""font-size:60px;"">+</div>",,html-keyboard-response,128,877707,0.0-15.0-0.0,86403,List1A,white,man,,,,null,,,,
null,"<img src=""stim_listA/meet5.gif""</stim_listA>",,html-keyboard-response,129,879710,0.0-15.0-1.0,86403,List1A,white,man,,,,null,,,,
null,is meeting,,html-keyboard-response,130,881712,0.0-15.0-2.0,86403,List1A,white,man,,,,null,,,,
18413,,,survey-text,131,900125,0.0-15.0-3.0,86403,List1A,white,man,,,,,"{""Q0"":""mike is meeting dave""}","<img src=""stim_listA/meet5.gif""</stim_listA>",is meeting,
null,"<div style=""font-size:60px;"">+</div>",,html-keyboard-response,132,900627,0.0-15.0-0.1,86403,List1A,white,man,,,,null,,,,
null,"<img src=""stim_listA/talk5.gif""</stim_listA>",,html-keyboard-response,133,902629,0.0-15.0-1.1,86403,List1A,white,man,,,,null,,,,
null,is talking to,,html-keyboard-response,134,904631,0.0-15.0-2.1,86403,List1A,white,man,,,,null,,,,
7071,,,survey-text,135,911703,0.0-15.0-3.1,86403,List1A,white,man,,,,,"{""Q0"":""fred is talking to dave""}","<img src=""stim_listA/talk5.gif""</stim_listA>",is talking to,
null,"<div style=""font-size:60px;"">+</div>",,html-keyboard-response,136,912205,0.0-15.0-0.2,86403,List1A,white,man,,,,null,,,,
null,"<img src=""stim_listA/touch4.gif""</stim_listA>",,html-keyboard-response,137,914207,0.0-15.0-1.2,86403,List1A,white,man,,,,null,,,,
null,are touching each other,,html-keyboard-response,138,916208,0.0-15.0-2.2,86403,List1A,white,man,,,,null,,,,
8509,,,survey-text,139,924718,0.0-15.0-3.2,86403,List1A,white,man,,,,,"{""Q0"":""ruth and luke are touching each other""}","<img src=""stim_listA/touch4.gif""</stim_listA>",are touching each other,
null,"<div style=""font-size:60px;"">+</div>",,html-keyboard-response,140,925220,0.0-15.0-0.3,86403,List1A,white,man,,,,null,,,,
null,"<img src=""stim_listA/talk4.gif""</stim_listA>",,html-keyboard-response,141,927221,0.0-15.0-1.3,86403,List1A,white,man,,,,null,,,,
null,are talking to each other,,html-keyboard-response,142,929224,0.0-15.0-2.3,86403,List1A,white,man,,,,null,,,,
8515,,,survey-text,143,937740,0.0-15.0-3.3,86403,List1A,white,man,,,,,"{""Q0"":""ruth and dave are talking to each other""}","<img src=""stim_listA/talk4.gif""</stim_listA>",are talking to each other,
null,"<div style=""font-size:60px;"">+</div>",,html-keyboard-response,144,938243,0.0-15.0-0.4,86403,List1A,white,man,,,,null,,,,
null,"<img src=""stim_listA/dance2.gif""</stim_listA>",,html-keyboard-response,145,940247,0.0-15.0-1.4,86403,List1A,white,man,,,,null,,,,
null,are dancing with each other,,html-keyboard-response,146,942249,0.0-15.0-2.4,86403,List1A,white,man,,,,null,,,,
9145,,,survey-text,147,951396,0.0-15.0-3.4,86403,List1A,white,man,,,,,"{""Q0"":""mike and beth are dancing with each other""}","<img src=""stim_listA/dance2.gif""</stim_listA>",are dancing with each other,
null,"<div style=""font-size:60px;"">+</div>",,html-keyboard-response,148,951898,0.0-15.0-0.5,86403,List1A,white,man,,,,null,,,,
null,"<img src=""stim_listA/dance7.gif""</stim_listA>",,html-keyboard-response,149,953901,0.0-15.0-1.5,86403,List1A,white,man,,,,null,,,,
null,is dancing with,,html-keyboard-response,150,955902,0.0-15.0-2.5,86403,List1A,white,man,,,,null,,,,
6414,,,survey-text,151,962318,0.0-15.0-3.5,86403,List1A,white,man,,,,,"{""Q0"":""beth is dancing with ruth""}","<img src=""stim_listA/dance7.gif""</stim_listA>",is dancing with,
null,"<div style=""font-size:60px;"">+</div>",,html-keyboard-response,152,962820,0.0-15.0-0.6,86403,List1A,white,man,,,,null,,,,
null,"<img src=""stim_listA/talk2.gif""</stim_listA>",,html-keyboard-response,153,964823,0.0-15.0-1.6,86403,List1A,white,man,,,,null,,,,
null,are talking to each other,,html-keyboard-response,154,966825,0.0-15.0-2.6,86403,List1A,white,man,,,,null,,,,
11413,,,survey-text,155,978239,0.0-15.0-3.6,86403,List1A,white,man,,,,,"{""Q0"":""mike and beth ar talking with each other""}","<img src=""stim_listA/talk2.gif""</stim_listA>",are talking to each other,
null,"<div style=""font-size:60px;"">+</div>",,html-keyboard-response,156,978742,0.0-15.0-0.7,86403,List1A,white,man,,,,null,,,,
null,"<img src=""stim_listA/marry3.gif""</stim_listA>",,html-keyboard-response,157,980745,0.0-15.0-1.7,86403,List1A,white,man,,,,null,,,,
null,is marrying,,html-keyboard-response,158,982746,0.0-15.0-2.7,86403,List1A,white,man,,,,null,,,,
7803,,,survey-text,159,990550,0.0-15.0-3.7,86403,List1A,white,man,,,,,"{""Q0"":""ruth is marrying dave""}","<img src=""stim_listA/marry3.gif""</stim_listA>",is marrying,
null,"<div style=""font-size:60px;"">+</div>",,html-keyboard-response,160,991052,0.0-15.0-0.8,86403,List1A,white,man,,,,null,,,,
null,"<img src=""stim_listA/fight5.gif""</stim_listA>",,html-keyboard-response,161,993055,0.0-15.0-1.8,86403,List1A,white,man,,,,null,,,,
null,is fighting,,html-keyboard-response,162,995057,0.0-15.0-2.8,86403,List1A,white,man,,,,null,,,,
7027,,,survey-text,163,1002086,0.0-15.0-3.8,86403,List1A,white,man,,,,,"{""Q0"":""mike is fighting dave""}","<img src=""stim_listA/fight5.gif""</stim_listA>",is fighting,
null,"<div style=""font-size:60px;"">+</div>",,html-keyboard-response,164,1002587,0.0-15.0-0.9,86403,List1A,white,man,,,,null,,,,
null,"<img src=""stim_listA/marry5.gif""</stim_listA>",,html-keyboard-response,165,1004590,0.0-15.0-1.9,86403,List1A,white,man,,,,null,,,,
null,is marrying,,html-keyboard-response,166,1006591,0.0-15.0-2.9,86403,List1A,white,man,,,,null,,,,
5240,,,survey-text,167,1011833,0.0-15.0-3.9,86403,List1A,white,man,,,,,"{""Q0"":""mike is marrying luke""}","<img src=""stim_listA/marry5.gif""</stim_listA>",is marrying,
null,"<div style=""font-size:60px;"">+</div>",,html-keyboard-response,168,1012335,0.0-15.0-0.10,86403,List1A,white,man,,,,null,,,,
null,"<img src=""stim_listA/hug3.gif""</stim_listA>",,html-keyboard-response,169,1014338,0.0-15.0-1.10,86403,List1A,white,man,,,,null,,,,
null,is hugging,,html-keyboard-response,170,1016341,0.0-15.0-2.10,86403,List1A,white,man,,,,null,,,,
15130,,,survey-text,171,1031471,0.0-15.0-3.10,86403,List1A,white,man,,,,,"{""Q0"":""luke is hugging ruth""}","<img src=""stim_listA/hug3.gif""</stim_listA>",is hugging,
null,"<div style=""font-size:60px;"">+</div>",,html-keyboard-response,172,1031974,0.0-15.0-0.11,86403,List1A,white,man,,,,null,,,,
null,"<img src=""stim_listA/meet6.gif""</stim_listA>",,html-keyboard-response,173,1033976,0.0-15.0-1.11,86403,List1A,white,man,,,,null,,,,
null,are meeting each other,,html-keyboard-response,174,1035978,0.0-15.0-2.11,86403,List1A,white,man,,,,null,,,,
14151,,,survey-text,175,1050129,0.0-15.0-3.11,86403,List1A,white,man,,,,,"{""Q0"":""fred and luke are meeting each other""}","<img src=""stim_listA/meet6.gif""</stim_listA>",are meeting each other,
null,"<div style=""font-size:60px;"">+</div>",,html-keyboard-response,176,1050632,0.0-15.0-0.12,86403,List1A,white,man,,,,null,,,,
null,"<img src=""stim_listA/touch3.gif""</stim_listA>",,html-keyboard-response,177,1052636,0.0-15.0-1.12,86403,List1A,white,man,,,,null,,,,
null,is touching,,html-keyboard-response,178,1054638,0.0-15.0-2.12,86403,List1A,white,man,,,,null,,,,
6859,,,survey-text,179,1061498,0.0-15.0-3.12,86403,List1A,white,man,,,,,"{""Q0"":""fred is touching ruth""}","<img src=""stim_listA/touch3.gif""</stim_listA>",is touching,
null,"<div style=""font-size:60px;"">+</div>",,html-keyboard-response,180,1061999,0.0-15.0-0.13,86403,List1A,white,man,,,,null,,,,
null,"<img src=""stim_listA/kiss4.gif""</stim_listA>",,html-keyboard-response,181,1064002,0.0-15.0-1.13,86403,List1A,white,man,,,,null,,,,
null,are kissing each other,,html-keyboard-response,182,1066004,0.0-15.0-2.13,86403,List1A,white,man,,,,null,,,,
10608,,,survey-text,183,1076614,0.0-15.0-3.13,86403,List1A,white,man,,,,,"{""Q0"":""dave and jane are kissing each other""}","<img src=""stim_listA/kiss4.gif""</stim_listA>",are kissing each other,
null,"<div style=""font-size:60px;"">+</div>",,html-keyboard-response,184,1077116,0.0-15.0-0.14,86403,List1A,white,man,,,,null,,,,
null,"<img src=""stim_listA/meet7.gif""</stim_listA>",,html-keyboard-response,185,1079119,0.0-15.0-1.14,86403,List1A,white,man,,,,null,,,,
null,is meeting,,html-keyboard-response,186,1081123,0.0-15.0-2.14,86403,List1A,white,man,,,,null,,,,
5582,,,survey-text,187,1086707,0.0-15.0-3.14,86403,List1A,white,man,,,,,"{""Q0"":""jane is meeting beth""}","<img src=""stim_listA/meet7.gif""</stim_listA>",is meeting,
null,"<div style=""font-size:60px;"">+</div>",,html-keyboard-response,188,1087211,0.0-15.0-0.15,86403,List1A,white,man,,,,null,,,,
null,"<img src=""stim_listA/dance6.gif""</stim_listA>",,html-keyboard-response,189,1089213,0.0-15.0-1.15,86403,List1A,white,man,,,,null,,,,
null,are dancing with each other,,html-keyboard-response,190,1091214,0.0-15.0-2.15,86403,List1A,white,man,,,,null,,,,
8723,,,survey-text,191,1099939,0.0-15.0-3.15,86403,List1A,white,man,,,,,"{""Q0"":""mike and luke are dancing with each other""}","<img src=""stim_listA/dance6.gif""</stim_listA>",are dancing with each other,
null,"<div style=""font-size:60px;"">+</div>",,html-keyboard-response,192,1100441,0.0-15.0-0.16,86403,List1A,white,man,,,,null,,,,
null,"<img src=""stim_listA/dance5.gif""</stim_listA>",,html-keyboard-response,193,1102445,0.0-15.0-1.16,86403,List1A,white,man,,,,null,,,,
null,is dancing with,,html-keyboard-response,194,1104447,0.0-15.0-2.16,86403,List1A,white,man,,,,null,,,,
25061,,,survey-text,195,1129510,0.0-15.0-3.16,86403,List1A,white,man,,,,,"{""Q0"":""fred is dancing with dave""}","<img src=""stim_listA/dance5.gif""</stim_listA>",is dancing with,
null,"<div style=""font-size:60px;"">+</div>",,html-keyboard-response,196,1130012,0.0-15.0-0.17,86403,List1A,white,man,,,,null,,,,
null,"<img src=""stim_listA/shout5.gif""</stim_listA>",,html-keyboard-response,197,1132016,0.0-15.0-1.17,86403,List1A,white,man,,,,null,,,,
null,is shouting at,,html-keyboard-response,198,1134018,0.0-15.0-2.17,86403,List1A,white,man,,,,null,,,,
7215,,,survey-text,199,1141234,0.0-15.0-3.17,86403,List1A,white,man,,,,,"{""Q0"":""fred is shouting at luke""}","<img src=""stim_listA/shout5.gif""</stim_listA>",is shouting at,
null,"<div style=""font-size:60px;"">+</div>",,html-keyboard-response,200,1141736,0.0-15.0-0.18,86403,List1A,white,man,,,,null,,,,
null,"<img src=""stim_listA/shout7.gif""</stim_listA>",,html-keyboard-response,201,1143741,0.0-15.0-1.18,86403,List1A,white,man,,,,null,,,,
null,is shouting at,,html-keyboard-response,202,1145742,0.0-15.0-2.18,86403,List1A,white,man,,,,null,,,,
68459,,,survey-text,203,1214202,0.0-15.0-3.18,86403,List1A,white,man,,,,,"{""Q0"":""ruth is shouting at luke""}","<img src=""stim_listA/shout7.gif""</stim_listA>",is shouting at,
null,"<div style=""font-size:60px;"">+</div>",,html-keyboard-response,204,1214704,0.0-15.0-0.19,86403,List1A,white,man,,,,null,,,,
null,"<img src=""stim_listA/dance3.gif""</stim_listA>",,html-keyboard-response,205,1216707,0.0-15.0-1.19,86403,List1A,white,man,,,,null,,,,
null,is dancing with,,html-keyboard-response,206,1218710,0.0-15.0-2.19,86403,List1A,white,man,,,,null,,,,
6259,,,survey-text,207,1224970,0.0-15.0-3.19,86403,List1A,white,man,,,,,"{""Q0"":""luke is dancing with ruth""}","<img src=""stim_listA/dance3.gif""</stim_listA>",is dancing with,
51907,"<img src='img/portrait_matrix_list1.JPG' style='width:900px;height:500px;''></img><p>If you have memorised all the portraits and names and are ready to start, press Continue.</p><p><strong>Please note: Your memory of these faces will be tested 4 times during this experiment.</strong></p>",0,html-button-response,208,1276879,0.0-16.0-0.0,86403,List1A,white,man,,,,,,,,
2276,"<img src=""portrait/WW1.jpg""style=""width:400px;height:400px;""></img>",1,html-button-response,209,1280158,0.0-16.0-1.0,86403,List1A,white,man,,TRUE,1,,,,,
null,CORRECT,,html-keyboard-response,210,1281660,0.0-16.0-2.0-0.0,86403,List1A,white,man,,,,null,,,,
1737,"<img src=""portrait/BM1.jpg""style=""width:400px;height:400px;""></img>",4,html-button-response,211,1283399,0.0-16.0-4.0,86403,List1A,white,man,,TRUE,4,,,,,
null,CORRECT,,html-keyboard-response,212,1284903,0.0-16.0-5.0-0.0,86403,List1A,white,man,,,,null,,,,
2400,"<img src=""portrait/BM2.jpg""style=""width:400px;height:400px;""></img>",5,html-button-response,213,1287305,0.0-16.0-7.0,86403,List1A,white,man,,TRUE,5,,,,,
null,CORRECT,,html-keyboard-response,214,1288809,0.0-16.0-8.0-0.0,86403,List1A,white,man,,,,null,,,,
3023,"<img src=""portrait/BW1.jpg""style=""width:400px;height:400px;""></img>",1,html-button-response,215,1291834,0.0-16.0-10.0,86403,List1A,white,man,,TRUE,0,,,,,
1291,"<img src=""portrait/BW1.jpg""style=""width:400px;height:400px;""></img>",0,html-button-response,216,1294127,0.0-16.0-12.0-0.0,86403,List1A,white,man,,FALSE,0,,,,,
null,CORRECT,,html-keyboard-response,217,1295630,0.0-16.0-12.0-1.0-0.0,86403,List1A,white,man,,,,null,,,,
4927,"<img src=""portrait/WM2.jpg""style=""width:400px;height:400px;""></img>",7,html-button-response,218,1300561,0.0-16.0-13.0,86403,List1A,white,man,,TRUE,7,,,,,
null,CORRECT,,html-keyboard-response,219,1302065,0.0-16.0-14.0-0.0,86403,List1A,white,man,,,,null,,,,
2286,"<img src=""portrait/WW2.jpg""style=""width:400px;height:400px;""></img>",3,html-button-response,220,1304354,0.0-16.0-16.0,86403,List1A,white,man,,TRUE,3,,,,,
null,CORRECT,,html-keyboard-response,221,1305857,0.0-16.0-17.0-0.0,86403,List1A,white,man,,,,null,,,,
1937,"<img src=""portrait/WM1.jpg""style=""width:400px;height:400px;""></img>",6,html-button-response,222,1307795,0.0-16.0-19.0,86403,List1A,white,man,,TRUE,6,,,,,
null,CORRECT,,html-keyboard-response,223,1309300,0.0-16.0-20.0-0.0,86403,List1A,white,man,,,,null,,,,
1410,"<img src=""portrait/BW2.jpg""style=""width:400px;height:400px;""></img>",2,html-button-response,224,1310712,0.0-16.0-22.0,86403,List1A,white,man,,TRUE,2,,,,,
null,CORRECT,,html-keyboard-response,225,1312215,0.0-16.0-23.0-0.0,86403,List1A,white,man,,,,null,,,,
1204,<p>You got 7 out of 8 right first time. Press Continue.</p>,0,html-button-response,226,1313422,0.0-16.0-25.0,86403,List1A,white,man,,,,,,,,
4033,"As you did not score 100%, the memory game will repeat. Press Continue.",0,html-button-response,227,1318458,0.0-16.0-26.0-0.0,86403,List1A,white,man,,,,,,,,
1898,"<img src='img/portrait_matrix_list1.JPG' style='width:900px;height:500px;''></img><p>If you have memorised all the portraits and names and are ready to start, press Continue.</p><p><strong>Please note: Your memory of these faces will be tested 4 times during this experiment.</strong></p>",0,html-button-response,228,1321360,0.0-16.1-0.1,86403,List1A,white,man,,,,,,,,
1683,"<img src=""portrait/WW1.jpg""style=""width:400px;height:400px;""></img>",1,html-button-response,229,1324046,0.0-16.1-1.1,86403,List1A,white,man,,TRUE,1,,,,,
null,CORRECT,,html-keyboard-response,230,1325549,0.0-16.1-2.1-0.1,86403,List1A,white,man,,,,null,,,,
1734,"<img src=""portrait/BM1.jpg""style=""width:400px;height:400px;""></img>",4,html-button-response,231,1327283,0.0-16.1-4.1,86403,List1A,white,man,,TRUE,4,,,,,
null,CORRECT,,html-keyboard-response,232,1328786,0.0-16.1-5.1-0.1,86403,List1A,white,man,,,,null,,,,
3225,"<img src=""portrait/BM2.jpg""style=""width:400px;height:400px;""></img>",5,html-button-response,233,1332014,0.0-16.1-7.1,86403,List1A,white,man,,TRUE,5,,,,,
null,CORRECT,,html-keyboard-response,234,1333517,0.0-16.1-8.1-0.1,86403,List1A,white,man,,,,null,,,,
2007,"<img src=""portrait/BW1.jpg""style=""width:400px;height:400px;""></img>",0,html-button-response,235,1335527,0.0-16.1-10.1,86403,List1A,white,man,,TRUE,0,,,,,
null,CORRECT,,html-keyboard-response,236,1337030,0.0-16.1-11.1-0.1,86403,List1A,white,man,,,,null,,,,
5842,"<img src=""portrait/WM2.jpg""style=""width:400px;height:400px;""></img>",7,html-button-response,237,1342874,0.0-16.1-13.1,86403,List1A,white,man,,TRUE,7,,,,,
null,CORRECT,,html-keyboard-response,238,1344378,0.0-16.1-14.1-0.1,86403,List1A,white,man,,,,null,,,,
2108,"<img src=""portrait/WW2.jpg""style=""width:400px;height:400px;""></img>",3,html-button-response,239,1346489,0.0-16.1-16.1,86403,List1A,white,man,,TRUE,3,,,,,
null,CORRECT,,html-keyboard-response,240,1347992,0.0-16.1-17.1-0.1,86403,List1A,white,man,,,,null,,,,
5096,"<img src=""portrait/WM1.jpg""style=""width:400px;height:400px;""></img>",6,html-button-response,241,1353092,0.0-16.1-19.1,86403,List1A,white,man,,TRUE,6,,,,,
null,CORRECT,,html-keyboard-response,242,1354595,0.0-16.1-20.1-0.1,86403,List1A,white,man,,,,null,,,,
1300,"<img src=""portrait/BW2.jpg""style=""width:400px;height:400px;""></img>",2,html-button-response,243,1355897,0.0-16.1-22.1,86403,List1A,white,man,,TRUE,2,,,,,
null,CORRECT,,html-keyboard-response,244,1357400,0.0-16.1-23.1-0.1,86403,List1A,white,man,,,,null,,,,
5766,<p>You got 8 out of 8 right first time. Press Continue.</p>,0,html-button-response,245,1363167,0.0-16.1-25.1,86403,List1A,white,man,,,,,,,,
null,"<div style=""font-size:60px;"">+</div>",,html-keyboard-response,246,1364673,0.0-17.0-0.0,86403,List1A,white,man,,,,null,,,,
null,"<img src=""stim_listA/argue8.gif""</stim_listA>",,html-keyboard-response,247,1366676,0.0-17.0-1.0,86403,List1A,white,man,,,,null,,,,
null,are arguing with each other,,html-keyboard-response,248,1368677,0.0-17.0-2.0,86403,List1A,white,man,,,,null,,,,
22010,,,survey-text,249,1390688,0.0-17.0-3.0,86403,List1A,white,man,,,,,"{""Q0"":""jane and beth are arguing with each other""}","<img src=""stim_listA/argue8.gif""</stim_listA>",are arguing with each other,
null,"<div style=""font-size:60px;"">+</div>",,html-keyboard-response,250,1391190,0.0-17.0-0.1,86403,List1A,white,man,,,,null,,,,
null,"<img src=""stim_listA/kiss2.gif""</stim_listA>",,html-keyboard-response,251,1393192,0.0-17.0-1.1,86403,List1A,white,man,,,,null,,,,
null,are kissing each other,,html-keyboard-response,252,1395195,0.0-17.0-2.1,86403,List1A,white,man,,,,null,,,,
7663,,,survey-text,253,1402859,0.0-17.0-3.1,86403,List1A,white,man,,,,,"{""Q0"":""ruth and beth are kissing each other""}","<img src=""stim_listA/kiss2.gif""</stim_listA>",are kissing each other,
null,"<div style=""font-size:60px;"">+</div>",,html-keyboard-response,254,1403362,0.0-17.0-0.2,86403,List1A,white,man,,,,null,,,,
null,"<img src=""stim_listA/talk8.gif""</stim_listA>",,html-keyboard-response,255,1405365,0.0-17.0-1.2,86403,List1A,white,man,,,,null,,,,
null,are talking to each other,,html-keyboard-response,256,1407368,0.0-17.0-2.2,86403,List1A,white,man,,,,null,,,,
7091,,,survey-text,257,1414461,0.0-17.0-3.2,86403,List1A,white,man,,,,,"{""Q0"":""ruth and beth are talking to each other""}","<img src=""stim_listA/talk8.gif""</stim_listA>",are talking to each other,
null,"<div style=""font-size:60px;"">+</div>",,html-keyboard-response,258,1414962,0.0-17.0-0.3,86403,List1A,white,man,,,,null,,,,
null,"<img src=""stim_listA/argue2.gif""</stim_listA>",,html-keyboard-response,259,1416965,0.0-17.0-1.3,86403,List1A,white,man,,,,null,,,,
null,are arguing with each other,,html-keyboard-response,260,1418967,0.0-17.0-2.3,86403,List1A,white,man,,,,null,,,,
11142,,,survey-text,261,1430110,0.0-17.0-3.3,86403,List1A,white,man,,,,,"{""Q0"":""fred and kate are arguing with each other""}","<img src=""stim_listA/argue2.gif""</stim_listA>",are arguing with each other,
null,"<div style=""font-size:60px;"">+</div>",,html-keyboard-response,262,1430612,0.0-17.0-0.4,86403,List1A,white,man,,,,null,,,,
null,"<img src=""stim_listA/hug7.gif""</stim_listA>",,html-keyboard-response,263,1432615,0.0-17.0-1.4,86403,List1A,white,man,,,,null,,,,
null,is hugging,,html-keyboard-response,264,1434618,0.0-17.0-2.4,86403,List1A,white,man,,,,null,,,,
5010,,,survey-text,265,1439630,0.0-17.0-3.4,86403,List1A,white,man,,,,,"{""Q0"":""ruth is hugging beth""}","<img src=""stim_listA/hug7.gif""</stim_listA>",is hugging,
null,"<div style=""font-size:60px;"">+</div>",,html-keyboard-response,266,1440131,0.0-17.0-0.5,86403,List1A,white,man,,,,null,,,,
null,"<img src=""stim_listA/marry4.gif""</stim_listA>",,html-keyboard-response,267,1442135,0.0-17.0-1.5,86403,List1A,white,man,,,,null,,,,
null,are marrying each other,,html-keyboard-response,268,1444138,0.0-17.0-2.5,86403,List1A,white,man,,,,null,,,,
24837,,,survey-text,269,1468975,0.0-17.0-3.5,86403,List1A,white,man,,,,,"{""Q0"":""luke and beth are marrying each other""}","<img src=""stim_listA/marry4.gif""</stim_listA>",are marrying each other,
null,"<div style=""font-size:60px;"">+</div>",,html-keyboard-response,270,1469477,0.0-17.0-0.6,86403,List1A,white,man,,,,null,,,,
null,"<img src=""stim_listA/argue4.gif""</stim_listA>",,html-keyboard-response,271,1471481,0.0-17.0-1.6,86403,List1A,white,man,,,,null,,,,
null,are arguing with each other,,html-keyboard-response,272,1473484,0.0-17.0-2.6,86403,List1A,white,man,,,,null,,,,
11325,,,survey-text,273,1484811,0.0-17.0-3.6,86403,List1A,white,man,,,,,"{""Q0"":""luke and jane are arguing with each other""}","<img src=""stim_listA/argue4.gif""</stim_listA>",are arguing with each other,
null,"<div style=""font-size:60px;"">+</div>",,html-keyboard-response,274,1485314,0.0-17.0-0.7,86403,List1A,white,man,,,,null,,,,
null,"<img src=""stim_listA/fight6.gif""</stim_listA>",,html-keyboard-response,275,1487318,0.0-17.0-1.7,86403,List1A,white,man,,,,null,,,,
null,are fighting each other,,html-keyboard-response,276,1489319,0.0-17.0-2.7,86403,List1A,white,man,,,,null,,,,
10290,,,survey-text,277,1499611,0.0-17.0-3.7,86403,List1A,white,man,,,,,"{""Q0"":""fred and luke are fighting each other""}","<img src=""stim_listA/fight6.gif""</stim_listA>",are fighting each other,
null,"<div style=""font-size:60px;"">+</div>",,html-keyboard-response,278,1500113,0.0-17.0-0.8,86403,List1A,white,man,,,,null,,,,
null,"<img src=""stim_listA/shout4.gif""</stim_listA>",,html-keyboard-response,279,1502116,0.0-17.0-1.8,86403,List1A,white,man,,,,null,,,,
null,are shouting at each other,,html-keyboard-response,280,1504117,0.0-17.0-2.8,86403,List1A,white,man,,,,null,,,,
12898,,,survey-text,281,1517017,0.0-17.0-3.8,86403,List1A,white,man,,,,,"{""Q0"":""jane and dave are shouting at each other""}","<img src=""stim_listA/shout4.gif""</stim_listA>",are shouting at each other,
null,"<div style=""font-size:60px;"">+</div>",,html-keyboard-response,282,1517519,0.0-17.0-0.9,86403,List1A,white,man,,,,null,,,,
null,"<img src=""stim_listA/dance4.gif""</stim_listA>",,html-keyboard-response,283,1519520,0.0-17.0-1.9,86403,List1A,white,man,,,,null,,,,
null,are dancing with each other,,html-keyboard-response,284,1521523,0.0-17.0-2.9,86403,List1A,white,man,,,,null,,,,
10639,,,survey-text,285,1532164,0.0-17.0-3.9,86403,List1A,white,man,,,,,"{""Q0"":""ruth and dave are dancing with each other""}","<img src=""stim_listA/dance4.gif""</stim_listA>",are dancing with each other,
null,"<div style=""font-size:60px;"">+</div>",,html-keyboard-response,286,1532666,0.0-17.0-0.10,86403,List1A,white,man,,,,null,,,,
null,"<img src=""stim_listA/kiss1.gif""</stim_listA>",,html-keyboard-response,287,1534669,0.0-17.0-1.10,86403,List1A,white,man,,,,null,,,,
null,is kissing,,html-keyboard-response,288,1536671,0.0-17.0-2.10,86403,List1A,white,man,,,,null,,,,
18252,,,survey-text,289,1554926,0.0-17.0-3.10,86403,List1A,white,man,,,,,"{""Q0"":""fred is kissing beth""}","<img src=""stim_listA/kiss1.gif""</stim_listA>",is kissing,
null,"<div style=""font-size:60px;"">+</div>",,html-keyboard-response,290,1555429,0.0-17.0-0.11,86403,List1A,white,man,,,,null,,,,
null,"<img src=""stim_listA/touch6.gif""</stim_listA>",,html-keyboard-response,291,1557432,0.0-17.0-1.11,86403,List1A,white,man,,,,null,,,,
null,are touching each other,,html-keyboard-response,292,1559435,0.0-17.0-2.11,86403,List1A,white,man,,,,null,,,,
9759,,,survey-text,293,1569196,0.0-17.0-3.11,86403,List1A,white,man,,,,,"{""Q0"":""luke and fred ar touching each other""}","<img src=""stim_listA/touch6.gif""</stim_listA>",are touching each other,
null,"<div style=""font-size:60px;"">+</div>",,html-keyboard-response,294,1569699,0.0-17.0-0.12,86403,List1A,white,man,,,,null,,,,
null,"<img src=""stim_listA/hug5.gif""</stim_listA>",,html-keyboard-response,295,1571701,0.0-17.0-1.12,86403,List1A,white,man,,,,null,,,,
null,is hugging,,html-keyboard-response,296,1573704,0.0-17.0-2.12,86403,List1A,white,man,,,,null,,,,
8154,,,survey-text,297,1581859,0.0-17.0-3.12,86403,List1A,white,man,,,,,"{""Q0"":""fred is hugging luke""}","<img src=""stim_listA/hug5.gif""</stim_listA>",is hugging,
null,"<div style=""font-size:60px;"">+</div>",,html-keyboard-response,298,1582361,0.0-17.0-0.13,86403,List1A,white,man,,,,null,,,,
null,"<img src=""stim_listA/meet8.gif""</stim_listA>",,html-keyboard-response,299,1584363,0.0-17.0-1.13,86403,List1A,white,man,,,,null,,,,
null,are meeting each other,,html-keyboard-response,300,1586365,0.0-17.0-2.13,86403,List1A,white,man,,,,null,,,,
11728,,,survey-text,301,1598094,0.0-17.0-3.13,86403,List1A,white,man,,,,,"{""Q0"":""ruth and beth are meeting each other""}","<img src=""stim_listA/meet8.gif""</stim_listA>",are meeting each other,
null,"<div style=""font-size:60px;"">+</div>",,html-keyboard-response,302,1598598,0.0-17.0-0.14,86403,List1A,white,man,,,,null,,,,
null,"<img src=""stim_listA/dance1.gif""</stim_listA>",,html-keyboard-response,303,1600600,0.0-17.0-1.14,86403,List1A,white,man,,,,null,,,,
null,is dancing with,,html-keyboard-response,304,1602602,0.0-17.0-2.14,86403,List1A,white,man,,,,null,,,,
6383,,,survey-text,305,1608987,0.0-17.0-3.14,86403,List1A,white,man,,,,,"{""Q0"":""fred is dancing with kate""}","<img src=""stim_listA/dance1.gif""</stim_listA>",is dancing with,
null,"<div style=""font-size:60px;"">+</div>",,html-keyboard-response,306,1609489,0.0-17.0-0.15,86403,List1A,white,man,,,,null,,,,
null,"<img src=""stim_listA/kiss7.gif""</stim_listA>",,html-keyboard-response,307,1611492,0.0-17.0-1.15,86403,List1A,white,man,,,,null,,,,
null,is kissing,,html-keyboard-response,308,1613494,0.0-17.0-2.15,86403,List1A,white,man,,,,null,,,,
19278,,,survey-text,309,1632774,0.0-17.0-3.15,86403,List1A,white,man,,,,,"{""Q0"":""ruth is kissing beth""}","<img src=""stim_listA/kiss7.gif""</stim_listA>",is kissing,
null,"<div style=""font-size:60px;"">+</div>",,html-keyboard-response,310,1633277,0.0-17.0-0.16,86403,List1A,white,man,,,,null,,,,
null,"<img src=""stim_listA/argue5.gif""</stim_listA>",,html-keyboard-response,311,1635280,0.0-17.0-1.16,86403,List1A,white,man,,,,null,,,,
null,is arguing with,,html-keyboard-response,312,1637282,0.0-17.0-2.16,86403,List1A,white,man,,,,null,,,,
34056,,,survey-text,313,1671340,0.0-17.0-3.16,86403,List1A,white,man,,,,,"{""Q0"":""mike is arguing with luke""}","<img src=""stim_listA/argue5.gif""</stim_listA>",is arguing with,
null,"<div style=""font-size:60px;"">+</div>",,html-keyboard-response,314,1671841,0.0-17.0-0.17,86403,List1A,white,man,,,,null,,,,
null,"<img src=""stim_listA/hug8.gif""</stim_listA>",,html-keyboard-response,315,1673843,0.0-17.0-1.17,86403,List1A,white,man,,,,null,,,,
null,are hugging each other,,html-keyboard-response,316,1675845,0.0-17.0-2.17,86403,List1A,white,man,,,,null,,,,
11885,,,survey-text,317,1687731,0.0-17.0-3.17,86403,List1A,white,man,,,,,"{""Q0"":""jane and kate are hugging each other""}","<img src=""stim_listA/hug8.gif""</stim_listA>",are hugging each other,
null,"<div style=""font-size:60px;"">+</div>",,html-keyboard-response,318,1688234,0.0-17.0-0.18,86403,List1A,white,man,,,,null,,,,
null,"<img src=""stim_listA/meet2.gif""</stim_listA>",,html-keyboard-response,319,1690237,0.0-17.0-1.18,86403,List1A,white,man,,,,null,,,,
null,are meeting each other,,html-keyboard-response,320,1692239,0.0-17.0-2.18,86403,List1A,white,man,,,,null,,,,
9562,,,survey-text,321,1701803,0.0-17.0-3.18,86403,List1A,white,man,,,,,"{""Q0"":""fred and beth are meeting each other""}","<img src=""stim_listA/meet2.gif""</stim_listA>",are meeting each other,
null,"<div style=""font-size:60px;"">+</div>",,html-keyboard-response,322,1702306,0.0-17.0-0.19,86403,List1A,white,man,,,,null,,,,
null,"<img src=""stim_listA/marry8.gif""</stim_listA>",,html-keyboard-response,323,1704310,0.0-17.0-1.19,86403,List1A,white,man,,,,null,,,,
null,are marrying each other,,html-keyboard-response,324,1706312,0.0-17.0-2.19,86403,List1A,white,man,,,,null,,,,
11174,,,survey-text,325,1717488,0.0-17.0-3.19,86403,List1A,white,man,,,,,"{""Q0"":""jane and beth are marrying each other""}","<img src=""stim_listA/marry8.gif""</stim_listA>",are marrying each other,
14359,"<img src='img/portrait_matrix_list1.JPG' style='width:900px;height:500px;''></img><p>If you have memorised all the portraits and names and are ready to start, press Continue.</p><p><strong>Please note: Your memory of these faces will be tested 4 times during this experiment.</strong></p>",0,html-button-response,326,1731849,0.0-18.0-0.0,86403,List1A,white,man,,,,,,,,
6986,"<img src=""portrait/WM2.jpg""style=""width:400px;height:400px;""></img>",7,html-button-response,327,1739839,0.0-18.0-1.0,86403,List1A,white,man,,TRUE,7,,,,,
null,CORRECT,,html-keyboard-response,328,1741342,0.0-18.0-2.0-0.0,86403,List1A,white,man,,,,null,,,,
7222,"<img src=""portrait/BM1.jpg""style=""width:400px;height:400px;""></img>",4,html-button-response,329,1748568,0.0-18.0-4.0,86403,List1A,white,man,,TRUE,4,,,,,
null,CORRECT,,html-keyboard-response,330,1750071,0.0-18.0-5.0-0.0,86403,List1A,white,man,,,,null,,,,
2213,"<img src=""portrait/WM1.jpg""style=""width:400px;height:400px;""></img>",6,html-button-response,331,1752285,0.0-18.0-7.0,86403,List1A,white,man,,TRUE,6,,,,,
null,CORRECT,,html-keyboard-response,332,1753789,0.0-18.0-8.0-0.0,86403,List1A,white,man,,,,null,,,,
3212,"<img src=""portrait/BW1.jpg""style=""width:400px;height:400px;""></img>",0,html-button-response,333,1757003,0.0-18.0-10.0,86403,List1A,white,man,,TRUE,0,,,,,
null,CORRECT,,html-keyboard-response,334,1758507,0.0-18.0-11.0-0.0,86403,List1A,white,man,,,,null,,,,
6591,"<img src=""portrait/BW2.jpg""style=""width:400px;height:400px;""></img>",2,html-button-response,335,1765101,0.0-18.0-13.0,86403,List1A,white,man,,TRUE,2,,,,,
null,CORRECT,,html-keyboard-response,336,1766605,0.0-18.0-14.0-0.0,86403,List1A,white,man,,,,null,,,,
1511,"<img src=""portrait/WW1.jpg""style=""width:400px;height:400px;""></img>",1,html-button-response,337,1768117,0.0-18.0-16.0,86403,List1A,white,man,,TRUE,1,,,,,
null,CORRECT,,html-keyboard-response,338,1769622,0.0-18.0-17.0-0.0,86403,List1A,white,man,,,,null,,,,
4095,"<img src=""portrait/BM2.jpg""style=""width:400px;height:400px;""></img>",5,html-button-response,339,1773720,0.0-18.0-19.0,86403,List1A,white,man,,TRUE,5,,,,,
null,CORRECT,,html-keyboard-response,340,1775224,0.0-18.0-20.0-0.0,86403,List1A,white,man,,,,null,,,,
1569,"<img src=""portrait/WW2.jpg""style=""width:400px;height:400px;""></img>",3,html-button-response,341,1776795,0.0-18.0-22.0,86403,List1A,white,man,,TRUE,3,,,,,
null,CORRECT,,html-keyboard-response,342,1778300,0.0-18.0-23.0-0.0,86403,List1A,white,man,,,,null,,,,
14174,<p>You got 8 out of 8 right first time. Press Continue.</p>,0,html-button-response,343,1792477,0.0-18.0-25.0,86403,List1A,white,man,,,,,,,,
null,"<div style=""font-size:60px;"">+</div>",,html-keyboard-response,344,1793981,0.0-19.0-0.0,86403,List1A,white,man,,,,null,,,,
null,"<img src=""stim_listA/fight4.gif""</stim_listA>",,html-keyboard-response,345,1795984,0.0-19.0-1.0,86403,List1A,white,man,,,,null,,,,
null,are fighting each other,,html-keyboard-response,346,1797987,0.0-19.0-2.0,86403,List1A,white,man,,,,null,,,,
9776,,,survey-text,347,1807765,0.0-19.0-3.0,86403,List1A,white,man,,,,,"{""Q0"":""ruth and luke are fighting each other""}","<img src=""stim_listA/fight4.gif""</stim_listA>",are fighting each other,
null,"<div style=""font-size:60px;"">+</div>",,html-keyboard-response,348,1808268,0.0-19.0-0.1,86403,List1A,white,man,,,,null,,,,
null,"<img src=""stim_listA/hug4.gif""</stim_listA>",,html-keyboard-response,349,1810273,0.0-19.0-1.1,86403,List1A,white,man,,,,null,,,,
null,are hugging each other,,html-keyboard-response,350,1812276,0.0-19.0-2.1,86403,List1A,white,man,,,,null,,,,
8971,,,survey-text,351,1821249,0.0-19.0-3.1,86403,List1A,white,man,,,,,"{""Q0"":""jane and dave are hugging each other""}","<img src=""stim_listA/hug4.gif""</stim_listA>",are hugging each other,
null,"<div style=""font-size:60px;"">+</div>",,html-keyboard-response,352,1821751,0.0-19.0-0.2,86403,List1A,white,man,,,,null,,,,
null,"<img src=""stim_listA/argue6.gif""</stim_listA>",,html-keyboard-response,353,1823754,0.0-19.0-1.2,86403,List1A,white,man,,,,null,,,,
null,are arguing with each other,,html-keyboard-response,354,1825757,0.0-19.0-2.2,86403,List1A,white,man,,,,null,,,,
12792,,,survey-text,355,1838551,0.0-19.0-3.2,86403,List1A,white,man,,,,,"{""Q0"":""dave and fred are fighting each other""}","<img src=""stim_listA/argue6.gif""</stim_listA>",are arguing with each other,
null,"<div style=""font-size:60px;"">+</div>",,html-keyboard-response,356,1839054,0.0-19.0-0.3,86403,List1A,white,man,,,,null,,,,
null,"<img src=""stim_listA/talk7.gif""</stim_listA>",,html-keyboard-response,357,1841056,0.0-19.0-1.3,86403,List1A,white,man,,,,null,,,,
null,is talking to,,html-keyboard-response,358,1843058,0.0-19.0-2.3,86403,List1A,white,man,,,,null,,,,
57266,,,survey-text,359,1900325,0.0-19.0-3.3,86403,List1A,white,man,,,,,"{""Q0"":""jane is talking to beth""}","<img src=""stim_listA/talk7.gif""</stim_listA>",is talking to,
null,"<div style=""font-size:60px;"">+</div>",,html-keyboard-response,360,1900827,0.0-19.0-0.4,86403,List1A,white,man,,,,null,,,,
null,"<img src=""stim_listA/touch1.gif""</stim_listA>",,html-keyboard-response,361,1902829,0.0-19.0-1.4,86403,List1A,white,man,,,,null,,,,
null,is touching,,html-keyboard-response,362,1904832,0.0-19.0-2.4,86403,List1A,white,man,,,,null,,,,
5529,,,survey-text,363,1910362,0.0-19.0-3.4,86403,List1A,white,man,,,,,"{""Q0"":""mike is touching kate""}","<img src=""stim_listA/touch1.gif""</stim_listA>",is touching,
null,"<div style=""font-size:60px;"">+</div>",,html-keyboard-response,364,1910865,0.0-19.0-0.5,86403,List1A,white,man,,,,null,,,,
null,"<img src=""stim_listA/shout8.gif""</stim_listA>",,html-keyboard-response,365,1912870,0.0-19.0-1.5,86403,List1A,white,man,,,,null,,,,
null,are shouting at each other,,html-keyboard-response,366,1914872,0.0-19.0-2.5,86403,List1A,white,man,,,,null,,,,
14442,,,survey-text,367,1929316,0.0-19.0-3.5,86403,List1A,white,man,,,,,"{""Q0"":""jane and kate are shouting at each other""}","<img src=""stim_listA/shout8.gif""</stim_listA>",are shouting at each other,
null,"<div style=""font-size:60px;"">+</div>",,html-keyboard-response,368,1929820,0.0-19.0-0.6,86403,List1A,white,man,,,,null,,,,
null,"<img src=""stim_listA/touch8.gif""</stim_listA>",,html-keyboard-response,369,1931823,0.0-19.0-1.6,86403,List1A,white,man,,,,null,,,,
null,are touching each other,,html-keyboard-response,370,1933826,0.0-19.0-2.6,86403,List1A,white,man,,,,null,,,,
16529,,,survey-text,371,1950356,0.0-19.0-3.6,86403,List1A,white,man,,,,,"{""Q0"":""ruth and beth are touching each other""}","<img src=""stim_listA/touch8.gif""</stim_listA>",are touching each other,
null,"<div style=""font-size:60px;"">+</div>",,html-keyboard-response,372,1950858,0.0-19.0-0.7,86403,List1A,white,man,,,,null,,,,
null,"<img src=""stim_listA/hug1.gif""</stim_listA>",,html-keyboard-response,373,1952861,0.0-19.0-1.7,86403,List1A,white,man,,,,null,,,,
null,is hugging,,html-keyboard-response,374,1954863,0.0-19.0-2.7,86403,List1A,white,man,,,,null,,,,
10144,,,survey-text,375,1965008,0.0-19.0-3.7,86403,List1A,white,man,,,,,"{""Q0"":""fred is hugging beth""}","<img src=""stim_listA/hug1.gif""</stim_listA>",is hugging,
null,"<div style=""font-size:60px;"">+</div>",,html-keyboard-response,376,1965509,0.0-19.0-0.8,86403,List1A,white,man,,,,null,,,,
null,"<img src=""stim_listA/dance8.gif""</stim_listA>",,html-keyboard-response,377,1967513,0.0-19.0-1.8,86403,List1A,white,man,,,,null,,,,
null,are dancing with each other,,html-keyboard-response,378,1969515,0.0-19.0-2.8,86403,List1A,white,man,,,,null,,,,
15309,,,survey-text,379,1984826,0.0-19.0-3.8,86403,List1A,white,man,,,,,"{""Q0"":""ruth and kate are dancing with each other""}","<img src=""stim_listA/dance8.gif""</stim_listA>",are dancing with each other,
null,"<div style=""font-size:60px;"">+</div>",,html-keyboard-response,380,1985328,0.0-19.0-0.9,86403,List1A,white,man,,,,null,,,,
null,"<img src=""stim_listA/fight2.gif""</stim_listA>",,html-keyboard-response,381,1987330,0.0-19.0-1.9,86403,List1A,white,man,,,,null,,,,
null,are fighting each other,,html-keyboard-response,382,1989334,0.0-19.0-2.9,86403,List1A,white,man,,,,null,,,,
12126,,,survey-text,383,2001462,0.0-19.0-3.9,86403,List1A,white,man,,,,,"{""Q0"":""fred and beth are fighting with each other""}","<img src=""stim_listA/fight2.gif""</stim_listA>",are fighting each other,
null,"<div style=""font-size:60px;"">+</div>",,html-keyboard-response,384,2001963,0.0-19.0-0.10,86403,List1A,white,man,,,,null,,,,
null,"<img src=""stim_listA/marry2.gif""</stim_listA>",,html-keyboard-response,385,2003966,0.0-19.0-1.10,86403,List1A,white,man,,,,null,,,,
null,are marrying each other,,html-keyboard-response,386,2005968,0.0-19.0-2.10,86403,List1A,white,man,,,,null,,,,
10622,,,survey-text,387,2016592,0.0-19.0-3.10,86403,List1A,white,man,,,,,"{""Q0"":""fred and kate are marrying each other""}","<img src=""stim_listA/marry2.gif""</stim_listA>",are marrying each other,
null,"<div style=""font-size:60px;"">+</div>",,html-keyboard-response,388,2017093,0.0-19.0-0.11,86403,List1A,white,man,,,,null,,,,
null,"<img src=""stim_listA/marry1.gif""</stim_listA>",,html-keyboard-response,389,2019095,0.0-19.0-1.11,86403,List1A,white,man,,,,null,,,,
null,is marrying,,html-keyboard-response,390,2021097,0.0-19.0-2.11,86403,List1A,white,man,,,,null,,,,
44362,,,survey-text,391,2065460,0.0-19.0-3.11,86403,List1A,white,man,,,,,"{""Q0"":""mike is marrying beth""}","<img src=""stim_listA/marry1.gif""</stim_listA>",is marrying,
null,"<div style=""font-size:60px;"">+</div>",,html-keyboard-response,392,2065963,0.0-19.0-0.12,86403,List1A,white,man,,,,null,,,,
null,"<img src=""stim_listA/meet1.gif""</stim_listA>",,html-keyboard-response,393,2067966,0.0-19.0-1.12,86403,List1A,white,man,,,,null,,,,
null,is meeting,,html-keyboard-response,394,2069969,0.0-19.0-2.12,86403,List1A,white,man,,,,null,,,,
6015,,,survey-text,395,2075986,0.0-19.0-3.12,86403,List1A,white,man,,,,,"{""Q0"":""mike is meeting kate""}","<img src=""stim_listA/meet1.gif""</stim_listA>",is meeting,
null,"<div style=""font-size:60px;"">+</div>",,html-keyboard-response,396,2076487,0.0-19.0-0.13,86403,List1A,white,man,,,,null,,,,
null,"<img src=""stim_listA/talk3.gif""</stim_listA>",,html-keyboard-response,397,2078490,0.0-19.0-1.13,86403,List1A,white,man,,,,null,,,,
null,is talking to,,html-keyboard-response,398,2080493,0.0-19.0-2.13,86403,List1A,white,man,,,,null,,,,
6629,,,survey-text,399,2087124,0.0-19.0-3.13,86403,List1A,white,man,,,,,"{""Q0"":""luke is talking to jane""}","<img src=""stim_listA/talk3.gif""</stim_listA>",is talking to,
null,"<div style=""font-size:60px;"">+</div>",,html-keyboard-response,400,2087627,0.0-19.0-0.14,86403,List1A,white,man,,,,null,,,,
null,"<img src=""stim_listA/talk6.gif""</stim_listA>",,html-keyboard-response,401,2089630,0.0-19.0-1.14,86403,List1A,white,man,,,,null,,,,
null,are talking to each other,,html-keyboard-response,402,2091633,0.0-19.0-2.14,86403,List1A,white,man,,,,null,,,,
8516,,,survey-text,403,2100151,0.0-19.0-3.14,86403,List1A,white,man,,,,,"{""Q0"":""mike and luke are talking to each other""}","<img src=""stim_listA/talk6.gif""</stim_listA>",are talking to each other,
null,"<div style=""font-size:60px;"">+</div>",,html-keyboard-response,404,2100654,0.0-19.0-0.15,86403,List1A,white,man,,,,null,,,,
null,"<img src=""stim_listA/marry7.gif""</stim_listA>",,html-keyboard-response,405,2102658,0.0-19.0-1.15,86403,List1A,white,man,,,,null,,,,
null,is marrying,,html-keyboard-response,406,2104661,0.0-19.0-2.15,86403,List1A,white,man,,,,null,,,,
8676,,,survey-text,407,2113340,0.0-19.0-3.15,86403,List1A,white,man,,,,,"{""Q0"":""ruth is marrying kate""}","<img src=""stim_listA/marry7.gif""</stim_listA>",is marrying,
null,"<div style=""font-size:60px;"">+</div>",,html-keyboard-response,408,2113841,0.0-19.0-0.16,86403,List1A,white,man,,,,null,,,,
null,"<img src=""stim_listA/meet3.gif""</stim_listA>",,html-keyboard-response,409,2115845,0.0-19.0-1.16,86403,List1A,white,man,,,,null,,,,
null,is meeting,,html-keyboard-response,410,2117849,0.0-19.0-2.16,86403,List1A,white,man,,,,null,,,,
44879,,,survey-text,411,2162728,0.0-19.0-3.16,86403,List1A,white,man,,,,,"{""Q0"":""luke is meeting jane""}","<img src=""stim_listA/meet3.gif""</stim_listA>",is meeting,
null,"<div style=""font-size:60px;"">+</div>",,html-keyboard-response,412,2163230,0.0-19.0-0.17,86403,List1A,white,man,,,,null,,,,
null,"<img src=""stim_listA/shout1.gif""</stim_listA>",,html-keyboard-response,413,2165232,0.0-19.0-1.17,86403,List1A,white,man,,,,null,,,,
null,is shouting at,,html-keyboard-response,414,2167234,0.0-19.0-2.17,86403,List1A,white,man,,,,null,,,,
10447,,,survey-text,415,2177683,0.0-19.0-3.17,86403,List1A,white,man,,,,,"{""Q0"":""fred is shouting at beth""}","<img src=""stim_listA/shout1.gif""</stim_listA>",is shouting at,
null,"<div style=""font-size:60px;"">+</div>",,html-keyboard-response,416,2178187,0.0-19.0-0.18,86403,List1A,white,man,,,,null,,,,
null,"<img src=""stim_listA/touch2.gif""</stim_listA>",,html-keyboard-response,417,2180191,0.0-19.0-1.18,86403,List1A,white,man,,,,null,,,,
null,are touching each other,,html-keyboard-response,418,2182194,0.0-19.0-2.18,86403,List1A,white,man,,,,null,,,,
15399,,,survey-text,419,2197595,0.0-19.0-3.18,86403,List1A,white,man,,,,,"{""Q0"":""fred is touching beth""}","<img src=""stim_listA/touch2.gif""</stim_listA>",are touching each other,
null,"<div style=""font-size:60px;"">+</div>",,html-keyboard-response,420,2198098,0.0-19.0-0.19,86403,List1A,white,man,,,,null,,,,
null,"<img src=""stim_listA/touch5.gif""</stim_listA>",,html-keyboard-response,421,2200101,0.0-19.0-1.19,86403,List1A,white,man,,,,null,,,,
null,is touching,,html-keyboard-response,422,2202103,0.0-19.0-2.19,86403,List1A,white,man,,,,null,,,,
8426,,,survey-text,423,2210531,0.0-19.0-3.19,86403,List1A,white,man,,,,,"{""Q0"":""mike is touching dave""}","<img src=""stim_listA/touch5.gif""</stim_listA>",is touching,
3253,<p>Thank you for completing that task.</p><p>The final part of this session is a short questionnaire.</p><p>Press Continue.</p>,0,html-button-response,424,2213786,0.0-20.0,86403,List1A,white,man,,,,,,,,
27134,,,survey-text,425,2241924,0.0-21.0,86403,List1A,white,man,,,,,"{""Q0"":""36"",""Q1"":""English"",""Q2"":""English"",""Q3"":""USA"",""Q4"":""Latino"",""Q5"":""Male""}",,,demographics
37495,,,survey-likert,426,2279433,0.0-22.0,86403,List1A,white,man,,,,,"{""Q0"":0,""Q1"":0,""Q2"":0,""Q3"":3,""Q4"":"""",""Q5"":3,""Q6"":0,""Q7"":"""",""Q8"":0,""Q9"":"""",""Q10"":3,""Q11"":3,""Q12"":4,""Q13"":4}",,,likert_race
44244,,,survey-likert,427,2323682,0.0-23.0,86403,List1A,white,man,,,,,"{""Q0"":0,""Q1"":0,""Q2"":0,""Q3"":3,""Q4"":3,""Q5"":3,""Q6"":3,""Q7"":0,""Q8"":0,""Q9"":0,""Q10"":3,""Q11"":3,""Q12"":3,""Q13"":3}",,,likert_gender
8151,,,survey-text,428,2331835,0.0-24.0,86403,List1A,white,man,,,,,"{""Q0"":""ccc""}",,,worker_id
2971,,,external-html,429,2335163,0.0-25.0,86403,List1A,white,man,debrief.html,,,,,,,
