rt,stimulus,button_pressed,trial_type,trial_index,time_elapsed,internal_node_id,subject,list,ppt_race,ppt_gender,url,first_guess,correct,key_press,responses,image_type,phrase_type,test_part
2645,Welcome to the experiment. Press Continue to begin.,0,html-button-response,0,2647,0.0-0.0,87528,List2A,black,woman,,,,,,,,
108530,,,external-html,1,112292,0.0-1.0,87528,List2A,black,woman,consent.html,,,,,,,
5430,"<p>On the next page, you will see portraits of 8 people and their names.</p><p>Your first task is to take a few minutes to memorise the names of these people.</p><p>You will have to recall their names during the rest of the experiment, so it is</p><p>essential that you try to memorise these people and their names as best as you can.</p><br><p><strong>You will then be tested on your memory of these names and portraits.</strong></p><br><p>The experiment will start after you have completed this memory test.</p><br><p>Ready?</p>",0,html-button-response,2,117724,0.0-2.0,87528,List2A,black,woman,,,,,,,,
69742,"<img src='img/portrait_matrix_list2.JPG' style='width:900px;height:500px;''></img><p>If you have memorised all the portraits and names and are ready to start, press Continue.</p><p><strong>Please note: Your memory of these faces will be tested 4 times during this experiment.</strong></p>",0,html-button-response,3,188468,0.0-3.0-0.0,87528,List2A,black,woman,,,,,,,,
7682,"<img src=""portrait/BW1.jpg""style=""width:400px;height:400px;""></img>",0,html-button-response,4,197151,0.0-3.0-1.0,87528,List2A,black,woman,,TRUE,0,,,,,
null,CORRECT,,html-keyboard-response,5,198656,0.0-3.0-2.0-0.0,87528,List2A,black,woman,,,,null,,,,
4943,"<img src=""portrait/WM1.jpg""style=""width:400px;height:400px;""></img>",6,html-button-response,6,203600,0.0-3.0-4.0,87528,List2A,black,woman,,TRUE,6,,,,,
null,CORRECT,,html-keyboard-response,7,205104,0.0-3.0-5.0-0.0,87528,List2A,black,woman,,,,null,,,,
8768,"<img src=""portrait/BM1.jpg""style=""width:400px;height:400px;""></img>",4,html-button-response,8,213873,0.0-3.0-7.0,87528,List2A,black,woman,,TRUE,4,,,,,
null,CORRECT,,html-keyboard-response,9,215378,0.0-3.0-8.0-0.0,87528,List2A,black,woman,,,,null,,,,
7335,"<img src=""portrait/WW2.jpg""style=""width:400px;height:400px;""></img>",3,html-button-response,10,222715,0.0-3.0-10.0,87528,List2A,black,woman,,TRUE,3,,,,,
null,CORRECT,,html-keyboard-response,11,224217,0.0-3.0-11.0-0.0,87528,List2A,black,woman,,,,null,,,,
5665,"<img src=""portrait/BM2.jpg""style=""width:400px;height:400px;""></img>",5,html-button-response,12,229883,0.0-3.0-13.0,87528,List2A,black,woman,,TRUE,5,,,,,
null,CORRECT,,html-keyboard-response,13,231386,0.0-3.0-14.0-0.0,87528,List2A,black,woman,,,,null,,,,
8286,"<img src=""portrait/BW2.jpg""style=""width:400px;height:400px;""></img>",2,html-button-response,14,239673,0.0-3.0-16.0,87528,List2A,black,woman,,TRUE,2,,,,,
null,CORRECT,,html-keyboard-response,15,241176,0.0-3.0-17.0-0.0,87528,List2A,black,woman,,,,null,,,,
11038,"<img src=""portrait/WW1.jpg""style=""width:400px;height:400px;""></img>",1,html-button-response,16,252215,0.0-3.0-19.0,87528,List2A,black,woman,,TRUE,1,,,,,
null,CORRECT,,html-keyboard-response,17,253717,0.0-3.0-20.0-0.0,87528,List2A,black,woman,,,,null,,,,
8531,"<img src=""portrait/WM2.jpg""style=""width:400px;height:400px;""></img>",7,html-button-response,18,262249,0.0-3.0-22.0,87528,List2A,black,woman,,TRUE,7,,,,,
null,CORRECT,,html-keyboard-response,19,263752,0.0-3.0-23.0-0.0,87528,List2A,black,woman,,,,null,,,,
4353,<p>You got 8 out of 8 right first time. Press Continue.</p>,0,html-button-response,20,268107,0.0-3.0-25.0,87528,List2A,black,woman,,,,,,,,
93189,"<p>In this experiment, you will view photographs of the people from the memory game interacting.</p><p>By using the <strong>exact</strong> phrase given <i>after</i> the photograph appears and recalling the correct names of the people in the photographs, form a sentence describing the interaction. You do not need to capitalise names.</p><p>Type your answer in the space provided. Please complete every sentence before moving onto the next trial.</p><p>You will only have a few seconds to memorise each given photograph and phrase before you can respond, so try your best to focus.</p><p>An example is given below. Press 'Continue' when you are ready.</p><img src='img/speaking_example_v2.jpg' style='width:800px;height:460px;''></img>",0,html-button-response,21,362299,0.0-4.0,87528,List2A,black,woman,,,,,,,,
4559,"<p>Before the experiment starts, you will watch two example trials. Press 'Continue'.</p>",0,html-button-response,22,367861,0.0-5.0,87528,List2A,black,woman,,,,,,,,
null,<img src='img/speaking_WW.gif'></img>,,html-keyboard-response,23,370864,0.0-6.0,87528,List2A,black,woman,,,,null,,,,
null,<p>is speaking to</p>,,html-keyboard-response,24,372865,0.0-7.0,87528,List2A,black,woman,,,,null,,,,
33120,<p><b>Answer:</b> jane is speaking to ruth</p>,0,html-button-response,25,405987,0.0-8.0,87528,List2A,black,woman,,,,,,,,
null,<img src='img/pointing_BM.gif'></img>,,html-keyboard-response,26,408990,0.0-9.0,87528,List2A,black,woman,,,,null,,,,
null,<p>are pointing at each other</p>,,html-keyboard-response,27,410992,0.0-10.0,87528,List2A,black,woman,,,,null,,,,
22665,<p><b>Answer:</b> fred and mike are pointing at each other</p>,0,html-button-response,28,433658,0.0-11.0,87528,List2A,black,woman,,,,,,,,
12671,"<p>Ready to start the experiment?</p><br><p><strong>Remember to describe the picture using a full sentence,</strong></p><p><strong> that combines the names of the people with the given phrase.</strong></p><p><strong> You do not need to capitalise names or use punctuation.</strong></p><br><p>Press 'Continue' to begin.</p>",0,html-button-response,29,447330,0.0-12.0,87528,List2A,black,woman,,,,,,,,
null,"<div style=""font-size:60px;"">+</div>",,html-keyboard-response,30,448833,0.0-13.0-0.0,87528,List2A,black,woman,,,,null,,,,
null,"<img src=""stim_listA/touch2.gif""</stim_listA>",,html-keyboard-response,31,450835,0.0-13.0-1.0,87528,List2A,black,woman,,,,null,,,,
null,are touching each other,,html-keyboard-response,32,452837,0.0-13.0-2.0,87528,List2A,black,woman,,,,null,,,,
50562,,,survey-text,33,503400,0.0-13.0-3.0,87528,List2A,black,woman,,,,,"{""Q0"":""luke and jane give each other high five""}","<img src=""stim_listA/touch2.gif""</stim_listA>",are touching each other,
null,"<div style=""font-size:60px;"">+</div>",,html-keyboard-response,34,503901,0.0-13.0-0.1,87528,List2A,black,woman,,,,null,,,,
null,"<img src=""stim_listA/shout3.gif""</stim_listA>",,html-keyboard-response,35,505902,0.0-13.0-1.1,87528,List2A,black,woman,,,,null,,,,
null,is shouting at,,html-keyboard-response,36,507903,0.0-13.0-2.1,87528,List2A,black,woman,,,,null,,,,
62479,,,survey-text,37,570384,0.0-13.0-3.1,87528,List2A,black,woman,,,,,"{""Q0"":""mike and beth are shouting at each other""}","<img src=""stim_listA/shout3.gif""</stim_listA>",is shouting at,
null,"<div style=""font-size:60px;"">+</div>",,html-keyboard-response,38,570885,0.0-13.0-0.2,87528,List2A,black,woman,,,,null,,,,
null,"<img src=""stim_listA/meet5.gif""</stim_listA>",,html-keyboard-response,39,572888,0.0-13.0-1.2,87528,List2A,black,woman,,,,null,,,,
null,is meeting,,html-keyboard-response,40,574889,0.0-13.0-2.2,87528,List2A,black,woman,,,,null,,,,
84443,,,survey-text,41,659333,0.0-13.0-3.2,87528,List2A,black,woman,,,,,"{""Q0"":""Mike and Dave have a hand shake""}","<img src=""stim_listA/meet5.gif""</stim_listA>",is meeting,
null,"<div style=""font-size:60px;"">+</div>",,html-keyboard-response,42,659834,0.0-13.0-0.3,87528,List2A,black,woman,,,,null,,,,
null,"<img src=""stim_listA/argue7.gif""</stim_listA>",,html-keyboard-response,43,661836,0.0-13.0-1.3,87528,List2A,black,woman,,,,null,,,,
null,is arguing with,,html-keyboard-response,44,663839,0.0-13.0-2.3,87528,List2A,black,woman,,,,null,,,,
85464,,,survey-text,45,749303,0.0-13.0-3.3,87528,List2A,black,woman,,,,,"{""Q0"":""Beth and Jane are pointing at each other""}","<img src=""stim_listA/argue7.gif""</stim_listA>",is arguing with,
null,"<div style=""font-size:60px;"">+</div>",,html-keyboard-response,46,749804,0.0-13.0-0.4,87528,List2A,black,woman,,,,null,,,,
null,"<img src=""stim_listA/dance5.gif""</stim_listA>",,html-keyboard-response,47,751806,0.0-13.0-1.4,87528,List2A,black,woman,,,,null,,,,
null,is dancing with,,html-keyboard-response,48,753809,0.0-13.0-2.4,87528,List2A,black,woman,,,,null,,,,
41555,,,survey-text,49,795365,0.0-13.0-3.4,87528,List2A,black,woman,,,,,"{""Q0"":""Mike and Luke are dancing""}","<img src=""stim_listA/dance5.gif""</stim_listA>",is dancing with,
null,"<div style=""font-size:60px;"">+</div>",,html-keyboard-response,50,795866,0.0-13.0-0.5,87528,List2A,black,woman,,,,null,,,,
null,"<img src=""stim_listA/kiss6.gif""</stim_listA>",,html-keyboard-response,51,797868,0.0-13.0-1.5,87528,List2A,black,woman,,,,null,,,,
null,are kissing each other,,html-keyboard-response,52,799870,0.0-13.0-2.5,87528,List2A,black,woman,,,,null,,,,
38256,,,survey-text,53,838127,0.0-13.0-3.5,87528,List2A,black,woman,,,,,"{""Q0"":""Mike and Dave are kissing""}","<img src=""stim_listA/kiss6.gif""</stim_listA>",are kissing each other,
null,"<div style=""font-size:60px;"">+</div>",,html-keyboard-response,54,838628,0.0-13.0-0.6,87528,List2A,black,woman,,,,null,,,,
null,"<img src=""stim_listA/argue3.gif""</stim_listA>",,html-keyboard-response,55,840629,0.0-13.0-1.6,87528,List2A,black,woman,,,,null,,,,
null,is arguing with,,html-keyboard-response,56,842630,0.0-13.0-2.6,87528,List2A,black,woman,,,,null,,,,
42167,,,survey-text,57,884797,0.0-13.0-3.6,87528,List2A,black,woman,,,,,"{""Q0"":""Beth is arguing with Mike""}","<img src=""stim_listA/argue3.gif""</stim_listA>",is arguing with,
null,"<div style=""font-size:60px;"">+</div>",,html-keyboard-response,58,885299,0.0-13.0-0.7,87528,List2A,black,woman,,,,null,,,,
null,"<img src=""stim_listA/marry2.gif""</stim_listA>",,html-keyboard-response,59,887302,0.0-13.0-1.7,87528,List2A,black,woman,,,,null,,,,
null,are marrying each other,,html-keyboard-response,60,889303,0.0-13.0-2.7,87528,List2A,black,woman,,,,null,,,,
60702,,,survey-text,61,950007,0.0-13.0-3.7,87528,List2A,black,woman,,,,,"{""Q0"":""Jane and Luke are marrying each other""}","<img src=""stim_listA/marry2.gif""</stim_listA>",are marrying each other,
null,"<div style=""font-size:60px;"">+</div>",,html-keyboard-response,62,950508,0.0-13.0-0.8,87528,List2A,black,woman,,,,null,,,,
null,"<img src=""stim_listA/kiss1.gif""</stim_listA>",,html-keyboard-response,63,952510,0.0-13.0-1.8,87528,List2A,black,woman,,,,null,,,,
null,is kissing,,html-keyboard-response,64,954511,0.0-13.0-2.8,87528,List2A,black,woman,,,,null,,,,
53069,,,survey-text,65,1007581,0.0-13.0-3.8,87528,List2A,black,woman,,,,,"{""Q0"":""Luke is kissing Ruth""}","<img src=""stim_listA/kiss1.gif""</stim_listA>",is kissing,
null,"<div style=""font-size:60px;"">+</div>",,html-keyboard-response,66,1008083,0.0-13.0-0.9,87528,List2A,black,woman,,,,null,,,,
null,"<img src=""stim_listA/argue2.gif""</stim_listA>",,html-keyboard-response,67,1010086,0.0-13.0-1.9,87528,List2A,black,woman,,,,null,,,,
null,are arguing with each other,,html-keyboard-response,68,1012087,0.0-13.0-2.9,87528,List2A,black,woman,,,,null,,,,
51472,,,survey-text,69,1063561,0.0-13.0-3.9,87528,List2A,black,woman,,,,,"{""Q0"":""Luke and Jane are arguing with each other""}","<img src=""stim_listA/argue2.gif""</stim_listA>",are arguing with each other,
null,"<div style=""font-size:60px;"">+</div>",,html-keyboard-response,70,1064062,0.0-13.0-0.10,87528,List2A,black,woman,,,,null,,,,
null,"<img src=""stim_listA/touch3.gif""</stim_listA>",,html-keyboard-response,71,1066063,0.0-13.0-1.10,87528,List2A,black,woman,,,,null,,,,
null,is touching,,html-keyboard-response,72,1068064,0.0-13.0-2.10,87528,List2A,black,woman,,,,null,,,,
42721,,,survey-text,73,1110787,0.0-13.0-3.10,87528,List2A,black,woman,,,,,"{""Q0"":""Mike and Kate are touching hands""}","<img src=""stim_listA/touch3.gif""</stim_listA>",is touching,
null,"<div style=""font-size:60px;"">+</div>",,html-keyboard-response,74,1111288,0.0-13.0-0.11,87528,List2A,black,woman,,,,null,,,,
null,"<img src=""stim_listA/argue1.gif""</stim_listA>",,html-keyboard-response,75,1113290,0.0-13.0-1.11,87528,List2A,black,woman,,,,null,,,,
null,is arguing with,,html-keyboard-response,76,1115292,0.0-13.0-2.11,87528,List2A,black,woman,,,,null,,,,
45412,,,survey-text,77,1160706,0.0-13.0-3.11,87528,List2A,black,woman,,,,,"{""Q0"":""Dave and Ruth are arguing""}","<img src=""stim_listA/argue1.gif""</stim_listA>",is arguing with,
null,"<div style=""font-size:60px;"">+</div>",,html-keyboard-response,78,1161208,0.0-13.0-0.12,87528,List2A,black,woman,,,,null,,,,
null,"<img src=""stim_listA/dance2.gif""</stim_listA>",,html-keyboard-response,79,1163209,0.0-13.0-1.12,87528,List2A,black,woman,,,,null,,,,
null,are dancing with each other,,html-keyboard-response,80,1165210,0.0-13.0-2.12,87528,List2A,black,woman,,,,null,,,,
51091,,,survey-text,81,1216302,0.0-13.0-3.12,87528,List2A,black,woman,,,,,"{""Q0"":""Dave and Ruth are dancing""}","<img src=""stim_listA/dance2.gif""</stim_listA>",are dancing with each other,
null,"<div style=""font-size:60px;"">+</div>",,html-keyboard-response,82,1216803,0.0-13.0-0.13,87528,List2A,black,woman,,,,null,,,,
null,"<img src=""stim_listA/marry7.gif""</stim_listA>",,html-keyboard-response,83,1218806,0.0-13.0-1.13,87528,List2A,black,woman,,,,null,,,,
null,is marrying,,html-keyboard-response,84,1220808,0.0-13.0-2.13,87528,List2A,black,woman,,,,null,,,,
53355,,,survey-text,85,1274164,0.0-13.0-3.13,87528,List2A,black,woman,,,,,"{""Q0"":""Beth and Jane are marrying each other""}","<img src=""stim_listA/marry7.gif""</stim_listA>",is marrying,
null,"<div style=""font-size:60px;"">+</div>",,html-keyboard-response,86,1274666,0.0-13.0-0.14,87528,List2A,black,woman,,,,null,,,,
null,"<img src=""stim_listA/marry4.gif""</stim_listA>",,html-keyboard-response,87,1276669,0.0-13.0-1.14,87528,List2A,black,woman,,,,null,,,,
null,are marrying each other,,html-keyboard-response,88,1278672,0.0-13.0-2.14,87528,List2A,black,woman,,,,null,,,,
43424,,,survey-text,89,1322096,0.0-13.0-3.14,87528,List2A,black,woman,,,,,"{""Q0"":""Kate and Fred are marrying each other""}","<img src=""stim_listA/marry4.gif""</stim_listA>",are marrying each other,
null,"<div style=""font-size:60px;"">+</div>",,html-keyboard-response,90,1322597,0.0-13.0-0.15,87528,List2A,black,woman,,,,null,,,,
null,"<img src=""stim_listA/meet7.gif""</stim_listA>",,html-keyboard-response,91,1324599,0.0-13.0-1.15,87528,List2A,black,woman,,,,null,,,,
null,is meeting,,html-keyboard-response,92,1326600,0.0-13.0-2.15,87528,List2A,black,woman,,,,null,,,,
34496,,,survey-text,93,1361098,0.0-13.0-3.15,87528,List2A,black,woman,,,,,"{""Q0"":""Kate and Jane are meeting ""}","<img src=""stim_listA/meet7.gif""</stim_listA>",is meeting,
null,"<div style=""font-size:60px;"">+</div>",,html-keyboard-response,94,1361599,0.0-13.0-0.16,87528,List2A,black,woman,,,,null,,,,
null,"<img src=""stim_listA/kiss2.gif""</stim_listA>",,html-keyboard-response,95,1363602,0.0-13.0-1.16,87528,List2A,black,woman,,,,null,,,,
null,are kissing each other,,html-keyboard-response,96,1365603,0.0-13.0-2.16,87528,List2A,black,woman,,,,null,,,,
76500,,,survey-text,97,1442103,0.0-13.0-3.16,87528,List2A,black,woman,,,,,"{""Q0"":""Dave and Ruth are kissing each other""}","<img src=""stim_listA/kiss2.gif""</stim_listA>",are kissing each other,
null,"<div style=""font-size:60px;"">+</div>",,html-keyboard-response,98,1442605,0.0-13.0-0.17,87528,List2A,black,woman,,,,null,,,,
null,"<img src=""stim_listA/kiss5.gif""</stim_listA>",,html-keyboard-response,99,1444606,0.0-13.0-1.17,87528,List2A,black,woman,,,,null,,,,
null,is kissing,,html-keyboard-response,100,1446609,0.0-13.0-2.17,87528,List2A,black,woman,,,,null,,,,
43454,,,survey-text,101,1490064,0.0-13.0-3.17,87528,List2A,black,woman,,,,,"{""Q0"":""Luke and Fred are kissing each other""}","<img src=""stim_listA/kiss5.gif""</stim_listA>",is kissing,
null,"<div style=""font-size:60px;"">+</div>",,html-keyboard-response,102,1490566,0.0-13.0-0.18,87528,List2A,black,woman,,,,null,,,,
null,"<img src=""stim_listA/kiss8.gif""</stim_listA>",,html-keyboard-response,103,1492567,0.0-13.0-1.18,87528,List2A,black,woman,,,,null,,,,
null,are kissing each other,,html-keyboard-response,104,1494569,0.0-13.0-2.18,87528,List2A,black,woman,,,,null,,,,
49591,,,survey-text,105,1544162,0.0-13.0-3.18,87528,List2A,black,woman,,,,,"{""Q0"":""Jane and Kate are kissing each other""}","<img src=""stim_listA/kiss8.gif""</stim_listA>",are kissing each other,
null,"<div style=""font-size:60px;"">+</div>",,html-keyboard-response,106,1544663,0.0-13.0-0.19,87528,List2A,black,woman,,,,null,,,,
null,"<img src=""stim_listA/dance1.gif""</stim_listA>",,html-keyboard-response,107,1546664,0.0-13.0-1.19,87528,List2A,black,woman,,,,null,,,,
null,is dancing with,,html-keyboard-response,108,1548665,0.0-13.0-2.19,87528,List2A,black,woman,,,,null,,,,
30886,,,survey-text,109,1579551,0.0-13.0-3.19,87528,List2A,black,woman,,,,,"{""Q0"":""Luke is dancing with Jane""}","<img src=""stim_listA/dance1.gif""</stim_listA>",is dancing with,
25811,"<img src='img/portrait_matrix_list2.JPG' style='width:900px;height:500px;''></img><p>If you have memorised all the portraits and names and are ready to start, press Continue.</p><p><strong>Please note: Your memory of these faces will be tested 4 times during this experiment.</strong></p>",0,html-button-response,110,1605363,0.0-14.0-0.0,87528,List2A,black,woman,,,,,,,,
4902,"<img src=""portrait/BM2.jpg""style=""width:400px;height:400px;""></img>",5,html-button-response,111,1611267,0.0-14.0-1.0,87528,List2A,black,woman,,TRUE,5,,,,,
null,CORRECT,,html-keyboard-response,112,1612770,0.0-14.0-2.0-0.0,87528,List2A,black,woman,,,,null,,,,
4150,"<img src=""portrait/BW2.jpg""style=""width:400px;height:400px;""></img>",2,html-button-response,113,1616921,0.0-14.0-4.0,87528,List2A,black,woman,,TRUE,2,,,,,
null,CORRECT,,html-keyboard-response,114,1618423,0.0-14.0-5.0-0.0,87528,List2A,black,woman,,,,null,,,,
3481,"<img src=""portrait/WW2.jpg""style=""width:400px;height:400px;""></img>",3,html-button-response,115,1621905,0.0-14.0-7.0,87528,List2A,black,woman,,TRUE,3,,,,,
null,CORRECT,,html-keyboard-response,116,1623408,0.0-14.0-8.0-0.0,87528,List2A,black,woman,,,,null,,,,
3997,"<img src=""portrait/WM2.jpg""style=""width:400px;height:400px;""></img>",7,html-button-response,117,1627405,0.0-14.0-10.0,87528,List2A,black,woman,,TRUE,7,,,,,
null,CORRECT,,html-keyboard-response,118,1628907,0.0-14.0-11.0-0.0,87528,List2A,black,woman,,,,null,,,,
4162,"<img src=""portrait/WM1.jpg""style=""width:400px;height:400px;""></img>",6,html-button-response,119,1633069,0.0-14.0-13.0,87528,List2A,black,woman,,TRUE,6,,,,,
null,CORRECT,,html-keyboard-response,120,1634572,0.0-14.0-14.0-0.0,87528,List2A,black,woman,,,,null,,,,
5564,"<img src=""portrait/WW1.jpg""style=""width:400px;height:400px;""></img>",1,html-button-response,121,1640137,0.0-14.0-16.0,87528,List2A,black,woman,,TRUE,1,,,,,
null,CORRECT,,html-keyboard-response,122,1641639,0.0-14.0-17.0-0.0,87528,List2A,black,woman,,,,null,,,,
4855,"<img src=""portrait/BW1.jpg""style=""width:400px;height:400px;""></img>",0,html-button-response,123,1646495,0.0-14.0-19.0,87528,List2A,black,woman,,TRUE,0,,,,,
null,CORRECT,,html-keyboard-response,124,1647997,0.0-14.0-20.0-0.0,87528,List2A,black,woman,,,,null,,,,
6551,"<img src=""portrait/BM1.jpg""style=""width:400px;height:400px;""></img>",4,html-button-response,125,1654549,0.0-14.0-22.0,87528,List2A,black,woman,,TRUE,4,,,,,
null,CORRECT,,html-keyboard-response,126,1656053,0.0-14.0-23.0-0.0,87528,List2A,black,woman,,,,null,,,,
2406,<p>You got 8 out of 8 right first time. Press Continue.</p>,0,html-button-response,127,1658459,0.0-14.0-25.0,87528,List2A,black,woman,,,,,,,,
null,"<div style=""font-size:60px;"">+</div>",,html-keyboard-response,128,1659963,0.0-15.0-0.0,87528,List2A,black,woman,,,,null,,,,
null,"<img src=""stim_listA/fight1.gif""</stim_listA>",,html-keyboard-response,129,1661964,0.0-15.0-1.0,87528,List2A,black,woman,,,,null,,,,
null,is fighting,,html-keyboard-response,130,1663966,0.0-15.0-2.0,87528,List2A,black,woman,,,,null,,,,
31602,,,survey-text,131,1695569,0.0-15.0-3.0,87528,List2A,black,woman,,,,,"{""Q0"":""Dave and Jane are fighting""}","<img src=""stim_listA/fight1.gif""</stim_listA>",is fighting,
null,"<div style=""font-size:60px;"">+</div>",,html-keyboard-response,132,1696071,0.0-15.0-0.1,87528,List2A,black,woman,,,,null,,,,
null,"<img src=""stim_listA/argue4.gif""</stim_listA>",,html-keyboard-response,133,1698072,0.0-15.0-1.1,87528,List2A,black,woman,,,,null,,,,
null,are arguing with each other,,html-keyboard-response,134,1700073,0.0-15.0-2.1,87528,List2A,black,woman,,,,null,,,,
41469,,,survey-text,135,1741543,0.0-15.0-3.1,87528,List2A,black,woman,,,,,"{""Q0"":""Fred and Kate are arguing""}","<img src=""stim_listA/argue4.gif""</stim_listA>",are arguing with each other,
null,"<div style=""font-size:60px;"">+</div>",,html-keyboard-response,136,1742044,0.0-15.0-0.2,87528,List2A,black,woman,,,,null,,,,
null,"<img src=""stim_listA/meet4.gif""</stim_listA>",,html-keyboard-response,137,1744045,0.0-15.0-1.2,87528,List2A,black,woman,,,,null,,,,
null,are meeting each other,,html-keyboard-response,138,1746047,0.0-15.0-2.2,87528,List2A,black,woman,,,,null,,,,
37634,,,survey-text,139,1783681,0.0-15.0-3.2,87528,List2A,black,woman,,,,,"{""Q0"":""Fred and Beth are meeting""}","<img src=""stim_listA/meet4.gif""</stim_listA>",are meeting each other,
null,"<div style=""font-size:60px;"">+</div>",,html-keyboard-response,140,1784182,0.0-15.0-0.3,87528,List2A,black,woman,,,,null,,,,
null,"<img src=""stim_listA/touch7.gif""</stim_listA>",,html-keyboard-response,141,1786184,0.0-15.0-1.3,87528,List2A,black,woman,,,,null,,,,
null,is touching,,html-keyboard-response,142,1788185,0.0-15.0-2.3,87528,List2A,black,woman,,,,null,,,,
62891,,,survey-text,143,1851077,0.0-15.0-3.3,87528,List2A,black,woman,,,,,"{""Q0"":""Mike and Luke are touching""}","<img src=""stim_listA/touch7.gif""</stim_listA>",is touching,
null,"<div style=""font-size:60px;"">+</div>",,html-keyboard-response,144,1851578,0.0-15.0-0.4,87528,List2A,black,woman,,,,null,,,,
null,"<img src=""stim_listA/talk5.gif""</stim_listA>",,html-keyboard-response,145,1853581,0.0-15.0-1.4,87528,List2A,black,woman,,,,null,,,,
null,is talking to,,html-keyboard-response,146,1855582,0.0-15.0-2.4,87528,List2A,black,woman,,,,null,,,,
37821,,,survey-text,147,1893404,0.0-15.0-3.4,87528,List2A,black,woman,,,,,"{""Q0"":""Mike and Luke are talking""}","<img src=""stim_listA/talk5.gif""</stim_listA>",is talking to,
null,"<div style=""font-size:60px;"">+</div>",,html-keyboard-response,148,1893906,0.0-15.0-0.5,87528,List2A,black,woman,,,,null,,,,
null,"<img src=""stim_listA/marry1.gif""</stim_listA>",,html-keyboard-response,149,1895907,0.0-15.0-1.5,87528,List2A,black,woman,,,,null,,,,
null,is marrying,,html-keyboard-response,150,1897908,0.0-15.0-2.5,87528,List2A,black,woman,,,,null,,,,
38501,,,survey-text,151,1936410,0.0-15.0-3.5,87528,List2A,black,woman,,,,,"{""Q0"":""Dave and Ruth are Marrying""}","<img src=""stim_listA/marry1.gif""</stim_listA>",is marrying,
null,"<div style=""font-size:60px;"">+</div>",,html-keyboard-response,152,1936912,0.0-15.0-0.6,87528,List2A,black,woman,,,,null,,,,
null,"<img src=""stim_listA/fight2.gif""</stim_listA>",,html-keyboard-response,153,1938914,0.0-15.0-1.6,87528,List2A,black,woman,,,,null,,,,
null,are fighting each other,,html-keyboard-response,154,1940916,0.0-15.0-2.6,87528,List2A,black,woman,,,,null,,,,
50114,,,survey-text,155,1991030,0.0-15.0-3.6,87528,List2A,black,woman,,,,,"{""Q0"":""Luke and Ruth are fighting each other""}","<img src=""stim_listA/fight2.gif""</stim_listA>",are fighting each other,
null,"<div style=""font-size:60px;"">+</div>",,html-keyboard-response,156,1991532,0.0-15.0-0.7,87528,List2A,black,woman,,,,null,,,,
null,"<img src=""stim_listA/talk1.gif""</stim_listA>",,html-keyboard-response,157,1993533,0.0-15.0-1.7,87528,List2A,black,woman,,,,null,,,,
null,is talking to,,html-keyboard-response,158,1995536,0.0-15.0-2.7,87528,List2A,black,woman,,,,null,,,,
29042,,,survey-text,159,2024578,0.0-15.0-3.7,87528,List2A,black,woman,,,,,"{""Q0"":""Jane and Luke are talking""}","<img src=""stim_listA/talk1.gif""</stim_listA>",is talking to,
null,"<div style=""font-size:60px;"">+</div>",,html-keyboard-response,160,2025079,0.0-15.0-0.8,87528,List2A,black,woman,,,,null,,,,
null,"<img src=""stim_listA/shout6.gif""</stim_listA>",,html-keyboard-response,161,2027081,0.0-15.0-1.8,87528,List2A,black,woman,,,,null,,,,
null,are shouting at each other,,html-keyboard-response,162,2029085,0.0-15.0-2.8,87528,List2A,black,woman,,,,null,,,,
23653,,,survey-text,163,2052740,0.0-15.0-3.8,87528,List2A,black,woman,,,,,"{""Q0"":""Dave and Mike are shouting at each other""}","<img src=""stim_listA/shout6.gif""</stim_listA>",are shouting at each other,
null,"<div style=""font-size:60px;"">+</div>",,html-keyboard-response,164,2053241,0.0-15.0-0.9,87528,List2A,black,woman,,,,null,,,,
null,"<img src=""stim_listA/shout8.gif""</stim_listA>",,html-keyboard-response,165,2055242,0.0-15.0-1.9,87528,List2A,black,woman,,,,null,,,,
null,are shouting at each other,,html-keyboard-response,166,2057244,0.0-15.0-2.9,87528,List2A,black,woman,,,,null,,,,
28021,,,survey-text,167,2085266,0.0-15.0-3.9,87528,List2A,black,woman,,,,,"{""Q0"":""Jane and Kate are shouting at each other""}","<img src=""stim_listA/shout8.gif""</stim_listA>",are shouting at each other,
null,"<div style=""font-size:60px;"">+</div>",,html-keyboard-response,168,2085768,0.0-15.0-0.10,87528,List2A,black,woman,,,,null,,,,
null,"<img src=""stim_listA/fight7.gif""</stim_listA>",,html-keyboard-response,169,2087769,0.0-15.0-1.10,87528,List2A,black,woman,,,,null,,,,
null,is fighting,,html-keyboard-response,170,2089771,0.0-15.0-2.10,87528,List2A,black,woman,,,,null,,,,
24375,,,survey-text,171,2114146,0.0-15.0-3.10,87528,List2A,black,woman,,,,,"{""Q0"":""Jane and Kate are fighting""}","<img src=""stim_listA/fight7.gif""</stim_listA>",is fighting,
null,"<div style=""font-size:60px;"">+</div>",,html-keyboard-response,172,2114648,0.0-15.0-0.11,87528,List2A,black,woman,,,,null,,,,
null,"<img src=""stim_listA/talk7.gif""</stim_listA>",,html-keyboard-response,173,2116649,0.0-15.0-1.11,87528,List2A,black,woman,,,,null,,,,
null,is talking to,,html-keyboard-response,174,2118649,0.0-15.0-2.11,87528,List2A,black,woman,,,,null,,,,
22151,,,survey-text,175,2140801,0.0-15.0-3.11,87528,List2A,black,woman,,,,,"{""Q0"":""Kate and Ruth are talking""}","<img src=""stim_listA/talk7.gif""</stim_listA>",is talking to,
null,"<div style=""font-size:60px;"">+</div>",,html-keyboard-response,176,2141303,0.0-15.0-0.12,87528,List2A,black,woman,,,,null,,,,
null,"<img src=""stim_listA/touch6.gif""</stim_listA>",,html-keyboard-response,177,2143304,0.0-15.0-1.12,87528,List2A,black,woman,,,,null,,,,
null,are touching each other,,html-keyboard-response,178,2145306,0.0-15.0-2.12,87528,List2A,black,woman,,,,null,,,,
26000,,,survey-text,179,2171307,0.0-15.0-3.12,87528,List2A,black,woman,,,,,"{""Q0"":""Fred and Luke are touching each other""}","<img src=""stim_listA/touch6.gif""</stim_listA>",are touching each other,
null,"<div style=""font-size:60px;"">+</div>",,html-keyboard-response,180,2171809,0.0-15.0-0.13,87528,List2A,black,woman,,,,null,,,,
null,"<img src=""stim_listA/shout4.gif""</stim_listA>",,html-keyboard-response,181,2173812,0.0-15.0-1.13,87528,List2A,black,woman,,,,null,,,,
null,are shouting at each other,,html-keyboard-response,182,2175813,0.0-15.0-2.13,87528,List2A,black,woman,,,,null,,,,
18392,,,survey-text,183,2194206,0.0-15.0-3.13,87528,List2A,black,woman,,,,,"{""Q0"":""Mike and Kate are shouting at each other""}","<img src=""stim_listA/shout4.gif""</stim_listA>",are shouting at each other,
null,"<div style=""font-size:60px;"">+</div>",,html-keyboard-response,184,2194708,0.0-15.0-0.14,87528,List2A,black,woman,,,,null,,,,
null,"<img src=""stim_listA/dance6.gif""</stim_listA>",,html-keyboard-response,185,2196710,0.0-15.0-1.14,87528,List2A,black,woman,,,,null,,,,
null,are dancing with each other,,html-keyboard-response,186,2198712,0.0-15.0-2.14,87528,List2A,black,woman,,,,null,,,,
30547,,,survey-text,187,2229260,0.0-15.0-3.14,87528,List2A,black,woman,,,,,"{""Q0"":""Fred and Dave are dancing with each other""}","<img src=""stim_listA/dance6.gif""</stim_listA>",are dancing with each other,
null,"<div style=""font-size:60px;"">+</div>",,html-keyboard-response,188,2229761,0.0-15.0-0.15,87528,List2A,black,woman,,,,null,,,,
null,"<img src=""stim_listA/meet3.gif""</stim_listA>",,html-keyboard-response,189,2231764,0.0-15.0-1.15,87528,List2A,black,woman,,,,null,,,,
null,is meeting,,html-keyboard-response,190,2233765,0.0-15.0-2.15,87528,List2A,black,woman,,,,null,,,,
13787,,,survey-text,191,2247553,0.0-15.0-3.15,87528,List2A,black,woman,,,,,"{""Q0"":""Kate and Mike are meeting""}","<img src=""stim_listA/meet3.gif""</stim_listA>",is meeting,
null,"<div style=""font-size:60px;"">+</div>",,html-keyboard-response,192,2248056,0.0-15.0-0.16,87528,List2A,black,woman,,,,null,,,,
null,"<img src=""stim_listA/argue5.gif""</stim_listA>",,html-keyboard-response,193,2250057,0.0-15.0-1.16,87528,List2A,black,woman,,,,null,,,,
null,is arguing with,,html-keyboard-response,194,2252059,0.0-15.0-2.16,87528,List2A,black,woman,,,,null,,,,
17041,,,survey-text,195,2269101,0.0-15.0-3.16,87528,List2A,black,woman,,,,,"{""Q0"":""Dave and Fred are arguing""}","<img src=""stim_listA/argue5.gif""</stim_listA>",is arguing with,
null,"<div style=""font-size:60px;"">+</div>",,html-keyboard-response,196,2269602,0.0-15.0-0.17,87528,List2A,black,woman,,,,null,,,,
null,"<img src=""stim_listA/marry8.gif""</stim_listA>",,html-keyboard-response,197,2271604,0.0-15.0-1.17,87528,List2A,black,woman,,,,null,,,,
null,are marrying each other,,html-keyboard-response,198,2273606,0.0-15.0-2.17,87528,List2A,black,woman,,,,null,,,,
22211,,,survey-text,199,2295817,0.0-15.0-3.17,87528,List2A,black,woman,,,,,"{""Q0"":""Kate and Ruth are marrying""}","<img src=""stim_listA/marry8.gif""</stim_listA>",are marrying each other,
null,"<div style=""font-size:60px;"">+</div>",,html-keyboard-response,200,2296319,0.0-15.0-0.18,87528,List2A,black,woman,,,,null,,,,
null,"<img src=""stim_listA/talk4.gif""</stim_listA>",,html-keyboard-response,201,2298320,0.0-15.0-1.18,87528,List2A,black,woman,,,,null,,,,
null,are talking to each other,,html-keyboard-response,202,2300323,0.0-15.0-2.18,87528,List2A,black,woman,,,,null,,,,
15306,,,survey-text,203,2315630,0.0-15.0-3.18,87528,List2A,black,woman,,,,,"{""Q0"":""Mike and Beth are talking""}","<img src=""stim_listA/talk4.gif""</stim_listA>",are talking to each other,
null,"<div style=""font-size:60px;"">+</div>",,html-keyboard-response,204,2316131,0.0-15.0-0.19,87528,List2A,black,woman,,,,null,,,,
null,"<img src=""stim_listA/hug2.gif""</stim_listA>",,html-keyboard-response,205,2318132,0.0-15.0-1.19,87528,List2A,black,woman,,,,null,,,,
null,are hugging each other,,html-keyboard-response,206,2320133,0.0-15.0-2.19,87528,List2A,black,woman,,,,null,,,,
16255,,,survey-text,207,2336390,0.0-15.0-3.19,87528,List2A,black,woman,,,,,"{""Q0"":""Dave and Jane arr hugging""}","<img src=""stim_listA/hug2.gif""</stim_listA>",are hugging each other,
17959,"<img src='img/portrait_matrix_list2.JPG' style='width:900px;height:500px;''></img><p>If you have memorised all the portraits and names and are ready to start, press Continue.</p><p><strong>Please note: Your memory of these faces will be tested 4 times during this experiment.</strong></p>",0,html-button-response,208,2354350,0.0-16.0-0.0,87528,List2A,black,woman,,,,,,,,
8422,"<img src=""portrait/BM1.jpg""style=""width:400px;height:400px;""></img>",4,html-button-response,209,2363774,0.0-16.0-1.0,87528,List2A,black,woman,,TRUE,4,,,,,
null,CORRECT,,html-keyboard-response,210,2365277,0.0-16.0-2.0-0.0,87528,List2A,black,woman,,,,null,,,,
4182,"<img src=""portrait/WM1.jpg""style=""width:400px;height:400px;""></img>",6,html-button-response,211,2369461,0.0-16.0-4.0,87528,List2A,black,woman,,TRUE,6,,,,,
null,CORRECT,,html-keyboard-response,212,2370964,0.0-16.0-5.0-0.0,87528,List2A,black,woman,,,,null,,,,
3966,"<img src=""portrait/WW1.jpg""style=""width:400px;height:400px;""></img>",1,html-button-response,213,2374931,0.0-16.0-7.0,87528,List2A,black,woman,,TRUE,1,,,,,
null,CORRECT,,html-keyboard-response,214,2376434,0.0-16.0-8.0-0.0,87528,List2A,black,woman,,,,null,,,,
2991,"<img src=""portrait/WW2.jpg""style=""width:400px;height:400px;""></img>",3,html-button-response,215,2379427,0.0-16.0-10.0,87528,List2A,black,woman,,TRUE,3,,,,,
null,CORRECT,,html-keyboard-response,216,2380930,0.0-16.0-11.0-0.0,87528,List2A,black,woman,,,,null,,,,
4347,"<img src=""portrait/BM2.jpg""style=""width:400px;height:400px;""></img>",5,html-button-response,217,2385279,0.0-16.0-13.0,87528,List2A,black,woman,,TRUE,5,,,,,
null,CORRECT,,html-keyboard-response,218,2386782,0.0-16.0-14.0-0.0,87528,List2A,black,woman,,,,null,,,,
2589,"<img src=""portrait/WM2.jpg""style=""width:400px;height:400px;""></img>",7,html-button-response,219,2389373,0.0-16.0-16.0,87528,List2A,black,woman,,TRUE,7,,,,,
null,CORRECT,,html-keyboard-response,220,2390875,0.0-16.0-17.0-0.0,87528,List2A,black,woman,,,,null,,,,
4387,"<img src=""portrait/BW2.jpg""style=""width:400px;height:400px;""></img>",2,html-button-response,221,2395263,0.0-16.0-19.0,87528,List2A,black,woman,,TRUE,2,,,,,
null,CORRECT,,html-keyboard-response,222,2396766,0.0-16.0-20.0-0.0,87528,List2A,black,woman,,,,null,,,,
3935,"<img src=""portrait/BW1.jpg""style=""width:400px;height:400px;""></img>",0,html-button-response,223,2400703,0.0-16.0-22.0,87528,List2A,black,woman,,TRUE,0,,,,,
null,CORRECT,,html-keyboard-response,224,2402205,0.0-16.0-23.0-0.0,87528,List2A,black,woman,,,,null,,,,
3437,<p>You got 8 out of 8 right first time. Press Continue.</p>,0,html-button-response,225,2405643,0.0-16.0-25.0,87528,List2A,black,woman,,,,,,,,
null,"<div style=""font-size:60px;"">+</div>",,html-keyboard-response,226,2407147,0.0-17.0-0.0,87528,List2A,black,woman,,,,null,,,,
null,"<img src=""stim_listA/kiss7.gif""</stim_listA>",,html-keyboard-response,227,2409148,0.0-17.0-1.0,87528,List2A,black,woman,,,,null,,,,
null,is kissing,,html-keyboard-response,228,2411150,0.0-17.0-2.0,87528,List2A,black,woman,,,,null,,,,
16506,,,survey-text,229,2427657,0.0-17.0-3.0,87528,List2A,black,woman,,,,,"{""Q0"":""Beth and Ruth are kissing""}","<img src=""stim_listA/kiss7.gif""</stim_listA>",is kissing,
null,"<div style=""font-size:60px;"">+</div>",,html-keyboard-response,230,2428158,0.0-17.0-0.1,87528,List2A,black,woman,,,,null,,,,
null,"<img src=""stim_listA/kiss3.gif""</stim_listA>",,html-keyboard-response,231,2430159,0.0-17.0-1.1,87528,List2A,black,woman,,,,null,,,,
null,is kissing,,html-keyboard-response,232,2432161,0.0-17.0-2.1,87528,List2A,black,woman,,,,null,,,,
18172,,,survey-text,233,2450333,0.0-17.0-3.1,87528,List2A,black,woman,,,,,"{""Q0"":""Beth and Fred are kissing""}","<img src=""stim_listA/kiss3.gif""</stim_listA>",is kissing,
null,"<div style=""font-size:60px;"">+</div>",,html-keyboard-response,234,2450834,0.0-17.0-0.2,87528,List2A,black,woman,,,,null,,,,
null,"<img src=""stim_listA/hug8.gif""</stim_listA>",,html-keyboard-response,235,2452836,0.0-17.0-1.2,87528,List2A,black,woman,,,,null,,,,
null,are hugging each other,,html-keyboard-response,236,2454837,0.0-17.0-2.2,87528,List2A,black,woman,,,,null,,,,
28256,,,survey-text,237,2483095,0.0-17.0-3.2,87528,List2A,black,woman,,,,,"{""Q0"":""Kate and Jane are hugging""}","<img src=""stim_listA/hug8.gif""</stim_listA>",are hugging each other,
null,"<div style=""font-size:60px;"">+</div>",,html-keyboard-response,238,2483596,0.0-17.0-0.3,87528,List2A,black,woman,,,,null,,,,
null,"<img src=""stim_listA/meet2.gif""</stim_listA>",,html-keyboard-response,239,2485597,0.0-17.0-1.3,87528,List2A,black,woman,,,,null,,,,
null,are meeting each other,,html-keyboard-response,240,2487598,0.0-17.0-2.3,87528,List2A,black,woman,,,,null,,,,
18314,,,survey-text,241,2505913,0.0-17.0-3.3,87528,List2A,black,woman,,,,,"{""Q0"":""Luke and Ruth are shaking hands""}","<img src=""stim_listA/meet2.gif""</stim_listA>",are meeting each other,
null,"<div style=""font-size:60px;"">+</div>",,html-keyboard-response,242,2506414,0.0-17.0-0.4,87528,List2A,black,woman,,,,null,,,,
null,"<img src=""stim_listA/fight5.gif""</stim_listA>",,html-keyboard-response,243,2508416,0.0-17.0-1.4,87528,List2A,black,woman,,,,null,,,,
null,is fighting,,html-keyboard-response,244,2510417,0.0-17.0-2.4,87528,List2A,black,woman,,,,null,,,,
11180,,,survey-text,245,2521598,0.0-17.0-3.4,87528,List2A,black,woman,,,,,"{""Q0"":""Dave and Mike are fighting""}","<img src=""stim_listA/fight5.gif""</stim_listA>",is fighting,
null,"<div style=""font-size:60px;"">+</div>",,html-keyboard-response,246,2522099,0.0-17.0-0.5,87528,List2A,black,woman,,,,null,,,,
null,"<img src=""stim_listA/dance7.gif""</stim_listA>",,html-keyboard-response,247,2524100,0.0-17.0-1.5,87528,List2A,black,woman,,,,null,,,,
null,is dancing with,,html-keyboard-response,248,2526103,0.0-17.0-2.5,87528,List2A,black,woman,,,,null,,,,
16138,,,survey-text,249,2542243,0.0-17.0-3.5,87528,List2A,black,woman,,,,,"{""Q0"":""Kate is dancing with Ruth""}","<img src=""stim_listA/dance7.gif""</stim_listA>",is dancing with,
null,"<div style=""font-size:60px;"">+</div>",,html-keyboard-response,250,2542744,0.0-17.0-0.6,87528,List2A,black,woman,,,,null,,,,
null,"<img src=""stim_listA/fight3.gif""</stim_listA>",,html-keyboard-response,251,2544746,0.0-17.0-1.6,87528,List2A,black,woman,,,,null,,,,
null,is fighting,,html-keyboard-response,252,2546747,0.0-17.0-2.6,87528,List2A,black,woman,,,,null,,,,
15574,,,survey-text,253,2562323,0.0-17.0-3.6,87528,List2A,black,woman,,,,,"{""Q0"":""Mike and Kate are fighting""}","<img src=""stim_listA/fight3.gif""</stim_listA>",is fighting,
null,"<div style=""font-size:60px;"">+</div>",,html-keyboard-response,254,2562824,0.0-17.0-0.7,87528,List2A,black,woman,,,,null,,,,
null,"<img src=""stim_listA/meet1.gif""</stim_listA>",,html-keyboard-response,255,2564826,0.0-17.0-1.7,87528,List2A,black,woman,,,,null,,,,
null,is meeting,,html-keyboard-response,256,2566826,0.0-17.0-2.7,87528,List2A,black,woman,,,,null,,,,
19079,,,survey-text,257,2585907,0.0-17.0-3.7,87528,List2A,black,woman,,,,,"{""Q0"":""Jane and Dave are meeting""}","<img src=""stim_listA/meet1.gif""</stim_listA>",is meeting,
null,"<div style=""font-size:60px;"">+</div>",,html-keyboard-response,258,2586408,0.0-17.0-0.8,87528,List2A,black,woman,,,,null,,,,
null,"<img src=""stim_listA/marry5.gif""</stim_listA>",,html-keyboard-response,259,2588410,0.0-17.0-1.8,87528,List2A,black,woman,,,,null,,,,
null,is marrying,,html-keyboard-response,260,2590412,0.0-17.0-2.8,87528,List2A,black,woman,,,,null,,,,
13303,,,survey-text,261,2603716,0.0-17.0-3.8,87528,List2A,black,woman,,,,,"{""Q0"":""Fred  and Dave are marrying""}","<img src=""stim_listA/marry5.gif""</stim_listA>",is marrying,
null,"<div style=""font-size:60px;"">+</div>",,html-keyboard-response,262,2604218,0.0-17.0-0.9,87528,List2A,black,woman,,,,null,,,,
null,"<img src=""stim_listA/touch1.gif""</stim_listA>",,html-keyboard-response,263,2606220,0.0-17.0-1.9,87528,List2A,black,woman,,,,null,,,,
null,is touching,,html-keyboard-response,264,2608221,0.0-17.0-2.9,87528,List2A,black,woman,,,,null,,,,
16078,,,survey-text,265,2624301,0.0-17.0-3.9,87528,List2A,black,woman,,,,,"{""Q0"":""Jane and Dave are touching""}","<img src=""stim_listA/touch1.gif""</stim_listA>",is touching,
null,"<div style=""font-size:60px;"">+</div>",,html-keyboard-response,266,2624802,0.0-17.0-0.10,87528,List2A,black,woman,,,,null,,,,
null,"<img src=""stim_listA/shout5.gif""</stim_listA>",,html-keyboard-response,267,2626805,0.0-17.0-1.10,87528,List2A,black,woman,,,,null,,,,
null,is shouting at,,html-keyboard-response,268,2628808,0.0-17.0-2.10,87528,List2A,black,woman,,,,null,,,,
22678,,,survey-text,269,2651487,0.0-17.0-3.10,87528,List2A,black,woman,,,,,"{""Q0"":""Fred and Luke are shouting at each other""}","<img src=""stim_listA/shout5.gif""</stim_listA>",is shouting at,
null,"<div style=""font-size:60px;"">+</div>",,html-keyboard-response,270,2651988,0.0-17.0-0.11,87528,List2A,black,woman,,,,null,,,,
null,"<img src=""stim_listA/shout1.gif""</stim_listA>",,html-keyboard-response,271,2653989,0.0-17.0-1.11,87528,List2A,black,woman,,,,null,,,,
null,is shouting at,,html-keyboard-response,272,2655991,0.0-17.0-2.11,87528,List2A,black,woman,,,,null,,,,
18764,,,survey-text,273,2674756,0.0-17.0-3.11,87528,List2A,black,woman,,,,,"{""Q0"":""Luke and Ruth are shouting at each other""}","<img src=""stim_listA/shout1.gif""</stim_listA>",is shouting at,
null,"<div style=""font-size:60px;"">+</div>",,html-keyboard-response,274,2675258,0.0-17.0-0.12,87528,List2A,black,woman,,,,null,,,,
null,"<img src=""stim_listA/touch8.gif""</stim_listA>",,html-keyboard-response,275,2677259,0.0-17.0-1.12,87528,List2A,black,woman,,,,null,,,,
null,are touching each other,,html-keyboard-response,276,2679261,0.0-17.0-2.12,87528,List2A,black,woman,,,,null,,,,
23387,,,survey-text,277,2702648,0.0-17.0-3.12,87528,List2A,black,woman,,,,,"{""Q0"":""Beth and Ruth are touching hands""}","<img src=""stim_listA/touch8.gif""</stim_listA>",are touching each other,
null,"<div style=""font-size:60px;"">+</div>",,html-keyboard-response,278,2703149,0.0-17.0-0.13,87528,List2A,black,woman,,,,null,,,,
null,"<img src=""stim_listA/talk6.gif""</stim_listA>",,html-keyboard-response,279,2705151,0.0-17.0-1.13,87528,List2A,black,woman,,,,null,,,,
null,are talking to each other,,html-keyboard-response,280,2707153,0.0-17.0-2.13,87528,List2A,black,woman,,,,null,,,,
12514,,,survey-text,281,2719669,0.0-17.0-3.13,87528,List2A,black,woman,,,,,"{""Q0"":""Fred and Dave are talking""}","<img src=""stim_listA/talk6.gif""</stim_listA>",are talking to each other,
null,"<div style=""font-size:60px;"">+</div>",,html-keyboard-response,282,2720170,0.0-17.0-0.14,87528,List2A,black,woman,,,,null,,,,
null,"<img src=""stim_listA/fight4.gif""</stim_listA>",,html-keyboard-response,283,2722171,0.0-17.0-1.14,87528,List2A,black,woman,,,,null,,,,
null,are fighting each other,,html-keyboard-response,284,2724172,0.0-17.0-2.14,87528,List2A,black,woman,,,,null,,,,
17248,,,survey-text,285,2741422,0.0-17.0-3.14,87528,List2A,black,woman,,,,,"{""Q0"":""Beth and Fred are fighting ""}","<img src=""stim_listA/fight4.gif""</stim_listA>",are fighting each other,
null,"<div style=""font-size:60px;"">+</div>",,html-keyboard-response,286,2741923,0.0-17.0-0.15,87528,List2A,black,woman,,,,null,,,,
null,"<img src=""stim_listA/shout7.gif""</stim_listA>",,html-keyboard-response,287,2743924,0.0-17.0-1.15,87528,List2A,black,woman,,,,null,,,,
null,is shouting at,,html-keyboard-response,288,2745925,0.0-17.0-2.15,87528,List2A,black,woman,,,,null,,,,
18316,,,survey-text,289,2764242,0.0-17.0-3.15,87528,List2A,black,woman,,,,,"{""Q0"":""Ruth and Beth are shouting at each other""}","<img src=""stim_listA/shout7.gif""</stim_listA>",is shouting at,
null,"<div style=""font-size:60px;"">+</div>",,html-keyboard-response,290,2764744,0.0-17.0-0.16,87528,List2A,black,woman,,,,null,,,,
null,"<img src=""stim_listA/hug6.gif""</stim_listA>",,html-keyboard-response,291,2766746,0.0-17.0-1.16,87528,List2A,black,woman,,,,null,,,,
null,are hugging each other,,html-keyboard-response,292,2768748,0.0-17.0-2.16,87528,List2A,black,woman,,,,null,,,,
18561,,,survey-text,293,2787310,0.0-17.0-3.16,87528,List2A,black,woman,,,,,"{""Q0"":""Dave and Mike are hugging""}","<img src=""stim_listA/hug6.gif""</stim_listA>",are hugging each other,
null,"<div style=""font-size:60px;"">+</div>",,html-keyboard-response,294,2787813,0.0-17.0-0.17,87528,List2A,black,woman,,,,null,,,,
null,"<img src=""stim_listA/marry6.gif""</stim_listA>",,html-keyboard-response,295,2789816,0.0-17.0-1.17,87528,List2A,black,woman,,,,null,,,,
null,are marrying each other,,html-keyboard-response,296,2791818,0.0-17.0-2.17,87528,List2A,black,woman,,,,null,,,,
11422,,,survey-text,297,2803240,0.0-17.0-3.17,87528,List2A,black,woman,,,,,"{""Q0"":""Luke and Mike are marrying""}","<img src=""stim_listA/marry6.gif""</stim_listA>",are marrying each other,
null,"<div style=""font-size:60px;"">+</div>",,html-keyboard-response,298,2803741,0.0-17.0-0.18,87528,List2A,black,woman,,,,null,,,,
null,"<img src=""stim_listA/shout2.gif""</stim_listA>",,html-keyboard-response,299,2805742,0.0-17.0-1.18,87528,List2A,black,woman,,,,null,,,,
null,are shouting at each other,,html-keyboard-response,300,2807745,0.0-17.0-2.18,87528,List2A,black,woman,,,,null,,,,
21747,,,survey-text,301,2829492,0.0-17.0-3.18,87528,List2A,black,woman,,,,,"{""Q0"":""Jane and Dave are shouting at each other""}","<img src=""stim_listA/shout2.gif""</stim_listA>",are shouting at each other,
null,"<div style=""font-size:60px;"">+</div>",,html-keyboard-response,302,2829994,0.0-17.0-0.19,87528,List2A,black,woman,,,,null,,,,
null,"<img src=""stim_listA/marry3.gif""</stim_listA>",,html-keyboard-response,303,2831996,0.0-17.0-1.19,87528,List2A,black,woman,,,,null,,,,
null,is marrying,,html-keyboard-response,304,2833998,0.0-17.0-2.19,87528,List2A,black,woman,,,,null,,,,
23325,,,survey-text,305,2857324,0.0-17.0-3.19,87528,List2A,black,woman,,,,,"{""Q0"":""Mike and Beth are marrying""}","<img src=""stim_listA/marry3.gif""</stim_listA>",is marrying,
13352,"<img src='img/portrait_matrix_list2.JPG' style='width:900px;height:500px;''></img><p>If you have memorised all the portraits and names and are ready to start, press Continue.</p><p><strong>Please note: Your memory of these faces will be tested 4 times during this experiment.</strong></p>",0,html-button-response,306,2870678,0.0-18.0-0.0,87528,List2A,black,woman,,,,,,,,
3591,"<img src=""portrait/BM1.jpg""style=""width:400px;height:400px;""></img>",4,html-button-response,307,2875270,0.0-18.0-1.0,87528,List2A,black,woman,,TRUE,4,,,,,
null,CORRECT,,html-keyboard-response,308,2876771,0.0-18.0-2.0-0.0,87528,List2A,black,woman,,,,null,,,,
2337,"<img src=""portrait/BM2.jpg""style=""width:400px;height:400px;""></img>",5,html-button-response,309,2879110,0.0-18.0-4.0,87528,List2A,black,woman,,TRUE,5,,,,,
null,CORRECT,,html-keyboard-response,310,2880613,0.0-18.0-5.0-0.0,87528,List2A,black,woman,,,,null,,,,
4262,"<img src=""portrait/BW1.jpg""style=""width:400px;height:400px;""></img>",0,html-button-response,311,2884876,0.0-18.0-7.0,87528,List2A,black,woman,,TRUE,0,,,,,
null,CORRECT,,html-keyboard-response,312,2886378,0.0-18.0-8.0-0.0,87528,List2A,black,woman,,,,null,,,,
3178,"<img src=""portrait/WM1.jpg""style=""width:400px;height:400px;""></img>",6,html-button-response,313,2889558,0.0-18.0-10.0,87528,List2A,black,woman,,TRUE,6,,,,,
null,CORRECT,,html-keyboard-response,314,2891061,0.0-18.0-11.0-0.0,87528,List2A,black,woman,,,,null,,,,
4144,"<img src=""portrait/WW1.jpg""style=""width:400px;height:400px;""></img>",1,html-button-response,315,2895206,0.0-18.0-13.0,87528,List2A,black,woman,,TRUE,1,,,,,
null,CORRECT,,html-keyboard-response,316,2896710,0.0-18.0-14.0-0.0,87528,List2A,black,woman,,,,null,,,,
2182,"<img src=""portrait/WM2.jpg""style=""width:400px;height:400px;""></img>",7,html-button-response,317,2898894,0.0-18.0-16.0,87528,List2A,black,woman,,TRUE,7,,,,,
null,CORRECT,,html-keyboard-response,318,2900397,0.0-18.0-17.0-0.0,87528,List2A,black,woman,,,,null,,,,
2899,"<img src=""portrait/BW2.jpg""style=""width:400px;height:400px;""></img>",2,html-button-response,319,2903298,0.0-18.0-19.0,87528,List2A,black,woman,,TRUE,2,,,,,
null,CORRECT,,html-keyboard-response,320,2904801,0.0-18.0-20.0-0.0,87528,List2A,black,woman,,,,null,,,,
2051,"<img src=""portrait/WW2.jpg""style=""width:400px;height:400px;""></img>",3,html-button-response,321,2906854,0.0-18.0-22.0,87528,List2A,black,woman,,TRUE,3,,,,,
null,CORRECT,,html-keyboard-response,322,2908358,0.0-18.0-23.0-0.0,87528,List2A,black,woman,,,,null,,,,
1585,<p>You got 8 out of 8 right first time. Press Continue.</p>,0,html-button-response,323,2909944,0.0-18.0-25.0,87528,List2A,black,woman,,,,,,,,
null,"<div style=""font-size:60px;"">+</div>",,html-keyboard-response,324,2911448,0.0-19.0-0.0,87528,List2A,black,woman,,,,null,,,,
null,"<img src=""stim_listA/hug1.gif""</stim_listA>",,html-keyboard-response,325,2913449,0.0-19.0-1.0,87528,List2A,black,woman,,,,null,,,,
null,is hugging,,html-keyboard-response,326,2915451,0.0-19.0-2.0,87528,List2A,black,woman,,,,null,,,,
27505,,,survey-text,327,2942957,0.0-19.0-3.0,87528,List2A,black,woman,,,,,"{""Q0"":""Ruth and Luke are marrying""}","<img src=""stim_listA/hug1.gif""</stim_listA>",is hugging,
null,"<div style=""font-size:60px;"">+</div>",,html-keyboard-response,328,2943459,0.0-19.0-0.1,87528,List2A,black,woman,,,,null,,,,
null,"<img src=""stim_listA/touch4.gif""</stim_listA>",,html-keyboard-response,329,2945461,0.0-19.0-1.1,87528,List2A,black,woman,,,,null,,,,
null,are touching each other,,html-keyboard-response,330,2947462,0.0-19.0-2.1,87528,List2A,black,woman,,,,null,,,,
12872,,,survey-text,331,2960335,0.0-19.0-3.1,87528,List2A,black,woman,,,,,"{""Q0"":""Fred and Beth are touching""}","<img src=""stim_listA/touch4.gif""</stim_listA>",are touching each other,
null,"<div style=""font-size:60px;"">+</div>",,html-keyboard-response,332,2960837,0.0-19.0-0.2,87528,List2A,black,woman,,,,null,,,,
null,"<img src=""stim_listA/fight8.gif""</stim_listA>",,html-keyboard-response,333,2962838,0.0-19.0-1.2,87528,List2A,black,woman,,,,null,,,,
null,are fighting each other,,html-keyboard-response,334,2964839,0.0-19.0-2.2,87528,List2A,black,woman,,,,null,,,,
13731,,,survey-text,335,2978572,0.0-19.0-3.2,87528,List2A,black,woman,,,,,"{""Q0"":""Beth and Ruth are fighting""}","<img src=""stim_listA/fight8.gif""</stim_listA>",are fighting each other,
null,"<div style=""font-size:60px;"">+</div>",,html-keyboard-response,336,2979073,0.0-19.0-0.3,87528,List2A,black,woman,,,,null,,,,
null,"<img src=""stim_listA/touch5.gif""</stim_listA>",,html-keyboard-response,337,2981075,0.0-19.0-1.3,87528,List2A,black,woman,,,,null,,,,
null,is touching,,html-keyboard-response,338,2983077,0.0-19.0-2.3,87528,List2A,black,woman,,,,null,,,,
12393,,,survey-text,339,2995472,0.0-19.0-3.3,87528,List2A,black,woman,,,,,"{""Q0"":""Mike and Dave are touching""}","<img src=""stim_listA/touch5.gif""</stim_listA>",is touching,
null,"<div style=""font-size:60px;"">+</div>",,html-keyboard-response,340,2995973,0.0-19.0-0.4,87528,List2A,black,woman,,,,null,,,,
null,"<img src=""stim_listA/talk3.gif""</stim_listA>",,html-keyboard-response,341,2997975,0.0-19.0-1.4,87528,List2A,black,woman,,,,null,,,,
null,is talking to,,html-keyboard-response,342,2999977,0.0-19.0-2.4,87528,List2A,black,woman,,,,null,,,,
17364,,,survey-text,343,3017342,0.0-19.0-3.4,87528,List2A,black,woman,,,,,"{""Q0"":""Fred is talking to Kate""}","<img src=""stim_listA/talk3.gif""</stim_listA>",is talking to,
null,"<div style=""font-size:60px;"">+</div>",,html-keyboard-response,344,3017843,0.0-19.0-0.5,87528,List2A,black,woman,,,,null,,,,
null,"<img src=""stim_listA/hug5.gif""</stim_listA>",,html-keyboard-response,345,3019844,0.0-19.0-1.5,87528,List2A,black,woman,,,,null,,,,
null,is hugging,,html-keyboard-response,346,3021846,0.0-19.0-2.5,87528,List2A,black,woman,,,,null,,,,
15860,,,survey-text,347,3037708,0.0-19.0-3.5,87528,List2A,black,woman,,,,,"{""Q0"":""Fred and Luke are hugging""}","<img src=""stim_listA/hug5.gif""</stim_listA>",is hugging,
null,"<div style=""font-size:60px;"">+</div>",,html-keyboard-response,348,3038209,0.0-19.0-0.6,87528,List2A,black,woman,,,,null,,,,
null,"<img src=""stim_listA/hug7.gif""</stim_listA>",,html-keyboard-response,349,3040210,0.0-19.0-1.6,87528,List2A,black,woman,,,,null,,,,
null,is hugging,,html-keyboard-response,350,3042211,0.0-19.0-2.6,87528,List2A,black,woman,,,,null,,,,
14002,,,survey-text,351,3056213,0.0-19.0-3.6,87528,List2A,black,woman,,,,,"{""Q0"":""Beth and Ruth are hugging""}","<img src=""stim_listA/hug7.gif""</stim_listA>",is hugging,
null,"<div style=""font-size:60px;"">+</div>",,html-keyboard-response,352,3056715,0.0-19.0-0.7,87528,List2A,black,woman,,,,null,,,,
null,"<img src=""stim_listA/meet6.gif""</stim_listA>",,html-keyboard-response,353,3058717,0.0-19.0-1.7,87528,List2A,black,woman,,,,null,,,,
null,are meeting each other,,html-keyboard-response,354,3060718,0.0-19.0-2.7,87528,List2A,black,woman,,,,null,,,,
21890,,,survey-text,355,3082609,0.0-19.0-3.7,87528,List2A,black,woman,,,,,"{""Q0"":""Luke and Fred are meeting""}","<img src=""stim_listA/meet6.gif""</stim_listA>",are meeting each other,
null,"<div style=""font-size:60px;"">+</div>",,html-keyboard-response,356,3083111,0.0-19.0-0.8,87528,List2A,black,woman,,,,null,,,,
null,"<img src=""stim_listA/argue6.gif""</stim_listA>",,html-keyboard-response,357,3085112,0.0-19.0-1.8,87528,List2A,black,woman,,,,null,,,,
null,are arguing with each other,,html-keyboard-response,358,3087114,0.0-19.0-2.8,87528,List2A,black,woman,,,,null,,,,
11945,,,survey-text,359,3099059,0.0-19.0-3.8,87528,List2A,black,woman,,,,,"{""Q0"":""Luke and Mike are arguing""}","<img src=""stim_listA/argue6.gif""</stim_listA>",are arguing with each other,
null,"<div style=""font-size:60px;"">+</div>",,html-keyboard-response,360,3099561,0.0-19.0-0.9,87528,List2A,black,woman,,,,null,,,,
null,"<img src=""stim_listA/fight6.gif""</stim_listA>",,html-keyboard-response,361,3101563,0.0-19.0-1.9,87528,List2A,black,woman,,,,null,,,,
null,are fighting each other,,html-keyboard-response,362,3103564,0.0-19.0-2.9,87528,List2A,black,woman,,,,null,,,,
22253,,,survey-text,363,3125818,0.0-19.0-3.9,87528,List2A,black,woman,,,,,"{""Q0"":""Luke and Fred are fighting""}","<img src=""stim_listA/fight6.gif""</stim_listA>",are fighting each other,
null,"<div style=""font-size:60px;"">+</div>",,html-keyboard-response,364,3126320,0.0-19.0-0.10,87528,List2A,black,woman,,,,null,,,,
null,"<img src=""stim_listA/meet8.gif""</stim_listA>",,html-keyboard-response,365,3128322,0.0-19.0-1.10,87528,List2A,black,woman,,,,null,,,,
null,are meeting each other,,html-keyboard-response,366,3130324,0.0-19.0-2.10,87528,List2A,black,woman,,,,null,,,,
15964,,,survey-text,367,3146289,0.0-19.0-3.10,87528,List2A,black,woman,,,,,"{""Q0"":""Ruth and Beth are meeting""}","<img src=""stim_listA/meet8.gif""</stim_listA>",are meeting each other,
null,"<div style=""font-size:60px;"">+</div>",,html-keyboard-response,368,3146790,0.0-19.0-0.11,87528,List2A,black,woman,,,,null,,,,
null,"<img src=""stim_listA/argue8.gif""</stim_listA>",,html-keyboard-response,369,3148791,0.0-19.0-1.11,87528,List2A,black,woman,,,,null,,,,
null,are arguing with each other,,html-keyboard-response,370,3150793,0.0-19.0-2.11,87528,List2A,black,woman,,,,null,,,,
17158,,,survey-text,371,3167952,0.0-19.0-3.11,87528,List2A,black,woman,,,,,"{""Q0"":""Ruth and Kate are arguing""}","<img src=""stim_listA/argue8.gif""</stim_listA>",are arguing with each other,
null,"<div style=""font-size:60px;"">+</div>",,html-keyboard-response,372,3168453,0.0-19.0-0.12,87528,List2A,black,woman,,,,null,,,,
null,"<img src=""stim_listA/dance3.gif""</stim_listA>",,html-keyboard-response,373,3170454,0.0-19.0-1.12,87528,List2A,black,woman,,,,null,,,,
null,is dancing with,,html-keyboard-response,374,3172456,0.0-19.0-2.12,87528,List2A,black,woman,,,,null,,,,
17014,,,survey-text,375,3189471,0.0-19.0-3.12,87528,List2A,black,woman,,,,,"{""Q0"":""Fred is dancing with Kate""}","<img src=""stim_listA/dance3.gif""</stim_listA>",is dancing with,
null,"<div style=""font-size:60px;"">+</div>",,html-keyboard-response,376,3189973,0.0-19.0-0.13,87528,List2A,black,woman,,,,null,,,,
null,"<img src=""stim_listA/dance8.gif""</stim_listA>",,html-keyboard-response,377,3191974,0.0-19.0-1.13,87528,List2A,black,woman,,,,null,,,,
null,are dancing with each other,,html-keyboard-response,378,3193975,0.0-19.0-2.13,87528,List2A,black,woman,,,,null,,,,
23061,,,survey-text,379,3217037,0.0-19.0-3.13,87528,List2A,black,woman,,,,,"{""Q0"":""Jane and Beth are dancing with each other""}","<img src=""stim_listA/dance8.gif""</stim_listA>",are dancing with each other,
null,"<div style=""font-size:60px;"">+</div>",,html-keyboard-response,380,3217538,0.0-19.0-0.14,87528,List2A,black,woman,,,,null,,,,
null,"<img src=""stim_listA/hug3.gif""</stim_listA>",,html-keyboard-response,381,3219540,0.0-19.0-1.14,87528,List2A,black,woman,,,,null,,,,
null,is hugging,,html-keyboard-response,382,3221541,0.0-19.0-2.14,87528,List2A,black,woman,,,,null,,,,
11131,,,survey-text,383,3232673,0.0-19.0-3.14,87528,List2A,black,woman,,,,,"{""Q0"":""Fred and Beth are hugging""}","<img src=""stim_listA/hug3.gif""</stim_listA>",is hugging,
null,"<div style=""font-size:60px;"">+</div>",,html-keyboard-response,384,3233174,0.0-19.0-0.15,87528,List2A,black,woman,,,,null,,,,
null,"<img src=""stim_listA/kiss4.gif""</stim_listA>",,html-keyboard-response,385,3235175,0.0-19.0-1.15,87528,List2A,black,woman,,,,null,,,,
null,are kissing each other,,html-keyboard-response,386,3237176,0.0-19.0-2.15,87528,List2A,black,woman,,,,null,,,,
13190,,,survey-text,387,3250367,0.0-19.0-3.15,87528,List2A,black,woman,,,,,"{""Q0"":""Mike and Kate are kissing each other""}","<img src=""stim_listA/kiss4.gif""</stim_listA>",are kissing each other,
null,"<div style=""font-size:60px;"">+</div>",,html-keyboard-response,388,3250869,0.0-19.0-0.16,87528,List2A,black,woman,,,,null,,,,
null,"<img src=""stim_listA/hug4.gif""</stim_listA>",,html-keyboard-response,389,3252870,0.0-19.0-1.16,87528,List2A,black,woman,,,,null,,,,
null,are hugging each other,,html-keyboard-response,390,3254872,0.0-19.0-2.16,87528,List2A,black,woman,,,,null,,,,
15794,,,survey-text,391,3270667,0.0-19.0-3.16,87528,List2A,black,woman,,,,,"{""Q0"":""Mike and Kate are hugging each other""}","<img src=""stim_listA/hug4.gif""</stim_listA>",are hugging each other,
null,"<div style=""font-size:60px;"">+</div>",,html-keyboard-response,392,3271169,0.0-19.0-0.17,87528,List2A,black,woman,,,,null,,,,
null,"<img src=""stim_listA/dance4.gif""</stim_listA>",,html-keyboard-response,393,3273170,0.0-19.0-1.17,87528,List2A,black,woman,,,,null,,,,
null,are dancing with each other,,html-keyboard-response,394,3275172,0.0-19.0-2.17,87528,List2A,black,woman,,,,null,,,,
19480,,,survey-text,395,3294652,0.0-19.0-3.17,87528,List2A,black,woman,,,,,"{""Q0"":""Mike and Beth are dancing with each other""}","<img src=""stim_listA/dance4.gif""</stim_listA>",are dancing with each other,
null,"<div style=""font-size:60px;"">+</div>",,html-keyboard-response,396,3295153,0.0-19.0-0.18,87528,List2A,black,woman,,,,null,,,,
null,"<img src=""stim_listA/talk8.gif""</stim_listA>",,html-keyboard-response,397,3297156,0.0-19.0-1.18,87528,List2A,black,woman,,,,null,,,,
null,are talking to each other,,html-keyboard-response,398,3299157,0.0-19.0-2.18,87528,List2A,black,woman,,,,null,,,,
12777,,,survey-text,399,3311934,0.0-19.0-3.18,87528,List2A,black,woman,,,,,"{""Q0"":""Jane and Beth are talking to each other""}","<img src=""stim_listA/talk8.gif""</stim_listA>",are talking to each other,
null,"<div style=""font-size:60px;"">+</div>",,html-keyboard-response,400,3312436,0.0-19.0-0.19,87528,List2A,black,woman,,,,null,,,,
null,"<img src=""stim_listA/talk2.gif""</stim_listA>",,html-keyboard-response,401,3314437,0.0-19.0-1.19,87528,List2A,black,woman,,,,null,,,,
null,are talking to each other,,html-keyboard-response,402,3316438,0.0-19.0-2.19,87528,List2A,black,woman,,,,null,,,,
16483,,,survey-text,403,3332922,0.0-19.0-3.19,87528,List2A,black,woman,,,,,"{""Q0"":""Dave and Ruth are talking to each other""}","<img src=""stim_listA/talk2.gif""</stim_listA>",are talking to each other,
8795,<p>Thank you for completing that task.</p><p>The final part of this session is a short questionnaire.</p><p>Press Continue.</p>,0,html-button-response,404,3341718,0.0-20.0,87528,List2A,black,woman,,,,,,,,
157459,,,survey-text,405,3500180,0.0-21.0,87528,List2A,black,woman,,,,,"{""Q0"":""30"",""Q1"":""Efik"",""Q2"":""English/ Efik"",""Q3"":""UK"",""Q4"":""Black British ( African)"",""Q5"":""Female""}",,,demographics
79730,,,survey-likert,406,3579915,0.0-22.0,87528,List2A,black,woman,,,,,"{""Q0"":5,""Q1"":3,""Q2"":"""",""Q3"":6,""Q4"":6,""Q5"":6,""Q6"":6,""Q7"":4,""Q8"":5,""Q9"":5,""Q10"":4,""Q11"":5,""Q12"":6,""Q13"":4}",,,likert_race
64229,,,survey-likert,407,3644148,0.0-23.0,87528,List2A,black,woman,,,,,"{""Q0"":5,""Q1"":5,""Q2"":5,""Q3"":5,""Q4"":5,""Q5"":5,""Q6"":5,""Q7"":5,""Q8"":6,""Q9"":6,""Q10"":5,""Q11"":5,""Q12"":5,""Q13"":5}",,,likert_gender
13335,,,survey-text,408,3657484,0.0-24.0,87528,List2A,black,woman,,,,,"{""Q0"":""ccc""}",,,worker_id
58108,,,external-html,409,3715678,0.0-25.0,87528,List2A,black,woman,debrief.html,,,,,,,
