rt,stimulus,button_pressed,trial_type,trial_index,time_elapsed,internal_node_id,subject,list,ppt_race,ppt_gender,url,first_guess,correct,key_press,responses,image_type,phrase_type,test_part
2219,Welcome to the experiment. Press Continue to begin.,0,html-button-response,0,2237,0.0-0.0,8865,List2B,black,man,,,,,,,,
27050,,,external-html,1,30333,0.0-1.0,8865,List2B,black,man,consent.html,,,,,,,
18774,"<p>On the next page, you will see portraits of 8 people and their names.</p><p>Your first task is to take a few minutes to memorise the names of these people.</p><p>You will have to recall their names during the rest of the experiment, so it is</p><p>essential that you try to memorise these people and their names as best as you can.</p><br><p><strong>You will then be tested on your memory of these names and portraits.</strong></p><br><p>The experiment will start after you have completed this memory test.</p><br><p>Ready?</p>",0,html-button-response,2,49108,0.0-2.0,8865,List2B,black,man,,,,,,,,
97004,"<img src='img/portrait_matrix_list2.JPG' style='width:900px;height:500px;''></img><p>If you have memorised all the portraits and names and are ready to start, press Continue.</p><p><strong>Please note: Your memory of these faces will be tested 4 times during this experiment.</strong></p>",0,html-button-response,3,147119,0.0-3.0-0.0,8865,List2B,black,man,,,,,,,,
11552,"<img src=""portrait/WW1.jpg""style=""width:400px;height:400px;""></img>",1,html-button-response,4,159678,0.0-3.0-1.0,8865,List2B,black,man,,TRUE,1,,,,,
null,CORRECT,,html-keyboard-response,5,161181,0.0-3.0-2.0-0.0,8865,List2B,black,man,,,,null,,,,
6086,"<img src=""portrait/BM1.jpg""style=""width:400px;height:400px;""></img>",4,html-button-response,6,167269,0.0-3.0-4.0,8865,List2B,black,man,,TRUE,4,,,,,
null,CORRECT,,html-keyboard-response,7,168774,0.0-3.0-5.0-0.0,8865,List2B,black,man,,,,null,,,,
7484,"<img src=""portrait/BM2.jpg""style=""width:400px;height:400px;""></img>",5,html-button-response,8,176260,0.0-3.0-7.0,8865,List2B,black,man,,TRUE,5,,,,,
null,CORRECT,,html-keyboard-response,9,177765,0.0-3.0-8.0-0.0,8865,List2B,black,man,,,,null,,,,
8548,"<img src=""portrait/BW1.jpg""style=""width:400px;height:400px;""></img>",0,html-button-response,10,186315,0.0-3.0-10.0,8865,List2B,black,man,,TRUE,0,,,,,
null,CORRECT,,html-keyboard-response,11,187825,0.0-3.0-11.0-0.0,8865,List2B,black,man,,,,null,,,,
6621,"<img src=""portrait/BW2.jpg""style=""width:400px;height:400px;""></img>",2,html-button-response,12,194447,0.0-3.0-13.0,8865,List2B,black,man,,TRUE,2,,,,,
null,CORRECT,,html-keyboard-response,13,195957,0.0-3.0-14.0-0.0,8865,List2B,black,man,,,,null,,,,
4083,"<img src=""portrait/WM1.jpg""style=""width:400px;height:400px;""></img>",6,html-button-response,14,200040,0.0-3.0-16.0,8865,List2B,black,man,,TRUE,6,,,,,
null,CORRECT,,html-keyboard-response,15,201550,0.0-3.0-17.0-0.0,8865,List2B,black,man,,,,null,,,,
9538,"<img src=""portrait/WW2.jpg""style=""width:400px;height:400px;""></img>",3,html-button-response,16,211088,0.0-3.0-19.0,8865,List2B,black,man,,TRUE,3,,,,,
null,CORRECT,,html-keyboard-response,17,212594,0.0-3.0-20.0-0.0,8865,List2B,black,man,,,,null,,,,
11142,"<img src=""portrait/WM2.jpg""style=""width:400px;height:400px;""></img>",7,html-button-response,18,223738,0.0-3.0-22.0,8865,List2B,black,man,,TRUE,7,,,,,
null,CORRECT,,html-keyboard-response,19,225243,0.0-3.0-23.0-0.0,8865,List2B,black,man,,,,null,,,,
2062,<p>You got 8 out of 8 right first time. Press Continue.</p>,0,html-button-response,20,227307,0.0-3.0-25.0,8865,List2B,black,man,,,,,,,,
200031,"<p>In this experiment, you will view photographs of the people from the memory game interacting.</p><p>By using the <strong>exact</strong> phrase given <i>after</i> the photograph appears and recalling the correct names of the people in the photographs, form a sentence describing the interaction. You do not need to capitalise names.</p><p>Type your answer in the space provided. Please complete every sentence before moving onto the next trial.</p><p>You will only have a few seconds to memorise each given photograph and phrase before you can respond, so try your best to focus.</p><p>An example is given below. Press 'Continue' when you are ready.</p><img src='img/speaking_example_v2.jpg' style='width:800px;height:460px;''></img>",0,html-button-response,21,428343,0.0-4.0,8865,List2B,black,man,,,,,,,,
4298,"<p>Before the experiment starts, you will watch two example trials. Press 'Continue'.</p>",0,html-button-response,22,433647,0.0-5.0,8865,List2B,black,man,,,,,,,,
null,<img src='img/speaking_WW.gif'></img>,,html-keyboard-response,23,436650,0.0-6.0,8865,List2B,black,man,,,,null,,,,
null,<p>is speaking to</p>,,html-keyboard-response,24,438654,0.0-7.0,8865,List2B,black,man,,,,null,,,,
7934,<p><b>Answer:</b> jane is speaking to ruth</p>,0,html-button-response,25,446589,0.0-8.0,8865,List2B,black,man,,,,,,,,
null,<img src='img/pointing_BM.gif'></img>,,html-keyboard-response,26,449600,0.0-9.0,8865,List2B,black,man,,,,null,,,,
null,<p>are pointing at each other</p>,,html-keyboard-response,27,451606,0.0-10.0,8865,List2B,black,man,,,,null,,,,
8854,<p><b>Answer:</b> fred and mike are pointing at each other</p>,0,html-button-response,28,460461,0.0-11.0,8865,List2B,black,man,,,,,,,,
33085,"<p>Ready to start the experiment?</p><br><p><strong>Remember to describe the picture using a full sentence,</strong></p><p><strong>that combines the names of the people with the given phrase.</strong></p><p><strong>If you do not do this correctly you will not be paid.</strong></p><p><strong> You do not need to capitalise names or use punctuation.</strong></p><br><p>Press 'Continue' to begin.</p>",0,html-button-response,29,494547,0.0-12.0,8865,List2B,black,man,,,,,,,,
null,"<div style=""font-size:60px;"">+</div>",,html-keyboard-response,30,496054,0.0-13.0-0.0,8865,List2B,black,man,,,,null,,,,
null,"<img src=""stim_listB/dance7.gif""</stim_listB>",,html-keyboard-response,31,498060,0.0-13.0-1.0,8865,List2B,black,man,,,,null,,,,
null,is dancing with,,html-keyboard-response,32,500065,0.0-13.0-2.0,8865,List2B,black,man,,,,null,,,,
27225,,,survey-text,33,527291,0.0-13.0-3.0,8865,List2B,black,man,,,,,"{""Q0"":""kate is dancing with ruth""}","<img src=""stim_listB/dance7.gif""</stim_listB>",is dancing with,
null,"<div style=""font-size:60px;"">+</div>",,html-keyboard-response,34,527795,0.0-13.0-0.1,8865,List2B,black,man,,,,null,,,,
null,"<img src=""stim_listB/talk3.gif""</stim_listB>",,html-keyboard-response,35,529801,0.0-13.0-1.1,8865,List2B,black,man,,,,null,,,,
null,is talking to,,html-keyboard-response,36,531807,0.0-13.0-2.1,8865,List2B,black,man,,,,null,,,,
23622,,,survey-text,37,555430,0.0-13.0-3.1,8865,List2B,black,man,,,,,"{""Q0"":""fred is talking to kate""}","<img src=""stim_listB/talk3.gif""</stim_listB>",is talking to,
null,"<div style=""font-size:60px;"">+</div>",,html-keyboard-response,38,555931,0.0-13.0-0.2,8865,List2B,black,man,,,,null,,,,
null,"<img src=""stim_listB/argue6.gif""</stim_listB>",,html-keyboard-response,39,557936,0.0-13.0-1.2,8865,List2B,black,man,,,,null,,,,
null,are arguing with each other,,html-keyboard-response,40,559942,0.0-13.0-2.2,8865,List2B,black,man,,,,null,,,,
51605,,,survey-text,41,611547,0.0-13.0-3.2,8865,List2B,black,man,,,,,"{""Q0"":""luke and mike are arguing with each other ""}","<img src=""stim_listB/argue6.gif""</stim_listB>",are arguing with each other,
null,"<div style=""font-size:60px;"">+</div>",,html-keyboard-response,42,612053,0.0-13.0-0.3,8865,List2B,black,man,,,,null,,,,
null,"<img src=""stim_listB/shout1.gif""</stim_listB>",,html-keyboard-response,43,614057,0.0-13.0-1.3,8865,List2B,black,man,,,,null,,,,
null,is shouting at,,html-keyboard-response,44,616060,0.0-13.0-2.3,8865,List2B,black,man,,,,null,,,,
36237,,,survey-text,45,652297,0.0-13.0-3.3,8865,List2B,black,man,,,,,"{""Q0"":""luke is shouting at ruth""}","<img src=""stim_listB/shout1.gif""</stim_listB>",is shouting at,
null,"<div style=""font-size:60px;"">+</div>",,html-keyboard-response,46,652799,0.0-13.0-0.4,8865,List2B,black,man,,,,null,,,,
null,"<img src=""stim_listB/marry8.gif""</stim_listB>",,html-keyboard-response,47,654805,0.0-13.0-1.4,8865,List2B,black,man,,,,null,,,,
null,are marrying each other,,html-keyboard-response,48,656806,0.0-13.0-2.4,8865,List2B,black,man,,,,null,,,,
25005,,,survey-text,49,681813,0.0-13.0-3.4,8865,List2B,black,man,,,,,"{""Q0"":""ruth and kate are marrying each other""}","<img src=""stim_listB/marry8.gif""</stim_listB>",are marrying each other,
null,"<div style=""font-size:60px;"">+</div>",,html-keyboard-response,50,682319,0.0-13.0-0.5,8865,List2B,black,man,,,,null,,,,
null,"<img src=""stim_listB/dance4.gif""</stim_listB>",,html-keyboard-response,51,684323,0.0-13.0-1.5,8865,List2B,black,man,,,,null,,,,
null,are dancing with each other,,html-keyboard-response,52,686328,0.0-13.0-2.5,8865,List2B,black,man,,,,null,,,,
76087,,,survey-text,53,762417,0.0-13.0-3.5,8865,List2B,black,man,,,,,"{""Q0"":""beth and mike are dancing with each other""}","<img src=""stim_listB/dance4.gif""</stim_listB>",are dancing with each other,
null,"<div style=""font-size:60px;"">+</div>",,html-keyboard-response,54,762923,0.0-13.0-0.6,8865,List2B,black,man,,,,null,,,,
null,"<img src=""stim_listB/touch6.gif""</stim_listB>",,html-keyboard-response,55,764929,0.0-13.0-1.6,8865,List2B,black,man,,,,null,,,,
null,are touching each other,,html-keyboard-response,56,766933,0.0-13.0-2.6,8865,List2B,black,man,,,,null,,,,
26855,,,survey-text,57,793788,0.0-13.0-3.6,8865,List2B,black,man,,,,,"{""Q0"":""luke and fred are touching each other""}","<img src=""stim_listB/touch6.gif""</stim_listB>",are touching each other,
null,"<div style=""font-size:60px;"">+</div>",,html-keyboard-response,58,794292,0.0-13.0-0.7,8865,List2B,black,man,,,,null,,,,
null,"<img src=""stim_listB/fight1.gif""</stim_listB>",,html-keyboard-response,59,796297,0.0-13.0-1.7,8865,List2B,black,man,,,,null,,,,
null,is fighting,,html-keyboard-response,60,798300,0.0-13.0-2.7,8865,List2B,black,man,,,,null,,,,
45527,,,survey-text,61,843828,0.0-13.0-3.7,8865,List2B,black,man,,,,,"{""Q0"":""ruth and dave is fighting each other""}","<img src=""stim_listB/fight1.gif""</stim_listB>",is fighting,
null,"<div style=""font-size:60px;"">+</div>",,html-keyboard-response,62,844329,0.0-13.0-0.8,8865,List2B,black,man,,,,null,,,,
null,"<img src=""stim_listB/marry5.gif""</stim_listB>",,html-keyboard-response,63,846331,0.0-13.0-1.8,8865,List2B,black,man,,,,null,,,,
null,is marrying,,html-keyboard-response,64,848333,0.0-13.0-2.8,8865,List2B,black,man,,,,null,,,,
30189,,,survey-text,65,878523,0.0-13.0-3.8,8865,List2B,black,man,,,,,"{""Q0"":""fred and dave is marrying ""}","<img src=""stim_listB/marry5.gif""</stim_listB>",is marrying,
null,"<div style=""font-size:60px;"">+</div>",,html-keyboard-response,66,879028,0.0-13.0-0.9,8865,List2B,black,man,,,,null,,,,
null,"<img src=""stim_listB/marry7.gif""</stim_listB>",,html-keyboard-response,67,881032,0.0-13.0-1.9,8865,List2B,black,man,,,,null,,,,
null,is marrying,,html-keyboard-response,68,883037,0.0-13.0-2.9,8865,List2B,black,man,,,,null,,,,
29835,,,survey-text,69,912873,0.0-13.0-3.9,8865,List2B,black,man,,,,,"{""Q0"":""beth and ruth is marrying""}","<img src=""stim_listB/marry7.gif""</stim_listB>",is marrying,
null,"<div style=""font-size:60px;"">+</div>",,html-keyboard-response,70,913374,0.0-13.0-0.10,8865,List2B,black,man,,,,null,,,,
null,"<img src=""stim_listB/argue2.gif""</stim_listB>",,html-keyboard-response,71,915376,0.0-13.0-1.10,8865,List2B,black,man,,,,null,,,,
null,are arguing with each other,,html-keyboard-response,72,917380,0.0-13.0-2.10,8865,List2B,black,man,,,,null,,,,
25623,,,survey-text,73,943004,0.0-13.0-3.10,8865,List2B,black,man,,,,,"{""Q0"":""luke and ruth are arguing with each other""}","<img src=""stim_listB/argue2.gif""</stim_listB>",are arguing with each other,
null,"<div style=""font-size:60px;"">+</div>",,html-keyboard-response,74,943506,0.0-13.0-0.11,8865,List2B,black,man,,,,null,,,,
null,"<img src=""stim_listB/argue5.gif""</stim_listB>",,html-keyboard-response,75,945509,0.0-13.0-1.11,8865,List2B,black,man,,,,null,,,,
null,is arguing with,,html-keyboard-response,76,947509,0.0-13.0-2.11,8865,List2B,black,man,,,,null,,,,
66284,,,survey-text,77,1013795,0.0-13.0-3.11,8865,List2B,black,man,,,,,"{""Q0"":""dave is arguing with fred""}","<img src=""stim_listB/argue5.gif""</stim_listB>",is arguing with,
null,"<div style=""font-size:60px;"">+</div>",,html-keyboard-response,78,1014296,0.0-13.0-0.12,8865,List2B,black,man,,,,null,,,,
null,"<img src=""stim_listB/hug2.gif""</stim_listB>",,html-keyboard-response,79,1016297,0.0-13.0-1.12,8865,List2B,black,man,,,,null,,,,
null,are hugging each other,,html-keyboard-response,80,1018302,0.0-13.0-2.12,8865,List2B,black,man,,,,null,,,,
26830,,,survey-text,81,1045134,0.0-13.0-3.12,8865,List2B,black,man,,,,,"{""Q0"":""ruth and dave are hugging each other""}","<img src=""stim_listB/hug2.gif""</stim_listB>",are hugging each other,
null,"<div style=""font-size:60px;"">+</div>",,html-keyboard-response,82,1045635,0.0-13.0-0.13,8865,List2B,black,man,,,,null,,,,
null,"<img src=""stim_listB/hug3.gif""</stim_listB>",,html-keyboard-response,83,1047637,0.0-13.0-1.13,8865,List2B,black,man,,,,null,,,,
null,is hugging,,html-keyboard-response,84,1049642,0.0-13.0-2.13,8865,List2B,black,man,,,,null,,,,
23961,,,survey-text,85,1073605,0.0-13.0-3.13,8865,List2B,black,man,,,,,"{""Q0"":""fred is hugging beth""}","<img src=""stim_listB/hug3.gif""</stim_listB>",is hugging,
null,"<div style=""font-size:60px;"">+</div>",,html-keyboard-response,86,1074106,0.0-13.0-0.14,8865,List2B,black,man,,,,null,,,,
null,"<img src=""stim_listB/touch8.gif""</stim_listB>",,html-keyboard-response,87,1076107,0.0-13.0-1.14,8865,List2B,black,man,,,,null,,,,
null,are touching each other,,html-keyboard-response,88,1078108,0.0-13.0-2.14,8865,List2B,black,man,,,,null,,,,
34668,,,survey-text,89,1112776,0.0-13.0-3.14,8865,List2B,black,man,,,,,"{""Q0"":""ruth and beth are touching each other""}","<img src=""stim_listB/touch8.gif""</stim_listB>",are touching each other,
null,"<div style=""font-size:60px;"">+</div>",,html-keyboard-response,90,1113277,0.0-13.0-0.15,8865,List2B,black,man,,,,null,,,,
null,"<img src=""stim_listB/fight5.gif""</stim_listB>",,html-keyboard-response,91,1115278,0.0-13.0-1.15,8865,List2B,black,man,,,,null,,,,
null,is fighting,,html-keyboard-response,92,1117279,0.0-13.0-2.15,8865,List2B,black,man,,,,null,,,,
21847,,,survey-text,93,1139126,0.0-13.0-3.15,8865,List2B,black,man,,,,,"{""Q0"":""dave is fighting mike""}","<img src=""stim_listB/fight5.gif""</stim_listB>",is fighting,
null,"<div style=""font-size:60px;"">+</div>",,html-keyboard-response,94,1139627,0.0-13.0-0.16,8865,List2B,black,man,,,,null,,,,
null,"<img src=""stim_listB/hug5.gif""</stim_listB>",,html-keyboard-response,95,1141629,0.0-13.0-1.16,8865,List2B,black,man,,,,null,,,,
null,is hugging,,html-keyboard-response,96,1143629,0.0-13.0-2.16,8865,List2B,black,man,,,,null,,,,
20541,,,survey-text,97,1164171,0.0-13.0-3.16,8865,List2B,black,man,,,,,"{""Q0"":""luke is hugging fred""}","<img src=""stim_listB/hug5.gif""</stim_listB>",is hugging,
null,"<div style=""font-size:60px;"">+</div>",,html-keyboard-response,98,1164672,0.0-13.0-0.17,8865,List2B,black,man,,,,null,,,,
null,"<img src=""stim_listB/touch4.gif""</stim_listB>",,html-keyboard-response,99,1166673,0.0-13.0-1.17,8865,List2B,black,man,,,,null,,,,
null,are touching each other,,html-keyboard-response,100,1168674,0.0-13.0-2.17,8865,List2B,black,man,,,,null,,,,
34298,,,survey-text,101,1202973,0.0-13.0-3.17,8865,List2B,black,man,,,,,"{""Q0"":""fred and beth are touching each other""}","<img src=""stim_listB/touch4.gif""</stim_listB>",are touching each other,
null,"<div style=""font-size:60px;"">+</div>",,html-keyboard-response,102,1203475,0.0-13.0-0.18,8865,List2B,black,man,,,,null,,,,
null,"<img src=""stim_listB/argue4.gif""</stim_listB>",,html-keyboard-response,103,1205479,0.0-13.0-1.18,8865,List2B,black,man,,,,null,,,,
null,are arguing with each other,,html-keyboard-response,104,1207481,0.0-13.0-2.18,8865,List2B,black,man,,,,null,,,,
42371,,,survey-text,105,1249852,0.0-13.0-3.18,8865,List2B,black,man,,,,,"{""Q0"":""kate and fred are arguing with each other""}","<img src=""stim_listB/argue4.gif""</stim_listB>",are arguing with each other,
null,"<div style=""font-size:60px;"">+</div>",,html-keyboard-response,106,1250353,0.0-13.0-0.19,8865,List2B,black,man,,,,null,,,,
null,"<img src=""stim_listB/fight3.gif""</stim_listB>",,html-keyboard-response,107,1252359,0.0-13.0-1.19,8865,List2B,black,man,,,,null,,,,
null,is fighting,,html-keyboard-response,108,1254360,0.0-13.0-2.19,8865,List2B,black,man,,,,null,,,,
20441,,,survey-text,109,1274802,0.0-13.0-3.19,8865,List2B,black,man,,,,,"{""Q0"":""mike is fighting kate""}","<img src=""stim_listB/fight3.gif""</stim_listB>",is fighting,
42372,"<img src='img/portrait_matrix_list2.JPG' style='width:900px;height:500px;''></img><p>If you have memorised all the portraits and names and are ready to start, press Continue.</p><p><strong>Please note: Your memory of these faces will be tested 4 times during this experiment.</strong></p>",0,html-button-response,110,1317176,0.0-14.0-0.0,8865,List2B,black,man,,,,,,,,
14957,"<img src=""portrait/WW1.jpg""style=""width:400px;height:400px;""></img>",1,html-button-response,111,1333140,0.0-14.0-1.0,8865,List2B,black,man,,TRUE,1,,,,,
null,CORRECT,,html-keyboard-response,112,1334643,0.0-14.0-2.0-0.0,8865,List2B,black,man,,,,null,,,,
7480,"<img src=""portrait/WM1.jpg""style=""width:400px;height:400px;""></img>",6,html-button-response,113,1342125,0.0-14.0-4.0,8865,List2B,black,man,,TRUE,6,,,,,
null,CORRECT,,html-keyboard-response,114,1343632,0.0-14.0-5.0-0.0,8865,List2B,black,man,,,,null,,,,
3846,"<img src=""portrait/BM2.jpg""style=""width:400px;height:400px;""></img>",5,html-button-response,115,1347480,0.0-14.0-7.0,8865,List2B,black,man,,TRUE,5,,,,,
null,CORRECT,,html-keyboard-response,116,1348982,0.0-14.0-8.0-0.0,8865,List2B,black,man,,,,null,,,,
4409,"<img src=""portrait/BW2.jpg""style=""width:400px;height:400px;""></img>",2,html-button-response,117,1353392,0.0-14.0-10.0,8865,List2B,black,man,,TRUE,2,,,,,
null,CORRECT,,html-keyboard-response,118,1354899,0.0-14.0-11.0-0.0,8865,List2B,black,man,,,,null,,,,
5925,"<img src=""portrait/WM2.jpg""style=""width:400px;height:400px;""></img>",7,html-button-response,119,1360824,0.0-14.0-13.0,8865,List2B,black,man,,TRUE,7,,,,,
null,CORRECT,,html-keyboard-response,120,1362336,0.0-14.0-14.0-0.0,8865,List2B,black,man,,,,null,,,,
2753,"<img src=""portrait/BM1.jpg""style=""width:400px;height:400px;""></img>",4,html-button-response,121,1365090,0.0-14.0-16.0,8865,List2B,black,man,,TRUE,4,,,,,
null,CORRECT,,html-keyboard-response,122,1366598,0.0-14.0-17.0-0.0,8865,List2B,black,man,,,,null,,,,
5072,"<img src=""portrait/BW1.jpg""style=""width:400px;height:400px;""></img>",0,html-button-response,123,1371671,0.0-14.0-19.0,8865,List2B,black,man,,TRUE,0,,,,,
null,CORRECT,,html-keyboard-response,124,1373179,0.0-14.0-20.0-0.0,8865,List2B,black,man,,,,null,,,,
7332,"<img src=""portrait/WW2.jpg""style=""width:400px;height:400px;""></img>",3,html-button-response,125,1380513,0.0-14.0-22.0,8865,List2B,black,man,,TRUE,3,,,,,
null,CORRECT,,html-keyboard-response,126,1382020,0.0-14.0-23.0-0.0,8865,List2B,black,man,,,,null,,,,
8884,<p>You got 8 out of 8 right first time. Press Continue.</p>,0,html-button-response,127,1390905,0.0-14.0-25.0,8865,List2B,black,man,,,,,,,,
null,"<div style=""font-size:60px;"">+</div>",,html-keyboard-response,128,1392410,0.0-15.0-0.0,8865,List2B,black,man,,,,null,,,,
null,"<img src=""stim_listB/kiss6.gif""</stim_listB>",,html-keyboard-response,129,1394416,0.0-15.0-1.0,8865,List2B,black,man,,,,null,,,,
null,are kissing each other,,html-keyboard-response,130,1396418,0.0-15.0-2.0,8865,List2B,black,man,,,,null,,,,
24782,,,survey-text,131,1421201,0.0-15.0-3.0,8865,List2B,black,man,,,,,"{""Q0"":""mike and dave are kissing each other""}","<img src=""stim_listB/kiss6.gif""</stim_listB>",are kissing each other,
null,"<div style=""font-size:60px;"">+</div>",,html-keyboard-response,132,1421702,0.0-15.0-0.1,8865,List2B,black,man,,,,null,,,,
null,"<img src=""stim_listB/talk5.gif""</stim_listB>",,html-keyboard-response,133,1423705,0.0-15.0-1.1,8865,List2B,black,man,,,,null,,,,
null,is talking to,,html-keyboard-response,134,1425706,0.0-15.0-2.1,8865,List2B,black,man,,,,null,,,,
19439,,,survey-text,135,1445145,0.0-15.0-3.1,8865,List2B,black,man,,,,,"{""Q0"":""luke is talking to mike""}","<img src=""stim_listB/talk5.gif""</stim_listB>",is talking to,
null,"<div style=""font-size:60px;"">+</div>",,html-keyboard-response,136,1445647,0.0-15.0-0.2,8865,List2B,black,man,,,,null,,,,
null,"<img src=""stim_listB/argue1.gif""</stim_listB>",,html-keyboard-response,137,1447652,0.0-15.0-1.2,8865,List2B,black,man,,,,null,,,,
null,is arguing with,,html-keyboard-response,138,1449653,0.0-15.0-2.2,8865,List2B,black,man,,,,null,,,,
61916,,,survey-text,139,1511571,0.0-15.0-3.2,8865,List2B,black,man,,,,,"{""Q0"":""fred is arguing with beth""}","<img src=""stim_listB/argue1.gif""</stim_listB>",is arguing with,
null,"<div style=""font-size:60px;"">+</div>",,html-keyboard-response,140,1512072,0.0-15.0-0.3,8865,List2B,black,man,,,,null,,,,
null,"<img src=""stim_listB/fight2.gif""</stim_listB>",,html-keyboard-response,141,1514076,0.0-15.0-1.3,8865,List2B,black,man,,,,null,,,,
null,are fighting each other,,html-keyboard-response,142,1516078,0.0-15.0-2.3,8865,List2B,black,man,,,,null,,,,
24865,,,survey-text,143,1540945,0.0-15.0-3.3,8865,List2B,black,man,,,,,"{""Q0"":""luke and ruth are fighting each other""}","<img src=""stim_listB/fight2.gif""</stim_listB>",are fighting each other,
null,"<div style=""font-size:60px;"">+</div>",,html-keyboard-response,144,1541446,0.0-15.0-0.4,8865,List2B,black,man,,,,null,,,,
null,"<img src=""stim_listB/fight7.gif""</stim_listB>",,html-keyboard-response,145,1543447,0.0-15.0-1.4,8865,List2B,black,man,,,,null,,,,
null,is fighting,,html-keyboard-response,146,1545452,0.0-15.0-2.4,8865,List2B,black,man,,,,null,,,,
28395,,,survey-text,147,1573847,0.0-15.0-3.4,8865,List2B,black,man,,,,,"{""Q0"":""kate is fighting ruth""}","<img src=""stim_listB/fight7.gif""</stim_listB>",is fighting,
null,"<div style=""font-size:60px;"">+</div>",,html-keyboard-response,148,1574353,0.0-15.0-0.5,8865,List2B,black,man,,,,null,,,,
null,"<img src=""stim_listB/shout5.gif""</stim_listB>",,html-keyboard-response,149,1576356,0.0-15.0-1.5,8865,List2B,black,man,,,,null,,,,
null,is shouting at,,html-keyboard-response,150,1578359,0.0-15.0-2.5,8865,List2B,black,man,,,,null,,,,
25757,,,survey-text,151,1604118,0.0-15.0-3.5,8865,List2B,black,man,,,,,"{""Q0"":""luke is shouting at fred""}","<img src=""stim_listB/shout5.gif""</stim_listB>",is shouting at,
null,"<div style=""font-size:60px;"">+</div>",,html-keyboard-response,152,1604618,0.0-15.0-0.6,8865,List2B,black,man,,,,null,,,,
null,"<img src=""stim_listB/shout3.gif""</stim_listB>",,html-keyboard-response,153,1606623,0.0-15.0-1.6,8865,List2B,black,man,,,,null,,,,
null,is shouting at,,html-keyboard-response,154,1608624,0.0-15.0-2.6,8865,List2B,black,man,,,,null,,,,
20781,,,survey-text,155,1629406,0.0-15.0-3.6,8865,List2B,black,man,,,,,"{""Q0"":""fred is shouting at beth""}","<img src=""stim_listB/shout3.gif""</stim_listB>",is shouting at,
null,"<div style=""font-size:60px;"">+</div>",,html-keyboard-response,156,1629912,0.0-15.0-0.7,8865,List2B,black,man,,,,null,,,,
null,"<img src=""stim_listB/shout8.gif""</stim_listB>",,html-keyboard-response,157,1631916,0.0-15.0-1.7,8865,List2B,black,man,,,,null,,,,
null,are shouting at each other,,html-keyboard-response,158,1633916,0.0-15.0-2.7,8865,List2B,black,man,,,,null,,,,
30732,,,survey-text,159,1664650,0.0-15.0-3.7,8865,List2B,black,man,,,,,"{""Q0"":""kate and ruth are shouting at each other""}","<img src=""stim_listB/shout8.gif""</stim_listB>",are shouting at each other,
null,"<div style=""font-size:60px;"">+</div>",,html-keyboard-response,160,1665151,0.0-15.0-0.8,8865,List2B,black,man,,,,null,,,,
null,"<img src=""stim_listB/fight4.gif""</stim_listB>",,html-keyboard-response,161,1667154,0.0-15.0-1.8,8865,List2B,black,man,,,,null,,,,
null,are fighting each other,,html-keyboard-response,162,1669155,0.0-15.0-2.8,8865,List2B,black,man,,,,null,,,,
25035,,,survey-text,163,1694191,0.0-15.0-3.8,8865,List2B,black,man,,,,,"{""Q0"":""fred and beth are fighting each other""}","<img src=""stim_listB/fight4.gif""</stim_listB>",are fighting each other,
null,"<div style=""font-size:60px;"">+</div>",,html-keyboard-response,164,1694693,0.0-15.0-0.9,8865,List2B,black,man,,,,null,,,,
null,"<img src=""stim_listB/meet8.gif""</stim_listB>",,html-keyboard-response,165,1696694,0.0-15.0-1.9,8865,List2B,black,man,,,,null,,,,
null,are meeting each other,,html-keyboard-response,166,1698699,0.0-15.0-2.9,8865,List2B,black,man,,,,null,,,,
29129,,,survey-text,167,1727830,0.0-15.0-3.9,8865,List2B,black,man,,,,,"{""Q0"":""beth and ruth are meeting each other""}","<img src=""stim_listB/meet8.gif""</stim_listB>",are meeting each other,
null,"<div style=""font-size:60px;"">+</div>",,html-keyboard-response,168,1728333,0.0-15.0-0.10,8865,List2B,black,man,,,,null,,,,
null,"<img src=""stim_listB/meet6.gif""</stim_listB>",,html-keyboard-response,169,1730336,0.0-15.0-1.10,8865,List2B,black,man,,,,null,,,,
null,are meeting each other,,html-keyboard-response,170,1732337,0.0-15.0-2.10,8865,List2B,black,man,,,,null,,,,
27970,,,survey-text,171,1760308,0.0-15.0-3.10,8865,List2B,black,man,,,,,"{""Q0"":""fred and luke are meeting each other""}","<img src=""stim_listB/meet6.gif""</stim_listB>",are meeting each other,
null,"<div style=""font-size:60px;"">+</div>",,html-keyboard-response,172,1760809,0.0-15.0-0.11,8865,List2B,black,man,,,,null,,,,
null,"<img src=""stim_listB/talk8.gif""</stim_listB>",,html-keyboard-response,173,1762815,0.0-15.0-1.11,8865,List2B,black,man,,,,null,,,,
null,are talking to each other,,html-keyboard-response,174,1764817,0.0-15.0-2.11,8865,List2B,black,man,,,,null,,,,
28812,,,survey-text,175,1793631,0.0-15.0-3.11,8865,List2B,black,man,,,,,"{""Q0"":""ruth and beth are talking to each other""}","<img src=""stim_listB/talk8.gif""</stim_listB>",are talking to each other,
null,"<div style=""font-size:60px;"">+</div>",,html-keyboard-response,176,1794132,0.0-15.0-0.12,8865,List2B,black,man,,,,null,,,,
null,"<img src=""stim_listB/marry6.gif""</stim_listB>",,html-keyboard-response,177,1796133,0.0-15.0-1.12,8865,List2B,black,man,,,,null,,,,
null,are marrying each other,,html-keyboard-response,178,1798135,0.0-15.0-2.12,8865,List2B,black,man,,,,null,,,,
24957,,,survey-text,179,1823092,0.0-15.0-3.12,8865,List2B,black,man,,,,,"{""Q0"":""luke and mike are marrying each other""}","<img src=""stim_listB/marry6.gif""</stim_listB>",are marrying each other,
null,"<div style=""font-size:60px;"">+</div>",,html-keyboard-response,180,1823593,0.0-15.0-0.13,8865,List2B,black,man,,,,null,,,,
null,"<img src=""stim_listB/talk6.gif""</stim_listB>",,html-keyboard-response,181,1825595,0.0-15.0-1.13,8865,List2B,black,man,,,,null,,,,
null,are talking to each other,,html-keyboard-response,182,1827598,0.0-15.0-2.13,8865,List2B,black,man,,,,null,,,,
33557,,,survey-text,183,1861156,0.0-15.0-3.13,8865,List2B,black,man,,,,,"{""Q0"":""fred and dave are talking to each other""}","<img src=""stim_listB/talk6.gif""</stim_listB>",are talking to each other,
null,"<div style=""font-size:60px;"">+</div>",,html-keyboard-response,184,1861662,0.0-15.0-0.14,8865,List2B,black,man,,,,null,,,,
null,"<img src=""stim_listB/touch7.gif""</stim_listB>",,html-keyboard-response,185,1863664,0.0-15.0-1.14,8865,List2B,black,man,,,,null,,,,
null,is touching,,html-keyboard-response,186,1865665,0.0-15.0-2.14,8865,List2B,black,man,,,,null,,,,
22189,,,survey-text,187,1887855,0.0-15.0-3.14,8865,List2B,black,man,,,,,"{""Q0"":""ruth is touching kate""}","<img src=""stim_listB/touch7.gif""</stim_listB>",is touching,
null,"<div style=""font-size:60px;"">+</div>",,html-keyboard-response,188,1888356,0.0-15.0-0.15,8865,List2B,black,man,,,,null,,,,
null,"<img src=""stim_listB/marry2.gif""</stim_listB>",,html-keyboard-response,189,1890358,0.0-15.0-1.15,8865,List2B,black,man,,,,null,,,,
null,are marrying each other,,html-keyboard-response,190,1892359,0.0-15.0-2.15,8865,List2B,black,man,,,,null,,,,
33336,,,survey-text,191,1925696,0.0-15.0-3.15,8865,List2B,black,man,,,,,"{""Q0"":""luke and ruth are marrying each other""}","<img src=""stim_listB/marry2.gif""</stim_listB>",are marrying each other,
null,"<div style=""font-size:60px;"">+</div>",,html-keyboard-response,192,1926197,0.0-15.0-0.16,8865,List2B,black,man,,,,null,,,,
null,"<img src=""stim_listB/dance1.gif""</stim_listB>",,html-keyboard-response,193,1928203,0.0-15.0-1.16,8865,List2B,black,man,,,,null,,,,
null,is dancing with,,html-keyboard-response,194,1930205,0.0-15.0-2.16,8865,List2B,black,man,,,,null,,,,
24058,,,survey-text,195,1954265,0.0-15.0-3.16,8865,List2B,black,man,,,,,"{""Q0"":""ruth is dancing with luke""}","<img src=""stim_listB/dance1.gif""</stim_listB>",is dancing with,
null,"<div style=""font-size:60px;"">+</div>",,html-keyboard-response,196,1954771,0.0-15.0-0.17,8865,List2B,black,man,,,,null,,,,
null,"<img src=""stim_listB/dance3.gif""</stim_listB>",,html-keyboard-response,197,1956777,0.0-15.0-1.17,8865,List2B,black,man,,,,null,,,,
null,is dancing with,,html-keyboard-response,198,1958778,0.0-15.0-2.17,8865,List2B,black,man,,,,null,,,,
20618,,,survey-text,199,1979396,0.0-15.0-3.17,8865,List2B,black,man,,,,,"{""Q0"":""kate is dancing with fred""}","<img src=""stim_listB/dance3.gif""</stim_listB>",is dancing with,
null,"<div style=""font-size:60px;"">+</div>",,html-keyboard-response,200,1979901,0.0-15.0-0.18,8865,List2B,black,man,,,,null,,,,
null,"<img src=""stim_listB/fight6.gif""</stim_listB>",,html-keyboard-response,201,1981907,0.0-15.0-1.18,8865,List2B,black,man,,,,null,,,,
null,are fighting each other,,html-keyboard-response,202,1983910,0.0-15.0-2.18,8865,List2B,black,man,,,,null,,,,
49717,,,survey-text,203,2033628,0.0-15.0-3.18,8865,List2B,black,man,,,,,"{""Q0"":""luke and fred are fighting each other""}","<img src=""stim_listB/fight6.gif""</stim_listB>",are fighting each other,
null,"<div style=""font-size:60px;"">+</div>",,html-keyboard-response,204,2034133,0.0-15.0-0.19,8865,List2B,black,man,,,,null,,,,
null,"<img src=""stim_listB/marry3.gif""</stim_listB>",,html-keyboard-response,205,2036137,0.0-15.0-1.19,8865,List2B,black,man,,,,null,,,,
null,is marrying,,html-keyboard-response,206,2038138,0.0-15.0-2.19,8865,List2B,black,man,,,,null,,,,
22102,,,survey-text,207,2060241,0.0-15.0-3.19,8865,List2B,black,man,,,,,"{""Q0"":""mike is marrying beth""}","<img src=""stim_listB/marry3.gif""</stim_listB>",is marrying,
22733,"<img src='img/portrait_matrix_list2.JPG' style='width:900px;height:500px;''></img><p>If you have memorised all the portraits and names and are ready to start, press Continue.</p><p><strong>Please note: Your memory of these faces will be tested 4 times during this experiment.</strong></p>",0,html-button-response,208,2082975,0.0-16.0-0.0,8865,List2B,black,man,,,,,,,,
5689,"<img src=""portrait/WM2.jpg""style=""width:400px;height:400px;""></img>",7,html-button-response,209,2089667,0.0-16.0-1.0,8865,List2B,black,man,,TRUE,7,,,,,
null,CORRECT,,html-keyboard-response,210,2091179,0.0-16.0-2.0-0.0,8865,List2B,black,man,,,,null,,,,
3904,"<img src=""portrait/WM1.jpg""style=""width:400px;height:400px;""></img>",6,html-button-response,211,2095085,0.0-16.0-4.0,8865,List2B,black,man,,TRUE,6,,,,,
null,CORRECT,,html-keyboard-response,212,2096590,0.0-16.0-5.0-0.0,8865,List2B,black,man,,,,null,,,,
3053,"<img src=""portrait/BM2.jpg""style=""width:400px;height:400px;""></img>",5,html-button-response,213,2099644,0.0-16.0-7.0,8865,List2B,black,man,,TRUE,5,,,,,
null,CORRECT,,html-keyboard-response,214,2101156,0.0-16.0-8.0-0.0,8865,List2B,black,man,,,,null,,,,
6974,"<img src=""portrait/WW1.jpg""style=""width:400px;height:400px;""></img>",1,html-button-response,215,2108131,0.0-16.0-10.0,8865,List2B,black,man,,TRUE,1,,,,,
null,CORRECT,,html-keyboard-response,216,2109639,0.0-16.0-11.0-0.0,8865,List2B,black,man,,,,null,,,,
3690,"<img src=""portrait/BM1.jpg""style=""width:400px;height:400px;""></img>",4,html-button-response,217,2113330,0.0-16.0-13.0,8865,List2B,black,man,,TRUE,4,,,,,
null,CORRECT,,html-keyboard-response,218,2114837,0.0-16.0-14.0-0.0,8865,List2B,black,man,,,,null,,,,
4621,"<img src=""portrait/BW2.jpg""style=""width:400px;height:400px;""></img>",2,html-button-response,219,2119460,0.0-16.0-16.0,8865,List2B,black,man,,TRUE,2,,,,,
null,CORRECT,,html-keyboard-response,220,2120969,0.0-16.0-17.0-0.0,8865,List2B,black,man,,,,null,,,,
5198,"<img src=""portrait/WW2.jpg""style=""width:400px;height:400px;""></img>",3,html-button-response,221,2126168,0.0-16.0-19.0,8865,List2B,black,man,,TRUE,3,,,,,
null,CORRECT,,html-keyboard-response,222,2127672,0.0-16.0-20.0-0.0,8865,List2B,black,man,,,,null,,,,
5482,"<img src=""portrait/BW1.jpg""style=""width:400px;height:400px;""></img>",0,html-button-response,223,2133156,0.0-16.0-22.0,8865,List2B,black,man,,TRUE,0,,,,,
null,CORRECT,,html-keyboard-response,224,2134667,0.0-16.0-23.0-0.0,8865,List2B,black,man,,,,null,,,,
8090,<p>You got 8 out of 8 right first time. Press Continue.</p>,0,html-button-response,225,2142759,0.0-16.0-25.0,8865,List2B,black,man,,,,,,,,
null,"<div style=""font-size:60px;"">+</div>",,html-keyboard-response,226,2144270,0.0-17.0-0.0,8865,List2B,black,man,,,,null,,,,
null,"<img src=""stim_listB/talk7.gif""</stim_listB>",,html-keyboard-response,227,2146272,0.0-17.0-1.0,8865,List2B,black,man,,,,null,,,,
null,is talking to,,html-keyboard-response,228,2148272,0.0-17.0-2.0,8865,List2B,black,man,,,,null,,,,
23373,,,survey-text,229,2171646,0.0-17.0-3.0,8865,List2B,black,man,,,,,"{""Q0"":""ruth is talking to kate""}","<img src=""stim_listB/talk7.gif""</stim_listB>",is talking to,
null,"<div style=""font-size:60px;"">+</div>",,html-keyboard-response,230,2172149,0.0-17.0-0.1,8865,List2B,black,man,,,,null,,,,
null,"<img src=""stim_listB/shout2.gif""</stim_listB>",,html-keyboard-response,231,2174154,0.0-17.0-1.1,8865,List2B,black,man,,,,null,,,,
null,are shouting at each other,,html-keyboard-response,232,2176155,0.0-17.0-2.1,8865,List2B,black,man,,,,null,,,,
30162,,,survey-text,233,2206317,0.0-17.0-3.1,8865,List2B,black,man,,,,,"{""Q0"":""jane and dave are shouting at each other""}","<img src=""stim_listB/shout2.gif""</stim_listB>",are shouting at each other,
null,"<div style=""font-size:60px;"">+</div>",,html-keyboard-response,234,2206819,0.0-17.0-0.2,8865,List2B,black,man,,,,null,,,,
null,"<img src=""stim_listB/touch5.gif""</stim_listB>",,html-keyboard-response,235,2208821,0.0-17.0-1.2,8865,List2B,black,man,,,,null,,,,
null,is touching,,html-keyboard-response,236,2210821,0.0-17.0-2.2,8865,List2B,black,man,,,,null,,,,
34150,,,survey-text,237,2244972,0.0-17.0-3.2,8865,List2B,black,man,,,,,"{""Q0"":""dave is touching mike""}","<img src=""stim_listB/touch5.gif""</stim_listB>",is touching,
null,"<div style=""font-size:60px;"">+</div>",,html-keyboard-response,238,2245478,0.0-17.0-0.3,8865,List2B,black,man,,,,null,,,,
null,"<img src=""stim_listB/marry1.gif""</stim_listB>",,html-keyboard-response,239,2247481,0.0-17.0-1.3,8865,List2B,black,man,,,,null,,,,
null,is marrying,,html-keyboard-response,240,2249482,0.0-17.0-2.3,8865,List2B,black,man,,,,null,,,,
22252,,,survey-text,241,2271735,0.0-17.0-3.3,8865,List2B,black,man,,,,,"{""Q0"":""dave is marrying ruth""}","<img src=""stim_listB/marry1.gif""</stim_listB>",is marrying,
null,"<div style=""font-size:60px;"">+</div>",,html-keyboard-response,242,2272240,0.0-17.0-0.4,8865,List2B,black,man,,,,null,,,,
null,"<img src=""stim_listB/kiss7.gif""</stim_listB>",,html-keyboard-response,243,2274247,0.0-17.0-1.4,8865,List2B,black,man,,,,null,,,,
null,is kissing,,html-keyboard-response,244,2276249,0.0-17.0-2.4,8865,List2B,black,man,,,,null,,,,
19649,,,survey-text,245,2295899,0.0-17.0-3.4,8865,List2B,black,man,,,,,"{""Q0"":""beth is kissing ruth""}","<img src=""stim_listB/kiss7.gif""</stim_listB>",is kissing,
null,"<div style=""font-size:60px;"">+</div>",,html-keyboard-response,246,2296400,0.0-17.0-0.5,8865,List2B,black,man,,,,null,,,,
null,"<img src=""stim_listB/hug1.gif""</stim_listB>",,html-keyboard-response,247,2298405,0.0-17.0-1.5,8865,List2B,black,man,,,,null,,,,
null,is hugging,,html-keyboard-response,248,2300408,0.0-17.0-2.5,8865,List2B,black,man,,,,null,,,,
19006,,,survey-text,249,2319416,0.0-17.0-3.5,8865,List2B,black,man,,,,,"{""Q0"":""ruth is hugging luke""}","<img src=""stim_listB/hug1.gif""</stim_listB>",is hugging,
null,"<div style=""font-size:60px;"">+</div>",,html-keyboard-response,250,2319922,0.0-17.0-0.6,8865,List2B,black,man,,,,null,,,,
null,"<img src=""stim_listB/hug6.gif""</stim_listB>",,html-keyboard-response,251,2321927,0.0-17.0-1.6,8865,List2B,black,man,,,,null,,,,
null,are hugging each other,,html-keyboard-response,252,2323928,0.0-17.0-2.6,8865,List2B,black,man,,,,null,,,,
26564,,,survey-text,253,2350493,0.0-17.0-3.6,8865,List2B,black,man,,,,,"{""Q0"":""mike and dave are hugging each other""}","<img src=""stim_listB/hug6.gif""</stim_listB>",are hugging each other,
null,"<div style=""font-size:60px;"">+</div>",,html-keyboard-response,254,2350998,0.0-17.0-0.7,8865,List2B,black,man,,,,null,,,,
null,"<img src=""stim_listB/touch3.gif""</stim_listB>",,html-keyboard-response,255,2353004,0.0-17.0-1.7,8865,List2B,black,man,,,,null,,,,
null,is touching,,html-keyboard-response,256,2355005,0.0-17.0-2.7,8865,List2B,black,man,,,,null,,,,
16556,,,survey-text,257,2371561,0.0-17.0-3.7,8865,List2B,black,man,,,,,"{""Q0"":""mike is touching kate""}","<img src=""stim_listB/touch3.gif""</stim_listB>",is touching,
null,"<div style=""font-size:60px;"">+</div>",,html-keyboard-response,258,2372065,0.0-17.0-0.8,8865,List2B,black,man,,,,null,,,,
null,"<img src=""stim_listB/hug8.gif""</stim_listB>",,html-keyboard-response,259,2374069,0.0-17.0-1.8,8865,List2B,black,man,,,,null,,,,
null,are hugging each other,,html-keyboard-response,260,2376072,0.0-17.0-2.8,8865,List2B,black,man,,,,null,,,,
24210,,,survey-text,261,2400284,0.0-17.0-3.8,8865,List2B,black,man,,,,,"{""Q0"":""jane and kate are hugging each other""}","<img src=""stim_listB/hug8.gif""</stim_listB>",are hugging each other,
null,"<div style=""font-size:60px;"">+</div>",,html-keyboard-response,262,2400790,0.0-17.0-0.9,8865,List2B,black,man,,,,null,,,,
null,"<img src=""stim_listB/shout7.gif""</stim_listB>",,html-keyboard-response,263,2402796,0.0-17.0-1.9,8865,List2B,black,man,,,,null,,,,
null,is shouting at,,html-keyboard-response,264,2404797,0.0-17.0-2.9,8865,List2B,black,man,,,,null,,,,
124183,,,survey-text,265,2528981,0.0-17.0-3.9,8865,List2B,black,man,,,,,"{""Q0"":""ruth is shouting at beth""}","<img src=""stim_listB/shout7.gif""</stim_listB>",is shouting at,
null,"<div style=""font-size:60px;"">+</div>",,html-keyboard-response,266,2529482,0.0-17.0-0.10,8865,List2B,black,man,,,,null,,,,
null,"<img src=""stim_listB/kiss2.gif""</stim_listB>",,html-keyboard-response,267,2531488,0.0-17.0-1.10,8865,List2B,black,man,,,,null,,,,
null,are kissing each other,,html-keyboard-response,268,2533492,0.0-17.0-2.10,8865,List2B,black,man,,,,null,,,,
26575,,,survey-text,269,2560067,0.0-17.0-3.10,8865,List2B,black,man,,,,,"{""Q0"":""jane and dave are kissing each other""}","<img src=""stim_listB/kiss2.gif""</stim_listB>",are kissing each other,
null,"<div style=""font-size:60px;"">+</div>",,html-keyboard-response,270,2560573,0.0-17.0-0.11,8865,List2B,black,man,,,,null,,,,
null,"<img src=""stim_listB/kiss8.gif""</stim_listB>",,html-keyboard-response,271,2562579,0.0-17.0-1.11,8865,List2B,black,man,,,,null,,,,
null,are kissing each other,,html-keyboard-response,272,2564580,0.0-17.0-2.11,8865,List2B,black,man,,,,null,,,,
20707,,,survey-text,273,2585289,0.0-17.0-3.11,8865,List2B,black,man,,,,,"{""Q0"":""kate and jane are kissing each other""}","<img src=""stim_listB/kiss8.gif""</stim_listB>",are kissing each other,
null,"<div style=""font-size:60px;"">+</div>",,html-keyboard-response,274,2585793,0.0-17.0-0.12,8865,List2B,black,man,,,,null,,,,
null,"<img src=""stim_listB/meet5.gif""</stim_listB>",,html-keyboard-response,275,2587800,0.0-17.0-1.12,8865,List2B,black,man,,,,null,,,,
null,is meeting,,html-keyboard-response,276,2589800,0.0-17.0-2.12,8865,List2B,black,man,,,,null,,,,
18335,,,survey-text,277,2608136,0.0-17.0-3.12,8865,List2B,black,man,,,,,"{""Q0"":""mike is meeting dave""}","<img src=""stim_listB/meet5.gif""</stim_listB>",is meeting,
null,"<div style=""font-size:60px;"">+</div>",,html-keyboard-response,278,2608639,0.0-17.0-0.13,8865,List2B,black,man,,,,null,,,,
null,"<img src=""stim_listB/kiss5.gif""</stim_listB>",,html-keyboard-response,279,2610641,0.0-17.0-1.13,8865,List2B,black,man,,,,null,,,,
null,is kissing,,html-keyboard-response,280,2612642,0.0-17.0-2.13,8865,List2B,black,man,,,,null,,,,
14981,,,survey-text,281,2627625,0.0-17.0-3.13,8865,List2B,black,man,,,,,"{""Q0"":""luke is kissing fred""}","<img src=""stim_listB/kiss5.gif""</stim_listB>",is kissing,
null,"<div style=""font-size:60px;"">+</div>",,html-keyboard-response,282,2628126,0.0-17.0-0.14,8865,List2B,black,man,,,,null,,,,
null,"<img src=""stim_listB/dance2.gif""</stim_listB>",,html-keyboard-response,283,2630132,0.0-17.0-1.14,8865,List2B,black,man,,,,null,,,,
null,are dancing with each other,,html-keyboard-response,284,2632133,0.0-17.0-2.14,8865,List2B,black,man,,,,null,,,,
25552,,,survey-text,285,2657686,0.0-17.0-3.14,8865,List2B,black,man,,,,,"{""Q0"":""ruth and dave are dancing with each other""}","<img src=""stim_listB/dance2.gif""</stim_listB>",are dancing with each other,
null,"<div style=""font-size:60px;"">+</div>",,html-keyboard-response,286,2658186,0.0-17.0-0.15,8865,List2B,black,man,,,,null,,,,
null,"<img src=""stim_listB/touch2.gif""</stim_listB>",,html-keyboard-response,287,2660193,0.0-17.0-1.15,8865,List2B,black,man,,,,null,,,,
null,are touching each other,,html-keyboard-response,288,2662193,0.0-17.0-2.15,8865,List2B,black,man,,,,null,,,,
22920,,,survey-text,289,2685114,0.0-17.0-3.15,8865,List2B,black,man,,,,,"{""Q0"":""luke and ruth are touching each other""}","<img src=""stim_listB/touch2.gif""</stim_listB>",are touching each other,
null,"<div style=""font-size:60px;"">+</div>",,html-keyboard-response,290,2685620,0.0-17.0-0.16,8865,List2B,black,man,,,,null,,,,
null,"<img src=""stim_listB/talk1.gif""</stim_listB>",,html-keyboard-response,291,2687626,0.0-17.0-1.16,8865,List2B,black,man,,,,null,,,,
null,is talking to,,html-keyboard-response,292,2689628,0.0-17.0-2.16,8865,List2B,black,man,,,,null,,,,
17239,,,survey-text,293,2706867,0.0-17.0-3.16,8865,List2B,black,man,,,,,"{""Q0"":""luke is talking to jane""}","<img src=""stim_listB/talk1.gif""</stim_listB>",is talking to,
null,"<div style=""font-size:60px;"">+</div>",,html-keyboard-response,294,2707369,0.0-17.0-0.17,8865,List2B,black,man,,,,null,,,,
null,"<img src=""stim_listB/fight8.gif""</stim_listB>",,html-keyboard-response,295,2709375,0.0-17.0-1.17,8865,List2B,black,man,,,,null,,,,
null,are fighting each other,,html-keyboard-response,296,2711376,0.0-17.0-2.17,8865,List2B,black,man,,,,null,,,,
69327,,,survey-text,297,2780705,0.0-17.0-3.17,8865,List2B,black,man,,,,,"{""Q0"":""ruth and beth are fighting each other""}","<img src=""stim_listB/fight8.gif""</stim_listB>",are fighting each other,
null,"<div style=""font-size:60px;"">+</div>",,html-keyboard-response,298,2781206,0.0-17.0-0.18,8865,List2B,black,man,,,,null,,,,
null,"<img src=""stim_listB/kiss4.gif""</stim_listB>",,html-keyboard-response,299,2783210,0.0-17.0-1.18,8865,List2B,black,man,,,,null,,,,
null,are kissing each other,,html-keyboard-response,300,2785211,0.0-17.0-2.18,8865,List2B,black,man,,,,null,,,,
21289,,,survey-text,301,2806500,0.0-17.0-3.18,8865,List2B,black,man,,,,,"{""Q0"":""mike and kate are kissing each other""}","<img src=""stim_listB/kiss4.gif""</stim_listB>",are kissing each other,
null,"<div style=""font-size:60px;"">+</div>",,html-keyboard-response,302,2807003,0.0-17.0-0.19,8865,List2B,black,man,,,,null,,,,
null,"<img src=""stim_listB/touch1.gif""</stim_listB>",,html-keyboard-response,303,2809012,0.0-17.0-1.19,8865,List2B,black,man,,,,null,,,,
null,is touching,,html-keyboard-response,304,2811016,0.0-17.0-2.19,8865,List2B,black,man,,,,null,,,,
25189,,,survey-text,305,2836205,0.0-17.0-3.19,8865,List2B,black,man,,,,,"{""Q0"":""dave is touching jane""}","<img src=""stim_listB/touch1.gif""</stim_listB>",is touching,
54632,"<img src='img/portrait_matrix_list2.JPG' style='width:900px;height:500px;''></img><p>If you have memorised all the portraits and names and are ready to start, press Continue.</p><p><strong>Please note: Your memory of these faces will be tested 4 times during this experiment.</strong></p>",0,html-button-response,306,2890838,0.0-18.0-0.0,8865,List2B,black,man,,,,,,,,
6639,"<img src=""portrait/BM2.jpg""style=""width:400px;height:400px;""></img>",5,html-button-response,307,2898481,0.0-18.0-1.0,8865,List2B,black,man,,TRUE,5,,,,,
null,CORRECT,,html-keyboard-response,308,2899985,0.0-18.0-2.0-0.0,8865,List2B,black,man,,,,null,,,,
4521,"<img src=""portrait/BW2.jpg""style=""width:400px;height:400px;""></img>",2,html-button-response,309,2904508,0.0-18.0-4.0,8865,List2B,black,man,,TRUE,2,,,,,
null,CORRECT,,html-keyboard-response,310,2906014,0.0-18.0-5.0-0.0,8865,List2B,black,man,,,,null,,,,
4226,"<img src=""portrait/WM2.jpg""style=""width:400px;height:400px;""></img>",7,html-button-response,311,2910241,0.0-18.0-7.0,8865,List2B,black,man,,TRUE,7,,,,,
null,CORRECT,,html-keyboard-response,312,2911749,0.0-18.0-8.0-0.0,8865,List2B,black,man,,,,null,,,,
5639,"<img src=""portrait/WW1.jpg""style=""width:400px;height:400px;""></img>",1,html-button-response,313,2917390,0.0-18.0-10.0,8865,List2B,black,man,,TRUE,1,,,,,
null,CORRECT,,html-keyboard-response,314,2918896,0.0-18.0-11.0-0.0,8865,List2B,black,man,,,,null,,,,
5540,"<img src=""portrait/WW2.jpg""style=""width:400px;height:400px;""></img>",3,html-button-response,315,2924437,0.0-18.0-13.0,8865,List2B,black,man,,TRUE,3,,,,,
null,CORRECT,,html-keyboard-response,316,2925940,0.0-18.0-14.0-0.0,8865,List2B,black,man,,,,null,,,,
5626,"<img src=""portrait/BW1.jpg""style=""width:400px;height:400px;""></img>",0,html-button-response,317,2931567,0.0-18.0-16.0,8865,List2B,black,man,,TRUE,0,,,,,
null,CORRECT,,html-keyboard-response,318,2933075,0.0-18.0-17.0-0.0,8865,List2B,black,man,,,,null,,,,
4475,"<img src=""portrait/BM1.jpg""style=""width:400px;height:400px;""></img>",4,html-button-response,319,2937552,0.0-18.0-19.0,8865,List2B,black,man,,TRUE,4,,,,,
null,CORRECT,,html-keyboard-response,320,2939060,0.0-18.0-20.0-0.0,8865,List2B,black,man,,,,null,,,,
3540,"<img src=""portrait/WM1.jpg""style=""width:400px;height:400px;""></img>",6,html-button-response,321,2942601,0.0-18.0-22.0,8865,List2B,black,man,,TRUE,6,,,,,
null,CORRECT,,html-keyboard-response,322,2944107,0.0-18.0-23.0-0.0,8865,List2B,black,man,,,,null,,,,
25322,<p>You got 8 out of 8 right first time. Press Continue.</p>,0,html-button-response,323,2969431,0.0-18.0-25.0,8865,List2B,black,man,,,,,,,,
null,"<div style=""font-size:60px;"">+</div>",,html-keyboard-response,324,2970935,0.0-19.0-0.0,8865,List2B,black,man,,,,null,,,,
null,"<img src=""stim_listB/meet1.gif""</stim_listB>",,html-keyboard-response,325,2972937,0.0-19.0-1.0,8865,List2B,black,man,,,,null,,,,
null,is meeting,,html-keyboard-response,326,2974938,0.0-19.0-2.0,8865,List2B,black,man,,,,null,,,,
17425,,,survey-text,327,2992364,0.0-19.0-3.0,8865,List2B,black,man,,,,,"{""Q0"":""dave is meeting jane ""}","<img src=""stim_listB/meet1.gif""</stim_listB>",is meeting,
null,"<div style=""font-size:60px;"">+</div>",,html-keyboard-response,328,2992865,0.0-19.0-0.1,8865,List2B,black,man,,,,null,,,,
null,"<img src=""stim_listB/meet2.gif""</stim_listB>",,html-keyboard-response,329,2994871,0.0-19.0-1.1,8865,List2B,black,man,,,,null,,,,
null,are meeting each other,,html-keyboard-response,330,2996872,0.0-19.0-2.1,8865,List2B,black,man,,,,null,,,,
25197,,,survey-text,331,3022070,0.0-19.0-3.1,8865,List2B,black,man,,,,,"{""Q0"":""luke and ruth are meeting each other""}","<img src=""stim_listB/meet2.gif""</stim_listB>",are meeting each other,
null,"<div style=""font-size:60px;"">+</div>",,html-keyboard-response,332,3022576,0.0-19.0-0.2,8865,List2B,black,man,,,,null,,,,
null,"<img src=""stim_listB/hug4.gif""</stim_listB>",,html-keyboard-response,333,3024578,0.0-19.0-1.2,8865,List2B,black,man,,,,null,,,,
null,are hugging each other,,html-keyboard-response,334,3026579,0.0-19.0-2.2,8865,List2B,black,man,,,,null,,,,
18720,,,survey-text,335,3045300,0.0-19.0-3.2,8865,List2B,black,man,,,,,"{""Q0"":""kate and mike are hugging each other""}","<img src=""stim_listB/hug4.gif""</stim_listB>",are hugging each other,
null,"<div style=""font-size:60px;"">+</div>",,html-keyboard-response,336,3045801,0.0-19.0-0.3,8865,List2B,black,man,,,,null,,,,
null,"<img src=""stim_listB/talk2.gif""</stim_listB>",,html-keyboard-response,337,3047802,0.0-19.0-1.3,8865,List2B,black,man,,,,null,,,,
null,are talking to each other,,html-keyboard-response,338,3049803,0.0-19.0-2.3,8865,List2B,black,man,,,,null,,,,
34362,,,survey-text,339,3084166,0.0-19.0-3.3,8865,List2B,black,man,,,,,"{""Q0"":""ruth and dave are talking to each other""}","<img src=""stim_listB/talk2.gif""</stim_listB>",are talking to each other,
null,"<div style=""font-size:60px;"">+</div>",,html-keyboard-response,340,3084667,0.0-19.0-0.4,8865,List2B,black,man,,,,null,,,,
null,"<img src=""stim_listB/meet7.gif""</stim_listB>",,html-keyboard-response,341,3086668,0.0-19.0-1.4,8865,List2B,black,man,,,,null,,,,
null,is meeting,,html-keyboard-response,342,3088669,0.0-19.0-2.4,8865,List2B,black,man,,,,null,,,,
17640,,,survey-text,343,3106309,0.0-19.0-3.4,8865,List2B,black,man,,,,,"{""Q0"":""kate is meeting jane""}","<img src=""stim_listB/meet7.gif""</stim_listB>",is meeting,
null,"<div style=""font-size:60px;"">+</div>",,html-keyboard-response,344,3106811,0.0-19.0-0.5,8865,List2B,black,man,,,,null,,,,
null,"<img src=""stim_listB/meet4.gif""</stim_listB>",,html-keyboard-response,345,3108817,0.0-19.0-1.5,8865,List2B,black,man,,,,null,,,,
null,are meeting each other,,html-keyboard-response,346,3110818,0.0-19.0-2.5,8865,List2B,black,man,,,,null,,,,
20692,,,survey-text,347,3131510,0.0-19.0-3.5,8865,List2B,black,man,,,,,"{""Q0"":""fred and beth are meeting each other""}","<img src=""stim_listB/meet4.gif""</stim_listB>",are meeting each other,
null,"<div style=""font-size:60px;"">+</div>",,html-keyboard-response,348,3132016,0.0-19.0-0.6,8865,List2B,black,man,,,,null,,,,
null,"<img src=""stim_listB/hug7.gif""</stim_listB>",,html-keyboard-response,349,3134022,0.0-19.0-1.6,8865,List2B,black,man,,,,null,,,,
null,is hugging,,html-keyboard-response,350,3136023,0.0-19.0-2.6,8865,List2B,black,man,,,,null,,,,
18060,,,survey-text,351,3154084,0.0-19.0-3.6,8865,List2B,black,man,,,,,"{""Q0"":""ruth is hugging beth""}","<img src=""stim_listB/hug7.gif""</stim_listB>",is hugging,
null,"<div style=""font-size:60px;"">+</div>",,html-keyboard-response,352,3154585,0.0-19.0-0.7,8865,List2B,black,man,,,,null,,,,
null,"<img src=""stim_listB/argue7.gif""</stim_listB>",,html-keyboard-response,353,3156591,0.0-19.0-1.7,8865,List2B,black,man,,,,null,,,,
null,is arguing with,,html-keyboard-response,354,3158592,0.0-19.0-2.7,8865,List2B,black,man,,,,null,,,,
14924,,,survey-text,355,3173517,0.0-19.0-3.7,8865,List2B,black,man,,,,,"{""Q0"":""beth is arguing with jane""}","<img src=""stim_listB/argue7.gif""</stim_listB>",is arguing with,
null,"<div style=""font-size:60px;"">+</div>",,html-keyboard-response,356,3174018,0.0-19.0-0.8,8865,List2B,black,man,,,,null,,,,
null,"<img src=""stim_listB/dance8.gif""</stim_listB>",,html-keyboard-response,357,3176019,0.0-19.0-1.8,8865,List2B,black,man,,,,null,,,,
null,are dancing with each other,,html-keyboard-response,358,3178024,0.0-19.0-2.8,8865,List2B,black,man,,,,null,,,,
52672,,,survey-text,359,3230698,0.0-19.0-3.8,8865,List2B,black,man,,,,,"{""Q0"":""beth is hugging ruth""}","<img src=""stim_listB/dance8.gif""</stim_listB>",are dancing with each other,
null,"<div style=""font-size:60px;"">+</div>",,html-keyboard-response,360,3231199,0.0-19.0-0.9,8865,List2B,black,man,,,,null,,,,
null,"<img src=""stim_listB/kiss1.gif""</stim_listB>",,html-keyboard-response,361,3233203,0.0-19.0-1.9,8865,List2B,black,man,,,,null,,,,
null,is kissing,,html-keyboard-response,362,3235205,0.0-19.0-2.9,8865,List2B,black,man,,,,null,,,,
32840,,,survey-text,363,3268045,0.0-19.0-3.9,8865,List2B,black,man,,,,,"{""Q0"":""luke is kissing ruth""}","<img src=""stim_listB/kiss1.gif""</stim_listB>",is kissing,
null,"<div style=""font-size:60px;"">+</div>",,html-keyboard-response,364,3268546,0.0-19.0-0.10,8865,List2B,black,man,,,,null,,,,
null,"<img src=""stim_listB/argue3.gif""</stim_listB>",,html-keyboard-response,365,3270550,0.0-19.0-1.10,8865,List2B,black,man,,,,null,,,,
null,is arguing with,,html-keyboard-response,366,3272551,0.0-19.0-2.10,8865,List2B,black,man,,,,null,,,,
20480,,,survey-text,367,3293033,0.0-19.0-3.10,8865,List2B,black,man,,,,,"{""Q0"":""mike is arguing with beth""}","<img src=""stim_listB/argue3.gif""</stim_listB>",is arguing with,
null,"<div style=""font-size:60px;"">+</div>",,html-keyboard-response,368,3293534,0.0-19.0-0.11,8865,List2B,black,man,,,,null,,,,
null,"<img src=""stim_listB/dance6.gif""</stim_listB>",,html-keyboard-response,369,3295537,0.0-19.0-1.11,8865,List2B,black,man,,,,null,,,,
null,are dancing with each other,,html-keyboard-response,370,3297538,0.0-19.0-2.11,8865,List2B,black,man,,,,null,,,,
22728,,,survey-text,371,3320268,0.0-19.0-3.11,8865,List2B,black,man,,,,,"{""Q0"":""dave and fred are dancing with each other""}","<img src=""stim_listB/dance6.gif""</stim_listB>",are dancing with each other,
null,"<div style=""font-size:60px;"">+</div>",,html-keyboard-response,372,3320769,0.0-19.0-0.12,8865,List2B,black,man,,,,null,,,,
null,"<img src=""stim_listB/shout6.gif""</stim_listB>",,html-keyboard-response,373,3322775,0.0-19.0-1.12,8865,List2B,black,man,,,,null,,,,
null,are shouting at each other,,html-keyboard-response,374,3324777,0.0-19.0-2.12,8865,List2B,black,man,,,,null,,,,
21809,,,survey-text,375,3346588,0.0-19.0-3.12,8865,List2B,black,man,,,,,"{""Q0"":""mike and dave are shouting at each other""}","<img src=""stim_listB/shout6.gif""</stim_listB>",are shouting at each other,
null,"<div style=""font-size:60px;"">+</div>",,html-keyboard-response,376,3347093,0.0-19.0-0.13,8865,List2B,black,man,,,,null,,,,
null,"<img src=""stim_listB/marry4.gif""</stim_listB>",,html-keyboard-response,377,3349100,0.0-19.0-1.13,8865,List2B,black,man,,,,null,,,,
null,are marrying each other,,html-keyboard-response,378,3351101,0.0-19.0-2.13,8865,List2B,black,man,,,,null,,,,
18990,,,survey-text,379,3370091,0.0-19.0-3.13,8865,List2B,black,man,,,,,"{""Q0"":""kate and fred are marrying each other""}","<img src=""stim_listB/marry4.gif""</stim_listB>",are marrying each other,
null,"<div style=""font-size:60px;"">+</div>",,html-keyboard-response,380,3370593,0.0-19.0-0.14,8865,List2B,black,man,,,,null,,,,
null,"<img src=""stim_listB/argue8.gif""</stim_listB>",,html-keyboard-response,381,3372599,0.0-19.0-1.14,8865,List2B,black,man,,,,null,,,,
null,are arguing with each other,,html-keyboard-response,382,3374604,0.0-19.0-2.14,8865,List2B,black,man,,,,null,,,,
25628,,,survey-text,383,3400233,0.0-19.0-3.14,8865,List2B,black,man,,,,,"{""Q0"":""kate and ruth are arguing with each other""}","<img src=""stim_listB/argue8.gif""</stim_listB>",are arguing with each other,
null,"<div style=""font-size:60px;"">+</div>",,html-keyboard-response,384,3400739,0.0-19.0-0.15,8865,List2B,black,man,,,,null,,,,
null,"<img src=""stim_listB/kiss3.gif""</stim_listB>",,html-keyboard-response,385,3402743,0.0-19.0-1.15,8865,List2B,black,man,,,,null,,,,
null,is kissing,,html-keyboard-response,386,3404744,0.0-19.0-2.15,8865,List2B,black,man,,,,null,,,,
18717,,,survey-text,387,3423461,0.0-19.0-3.15,8865,List2B,black,man,,,,,"{""Q0"":""fred is kissing beth""}","<img src=""stim_listB/kiss3.gif""</stim_listB>",is kissing,
null,"<div style=""font-size:60px;"">+</div>",,html-keyboard-response,388,3423962,0.0-19.0-0.16,8865,List2B,black,man,,,,null,,,,
null,"<img src=""stim_listB/shout4.gif""</stim_listB>",,html-keyboard-response,389,3425966,0.0-19.0-1.16,8865,List2B,black,man,,,,null,,,,
null,are shouting at each other,,html-keyboard-response,390,3427967,0.0-19.0-2.16,8865,List2B,black,man,,,,null,,,,
19738,,,survey-text,391,3447706,0.0-19.0-3.16,8865,List2B,black,man,,,,,"{""Q0"":""mike and kate are shouting at each other""}","<img src=""stim_listB/shout4.gif""</stim_listB>",are shouting at each other,
null,"<div style=""font-size:60px;"">+</div>",,html-keyboard-response,392,3448210,0.0-19.0-0.17,8865,List2B,black,man,,,,null,,,,
null,"<img src=""stim_listB/talk4.gif""</stim_listB>",,html-keyboard-response,393,3450214,0.0-19.0-1.17,8865,List2B,black,man,,,,null,,,,
null,are talking to each other,,html-keyboard-response,394,3452216,0.0-19.0-2.17,8865,List2B,black,man,,,,null,,,,
22052,,,survey-text,395,3474269,0.0-19.0-3.17,8865,List2B,black,man,,,,,"{""Q0"":""mike and beth are talking to each other""}","<img src=""stim_listB/talk4.gif""</stim_listB>",are talking to each other,
null,"<div style=""font-size:60px;"">+</div>",,html-keyboard-response,396,3474772,0.0-19.0-0.18,8865,List2B,black,man,,,,null,,,,
null,"<img src=""stim_listB/meet3.gif""</stim_listB>",,html-keyboard-response,397,3476779,0.0-19.0-1.18,8865,List2B,black,man,,,,null,,,,
null,is meeting,,html-keyboard-response,398,3478780,0.0-19.0-2.18,8865,List2B,black,man,,,,null,,,,
13878,,,survey-text,399,3492659,0.0-19.0-3.18,8865,List2B,black,man,,,,,"{""Q0"":""mike is meeting kate""}","<img src=""stim_listB/meet3.gif""</stim_listB>",is meeting,
null,"<div style=""font-size:60px;"">+</div>",,html-keyboard-response,400,3493161,0.0-19.0-0.19,8865,List2B,black,man,,,,null,,,,
null,"<img src=""stim_listB/dance5.gif""</stim_listB>",,html-keyboard-response,401,3495167,0.0-19.0-1.19,8865,List2B,black,man,,,,null,,,,
null,is dancing with,,html-keyboard-response,402,3497168,0.0-19.0-2.19,8865,List2B,black,man,,,,null,,,,
16016,,,survey-text,403,3513185,0.0-19.0-3.19,8865,List2B,black,man,,,,,"{""Q0"":""mike is dancing with luke""}","<img src=""stim_listB/dance5.gif""</stim_listB>",is dancing with,
4032,<p>Thank you for completing that task.</p><p>The final part of this session is a short questionnaire.</p><p>Press Continue.</p>,0,html-button-response,404,3517219,0.0-20.0,8865,List2B,black,man,,,,,,,,
43237,,,survey-text,405,3561459,0.0-21.0,8865,List2B,black,man,,,,,"{""Q0"":""30"",""Q1"":""English"",""Q2"":""English"",""Q3"":""United kingdom"",""Q4"":""Black"",""Q5"":""male""}",,,demographics
80309,,,survey-likert,406,3641772,0.0-22.0,8865,List2B,black,man,,,,,"{""Q0"":6,""Q1"":6,""Q2"":6,""Q3"":6,""Q4"":6,""Q5"":6,""Q6"":6,""Q7"":1,""Q8"":5,""Q9"":6,""Q10"":5,""Q11"":5,""Q12"":5,""Q13"":5}",,,likert_race
54017,,,survey-likert,407,3695796,0.0-23.0,8865,List2B,black,man,,,,,"{""Q0"":6,""Q1"":6,""Q2"":6,""Q3"":6,""Q4"":6,""Q5"":6,""Q6"":6,""Q7"":1,""Q8"":6,""Q9"":5,""Q10"":5,""Q11"":5,""Q12"":5,""Q13"":5}",,,likert_gender
186855,,,survey-text,408,3882656,0.0-24.0,8865,List2B,black,man,,,,,"{""Q0"":""ccc""}",,,worker_id
7595,,,external-html,409,3890313,0.0-25.0,8865,List2B,black,man,debrief.html,,,,,,,
