rt,stimulus,button_pressed,trial_type,trial_index,time_elapsed,internal_node_id,subject,list,ppt_race,ppt_gender,url,first_guess,correct,key_press,responses,image_type,phrase_type,test_part
10357,Welcome to the experiment. Press Continue to begin.,0,html-button-response,0,10370,0.0-0.0,88767,List1B,white,woman,,,,,,,,
21179,,,external-html,1,32669,0.0-1.0,88767,List1B,white,woman,consent.html,,,,,,,
5035,"<p>On the next page, you will see portraits of 8 people and their names.</p><p>Your first task is to take a few minutes to memorise the names of these people.</p><p>You will have to recall their names during the rest of the experiment, so it is</p><p>essential that you try to memorise these people and their names as best as you can.</p><br><p><strong>You will then be tested on your memory of these names and portraits.</strong></p><br><p>The experiment will start after you have completed this memory test.</p><br><p>Ready?</p>",0,html-button-response,2,37708,0.0-2.0,88767,List1B,white,woman,,,,,,,,
102677,"<img src='img/portrait_matrix_list1.JPG' style='width:900px;height:500px;''></img><p>If you have memorised all the portraits and names and are ready to start, press Continue.</p><p><strong>Please note: Your memory of these faces will be tested 4 times during this experiment.</strong></p>",0,html-button-response,3,141405,0.0-3.0-0.0,88767,List1B,white,woman,,,,,,,,
15759,"<img src=""portrait/WW2.jpg""style=""width:400px;height:400px;""></img>",3,html-button-response,4,158191,0.0-3.0-1.0,88767,List1B,white,woman,,TRUE,3,,,,,
null,CORRECT,,html-keyboard-response,5,159717,0.0-3.0-2.0-0.0,88767,List1B,white,woman,,,,null,,,,
4678,"<img src=""portrait/BM2.jpg""style=""width:400px;height:400px;""></img>",5,html-button-response,6,164404,0.0-3.0-4.0,88767,List1B,white,woman,,TRUE,5,,,,,
null,CORRECT,,html-keyboard-response,7,165935,0.0-3.0-5.0-0.0,88767,List1B,white,woman,,,,null,,,,
5288,"<img src=""portrait/WW1.jpg""style=""width:400px;height:400px;""></img>",1,html-button-response,8,171227,0.0-3.0-7.0,88767,List1B,white,woman,,TRUE,1,,,,,
null,CORRECT,,html-keyboard-response,9,172749,0.0-3.0-8.0-0.0,88767,List1B,white,woman,,,,null,,,,
3093,"<img src=""portrait/BW1.jpg""style=""width:400px;height:400px;""></img>",0,html-button-response,10,175848,0.0-3.0-10.0,88767,List1B,white,woman,,TRUE,0,,,,,
null,CORRECT,,html-keyboard-response,11,177373,0.0-3.0-11.0-0.0,88767,List1B,white,woman,,,,null,,,,
5123,"<img src=""portrait/BW2.jpg""style=""width:400px;height:400px;""></img>",2,html-button-response,12,182500,0.0-3.0-13.0,88767,List1B,white,woman,,TRUE,2,,,,,
null,CORRECT,,html-keyboard-response,13,184031,0.0-3.0-14.0-0.0,88767,List1B,white,woman,,,,null,,,,
3972,"<img src=""portrait/WM2.jpg""style=""width:400px;height:400px;""></img>",7,html-button-response,14,188008,0.0-3.0-16.0,88767,List1B,white,woman,,TRUE,7,,,,,
null,CORRECT,,html-keyboard-response,15,189525,0.0-3.0-17.0-0.0,88767,List1B,white,woman,,,,null,,,,
4072,"<img src=""portrait/BM1.jpg""style=""width:400px;height:400px;""></img>",4,html-button-response,16,193602,0.0-3.0-19.0,88767,List1B,white,woman,,TRUE,4,,,,,
null,CORRECT,,html-keyboard-response,17,195110,0.0-3.0-20.0-0.0,88767,List1B,white,woman,,,,null,,,,
4738,"<img src=""portrait/WM1.jpg""style=""width:400px;height:400px;""></img>",6,html-button-response,18,199855,0.0-3.0-22.0,88767,List1B,white,woman,,TRUE,6,,,,,
null,CORRECT,,html-keyboard-response,19,201374,0.0-3.0-23.0-0.0,88767,List1B,white,woman,,,,null,,,,
2040,<p>You got 8 out of 8 right first time. Press Continue.</p>,0,html-button-response,20,203425,0.0-3.0-25.0,88767,List1B,white,woman,,,,,,,,
82261,"<p>In this experiment, you will view photographs of the people from the memory game interacting.</p><p>By using the <strong>exact</strong> phrase given <i>after</i> the photograph appears and recalling the correct names of the people in the photographs, form a sentence describing the interaction. You do not need to capitalise names.</p><p>Type your answer in the space provided. Please complete every sentence before moving onto the next trial.</p><p>You will only have a few seconds to memorise each given photograph and phrase before you can respond, so try your best to focus.</p><p>An example is given below. Press 'Continue' when you are ready.</p><img src='img/speaking_example_v2.jpg' style='width:800px;height:460px;''></img>",0,html-button-response,21,286697,0.0-4.0,88767,List1B,white,woman,,,,,,,,
2328,"<p>Before the experiment starts, you will watch two example trials. Press 'Continue'.</p>",0,html-button-response,22,290050,0.0-5.0,88767,List1B,white,woman,,,,,,,,
null,<img src='img/speaking_WW.gif'></img>,,html-keyboard-response,23,293076,0.0-6.0,88767,List1B,white,woman,,,,null,,,,
null,<p>is speaking to</p>,,html-keyboard-response,24,295091,0.0-7.0,88767,List1B,white,woman,,,,null,,,,
4609,<p><b>Answer:</b> kate is speaking to beth</p>,0,html-button-response,25,299703,0.0-8.0,88767,List1B,white,woman,,,,,,,,
null,<img src='img/pointing_BM.gif'></img>,,html-keyboard-response,26,302734,0.0-9.0,88767,List1B,white,woman,,,,null,,,,
null,<p>are pointing at each other</p>,,html-keyboard-response,27,304737,0.0-10.0,88767,List1B,white,woman,,,,null,,,,
4778,<p><b>Answer:</b> luke and dave are pointing at each other</p>,0,html-button-response,28,309518,0.0-11.0,88767,List1B,white,woman,,,,,,,,
3241,"<p>Ready to start the experiment?</p><br><p><strong>Remember to describe the picture using a full sentence,</strong></p><p><strong>that combines the names of the people with the given phrase.</strong></p><p><strong>If you do not do this correctly you will not be paid.</strong></p><p><strong> You do not need to capitalise names or use punctuation.</strong></p><br><p>Press 'Continue' to begin.</p>",0,html-button-response,29,313777,0.0-12.0,88767,List1B,white,woman,,,,,,,,
null,"<div style=""font-size:60px;"">+</div>",,html-keyboard-response,30,315293,0.0-13.0-0.0,88767,List1B,white,woman,,,,null,,,,
null,"<img src=""stim_listB/argue8.gif""</stim_listB>",,html-keyboard-response,31,317308,0.0-13.0-1.0,88767,List1B,white,woman,,,,null,,,,
null,are arguing with each other,,html-keyboard-response,32,319325,0.0-13.0-2.0,88767,List1B,white,woman,,,,null,,,,
21064,,,survey-text,33,340396,0.0-13.0-3.0,88767,List1B,white,woman,,,,,"{""Q0"":""jane and beth are arguing""}","<img src=""stim_listB/argue8.gif""</stim_listB>",are arguing with each other,
null,"<div style=""font-size:60px;"">+</div>",,html-keyboard-response,34,340905,0.0-13.0-0.1,88767,List1B,white,woman,,,,null,,,,
null,"<img src=""stim_listB/meet6.gif""</stim_listB>",,html-keyboard-response,35,342921,0.0-13.0-1.1,88767,List1B,white,woman,,,,null,,,,
null,are meeting each other,,html-keyboard-response,36,344925,0.0-13.0-2.1,88767,List1B,white,woman,,,,null,,,,
24470,,,survey-text,37,369401,0.0-13.0-3.1,88767,List1B,white,woman,,,,,"{""Q0"":""fred an luke shaking hands""}","<img src=""stim_listB/meet6.gif""</stim_listB>",are meeting each other,
null,"<div style=""font-size:60px;"">+</div>",,html-keyboard-response,38,369904,0.0-13.0-0.2,88767,List1B,white,woman,,,,null,,,,
null,"<img src=""stim_listB/marry2.gif""</stim_listB>",,html-keyboard-response,39,371918,0.0-13.0-1.2,88767,List1B,white,woman,,,,null,,,,
null,are marrying each other,,html-keyboard-response,40,373920,0.0-13.0-2.2,88767,List1B,white,woman,,,,null,,,,
18716,,,survey-text,41,392642,0.0-13.0-3.2,88767,List1B,white,woman,,,,,"{""Q0"":""fred and kate marrying each other""}","<img src=""stim_listB/marry2.gif""</stim_listB>",are marrying each other,
null,"<div style=""font-size:60px;"">+</div>",,html-keyboard-response,42,393160,0.0-13.0-0.3,88767,List1B,white,woman,,,,null,,,,
null,"<img src=""stim_listB/kiss4.gif""</stim_listB>",,html-keyboard-response,43,395169,0.0-13.0-1.3,88767,List1B,white,woman,,,,null,,,,
null,are kissing each other,,html-keyboard-response,44,397182,0.0-13.0-2.3,88767,List1B,white,woman,,,,null,,,,
13101,,,survey-text,45,410292,0.0-13.0-3.3,88767,List1B,white,woman,,,,,"{""Q0"":""dave and jane kissing""}","<img src=""stim_listB/kiss4.gif""</stim_listB>",are kissing each other,
null,"<div style=""font-size:60px;"">+</div>",,html-keyboard-response,46,410810,0.0-13.0-0.4,88767,List1B,white,woman,,,,null,,,,
null,"<img src=""stim_listB/hug2.gif""</stim_listB>",,html-keyboard-response,47,412825,0.0-13.0-1.4,88767,List1B,white,woman,,,,null,,,,
null,are hugging each other,,html-keyboard-response,48,414840,0.0-13.0-2.4,88767,List1B,white,woman,,,,null,,,,
18209,,,survey-text,49,433056,0.0-13.0-3.4,88767,List1B,white,woman,,,,,"{""Q0"":""kate and mike hugging""}","<img src=""stim_listB/hug2.gif""</stim_listB>",are hugging each other,
null,"<div style=""font-size:60px;"">+</div>",,html-keyboard-response,50,433560,0.0-13.0-0.5,88767,List1B,white,woman,,,,null,,,,
null,"<img src=""stim_listB/talk8.gif""</stim_listB>",,html-keyboard-response,51,435574,0.0-13.0-1.5,88767,List1B,white,woman,,,,null,,,,
null,are talking to each other,,html-keyboard-response,52,437593,0.0-13.0-2.5,88767,List1B,white,woman,,,,null,,,,
13057,,,survey-text,53,450653,0.0-13.0-3.5,88767,List1B,white,woman,,,,,"{""Q0"":""kate and ruth talking""}","<img src=""stim_listB/talk8.gif""</stim_listB>",are talking to each other,
null,"<div style=""font-size:60px;"">+</div>",,html-keyboard-response,54,451171,0.0-13.0-0.6,88767,List1B,white,woman,,,,null,,,,
null,"<img src=""stim_listB/dance4.gif""</stim_listB>",,html-keyboard-response,55,453188,0.0-13.0-1.6,88767,List1B,white,woman,,,,null,,,,
null,are dancing with each other,,html-keyboard-response,56,455192,0.0-13.0-2.6,88767,List1B,white,woman,,,,null,,,,
9502,,,survey-text,57,464701,0.0-13.0-3.6,88767,List1B,white,woman,,,,,"{""Q0"":""dave and ruth dancing""}","<img src=""stim_listB/dance4.gif""</stim_listB>",are dancing with each other,
null,"<div style=""font-size:60px;"">+</div>",,html-keyboard-response,58,465205,0.0-13.0-0.7,88767,List1B,white,woman,,,,null,,,,
null,"<img src=""stim_listB/dance5.gif""</stim_listB>",,html-keyboard-response,59,467215,0.0-13.0-1.7,88767,List1B,white,woman,,,,null,,,,
null,is dancing with,,html-keyboard-response,60,469231,0.0-13.0-2.7,88767,List1B,white,woman,,,,null,,,,
15797,,,survey-text,61,485037,0.0-13.0-3.7,88767,List1B,white,woman,,,,,"{""Q0"":""dave is dancing with fred""}","<img src=""stim_listB/dance5.gif""</stim_listB>",is dancing with,
null,"<div style=""font-size:60px;"">+</div>",,html-keyboard-response,62,485544,0.0-13.0-0.8,88767,List1B,white,woman,,,,null,,,,
null,"<img src=""stim_listB/talk6.gif""</stim_listB>",,html-keyboard-response,63,487562,0.0-13.0-1.8,88767,List1B,white,woman,,,,null,,,,
null,are talking to each other,,html-keyboard-response,64,489579,0.0-13.0-2.8,88767,List1B,white,woman,,,,null,,,,
15342,,,survey-text,65,504928,0.0-13.0-3.8,88767,List1B,white,woman,,,,,"{""Q0"":""mike and luke""}","<img src=""stim_listB/talk6.gif""</stim_listB>",are talking to each other,
null,"<div style=""font-size:60px;"">+</div>",,html-keyboard-response,66,505434,0.0-13.0-0.9,88767,List1B,white,woman,,,,null,,,,
null,"<img src=""stim_listB/fight8.gif""</stim_listB>",,html-keyboard-response,67,507449,0.0-13.0-1.9,88767,List1B,white,woman,,,,null,,,,
null,are fighting each other,,html-keyboard-response,68,509466,0.0-13.0-2.9,88767,List1B,white,woman,,,,null,,,,
19279,,,survey-text,69,528749,0.0-13.0-3.9,88767,List1B,white,woman,,,,,"{""Q0"":""beth and ruth fighting""}","<img src=""stim_listB/fight8.gif""</stim_listB>",are fighting each other,
null,"<div style=""font-size:60px;"">+</div>",,html-keyboard-response,70,529261,0.0-13.0-0.10,88767,List1B,white,woman,,,,null,,,,
null,"<img src=""stim_listB/meet5.gif""</stim_listB>",,html-keyboard-response,71,531278,0.0-13.0-1.10,88767,List1B,white,woman,,,,null,,,,
null,is meeting,,html-keyboard-response,72,533294,0.0-13.0-2.10,88767,List1B,white,woman,,,,null,,,,
8245,,,survey-text,73,541547,0.0-13.0-3.10,88767,List1B,white,woman,,,,,"{""Q0"":""didnt see""}","<img src=""stim_listB/meet5.gif""</stim_listB>",is meeting,
null,"<div style=""font-size:60px;"">+</div>",,html-keyboard-response,74,542061,0.0-13.0-0.11,88767,List1B,white,woman,,,,null,,,,
null,"<img src=""stim_listB/meet4.gif""</stim_listB>",,html-keyboard-response,75,544077,0.0-13.0-1.11,88767,List1B,white,woman,,,,null,,,,
null,are meeting each other,,html-keyboard-response,76,546089,0.0-13.0-2.11,88767,List1B,white,woman,,,,null,,,,
20121,,,survey-text,77,566214,0.0-13.0-3.11,88767,List1B,white,woman,,,,,"{""Q0"":""ruth and luke meeting each other""}","<img src=""stim_listB/meet4.gif""</stim_listB>",are meeting each other,
null,"<div style=""font-size:60px;"">+</div>",,html-keyboard-response,78,566731,0.0-13.0-0.12,88767,List1B,white,woman,,,,null,,,,
null,"<img src=""stim_listB/fight3.gif""</stim_listB>",,html-keyboard-response,79,568747,0.0-13.0-1.12,88767,List1B,white,woman,,,,null,,,,
null,is fighting,,html-keyboard-response,80,570761,0.0-13.0-2.12,88767,List1B,white,woman,,,,null,,,,
15487,,,survey-text,81,586253,0.0-13.0-3.12,88767,List1B,white,woman,,,,,"{""Q0"":""dave and jane fighting""}","<img src=""stim_listB/fight3.gif""</stim_listB>",is fighting,
null,"<div style=""font-size:60px;"">+</div>",,html-keyboard-response,82,586766,0.0-13.0-0.13,88767,List1B,white,woman,,,,null,,,,
null,"<img src=""stim_listB/hug1.gif""</stim_listB>",,html-keyboard-response,83,588782,0.0-13.0-1.13,88767,List1B,white,woman,,,,null,,,,
null,is hugging,,html-keyboard-response,84,590797,0.0-13.0-2.13,88767,List1B,white,woman,,,,null,,,,
9893,,,survey-text,85,600697,0.0-13.0-3.13,88767,List1B,white,woman,,,,,"{""Q0"":""beth and fred hugging""}","<img src=""stim_listB/hug1.gif""</stim_listB>",is hugging,
null,"<div style=""font-size:60px;"">+</div>",,html-keyboard-response,86,601215,0.0-13.0-0.14,88767,List1B,white,woman,,,,null,,,,
null,"<img src=""stim_listB/meet7.gif""</stim_listB>",,html-keyboard-response,87,603230,0.0-13.0-1.14,88767,List1B,white,woman,,,,null,,,,
null,is meeting,,html-keyboard-response,88,605246,0.0-13.0-2.14,88767,List1B,white,woman,,,,null,,,,
10502,,,survey-text,89,615752,0.0-13.0-3.14,88767,List1B,white,woman,,,,,"{""Q0"":""kate an d jane meeting""}","<img src=""stim_listB/meet7.gif""</stim_listB>",is meeting,
null,"<div style=""font-size:60px;"">+</div>",,html-keyboard-response,90,616265,0.0-13.0-0.15,88767,List1B,white,woman,,,,null,,,,
null,"<img src=""stim_listB/marry8.gif""</stim_listB>",,html-keyboard-response,91,618282,0.0-13.0-1.15,88767,List1B,white,woman,,,,null,,,,
null,are marrying each other,,html-keyboard-response,92,620297,0.0-13.0-2.15,88767,List1B,white,woman,,,,null,,,,
10747,,,survey-text,93,631050,0.0-13.0-3.15,88767,List1B,white,woman,,,,,"{""Q0"":""jane and beth metting""}","<img src=""stim_listB/marry8.gif""</stim_listB>",are marrying each other,
null,"<div style=""font-size:60px;"">+</div>",,html-keyboard-response,94,631558,0.0-13.0-0.16,88767,List1B,white,woman,,,,null,,,,
null,"<img src=""stim_listB/hug6.gif""</stim_listB>",,html-keyboard-response,95,633578,0.0-13.0-1.16,88767,List1B,white,woman,,,,null,,,,
null,are hugging each other,,html-keyboard-response,96,635584,0.0-13.0-2.16,88767,List1B,white,woman,,,,null,,,,
13109,,,survey-text,97,648701,0.0-13.0-3.16,88767,List1B,white,woman,,,,,"{""Q0"":""dave and mike hugging""}","<img src=""stim_listB/hug6.gif""</stim_listB>",are hugging each other,
null,"<div style=""font-size:60px;"">+</div>",,html-keyboard-response,98,649219,0.0-13.0-0.17,88767,List1B,white,woman,,,,null,,,,
null,"<img src=""stim_listB/talk1.gif""</stim_listB>",,html-keyboard-response,99,651229,0.0-13.0-1.17,88767,List1B,white,woman,,,,null,,,,
null,is talking to,,html-keyboard-response,100,653278,0.0-13.0-2.17,88767,List1B,white,woman,,,,null,,,,
20866,,,survey-text,101,674149,0.0-13.0-3.17,88767,List1B,white,woman,,,,,"{""Q0"":""kate and fred talking to each other""}","<img src=""stim_listB/talk1.gif""</stim_listB>",is talking to,
null,"<div style=""font-size:60px;"">+</div>",,html-keyboard-response,102,674656,0.0-13.0-0.18,88767,List1B,white,woman,,,,null,,,,
null,"<img src=""stim_listB/hug3.gif""</stim_listB>",,html-keyboard-response,103,676671,0.0-13.0-1.18,88767,List1B,white,woman,,,,null,,,,
null,is hugging,,html-keyboard-response,104,678687,0.0-13.0-2.18,88767,List1B,white,woman,,,,null,,,,
15804,,,survey-text,105,694498,0.0-13.0-3.18,88767,List1B,white,woman,,,,,"{""Q0"":""ruth and luke hugging""}","<img src=""stim_listB/hug3.gif""</stim_listB>",is hugging,
null,"<div style=""font-size:60px;"">+</div>",,html-keyboard-response,106,695017,0.0-13.0-0.19,88767,List1B,white,woman,,,,null,,,,
null,"<img src=""stim_listB/fight6.gif""</stim_listB>",,html-keyboard-response,107,697032,0.0-13.0-1.19,88767,List1B,white,woman,,,,null,,,,
null,are fighting each other,,html-keyboard-response,108,699050,0.0-13.0-2.19,88767,List1B,white,woman,,,,null,,,,
12673,,,survey-text,109,711728,0.0-13.0-3.19,88767,List1B,white,woman,,,,,"{""Q0"":""luke and fredc hugging""}","<img src=""stim_listB/fight6.gif""</stim_listB>",are fighting each other,
6567,"<img src='img/portrait_matrix_list1.JPG' style='width:900px;height:500px;''></img><p>If you have memorised all the portraits and names and are ready to start, press Continue.</p><p><strong>Please note: Your memory of these faces will be tested 4 times during this experiment.</strong></p>",0,html-button-response,110,718301,0.0-14.0-0.0,88767,List1B,white,woman,,,,,,,,
9794,"<img src=""portrait/WW1.jpg""style=""width:400px;height:400px;""></img>",1,html-button-response,111,729115,0.0-14.0-1.0,88767,List1B,white,woman,,TRUE,1,,,,,
null,CORRECT,,html-keyboard-response,112,730633,0.0-14.0-2.0-0.0,88767,List1B,white,woman,,,,null,,,,
3112,"<img src=""portrait/WM1.jpg""style=""width:400px;height:400px;""></img>",6,html-button-response,113,733753,0.0-14.0-4.0,88767,List1B,white,woman,,TRUE,6,,,,,
null,CORRECT,,html-keyboard-response,114,735281,0.0-14.0-5.0-0.0,88767,List1B,white,woman,,,,null,,,,
4873,"<img src=""portrait/BM1.jpg""style=""width:400px;height:400px;""></img>",4,html-button-response,115,740174,0.0-14.0-7.0,88767,List1B,white,woman,,TRUE,4,,,,,
null,CORRECT,,html-keyboard-response,116,741702,0.0-14.0-8.0-0.0,88767,List1B,white,woman,,,,null,,,,
3642,"<img src=""portrait/BW1.jpg""style=""width:400px;height:400px;""></img>",0,html-button-response,117,745354,0.0-14.0-10.0,88767,List1B,white,woman,,TRUE,0,,,,,
null,CORRECT,,html-keyboard-response,118,746872,0.0-14.0-11.0-0.0,88767,List1B,white,woman,,,,null,,,,
3725,"<img src=""portrait/WW2.jpg""style=""width:400px;height:400px;""></img>",3,html-button-response,119,750601,0.0-14.0-13.0,88767,List1B,white,woman,,TRUE,3,,,,,
null,CORRECT,,html-keyboard-response,120,752123,0.0-14.0-14.0-0.0,88767,List1B,white,woman,,,,null,,,,
6462,"<img src=""portrait/WM2.jpg""style=""width:400px;height:400px;""></img>",7,html-button-response,121,758588,0.0-14.0-16.0,88767,List1B,white,woman,,TRUE,7,,,,,
null,CORRECT,,html-keyboard-response,122,760109,0.0-14.0-17.0-0.0,88767,List1B,white,woman,,,,null,,,,
5184,"<img src=""portrait/BM2.jpg""style=""width:400px;height:400px;""></img>",5,html-button-response,123,765296,0.0-14.0-19.0,88767,List1B,white,woman,,TRUE,5,,,,,
null,CORRECT,,html-keyboard-response,124,766828,0.0-14.0-20.0-0.0,88767,List1B,white,woman,,,,null,,,,
5013,"<img src=""portrait/BW2.jpg""style=""width:400px;height:400px;""></img>",2,html-button-response,125,771848,0.0-14.0-22.0,88767,List1B,white,woman,,TRUE,2,,,,,
null,CORRECT,,html-keyboard-response,126,773373,0.0-14.0-23.0-0.0,88767,List1B,white,woman,,,,null,,,,
2560,<p>You got 8 out of 8 right first time. Press Continue.</p>,0,html-button-response,127,775938,0.0-14.0-25.0,88767,List1B,white,woman,,,,,,,,
null,"<div style=""font-size:60px;"">+</div>",,html-keyboard-response,128,777468,0.0-15.0-0.0,88767,List1B,white,woman,,,,null,,,,
null,"<img src=""stim_listB/marry3.gif""</stim_listB>",,html-keyboard-response,129,779483,0.0-15.0-1.0,88767,List1B,white,woman,,,,null,,,,
null,is marrying,,html-keyboard-response,130,781499,0.0-15.0-2.0,88767,List1B,white,woman,,,,null,,,,
11527,,,survey-text,131,793029,0.0-15.0-3.0,88767,List1B,white,woman,,,,,"{""Q0"":""ruth and dave""}","<img src=""stim_listB/marry3.gif""</stim_listB>",is marrying,
null,"<div style=""font-size:60px;"">+</div>",,html-keyboard-response,132,793544,0.0-15.0-0.1,88767,List1B,white,woman,,,,null,,,,
null,"<img src=""stim_listB/touch7.gif""</stim_listB>",,html-keyboard-response,133,795557,0.0-15.0-1.1,88767,List1B,white,woman,,,,null,,,,
null,is touching,,html-keyboard-response,134,797576,0.0-15.0-2.1,88767,List1B,white,woman,,,,null,,,,
42206,,,survey-text,135,839794,0.0-15.0-3.1,88767,List1B,white,woman,,,,,"{""Q0"":""kate and jane""}","<img src=""stim_listB/touch7.gif""</stim_listB>",is touching,
null,"<div style=""font-size:60px;"">+</div>",,html-keyboard-response,136,840302,0.0-15.0-0.2,88767,List1B,white,woman,,,,null,,,,
null,"<img src=""stim_listB/argue1.gif""</stim_listB>",,html-keyboard-response,137,842326,0.0-15.0-1.2,88767,List1B,white,woman,,,,null,,,,
null,is arguing with,,html-keyboard-response,138,844342,0.0-15.0-2.2,88767,List1B,white,woman,,,,null,,,,
11895,,,survey-text,139,856243,0.0-15.0-3.2,88767,List1B,white,woman,,,,,"{""Q0"":""mike and beth""}","<img src=""stim_listB/argue1.gif""</stim_listB>",is arguing with,
null,"<div style=""font-size:60px;"">+</div>",,html-keyboard-response,140,856748,0.0-15.0-0.3,88767,List1B,white,woman,,,,null,,,,
null,"<img src=""stim_listB/dance8.gif""</stim_listB>",,html-keyboard-response,141,858764,0.0-15.0-1.3,88767,List1B,white,woman,,,,null,,,,
null,are dancing with each other,,html-keyboard-response,142,860768,0.0-15.0-2.3,88767,List1B,white,woman,,,,null,,,,
8049,,,survey-text,143,868821,0.0-15.0-3.3,88767,List1B,white,woman,,,,,"{""Q0"":""didnt see""}","<img src=""stim_listB/dance8.gif""</stim_listB>",are dancing with each other,
null,"<div style=""font-size:60px;"">+</div>",,html-keyboard-response,144,869324,0.0-15.0-0.4,88767,List1B,white,woman,,,,null,,,,
null,"<img src=""stim_listB/fight1.gif""</stim_listB>",,html-keyboard-response,145,871342,0.0-15.0-1.4,88767,List1B,white,woman,,,,null,,,,
null,is fighting,,html-keyboard-response,146,873360,0.0-15.0-2.4,88767,List1B,white,woman,,,,null,,,,
7098,,,survey-text,147,880462,0.0-15.0-3.4,88767,List1B,white,woman,,,,,"{""Q0"":""mike and kate""}","<img src=""stim_listB/fight1.gif""</stim_listB>",is fighting,
null,"<div style=""font-size:60px;"">+</div>",,html-keyboard-response,148,880965,0.0-15.0-0.5,88767,List1B,white,woman,,,,null,,,,
null,"<img src=""stim_listB/talk7.gif""</stim_listB>",,html-keyboard-response,149,882984,0.0-15.0-1.5,88767,List1B,white,woman,,,,null,,,,
null,is talking to,,html-keyboard-response,150,884999,0.0-15.0-2.5,88767,List1B,white,woman,,,,null,,,,
14618,,,survey-text,151,899622,0.0-15.0-3.5,88767,List1B,white,woman,,,,,"{""Q0"":""bth taking to jane""}","<img src=""stim_listB/talk7.gif""</stim_listB>",is talking to,
null,"<div style=""font-size:60px;"">+</div>",,html-keyboard-response,152,900124,0.0-15.0-0.6,88767,List1B,white,woman,,,,null,,,,
null,"<img src=""stim_listB/meet8.gif""</stim_listB>",,html-keyboard-response,153,902138,0.0-15.0-1.6,88767,List1B,white,woman,,,,null,,,,
null,are meeting each other,,html-keyboard-response,154,904154,0.0-15.0-2.6,88767,List1B,white,woman,,,,null,,,,
10948,,,survey-text,155,915107,0.0-15.0-3.6,88767,List1B,white,woman,,,,,"{""Q0"":""beth and ruth meeting""}","<img src=""stim_listB/meet8.gif""</stim_listB>",are meeting each other,
null,"<div style=""font-size:60px;"">+</div>",,html-keyboard-response,156,915611,0.0-15.0-0.7,88767,List1B,white,woman,,,,null,,,,
null,"<img src=""stim_listB/hug5.gif""</stim_listB>",,html-keyboard-response,157,917620,0.0-15.0-1.7,88767,List1B,white,woman,,,,null,,,,
null,is hugging,,html-keyboard-response,158,919638,0.0-15.0-2.7,88767,List1B,white,woman,,,,null,,,,
17103,,,survey-text,159,936745,0.0-15.0-3.7,88767,List1B,white,woman,,,,,"{""Q0"":""luke is hugging fred""}","<img src=""stim_listB/hug5.gif""</stim_listB>",is hugging,
null,"<div style=""font-size:60px;"">+</div>",,html-keyboard-response,160,937264,0.0-15.0-0.8,88767,List1B,white,woman,,,,null,,,,
null,"<img src=""stim_listB/shout6.gif""</stim_listB>",,html-keyboard-response,161,939280,0.0-15.0-1.8,88767,List1B,white,woman,,,,null,,,,
null,are shouting at each other,,html-keyboard-response,162,941292,0.0-15.0-2.8,88767,List1B,white,woman,,,,null,,,,
20457,,,survey-text,163,961756,0.0-15.0-3.8,88767,List1B,white,woman,,,,,"{""Q0"":""dave and mike shouting at each other""}","<img src=""stim_listB/shout6.gif""</stim_listB>",are shouting at each other,
null,"<div style=""font-size:60px;"">+</div>",,html-keyboard-response,164,962265,0.0-15.0-0.9,88767,List1B,white,woman,,,,null,,,,
null,"<img src=""stim_listB/touch4.gif""</stim_listB>",,html-keyboard-response,165,964280,0.0-15.0-1.9,88767,List1B,white,woman,,,,null,,,,
null,are touching each other,,html-keyboard-response,166,966281,0.0-15.0-2.9,88767,List1B,white,woman,,,,null,,,,
17230,,,survey-text,167,983514,0.0-15.0-3.9,88767,List1B,white,woman,,,,,"{""Q0"":""luke and kate touching each other""}","<img src=""stim_listB/touch4.gif""</stim_listB>",are touching each other,
null,"<div style=""font-size:60px;"">+</div>",,html-keyboard-response,168,984029,0.0-15.0-0.10,88767,List1B,white,woman,,,,null,,,,
null,"<img src=""stim_listB/kiss7.gif""</stim_listB>",,html-keyboard-response,169,986031,0.0-15.0-1.10,88767,List1B,white,woman,,,,null,,,,
null,is kissing,,html-keyboard-response,170,988045,0.0-15.0-2.10,88767,List1B,white,woman,,,,null,,,,
12745,,,survey-text,171,1000793,0.0-15.0-3.10,88767,List1B,white,woman,,,,,"{""Q0"":""ruth and beth kissing""}","<img src=""stim_listB/kiss7.gif""</stim_listB>",is kissing,
null,"<div style=""font-size:60px;"">+</div>",,html-keyboard-response,172,1001312,0.0-15.0-0.11,88767,List1B,white,woman,,,,null,,,,
null,"<img src=""stim_listB/dance2.gif""</stim_listB>",,html-keyboard-response,173,1003328,0.0-15.0-1.11,88767,List1B,white,woman,,,,null,,,,
null,are dancing with each other,,html-keyboard-response,174,1005344,0.0-15.0-2.11,88767,List1B,white,woman,,,,null,,,,
27267,,,survey-text,175,1032617,0.0-15.0-3.11,88767,List1B,white,woman,,,,,"{""Q0"":""mike and beth are dancing""}","<img src=""stim_listB/dance2.gif""</stim_listB>",are dancing with each other,
null,"<div style=""font-size:60px;"">+</div>",,html-keyboard-response,176,1033124,0.0-15.0-0.12,88767,List1B,white,woman,,,,null,,,,
null,"<img src=""stim_listB/marry5.gif""</stim_listB>",,html-keyboard-response,177,1035140,0.0-15.0-1.12,88767,List1B,white,woman,,,,null,,,,
null,is marrying,,html-keyboard-response,178,1037152,0.0-15.0-2.12,88767,List1B,white,woman,,,,null,,,,
25747,,,survey-text,179,1062904,0.0-15.0-3.12,88767,List1B,white,woman,,,,,"{""Q0"":""mike and luke marrying each other""}","<img src=""stim_listB/marry5.gif""</stim_listB>",is marrying,
null,"<div style=""font-size:60px;"">+</div>",,html-keyboard-response,180,1063421,0.0-15.0-0.13,88767,List1B,white,woman,,,,null,,,,
null,"<img src=""stim_listB/dance1.gif""</stim_listB>",,html-keyboard-response,181,1065439,0.0-15.0-1.13,88767,List1B,white,woman,,,,null,,,,
null,is dancing with,,html-keyboard-response,182,1067450,0.0-15.0-2.13,88767,List1B,white,woman,,,,null,,,,
19231,,,survey-text,183,1086687,0.0-15.0-3.13,88767,List1B,white,woman,,,,,"{""Q0"":""kate and fred dancing with each other""}","<img src=""stim_listB/dance1.gif""</stim_listB>",is dancing with,
null,"<div style=""font-size:60px;"">+</div>",,html-keyboard-response,184,1087201,0.0-15.0-0.14,88767,List1B,white,woman,,,,null,,,,
null,"<img src=""stim_listB/kiss2.gif""</stim_listB>",,html-keyboard-response,185,1089220,0.0-15.0-1.14,88767,List1B,white,woman,,,,null,,,,
null,are kissing each other,,html-keyboard-response,186,1091227,0.0-15.0-2.14,88767,List1B,white,woman,,,,null,,,,
10231,,,survey-text,187,1101464,0.0-15.0-3.14,88767,List1B,white,woman,,,,,"{""Q0"":""mike and kate kissing""}","<img src=""stim_listB/kiss2.gif""</stim_listB>",are kissing each other,
null,"<div style=""font-size:60px;"">+</div>",,html-keyboard-response,188,1101982,0.0-15.0-0.15,88767,List1B,white,woman,,,,null,,,,
null,"<img src=""stim_listB/kiss5.gif""</stim_listB>",,html-keyboard-response,189,1103998,0.0-15.0-1.15,88767,List1B,white,woman,,,,null,,,,
null,is kissing,,html-keyboard-response,190,1106000,0.0-15.0-2.15,88767,List1B,white,woman,,,,null,,,,
19111,,,survey-text,191,1125113,0.0-15.0-3.15,88767,List1B,white,woman,,,,,"{""Q0"":""fred is kissing luke""}","<img src=""stim_listB/kiss5.gif""</stim_listB>",is kissing,
null,"<div style=""font-size:60px;"">+</div>",,html-keyboard-response,192,1125623,0.0-15.0-0.16,88767,List1B,white,woman,,,,null,,,,
null,"<img src=""stim_listB/kiss1.gif""</stim_listB>",,html-keyboard-response,193,1127641,0.0-15.0-1.16,88767,List1B,white,woman,,,,null,,,,
null,is kissing,,html-keyboard-response,194,1129656,0.0-15.0-2.16,88767,List1B,white,woman,,,,null,,,,
9676,,,survey-text,195,1139337,0.0-15.0-3.16,88767,List1B,white,woman,,,,,"{""Q0"":""beth is kissing fred""}","<img src=""stim_listB/kiss1.gif""</stim_listB>",is kissing,
null,"<div style=""font-size:60px;"">+</div>",,html-keyboard-response,196,1139843,0.0-15.0-0.17,88767,List1B,white,woman,,,,null,,,,
null,"<img src=""stim_listB/kiss6.gif""</stim_listB>",,html-keyboard-response,197,1141856,0.0-15.0-1.17,88767,List1B,white,woman,,,,null,,,,
null,are kissing each other,,html-keyboard-response,198,1143873,0.0-15.0-2.17,88767,List1B,white,woman,,,,null,,,,
10159,,,survey-text,199,1154038,0.0-15.0-3.17,88767,List1B,white,woman,,,,,"{""Q0"":""mike an dave kissing""}","<img src=""stim_listB/kiss6.gif""</stim_listB>",are kissing each other,
null,"<div style=""font-size:60px;"">+</div>",,html-keyboard-response,200,1154546,0.0-15.0-0.18,88767,List1B,white,woman,,,,null,,,,
null,"<img src=""stim_listB/touch6.gif""</stim_listB>",,html-keyboard-response,201,1156558,0.0-15.0-1.18,88767,List1B,white,woman,,,,null,,,,
null,are touching each other,,html-keyboard-response,202,1158576,0.0-15.0-2.18,88767,List1B,white,woman,,,,null,,,,
84846,,,survey-text,203,1243427,0.0-15.0-3.18,88767,List1B,white,woman,,,,,"{""Q0"":""fred and luke touching each orther""}","<img src=""stim_listB/touch6.gif""</stim_listB>",are touching each other,
null,"<div style=""font-size:60px;"">+</div>",,html-keyboard-response,204,1243935,0.0-15.0-0.19,88767,List1B,white,woman,,,,null,,,,
null,"<img src=""stim_listB/shout2.gif""</stim_listB>",,html-keyboard-response,205,1245952,0.0-15.0-1.19,88767,List1B,white,woman,,,,null,,,,
null,are shouting at each other,,html-keyboard-response,206,1247967,0.0-15.0-2.19,88767,List1B,white,woman,,,,null,,,,
11198,,,survey-text,207,1259168,0.0-15.0-3.19,88767,List1B,white,woman,,,,,"{""Q0"":""mike and kate shouting""}","<img src=""stim_listB/shout2.gif""</stim_listB>",are shouting at each other,
2855,"<img src='img/portrait_matrix_list1.JPG' style='width:900px;height:500px;''></img><p>If you have memorised all the portraits and names and are ready to start, press Continue.</p><p><strong>Please note: Your memory of these faces will be tested 4 times during this experiment.</strong></p>",0,html-button-response,208,1262029,0.0-16.0-0.0,88767,List1B,white,woman,,,,,,,,
3055,"<img src=""portrait/WW2.jpg""style=""width:400px;height:400px;""></img>",3,html-button-response,209,1266108,0.0-16.0-1.0,88767,List1B,white,woman,,TRUE,3,,,,,
null,CORRECT,,html-keyboard-response,210,1267638,0.0-16.0-2.0-0.0,88767,List1B,white,woman,,,,null,,,,
36987,"<img src=""portrait/WW1.jpg""style=""width:400px;height:400px;""></img>",1,html-button-response,211,1304634,0.0-16.0-4.0,88767,List1B,white,woman,,TRUE,1,,,,,
null,CORRECT,,html-keyboard-response,212,1306156,0.0-16.0-5.0-0.0,88767,List1B,white,woman,,,,null,,,,
3193,"<img src=""portrait/BW2.jpg""style=""width:400px;height:400px;""></img>",2,html-button-response,213,1309363,0.0-16.0-7.0,88767,List1B,white,woman,,TRUE,2,,,,,
null,CORRECT,,html-keyboard-response,214,1310890,0.0-16.0-8.0-0.0,88767,List1B,white,woman,,,,null,,,,
5027,"<img src=""portrait/WM1.jpg""style=""width:400px;height:400px;""></img>",6,html-button-response,215,1315935,0.0-16.0-10.0,88767,List1B,white,woman,,TRUE,6,,,,,
null,CORRECT,,html-keyboard-response,216,1317465,0.0-16.0-11.0-0.0,88767,List1B,white,woman,,,,null,,,,
3326,"<img src=""portrait/BW1.jpg""style=""width:400px;height:400px;""></img>",0,html-button-response,217,1320797,0.0-16.0-13.0,88767,List1B,white,woman,,TRUE,0,,,,,
null,CORRECT,,html-keyboard-response,218,1322309,0.0-16.0-14.0-0.0,88767,List1B,white,woman,,,,null,,,,
3566,"<img src=""portrait/BM1.jpg""style=""width:400px;height:400px;""></img>",4,html-button-response,219,1325882,0.0-16.0-16.0,88767,List1B,white,woman,,TRUE,4,,,,,
null,CORRECT,,html-keyboard-response,220,1327406,0.0-16.0-17.0-0.0,88767,List1B,white,woman,,,,null,,,,
3028,"<img src=""portrait/BM2.jpg""style=""width:400px;height:400px;""></img>",5,html-button-response,221,1330439,0.0-16.0-19.0,88767,List1B,white,woman,,TRUE,5,,,,,
null,CORRECT,,html-keyboard-response,222,1331966,0.0-16.0-20.0-0.0,88767,List1B,white,woman,,,,null,,,,
2225,"<img src=""portrait/WM2.jpg""style=""width:400px;height:400px;""></img>",7,html-button-response,223,1334196,0.0-16.0-22.0,88767,List1B,white,woman,,TRUE,7,,,,,
null,CORRECT,,html-keyboard-response,224,1335718,0.0-16.0-23.0-0.0,88767,List1B,white,woman,,,,null,,,,
1592,<p>You got 8 out of 8 right first time. Press Continue.</p>,0,html-button-response,225,1337319,0.0-16.0-25.0,88767,List1B,white,woman,,,,,,,,
null,"<div style=""font-size:60px;"">+</div>",,html-keyboard-response,226,1338843,0.0-17.0-0.0,88767,List1B,white,woman,,,,null,,,,
null,"<img src=""stim_listB/touch3.gif""</stim_listB>",,html-keyboard-response,227,1340859,0.0-17.0-1.0,88767,List1B,white,woman,,,,null,,,,
null,is touching,,html-keyboard-response,228,1342872,0.0-17.0-2.0,88767,List1B,white,woman,,,,null,,,,
26134,,,survey-text,229,1369010,0.0-17.0-3.0,88767,List1B,white,woman,,,,,"{""Q0"":""dave and jane touching""}","<img src=""stim_listB/touch3.gif""</stim_listB>",is touching,
null,"<div style=""font-size:60px;"">+</div>",,html-keyboard-response,230,1369522,0.0-17.0-0.1,88767,List1B,white,woman,,,,null,,,,
null,"<img src=""stim_listB/marry7.gif""</stim_listB>",,html-keyboard-response,231,1371536,0.0-17.0-1.1,88767,List1B,white,woman,,,,null,,,,
null,is marrying,,html-keyboard-response,232,1373554,0.0-17.0-2.1,88767,List1B,white,woman,,,,null,,,,
8482,,,survey-text,233,1382040,0.0-17.0-3.1,88767,List1B,white,woman,,,,,"{""Q0"":""ruth and kate marrying each other""}","<img src=""stim_listB/marry7.gif""</stim_listB>",is marrying,
null,"<div style=""font-size:60px;"">+</div>",,html-keyboard-response,234,1382545,0.0-17.0-0.2,88767,List1B,white,woman,,,,null,,,,
null,"<img src=""stim_listB/meet1.gif""</stim_listB>",,html-keyboard-response,235,1384562,0.0-17.0-1.2,88767,List1B,white,woman,,,,null,,,,
null,is meeting,,html-keyboard-response,236,1386566,0.0-17.0-2.2,88767,List1B,white,woman,,,,null,,,,
11130,,,survey-text,237,1397700,0.0-17.0-3.2,88767,List1B,white,woman,,,,,"{""Q0"":""kate and mike are meeting each other""}","<img src=""stim_listB/meet1.gif""</stim_listB>",is meeting,
null,"<div style=""font-size:60px;"">+</div>",,html-keyboard-response,238,1398218,0.0-17.0-0.3,88767,List1B,white,woman,,,,null,,,,
null,"<img src=""stim_listB/dance7.gif""</stim_listB>",,html-keyboard-response,239,1400248,0.0-17.0-1.3,88767,List1B,white,woman,,,,null,,,,
null,is dancing with,,html-keyboard-response,240,1402262,0.0-17.0-2.3,88767,List1B,white,woman,,,,null,,,,
11406,,,survey-text,241,1413675,0.0-17.0-3.3,88767,List1B,white,woman,,,,,"{""Q0"":""jane and beth are dancing with each other""}","<img src=""stim_listB/dance7.gif""</stim_listB>",is dancing with,
null,"<div style=""font-size:60px;"">+</div>",,html-keyboard-response,242,1414187,0.0-17.0-0.4,88767,List1B,white,woman,,,,null,,,,
null,"<img src=""stim_listB/touch5.gif""</stim_listB>",,html-keyboard-response,243,1416203,0.0-17.0-1.4,88767,List1B,white,woman,,,,null,,,,
null,is touching,,html-keyboard-response,244,1418219,0.0-17.0-2.4,88767,List1B,white,woman,,,,null,,,,
6532,,,survey-text,245,1424754,0.0-17.0-3.4,88767,List1B,white,woman,,,,,"{""Q0"":""dave and mike dancing""}","<img src=""stim_listB/touch5.gif""</stim_listB>",is touching,
null,"<div style=""font-size:60px;"">+</div>",,html-keyboard-response,246,1425263,0.0-17.0-0.5,88767,List1B,white,woman,,,,null,,,,
null,"<img src=""stim_listB/dance6.gif""</stim_listB>",,html-keyboard-response,247,1427280,0.0-17.0-1.5,88767,List1B,white,woman,,,,null,,,,
null,are dancing with each other,,html-keyboard-response,248,1429295,0.0-17.0-2.5,88767,List1B,white,woman,,,,null,,,,
15589,,,survey-text,249,1444890,0.0-17.0-3.5,88767,List1B,white,woman,,,,,"{""Q0"":""mike and luke are dancing with each other""}","<img src=""stim_listB/dance6.gif""</stim_listB>",are dancing with each other,
null,"<div style=""font-size:60px;"">+</div>",,html-keyboard-response,250,1445404,0.0-17.0-0.6,88767,List1B,white,woman,,,,null,,,,
null,"<img src=""stim_listB/argue6.gif""</stim_listB>",,html-keyboard-response,251,1447422,0.0-17.0-1.6,88767,List1B,white,woman,,,,null,,,,
null,are arguing with each other,,html-keyboard-response,252,1449435,0.0-17.0-2.6,88767,List1B,white,woman,,,,null,,,,
10079,,,survey-text,253,1459518,0.0-17.0-3.6,88767,List1B,white,woman,,,,,"{""Q0"":""fred and dave are arguing with each other""}","<img src=""stim_listB/argue6.gif""</stim_listB>",are arguing with each other,
null,"<div style=""font-size:60px;"">+</div>",,html-keyboard-response,254,1460027,0.0-17.0-0.7,88767,List1B,white,woman,,,,null,,,,
null,"<img src=""stim_listB/shout1.gif""</stim_listB>",,html-keyboard-response,255,1462032,0.0-17.0-1.7,88767,List1B,white,woman,,,,null,,,,
null,is shouting at,,html-keyboard-response,256,1464046,0.0-17.0-2.7,88767,List1B,white,woman,,,,null,,,,
8505,,,survey-text,257,1472554,0.0-17.0-3.7,88767,List1B,white,woman,,,,,"{""Q0"":""fred and beth are shouting""}","<img src=""stim_listB/shout1.gif""</stim_listB>",is shouting at,
null,"<div style=""font-size:60px;"">+</div>",,html-keyboard-response,258,1473060,0.0-17.0-0.8,88767,List1B,white,woman,,,,null,,,,
null,"<img src=""stim_listB/touch2.gif""</stim_listB>",,html-keyboard-response,259,1475079,0.0-17.0-1.8,88767,List1B,white,woman,,,,null,,,,
null,are touching each other,,html-keyboard-response,260,1477082,0.0-17.0-2.8,88767,List1B,white,woman,,,,null,,,,
7343,,,survey-text,261,1484431,0.0-17.0-3.8,88767,List1B,white,woman,,,,,"{""Q0"":""fred and beth touching each other""}","<img src=""stim_listB/touch2.gif""</stim_listB>",are touching each other,
null,"<div style=""font-size:60px;"">+</div>",,html-keyboard-response,262,1484946,0.0-17.0-0.9,88767,List1B,white,woman,,,,null,,,,
null,"<img src=""stim_listB/fight5.gif""</stim_listB>",,html-keyboard-response,263,1486952,0.0-17.0-1.9,88767,List1B,white,woman,,,,null,,,,
null,is fighting,,html-keyboard-response,264,1488966,0.0-17.0-2.9,88767,List1B,white,woman,,,,null,,,,
15707,,,survey-text,265,1504677,0.0-17.0-3.9,88767,List1B,white,woman,,,,,"{""Q0"":""mike and dave are fighting""}","<img src=""stim_listB/fight5.gif""</stim_listB>",is fighting,
null,"<div style=""font-size:60px;"">+</div>",,html-keyboard-response,266,1505188,0.0-17.0-0.10,88767,List1B,white,woman,,,,null,,,,
null,"<img src=""stim_listB/shout3.gif""</stim_listB>",,html-keyboard-response,267,1507193,0.0-17.0-1.10,88767,List1B,white,woman,,,,null,,,,
null,is shouting at,,html-keyboard-response,268,1509202,0.0-17.0-2.10,88767,List1B,white,woman,,,,null,,,,
7225,,,survey-text,269,1516429,0.0-17.0-3.10,88767,List1B,white,woman,,,,,"{""Q0"":""ruth and luke are shouting""}","<img src=""stim_listB/shout3.gif""</stim_listB>",is shouting at,
null,"<div style=""font-size:60px;"">+</div>",,html-keyboard-response,270,1516942,0.0-17.0-0.11,88767,List1B,white,woman,,,,null,,,,
null,"<img src=""stim_listB/shout8.gif""</stim_listB>",,html-keyboard-response,271,1518951,0.0-17.0-1.11,88767,List1B,white,woman,,,,null,,,,
null,are shouting at each other,,html-keyboard-response,272,1520954,0.0-17.0-2.11,88767,List1B,white,woman,,,,null,,,,
10463,,,survey-text,273,1531421,0.0-17.0-3.11,88767,List1B,white,woman,,,,,"{""Q0"":""ruth and kate are shouting at each other""}","<img src=""stim_listB/shout8.gif""</stim_listB>",are shouting at each other,
null,"<div style=""font-size:60px;"">+</div>",,html-keyboard-response,274,1531930,0.0-17.0-0.12,88767,List1B,white,woman,,,,null,,,,
null,"<img src=""stim_listB/marry1.gif""</stim_listB>",,html-keyboard-response,275,1533949,0.0-17.0-1.12,88767,List1B,white,woman,,,,null,,,,
null,is marrying,,html-keyboard-response,276,1535966,0.0-17.0-2.12,88767,List1B,white,woman,,,,null,,,,
10149,,,survey-text,277,1546120,0.0-17.0-3.12,88767,List1B,white,woman,,,,,"{""Q0"":""luke and beth are marrying""}","<img src=""stim_listB/marry1.gif""</stim_listB>",is marrying,
null,"<div style=""font-size:60px;"">+</div>",,html-keyboard-response,278,1546635,0.0-17.0-0.13,88767,List1B,white,woman,,,,null,,,,
null,"<img src=""stim_listB/argue7.gif""</stim_listB>",,html-keyboard-response,279,1548657,0.0-17.0-1.13,88767,List1B,white,woman,,,,null,,,,
null,is arguing with,,html-keyboard-response,280,1550672,0.0-17.0-2.13,88767,List1B,white,woman,,,,null,,,,
10221,,,survey-text,281,1560899,0.0-17.0-3.13,88767,List1B,white,woman,,,,,"{""Q0"":""kate adn ruth arguing""}","<img src=""stim_listB/argue7.gif""</stim_listB>",is arguing with,
null,"<div style=""font-size:60px;"">+</div>",,html-keyboard-response,282,1561404,0.0-17.0-0.14,88767,List1B,white,woman,,,,null,,,,
null,"<img src=""stim_listB/hug7.gif""</stim_listB>",,html-keyboard-response,283,1563420,0.0-17.0-1.14,88767,List1B,white,woman,,,,null,,,,
null,is hugging,,html-keyboard-response,284,1565434,0.0-17.0-2.14,88767,List1B,white,woman,,,,null,,,,
10211,,,survey-text,285,1575651,0.0-17.0-3.14,88767,List1B,white,woman,,,,,"{""Q0"":""ruth and beth are hugging""}","<img src=""stim_listB/hug7.gif""</stim_listB>",is hugging,
null,"<div style=""font-size:60px;"">+</div>",,html-keyboard-response,286,1576156,0.0-17.0-0.15,88767,List1B,white,woman,,,,null,,,,
null,"<img src=""stim_listB/argue3.gif""</stim_listB>",,html-keyboard-response,287,1578170,0.0-17.0-1.15,88767,List1B,white,woman,,,,null,,,,
null,is arguing with,,html-keyboard-response,288,1580187,0.0-17.0-2.15,88767,List1B,white,woman,,,,null,,,,
16234,,,survey-text,289,1596427,0.0-17.0-3.15,88767,List1B,white,woman,,,,,"{""Q0"":""dave is arguing with ruth""}","<img src=""stim_listB/argue3.gif""</stim_listB>",is arguing with,
null,"<div style=""font-size:60px;"">+</div>",,html-keyboard-response,290,1596938,0.0-17.0-0.16,88767,List1B,white,woman,,,,null,,,,
null,"<img src=""stim_listB/argue2.gif""</stim_listB>",,html-keyboard-response,291,1598951,0.0-17.0-1.16,88767,List1B,white,woman,,,,null,,,,
null,are arguing with each other,,html-keyboard-response,292,1600967,0.0-17.0-2.16,88767,List1B,white,woman,,,,null,,,,
11020,,,survey-text,293,1611994,0.0-17.0-3.16,88767,List1B,white,woman,,,,,"{""Q0"":""fred and kate are arguing""}","<img src=""stim_listB/argue2.gif""</stim_listB>",are arguing with each other,
null,"<div style=""font-size:60px;"">+</div>",,html-keyboard-response,294,1612513,0.0-17.0-0.17,88767,List1B,white,woman,,,,null,,,,
null,"<img src=""stim_listB/fight7.gif""</stim_listB>",,html-keyboard-response,295,1614528,0.0-17.0-1.17,88767,List1B,white,woman,,,,null,,,,
null,is fighting,,html-keyboard-response,296,1616544,0.0-17.0-2.17,88767,List1B,white,woman,,,,null,,,,
9597,,,survey-text,297,1626146,0.0-17.0-3.17,88767,List1B,white,woman,,,,,"{""Q0"":""kate and jane fighting""}","<img src=""stim_listB/fight7.gif""</stim_listB>",is fighting,
null,"<div style=""font-size:60px;"">+</div>",,html-keyboard-response,298,1626654,0.0-17.0-0.18,88767,List1B,white,woman,,,,null,,,,
null,"<img src=""stim_listB/meet3.gif""</stim_listB>",,html-keyboard-response,299,1628669,0.0-17.0-1.18,88767,List1B,white,woman,,,,null,,,,
null,is meeting,,html-keyboard-response,300,1630685,0.0-17.0-2.18,88767,List1B,white,woman,,,,null,,,,
8774,,,survey-text,301,1639463,0.0-17.0-3.18,88767,List1B,white,woman,,,,,"{""Q0"":""jane and dave is meeting each other""}","<img src=""stim_listB/meet3.gif""</stim_listB>",is meeting,
null,"<div style=""font-size:60px;"">+</div>",,html-keyboard-response,302,1639969,0.0-17.0-0.19,88767,List1B,white,woman,,,,null,,,,
null,"<img src=""stim_listB/meet2.gif""</stim_listB>",,html-keyboard-response,303,1641985,0.0-17.0-1.19,88767,List1B,white,woman,,,,null,,,,
null,are meeting each other,,html-keyboard-response,304,1643996,0.0-17.0-2.19,88767,List1B,white,woman,,,,null,,,,
9098,,,survey-text,305,1653094,0.0-17.0-3.19,88767,List1B,white,woman,,,,,"{""Q0"":""fred and beth are meeting each other""}","<img src=""stim_listB/meet2.gif""</stim_listB>",are meeting each other,
2905,"<img src='img/portrait_matrix_list1.JPG' style='width:900px;height:500px;''></img><p>If you have memorised all the portraits and names and are ready to start, press Continue.</p><p><strong>Please note: Your memory of these faces will be tested 4 times during this experiment.</strong></p>",0,html-button-response,306,1656006,0.0-18.0-0.0,88767,List1B,white,woman,,,,,,,,
3609,"<img src=""portrait/WM1.jpg""style=""width:400px;height:400px;""></img>",6,html-button-response,307,1660631,0.0-18.0-1.0,88767,List1B,white,woman,,TRUE,6,,,,,
null,CORRECT,,html-keyboard-response,308,1662142,0.0-18.0-2.0-0.0,88767,List1B,white,woman,,,,null,,,,
2861,"<img src=""portrait/BM1.jpg""style=""width:400px;height:400px;""></img>",4,html-button-response,309,1665011,0.0-18.0-4.0,88767,List1B,white,woman,,TRUE,4,,,,,
null,CORRECT,,html-keyboard-response,310,1666530,0.0-18.0-5.0-0.0,88767,List1B,white,woman,,,,null,,,,
1466,"<img src=""portrait/WW2.jpg""style=""width:400px;height:400px;""></img>",3,html-button-response,311,1668015,0.0-18.0-7.0,88767,List1B,white,woman,,TRUE,3,,,,,
null,CORRECT,,html-keyboard-response,312,1669543,0.0-18.0-8.0-0.0,88767,List1B,white,woman,,,,null,,,,
1744,"<img src=""portrait/WM2.jpg""style=""width:400px;height:400px;""></img>",7,html-button-response,313,1671294,0.0-18.0-10.0,88767,List1B,white,woman,,TRUE,7,,,,,
null,CORRECT,,html-keyboard-response,314,1672812,0.0-18.0-11.0-0.0,88767,List1B,white,woman,,,,null,,,,
3226,"<img src=""portrait/BW1.jpg""style=""width:400px;height:400px;""></img>",0,html-button-response,315,1676045,0.0-18.0-13.0,88767,List1B,white,woman,,TRUE,0,,,,,
null,CORRECT,,html-keyboard-response,316,1677560,0.0-18.0-14.0-0.0,88767,List1B,white,woman,,,,null,,,,
2726,"<img src=""portrait/BW2.jpg""style=""width:400px;height:400px;""></img>",2,html-button-response,317,1680291,0.0-18.0-16.0,88767,List1B,white,woman,,TRUE,2,,,,,
null,CORRECT,,html-keyboard-response,318,1681810,0.0-18.0-17.0-0.0,88767,List1B,white,woman,,,,null,,,,
2068,"<img src=""portrait/BM2.jpg""style=""width:400px;height:400px;""></img>",5,html-button-response,319,1683883,0.0-18.0-19.0,88767,List1B,white,woman,,TRUE,5,,,,,
null,CORRECT,,html-keyboard-response,320,1685411,0.0-18.0-20.0-0.0,88767,List1B,white,woman,,,,null,,,,
2788,"<img src=""portrait/WW1.jpg""style=""width:400px;height:400px;""></img>",1,html-button-response,321,1688205,0.0-18.0-22.0,88767,List1B,white,woman,,TRUE,1,,,,,
null,CORRECT,,html-keyboard-response,322,1689731,0.0-18.0-23.0-0.0,88767,List1B,white,woman,,,,null,,,,
2457,<p>You got 8 out of 8 right first time. Press Continue.</p>,0,html-button-response,323,1692198,0.0-18.0-25.0,88767,List1B,white,woman,,,,,,,,
null,"<div style=""font-size:60px;"">+</div>",,html-keyboard-response,324,1693716,0.0-19.0-0.0,88767,List1B,white,woman,,,,null,,,,
null,"<img src=""stim_listB/talk4.gif""</stim_listB>",,html-keyboard-response,325,1695735,0.0-19.0-1.0,88767,List1B,white,woman,,,,null,,,,
null,are talking to each other,,html-keyboard-response,326,1697748,0.0-19.0-2.0,88767,List1B,white,woman,,,,null,,,,
5936,,,survey-text,327,1703689,0.0-19.0-3.0,88767,List1B,white,woman,,,,,"{""Q0"":""dave and ruth""}","<img src=""stim_listB/talk4.gif""</stim_listB>",are talking to each other,
null,"<div style=""font-size:60px;"">+</div>",,html-keyboard-response,328,1704201,0.0-19.0-0.1,88767,List1B,white,woman,,,,null,,,,
null,"<img src=""stim_listB/dance3.gif""</stim_listB>",,html-keyboard-response,329,1706210,0.0-19.0-1.1,88767,List1B,white,woman,,,,null,,,,
null,is dancing with,,html-keyboard-response,330,1708217,0.0-19.0-2.1,88767,List1B,white,woman,,,,null,,,,
7244,,,survey-text,331,1715465,0.0-19.0-3.1,88767,List1B,white,woman,,,,,"{""Q0"":""jane and luke dancing""}","<img src=""stim_listB/dance3.gif""</stim_listB>",is dancing with,
null,"<div style=""font-size:60px;"">+</div>",,html-keyboard-response,332,1715986,0.0-19.0-0.2,88767,List1B,white,woman,,,,null,,,,
null,"<img src=""stim_listB/shout5.gif""</stim_listB>",,html-keyboard-response,333,1717995,0.0-19.0-1.2,88767,List1B,white,woman,,,,null,,,,
null,is shouting at,,html-keyboard-response,334,1720004,0.0-19.0-2.2,88767,List1B,white,woman,,,,null,,,,
7583,,,survey-text,335,1727590,0.0-19.0-3.2,88767,List1B,white,woman,,,,,"{""Q0"":""fred is shouting at luke""}","<img src=""stim_listB/shout5.gif""</stim_listB>",is shouting at,
null,"<div style=""font-size:60px;"">+</div>",,html-keyboard-response,336,1728110,0.0-19.0-0.3,88767,List1B,white,woman,,,,null,,,,
null,"<img src=""stim_listB/hug4.gif""</stim_listB>",,html-keyboard-response,337,1730123,0.0-19.0-1.3,88767,List1B,white,woman,,,,null,,,,
null,are hugging each other,,html-keyboard-response,338,1732135,0.0-19.0-2.3,88767,List1B,white,woman,,,,null,,,,
6841,,,survey-text,339,1738979,0.0-19.0-3.3,88767,List1B,white,woman,,,,,"{""Q0"":""dave and jane are hugging""}","<img src=""stim_listB/hug4.gif""</stim_listB>",are hugging each other,
null,"<div style=""font-size:60px;"">+</div>",,html-keyboard-response,340,1739484,0.0-19.0-0.4,88767,List1B,white,woman,,,,null,,,,
null,"<img src=""stim_listB/talk5.gif""</stim_listB>",,html-keyboard-response,341,1741493,0.0-19.0-1.4,88767,List1B,white,woman,,,,null,,,,
null,is talking to,,html-keyboard-response,342,1743498,0.0-19.0-2.4,88767,List1B,white,woman,,,,null,,,,
6596,,,survey-text,343,1750098,0.0-19.0-3.4,88767,List1B,white,woman,,,,,"{""Q0"":""dave and fred are talking""}","<img src=""stim_listB/talk5.gif""</stim_listB>",is talking to,
null,"<div style=""font-size:60px;"">+</div>",,html-keyboard-response,344,1750606,0.0-19.0-0.5,88767,List1B,white,woman,,,,null,,,,
null,"<img src=""stim_listB/hug8.gif""</stim_listB>",,html-keyboard-response,345,1752623,0.0-19.0-1.5,88767,List1B,white,woman,,,,null,,,,
null,are hugging each other,,html-keyboard-response,346,1754638,0.0-19.0-2.5,88767,List1B,white,woman,,,,null,,,,
6695,,,survey-text,347,1761337,0.0-19.0-3.5,88767,List1B,white,woman,,,,,"{""Q0"":""jane and kate are hugging""}","<img src=""stim_listB/hug8.gif""</stim_listB>",are hugging each other,
null,"<div style=""font-size:60px;"">+</div>",,html-keyboard-response,348,1761844,0.0-19.0-0.6,88767,List1B,white,woman,,,,null,,,,
null,"<img src=""stim_listB/touch8.gif""</stim_listB>",,html-keyboard-response,349,1763857,0.0-19.0-1.6,88767,List1B,white,woman,,,,null,,,,
null,are touching each other,,html-keyboard-response,350,1765872,0.0-19.0-2.6,88767,List1B,white,woman,,,,null,,,,
11142,,,survey-text,351,1777017,0.0-19.0-3.6,88767,List1B,white,woman,,,,,"{""Q0"":""ruth and beth are toucing each other""}","<img src=""stim_listB/touch8.gif""</stim_listB>",are touching each other,
null,"<div style=""font-size:60px;"">+</div>",,html-keyboard-response,352,1777521,0.0-19.0-0.7,88767,List1B,white,woman,,,,null,,,,
null,"<img src=""stim_listB/argue4.gif""</stim_listB>",,html-keyboard-response,353,1779531,0.0-19.0-1.7,88767,List1B,white,woman,,,,null,,,,
null,are arguing with each other,,html-keyboard-response,354,1781546,0.0-19.0-2.7,88767,List1B,white,woman,,,,null,,,,
7971,,,survey-text,355,1789523,0.0-19.0-3.7,88767,List1B,white,woman,,,,,"{""Q0"":""luke and jane are argiung""}","<img src=""stim_listB/argue4.gif""</stim_listB>",are arguing with each other,
null,"<div style=""font-size:60px;"">+</div>",,html-keyboard-response,356,1790031,0.0-19.0-0.8,88767,List1B,white,woman,,,,null,,,,
null,"<img src=""stim_listB/touch1.gif""</stim_listB>",,html-keyboard-response,357,1792046,0.0-19.0-1.8,88767,List1B,white,woman,,,,null,,,,
null,is touching,,html-keyboard-response,358,1794059,0.0-19.0-2.8,88767,List1B,white,woman,,,,null,,,,
143458,,,survey-text,359,1937522,0.0-19.0-3.8,88767,List1B,white,woman,,,,,"{""Q0"":""kate is touching mike""}","<img src=""stim_listB/touch1.gif""</stim_listB>",is touching,
null,"<div style=""font-size:60px;"">+</div>",,html-keyboard-response,360,1938029,0.0-19.0-0.9,88767,List1B,white,woman,,,,null,,,,
null,"<img src=""stim_listB/talk2.gif""</stim_listB>",,html-keyboard-response,361,1940046,0.0-19.0-1.9,88767,List1B,white,woman,,,,null,,,,
null,are talking to each other,,html-keyboard-response,362,1942063,0.0-19.0-2.9,88767,List1B,white,woman,,,,null,,,,
6364,,,survey-text,363,1948430,0.0-19.0-3.9,88767,List1B,white,woman,,,,,"{""Q0"":""mike and beth are talking""}","<img src=""stim_listB/talk2.gif""</stim_listB>",are talking to each other,
null,"<div style=""font-size:60px;"">+</div>",,html-keyboard-response,364,1948951,0.0-19.0-0.10,88767,List1B,white,woman,,,,null,,,,
null,"<img src=""stim_listB/fight4.gif""</stim_listB>",,html-keyboard-response,365,1950965,0.0-19.0-1.10,88767,List1B,white,woman,,,,null,,,,
null,are fighting each other,,html-keyboard-response,366,1952972,0.0-19.0-2.10,88767,List1B,white,woman,,,,null,,,,
7588,,,survey-text,367,1960572,0.0-19.0-3.10,88767,List1B,white,woman,,,,,"{""Q0"":""luke and ruth are figting""}","<img src=""stim_listB/fight4.gif""</stim_listB>",are fighting each other,
null,"<div style=""font-size:60px;"">+</div>",,html-keyboard-response,368,1961092,0.0-19.0-0.11,88767,List1B,white,woman,,,,null,,,,
null,"<img src=""stim_listB/talk3.gif""</stim_listB>",,html-keyboard-response,369,1963105,0.0-19.0-1.11,88767,List1B,white,woman,,,,null,,,,
null,is talking to,,html-keyboard-response,370,1965122,0.0-19.0-2.11,88767,List1B,white,woman,,,,null,,,,
6538,,,survey-text,371,1971667,0.0-19.0-3.11,88767,List1B,white,woman,,,,,"{""Q0"":""luke is taking to jane""}","<img src=""stim_listB/talk3.gif""</stim_listB>",is talking to,
null,"<div style=""font-size:60px;"">+</div>",,html-keyboard-response,372,1972179,0.0-19.0-0.12,88767,List1B,white,woman,,,,null,,,,
null,"<img src=""stim_listB/kiss8.gif""</stim_listB>",,html-keyboard-response,373,1974183,0.0-19.0-1.12,88767,List1B,white,woman,,,,null,,,,
null,are kissing each other,,html-keyboard-response,374,1976200,0.0-19.0-2.12,88767,List1B,white,woman,,,,null,,,,
6764,,,survey-text,375,1982969,0.0-19.0-3.12,88767,List1B,white,woman,,,,,"{""Q0"":""jane and kate are kissing""}","<img src=""stim_listB/kiss8.gif""</stim_listB>",are kissing each other,
null,"<div style=""font-size:60px;"">+</div>",,html-keyboard-response,376,1983481,0.0-19.0-0.13,88767,List1B,white,woman,,,,null,,,,
null,"<img src=""stim_listB/argue5.gif""</stim_listB>",,html-keyboard-response,377,1985499,0.0-19.0-1.13,88767,List1B,white,woman,,,,null,,,,
null,is arguing with,,html-keyboard-response,378,1987514,0.0-19.0-2.13,88767,List1B,white,woman,,,,null,,,,
8018,,,survey-text,379,1995537,0.0-19.0-3.13,88767,List1B,white,woman,,,,,"{""Q0"":""mike is arguing with luke""}","<img src=""stim_listB/argue5.gif""</stim_listB>",is arguing with,
null,"<div style=""font-size:60px;"">+</div>",,html-keyboard-response,380,1996044,0.0-19.0-0.14,88767,List1B,white,woman,,,,null,,,,
null,"<img src=""stim_listB/marry6.gif""</stim_listB>",,html-keyboard-response,381,1998046,0.0-19.0-1.14,88767,List1B,white,woman,,,,null,,,,
null,are marrying each other,,html-keyboard-response,382,2000061,0.0-19.0-2.14,88767,List1B,white,woman,,,,null,,,,
7323,,,survey-text,383,2007386,0.0-19.0-3.14,88767,List1B,white,woman,,,,,"{""Q0"":""fred and dave are marrying""}","<img src=""stim_listB/marry6.gif""</stim_listB>",are marrying each other,
null,"<div style=""font-size:60px;"">+</div>",,html-keyboard-response,384,2007891,0.0-19.0-0.15,88767,List1B,white,woman,,,,null,,,,
null,"<img src=""stim_listB/kiss3.gif""</stim_listB>",,html-keyboard-response,385,2009900,0.0-19.0-1.15,88767,List1B,white,woman,,,,null,,,,
null,is kissing,,html-keyboard-response,386,2011917,0.0-19.0-2.15,88767,List1B,white,woman,,,,null,,,,
5957,,,survey-text,387,2017879,0.0-19.0-3.15,88767,List1B,white,woman,,,,,"{""Q0"":""luke is kissing ruth""}","<img src=""stim_listB/kiss3.gif""</stim_listB>",is kissing,
null,"<div style=""font-size:60px;"">+</div>",,html-keyboard-response,388,2018389,0.0-19.0-0.16,88767,List1B,white,woman,,,,null,,,,
null,"<img src=""stim_listB/marry4.gif""</stim_listB>",,html-keyboard-response,389,2020403,0.0-19.0-1.16,88767,List1B,white,woman,,,,null,,,,
null,are marrying each other,,html-keyboard-response,390,2022421,0.0-19.0-2.16,88767,List1B,white,woman,,,,null,,,,
12859,,,survey-text,391,2035287,0.0-19.0-3.16,88767,List1B,white,woman,,,,,"{""Q0"":""luke and jane are marrying each other""}","<img src=""stim_listB/marry4.gif""</stim_listB>",are marrying each other,
null,"<div style=""font-size:60px;"">+</div>",,html-keyboard-response,392,2035795,0.0-19.0-0.17,88767,List1B,white,woman,,,,null,,,,
null,"<img src=""stim_listB/shout7.gif""</stim_listB>",,html-keyboard-response,393,2037811,0.0-19.0-1.17,88767,List1B,white,woman,,,,null,,,,
null,is shouting at,,html-keyboard-response,394,2039815,0.0-19.0-2.17,88767,List1B,white,woman,,,,null,,,,
13308,,,survey-text,395,2053125,0.0-19.0-3.17,88767,List1B,white,woman,,,,,"{""Q0"":""ruth is shouting at beth""}","<img src=""stim_listB/shout7.gif""</stim_listB>",is shouting at,
null,"<div style=""font-size:60px;"">+</div>",,html-keyboard-response,396,2053640,0.0-19.0-0.18,88767,List1B,white,woman,,,,null,,,,
null,"<img src=""stim_listB/fight2.gif""</stim_listB>",,html-keyboard-response,397,2055656,0.0-19.0-1.18,88767,List1B,white,woman,,,,null,,,,
null,are fighting each other,,html-keyboard-response,398,2057668,0.0-19.0-2.18,88767,List1B,white,woman,,,,null,,,,
56223,,,survey-text,399,2113898,0.0-19.0-3.18,88767,List1B,white,woman,,,,,"{""Q0"":""beth and fred are fighting each other""}","<img src=""stim_listB/fight2.gif""</stim_listB>",are fighting each other,
null,"<div style=""font-size:60px;"">+</div>",,html-keyboard-response,400,2114403,0.0-19.0-0.19,88767,List1B,white,woman,,,,null,,,,
null,"<img src=""stim_listB/shout4.gif""</stim_listB>",,html-keyboard-response,401,2116418,0.0-19.0-1.19,88767,List1B,white,woman,,,,null,,,,
null,are shouting at each other,,html-keyboard-response,402,2118420,0.0-19.0-2.19,88767,List1B,white,woman,,,,null,,,,
10150,,,survey-text,403,2128573,0.0-19.0-3.19,88767,List1B,white,woman,,,,,"{""Q0"":""dave and jane shouting at each other""}","<img src=""stim_listB/shout4.gif""</stim_listB>",are shouting at each other,
2432,<p>Thank you for completing that task.</p><p>The final part of this session is a short questionnaire.</p><p>Press Continue.</p>,0,html-button-response,404,2131009,0.0-20.0,88767,List1B,white,woman,,,,,,,,
34640,,,survey-text,405,2166657,0.0-21.0,88767,List1B,white,woman,,,,,"{""Q0"":""55"",""Q1"":""english"",""Q2"":""english"",""Q3"":""britian"",""Q4"":""white"",""Q5"":""female""}",,,demographics
99656,,,survey-likert,406,2266329,0.0-22.0,88767,List1B,white,woman,,,,,"{""Q0"":5,""Q1"":5,""Q2"":5,""Q3"":5,""Q4"":5,""Q5"":5,""Q6"":5,""Q7"":5,""Q8"":5,""Q9"":5,""Q10"":5,""Q11"":3,""Q12"":3,""Q13"":3}",,,likert_race
89362,,,survey-likert,407,2355709,0.0-23.0,88767,List1B,white,woman,,,,,"{""Q0"":3,""Q1"":6,""Q2"":6,""Q3"":6,""Q4"":6,""Q5"":6,""Q6"":6,""Q7"":6,""Q8"":6,""Q9"":6,""Q10"":6,""Q11"":6,""Q12"":6,""Q13"":6}",,,likert_gender
4173,,,survey-text,408,2359889,0.0-24.0,88767,List1B,white,woman,,,,,"{""Q0"":""ccc""}",,,worker_id
2270,,,external-html,409,2362246,0.0-25.0,88767,List1B,white,woman,debrief.html,,,,,,,
