rt,stimulus,button_pressed,trial_type,trial_index,time_elapsed,internal_node_id,subject,list,ppt_race,ppt_gender,url,first_guess,correct,key_press,responses,image_type,phrase_type,test_part
1528,Welcome to the experiment. Press Continue to begin.,0,html-button-response,0,1535,0.0-0.0,92970,List2B,black,man,,,,,,,,
35401,,,external-html,1,37958,0.0-1.0,92970,List2B,black,man,consent.html,,,,,,,
110827,"<p>On the next page, you will see portraits of 8 people and their names.</p><p>Your first task is to take a few minutes to memorise the names of these people.</p><p>You will have to recall their names during the rest of the experiment, so it is</p><p>essential that you try to memorise these people and their names as best as you can.</p><br><p><strong>You will then be tested on your memory of these names and portraits.</strong></p><br><p>The experiment will start after you have completed this memory test.</p><br><p>Ready?</p>",0,html-button-response,2,148790,0.0-2.0,92970,List2B,black,man,,,,,,,,
73751,"<img src='img/portrait_matrix_list2.JPG' style='width:900px;height:500px;''></img><p>If you have memorised all the portraits and names and are ready to start, press Continue.</p><p><strong>Please note: Your memory of these faces will be tested 4 times during this experiment.</strong></p>",0,html-button-response,3,223548,0.0-3.0-0.0,92970,List2B,black,man,,,,,,,,
2833,"<img src=""portrait/BM2.jpg""style=""width:400px;height:400px;""></img>",5,html-button-response,4,227390,0.0-3.0-1.0,92970,List2B,black,man,,TRUE,5,,,,,
null,CORRECT,,html-keyboard-response,5,228916,0.0-3.0-2.0-0.0,92970,List2B,black,man,,,,null,,,,
2493,"<img src=""portrait/WW2.jpg""style=""width:400px;height:400px;""></img>",3,html-button-response,6,231414,0.0-3.0-4.0,92970,List2B,black,man,,TRUE,3,,,,,
null,CORRECT,,html-keyboard-response,7,232923,0.0-3.0-5.0-0.0,92970,List2B,black,man,,,,null,,,,
2222,"<img src=""portrait/WM2.jpg""style=""width:400px;height:400px;""></img>",7,html-button-response,8,235149,0.0-3.0-7.0,92970,List2B,black,man,,TRUE,7,,,,,
null,CORRECT,,html-keyboard-response,9,236658,0.0-3.0-8.0-0.0,92970,List2B,black,man,,,,null,,,,
2127,"<img src=""portrait/BW2.jpg""style=""width:400px;height:400px;""></img>",2,html-button-response,10,238790,0.0-3.0-10.0,92970,List2B,black,man,,TRUE,2,,,,,
null,CORRECT,,html-keyboard-response,11,240301,0.0-3.0-11.0-0.0,92970,List2B,black,man,,,,null,,,,
6157,"<img src=""portrait/WW1.jpg""style=""width:400px;height:400px;""></img>",1,html-button-response,12,246462,0.0-3.0-13.0,92970,List2B,black,man,,TRUE,1,,,,,
null,CORRECT,,html-keyboard-response,13,247973,0.0-3.0-14.0-0.0,92970,List2B,black,man,,,,null,,,,
3614,"<img src=""portrait/BW1.jpg""style=""width:400px;height:400px;""></img>",0,html-button-response,14,251591,0.0-3.0-16.0,92970,List2B,black,man,,TRUE,0,,,,,
null,CORRECT,,html-keyboard-response,15,253105,0.0-3.0-17.0-0.0,92970,List2B,black,man,,,,null,,,,
2145,"<img src=""portrait/WM1.jpg""style=""width:400px;height:400px;""></img>",6,html-button-response,16,255254,0.0-3.0-19.0,92970,List2B,black,man,,TRUE,6,,,,,
null,CORRECT,,html-keyboard-response,17,256767,0.0-3.0-20.0-0.0,92970,List2B,black,man,,,,null,,,,
4291,"<img src=""portrait/BM1.jpg""style=""width:400px;height:400px;""></img>",4,html-button-response,18,261062,0.0-3.0-22.0,92970,List2B,black,man,,TRUE,4,,,,,
null,CORRECT,,html-keyboard-response,19,262572,0.0-3.0-23.0-0.0,92970,List2B,black,man,,,,null,,,,
973,<p>You got 8 out of 8 right first time. Press Continue.</p>,0,html-button-response,20,263550,0.0-3.0-25.0,92970,List2B,black,man,,,,,,,,
75888,"<p>In this experiment, you will view photographs of the people from the memory game interacting.</p><p>By using the <strong>exact</strong> phrase given <i>after</i> the photograph appears and recalling the correct names of the people in the photographs, form a sentence describing the interaction. You do not need to capitalise names.</p><p>Type your answer in the space provided. Please complete every sentence before moving onto the next trial.</p><p>You will only have a few seconds to memorise each given photograph and phrase before you can respond, so try your best to focus.</p><p>An example is given below. Press 'Continue' when you are ready.</p><img src='img/speaking_example_v2.jpg' style='width:800px;height:460px;''></img>",0,html-button-response,21,340445,0.0-4.0,92970,List2B,black,man,,,,,,,,
2077,"<p>Before the experiment starts, you will watch two example trials. Press 'Continue'.</p>",0,html-button-response,22,343532,0.0-5.0,92970,List2B,black,man,,,,,,,,
null,<img src='img/speaking_WW.gif'></img>,,html-keyboard-response,23,346544,0.0-6.0,92970,List2B,black,man,,,,null,,,,
null,<p>is speaking to</p>,,html-keyboard-response,24,348550,0.0-7.0,92970,List2B,black,man,,,,null,,,,
1637,<p><b>Answer:</b> jane is speaking to ruth</p>,0,html-button-response,25,350189,0.0-8.0,92970,List2B,black,man,,,,,,,,
null,<img src='img/pointing_BM.gif'></img>,,html-keyboard-response,26,353200,0.0-9.0,92970,List2B,black,man,,,,null,,,,
null,<p>are pointing at each other</p>,,html-keyboard-response,27,355205,0.0-10.0,92970,List2B,black,man,,,,null,,,,
3197,<p><b>Answer:</b> fred and mike are pointing at each other</p>,0,html-button-response,28,358405,0.0-11.0,92970,List2B,black,man,,,,,,,,
6786,"<p>Ready to start the experiment?</p><br><p><strong>Remember to describe the picture using a full sentence,</strong></p><p><strong>that combines the names of the people with the given phrase.</strong></p><p><strong>If you do not do this correctly you will not be paid.</strong></p><p><strong> You do not need to capitalise names or use punctuation.</strong></p><br><p>Press 'Continue' to begin.</p>",0,html-button-response,29,366197,0.0-12.0,92970,List2B,black,man,,,,,,,,
null,"<div style=""font-size:60px;"">+</div>",,html-keyboard-response,30,367709,0.0-13.0-0.0,92970,List2B,black,man,,,,null,,,,
null,"<img src=""stim_listB/kiss5.gif""</stim_listB>",,html-keyboard-response,31,369715,0.0-13.0-1.0,92970,List2B,black,man,,,,null,,,,
null,is kissing,,html-keyboard-response,32,371720,0.0-13.0-2.0,92970,List2B,black,man,,,,null,,,,
21016,,,survey-text,33,392742,0.0-13.0-3.0,92970,List2B,black,man,,,,,"{""Q0"":""Luke is kissing Fred""}","<img src=""stim_listB/kiss5.gif""</stim_listB>",is kissing,
null,"<div style=""font-size:60px;"">+</div>",,html-keyboard-response,34,393262,0.0-13.0-0.1,92970,List2B,black,man,,,,null,,,,
null,"<img src=""stim_listB/dance3.gif""</stim_listB>",,html-keyboard-response,35,395266,0.0-13.0-1.1,92970,List2B,black,man,,,,null,,,,
null,is dancing with,,html-keyboard-response,36,397271,0.0-13.0-2.1,92970,List2B,black,man,,,,null,,,,
10554,,,survey-text,37,407829,0.0-13.0-3.1,92970,List2B,black,man,,,,,"{""Q0"":""Fred is dancing with Kate""}","<img src=""stim_listB/dance3.gif""</stim_listB>",is dancing with,
null,"<div style=""font-size:60px;"">+</div>",,html-keyboard-response,38,408337,0.0-13.0-0.2,92970,List2B,black,man,,,,null,,,,
null,"<img src=""stim_listB/kiss6.gif""</stim_listB>",,html-keyboard-response,39,410343,0.0-13.0-1.2,92970,List2B,black,man,,,,null,,,,
null,are kissing each other,,html-keyboard-response,40,412348,0.0-13.0-2.2,92970,List2B,black,man,,,,null,,,,
9013,,,survey-text,41,421364,0.0-13.0-3.2,92970,List2B,black,man,,,,,"{""Q0"":""dave and mike are kissing each other""}","<img src=""stim_listB/kiss6.gif""</stim_listB>",are kissing each other,
null,"<div style=""font-size:60px;"">+</div>",,html-keyboard-response,42,421870,0.0-13.0-0.3,92970,List2B,black,man,,,,null,,,,
null,"<img src=""stim_listB/touch4.gif""</stim_listB>",,html-keyboard-response,43,423875,0.0-13.0-1.3,92970,List2B,black,man,,,,null,,,,
null,are touching each other,,html-keyboard-response,44,425881,0.0-13.0-2.3,92970,List2B,black,man,,,,null,,,,
9264,,,survey-text,45,435148,0.0-13.0-3.3,92970,List2B,black,man,,,,,"{""Q0"":""beth and fred are touching each other""}","<img src=""stim_listB/touch4.gif""</stim_listB>",are touching each other,
null,"<div style=""font-size:60px;"">+</div>",,html-keyboard-response,46,435654,0.0-13.0-0.4,92970,List2B,black,man,,,,null,,,,
null,"<img src=""stim_listB/shout3.gif""</stim_listB>",,html-keyboard-response,47,437661,0.0-13.0-1.4,92970,List2B,black,man,,,,null,,,,
null,is shouting at,,html-keyboard-response,48,439666,0.0-13.0-2.4,92970,List2B,black,man,,,,null,,,,
6775,,,survey-text,49,446444,0.0-13.0-3.4,92970,List2B,black,man,,,,,"{""Q0"":""beth is shouting at fred""}","<img src=""stim_listB/shout3.gif""</stim_listB>",is shouting at,
null,"<div style=""font-size:60px;"">+</div>",,html-keyboard-response,50,446947,0.0-13.0-0.5,92970,List2B,black,man,,,,null,,,,
null,"<img src=""stim_listB/touch8.gif""</stim_listB>",,html-keyboard-response,51,448954,0.0-13.0-1.5,92970,List2B,black,man,,,,null,,,,
null,are touching each other,,html-keyboard-response,52,450957,0.0-13.0-2.5,92970,List2B,black,man,,,,null,,,,
15195,,,survey-text,53,466156,0.0-13.0-3.5,92970,List2B,black,man,,,,,"{""Q0"":""ruth and beth are touching each other""}","<img src=""stim_listB/touch8.gif""</stim_listB>",are touching each other,
null,"<div style=""font-size:60px;"">+</div>",,html-keyboard-response,54,466659,0.0-13.0-0.6,92970,List2B,black,man,,,,null,,,,
null,"<img src=""stim_listB/argue1.gif""</stim_listB>",,html-keyboard-response,55,468665,0.0-13.0-1.6,92970,List2B,black,man,,,,null,,,,
null,is arguing with,,html-keyboard-response,56,470667,0.0-13.0-2.6,92970,List2B,black,man,,,,null,,,,
6677,,,survey-text,57,477347,0.0-13.0-3.6,92970,List2B,black,man,,,,,"{""Q0"":""dave is arguing with ruth""}","<img src=""stim_listB/argue1.gif""</stim_listB>",is arguing with,
null,"<div style=""font-size:60px;"">+</div>",,html-keyboard-response,58,477851,0.0-13.0-0.7,92970,List2B,black,man,,,,null,,,,
null,"<img src=""stim_listB/marry7.gif""</stim_listB>",,html-keyboard-response,59,479857,0.0-13.0-1.7,92970,List2B,black,man,,,,null,,,,
null,is marrying,,html-keyboard-response,60,481860,0.0-13.0-2.7,92970,List2B,black,man,,,,null,,,,
6210,,,survey-text,61,488074,0.0-13.0-3.7,92970,List2B,black,man,,,,,"{""Q0"":""jane is marrying beth""}","<img src=""stim_listB/marry7.gif""</stim_listB>",is marrying,
null,"<div style=""font-size:60px;"">+</div>",,html-keyboard-response,62,488577,0.0-13.0-0.8,92970,List2B,black,man,,,,null,,,,
null,"<img src=""stim_listB/talk7.gif""</stim_listB>",,html-keyboard-response,63,490582,0.0-13.0-1.8,92970,List2B,black,man,,,,null,,,,
null,is talking to,,html-keyboard-response,64,492587,0.0-13.0-2.8,92970,List2B,black,man,,,,null,,,,
8012,,,survey-text,65,500603,0.0-13.0-3.8,92970,List2B,black,man,,,,,"{""Q0"":""ruth is talking to kate""}","<img src=""stim_listB/talk7.gif""</stim_listB>",is talking to,
null,"<div style=""font-size:60px;"">+</div>",,html-keyboard-response,66,501124,0.0-13.0-0.9,92970,List2B,black,man,,,,null,,,,
null,"<img src=""stim_listB/talk6.gif""</stim_listB>",,html-keyboard-response,67,503131,0.0-13.0-1.9,92970,List2B,black,man,,,,null,,,,
null,are talking to each other,,html-keyboard-response,68,505137,0.0-13.0-2.9,92970,List2B,black,man,,,,null,,,,
10733,,,survey-text,69,515874,0.0-13.0-3.9,92970,List2B,black,man,,,,,"{""Q0"":""dave and fred are taking to each other""}","<img src=""stim_listB/talk6.gif""</stim_listB>",are talking to each other,
null,"<div style=""font-size:60px;"">+</div>",,html-keyboard-response,70,516379,0.0-13.0-0.10,92970,List2B,black,man,,,,null,,,,
null,"<img src=""stim_listB/hug5.gif""</stim_listB>",,html-keyboard-response,71,518385,0.0-13.0-1.10,92970,List2B,black,man,,,,null,,,,
null,is hugging,,html-keyboard-response,72,520391,0.0-13.0-2.10,92970,List2B,black,man,,,,null,,,,
6944,,,survey-text,73,527338,0.0-13.0-3.10,92970,List2B,black,man,,,,,"{""Q0"":""luke is hugging fred""}","<img src=""stim_listB/hug5.gif""</stim_listB>",is hugging,
null,"<div style=""font-size:60px;"">+</div>",,html-keyboard-response,74,527844,0.0-13.0-0.11,92970,List2B,black,man,,,,null,,,,
null,"<img src=""stim_listB/fight6.gif""</stim_listB>",,html-keyboard-response,75,529851,0.0-13.0-1.11,92970,List2B,black,man,,,,null,,,,
null,are fighting each other,,html-keyboard-response,76,531855,0.0-13.0-2.11,92970,List2B,black,man,,,,null,,,,
10808,,,survey-text,77,542665,0.0-13.0-3.11,92970,List2B,black,man,,,,,"{""Q0"":""luke and fred are fighting each other""}","<img src=""stim_listB/fight6.gif""</stim_listB>",are fighting each other,
null,"<div style=""font-size:60px;"">+</div>",,html-keyboard-response,78,543171,0.0-13.0-0.12,92970,List2B,black,man,,,,null,,,,
null,"<img src=""stim_listB/marry3.gif""</stim_listB>",,html-keyboard-response,79,545175,0.0-13.0-1.12,92970,List2B,black,man,,,,null,,,,
null,is marrying,,html-keyboard-response,80,547182,0.0-13.0-2.12,92970,List2B,black,man,,,,null,,,,
5659,,,survey-text,81,552845,0.0-13.0-3.12,92970,List2B,black,man,,,,,"{""Q0"":""mike is marrying beth""}","<img src=""stim_listB/marry3.gif""</stim_listB>",is marrying,
null,"<div style=""font-size:60px;"">+</div>",,html-keyboard-response,82,553348,0.0-13.0-0.13,92970,List2B,black,man,,,,null,,,,
null,"<img src=""stim_listB/dance6.gif""</stim_listB>",,html-keyboard-response,83,555354,0.0-13.0-1.13,92970,List2B,black,man,,,,null,,,,
null,are dancing with each other,,html-keyboard-response,84,557357,0.0-13.0-2.13,92970,List2B,black,man,,,,null,,,,
12772,,,survey-text,85,570133,0.0-13.0-3.13,92970,List2B,black,man,,,,,"{""Q0"":""fred and dave are dancing with each other""}","<img src=""stim_listB/dance6.gif""</stim_listB>",are dancing with each other,
null,"<div style=""font-size:60px;"">+</div>",,html-keyboard-response,86,570636,0.0-13.0-0.14,92970,List2B,black,man,,,,null,,,,
null,"<img src=""stim_listB/touch1.gif""</stim_listB>",,html-keyboard-response,87,572643,0.0-13.0-1.14,92970,List2B,black,man,,,,null,,,,
null,is touching,,html-keyboard-response,88,574649,0.0-13.0-2.14,92970,List2B,black,man,,,,null,,,,
7064,,,survey-text,89,581717,0.0-13.0-3.14,92970,List2B,black,man,,,,,"{""Q0"":""dave and jane is touching""}","<img src=""stim_listB/touch1.gif""</stim_listB>",is touching,
null,"<div style=""font-size:60px;"">+</div>",,html-keyboard-response,90,582236,0.0-13.0-0.15,92970,List2B,black,man,,,,null,,,,
null,"<img src=""stim_listB/argue7.gif""</stim_listB>",,html-keyboard-response,91,584241,0.0-13.0-1.15,92970,List2B,black,man,,,,null,,,,
null,is arguing with,,html-keyboard-response,92,586247,0.0-13.0-2.15,92970,List2B,black,man,,,,null,,,,
13042,,,survey-text,93,599292,0.0-13.0-3.15,92970,List2B,black,man,,,,,"{""Q0"":""jane is arguing with beth""}","<img src=""stim_listB/argue7.gif""</stim_listB>",is arguing with,
null,"<div style=""font-size:60px;"">+</div>",,html-keyboard-response,94,599798,0.0-13.0-0.16,92970,List2B,black,man,,,,null,,,,
null,"<img src=""stim_listB/touch2.gif""</stim_listB>",,html-keyboard-response,95,601801,0.0-13.0-1.16,92970,List2B,black,man,,,,null,,,,
null,are touching each other,,html-keyboard-response,96,603804,0.0-13.0-2.16,92970,List2B,black,man,,,,null,,,,
14567,,,survey-text,97,618374,0.0-13.0-3.16,92970,List2B,black,man,,,,,"{""Q0"":""luke and ruth are touching each other""}","<img src=""stim_listB/touch2.gif""</stim_listB>",are touching each other,
null,"<div style=""font-size:60px;"">+</div>",,html-keyboard-response,98,618880,0.0-13.0-0.17,92970,List2B,black,man,,,,null,,,,
null,"<img src=""stim_listB/talk4.gif""</stim_listB>",,html-keyboard-response,99,620887,0.0-13.0-1.17,92970,List2B,black,man,,,,null,,,,
null,are talking to each other,,html-keyboard-response,100,622892,0.0-13.0-2.17,92970,List2B,black,man,,,,null,,,,
12497,,,survey-text,101,635392,0.0-13.0-3.17,92970,List2B,black,man,,,,,"{""Q0"":""beth and mike are talking to each other""}","<img src=""stim_listB/talk4.gif""</stim_listB>",are talking to each other,
null,"<div style=""font-size:60px;"">+</div>",,html-keyboard-response,102,635894,0.0-13.0-0.18,92970,List2B,black,man,,,,null,,,,
null,"<img src=""stim_listB/argue8.gif""</stim_listB>",,html-keyboard-response,103,637900,0.0-13.0-1.18,92970,List2B,black,man,,,,null,,,,
null,are arguing with each other,,html-keyboard-response,104,639902,0.0-13.0-2.18,92970,List2B,black,man,,,,null,,,,
12390,,,survey-text,105,652295,0.0-13.0-3.18,92970,List2B,black,man,,,,,"{""Q0"":""kate and ruth are arguing with each other""}","<img src=""stim_listB/argue8.gif""</stim_listB>",are arguing with each other,
null,"<div style=""font-size:60px;"">+</div>",,html-keyboard-response,106,652801,0.0-13.0-0.19,92970,List2B,black,man,,,,null,,,,
null,"<img src=""stim_listB/kiss8.gif""</stim_listB>",,html-keyboard-response,107,654805,0.0-13.0-1.19,92970,List2B,black,man,,,,null,,,,
null,are kissing each other,,html-keyboard-response,108,656810,0.0-13.0-2.19,92970,List2B,black,man,,,,null,,,,
8599,,,survey-text,109,665414,0.0-13.0-3.19,92970,List2B,black,man,,,,,"{""Q0"":""jane and kate are kissing each other""}","<img src=""stim_listB/kiss8.gif""</stim_listB>",are kissing each other,
14971,"<img src='img/portrait_matrix_list2.JPG' style='width:900px;height:500px;''></img><p>If you have memorised all the portraits and names and are ready to start, press Continue.</p><p><strong>Please note: Your memory of these faces will be tested 4 times during this experiment.</strong></p>",0,html-button-response,110,680389,0.0-14.0-0.0,92970,List2B,black,man,,,,,,,,
2569,"<img src=""portrait/WW1.jpg""style=""width:400px;height:400px;""></img>",1,html-button-response,111,683965,0.0-14.0-1.0,92970,List2B,black,man,,TRUE,1,,,,,
null,CORRECT,,html-keyboard-response,112,685475,0.0-14.0-2.0-0.0,92970,List2B,black,man,,,,null,,,,
2621,"<img src=""portrait/WW2.jpg""style=""width:400px;height:400px;""></img>",3,html-button-response,113,688102,0.0-14.0-4.0,92970,List2B,black,man,,TRUE,3,,,,,
null,CORRECT,,html-keyboard-response,114,689616,0.0-14.0-5.0-0.0,92970,List2B,black,man,,,,null,,,,
4657,"<img src=""portrait/BM2.jpg""style=""width:400px;height:400px;""></img>",5,html-button-response,115,694278,0.0-14.0-7.0,92970,List2B,black,man,,TRUE,5,,,,,
null,CORRECT,,html-keyboard-response,116,695788,0.0-14.0-8.0-0.0,92970,List2B,black,man,,,,null,,,,
10757,"<img src=""portrait/WM2.jpg""style=""width:400px;height:400px;""></img>",7,html-button-response,117,706550,0.0-14.0-10.0,92970,List2B,black,man,,TRUE,7,,,,,
null,CORRECT,,html-keyboard-response,118,708062,0.0-14.0-11.0-0.0,92970,List2B,black,man,,,,null,,,,
1732,"<img src=""portrait/BM1.jpg""style=""width:400px;height:400px;""></img>",4,html-button-response,119,709798,0.0-14.0-13.0,92970,List2B,black,man,,TRUE,4,,,,,
null,CORRECT,,html-keyboard-response,120,711310,0.0-14.0-14.0-0.0,92970,List2B,black,man,,,,null,,,,
2314,"<img src=""portrait/BW1.jpg""style=""width:400px;height:400px;""></img>",0,html-button-response,121,713628,0.0-14.0-16.0,92970,List2B,black,man,,TRUE,0,,,,,
null,CORRECT,,html-keyboard-response,122,715136,0.0-14.0-17.0-0.0,92970,List2B,black,man,,,,null,,,,
1905,"<img src=""portrait/WM1.jpg""style=""width:400px;height:400px;""></img>",6,html-button-response,123,717046,0.0-14.0-19.0,92970,List2B,black,man,,TRUE,6,,,,,
null,CORRECT,,html-keyboard-response,124,718554,0.0-14.0-20.0-0.0,92970,List2B,black,man,,,,null,,,,
1446,"<img src=""portrait/BW2.jpg""style=""width:400px;height:400px;""></img>",2,html-button-response,125,720006,0.0-14.0-22.0,92970,List2B,black,man,,TRUE,2,,,,,
null,CORRECT,,html-keyboard-response,126,721513,0.0-14.0-23.0-0.0,92970,List2B,black,man,,,,null,,,,
943,<p>You got 8 out of 8 right first time. Press Continue.</p>,0,html-button-response,127,722460,0.0-14.0-25.0,92970,List2B,black,man,,,,,,,,
null,"<div style=""font-size:60px;"">+</div>",,html-keyboard-response,128,723974,0.0-15.0-0.0,92970,List2B,black,man,,,,null,,,,
null,"<img src=""stim_listB/fight5.gif""</stim_listB>",,html-keyboard-response,129,725987,0.0-15.0-1.0,92970,List2B,black,man,,,,null,,,,
null,is fighting,,html-keyboard-response,130,727993,0.0-15.0-2.0,92970,List2B,black,man,,,,null,,,,
6417,,,survey-text,131,734413,0.0-15.0-3.0,92970,List2B,black,man,,,,,"{""Q0"":""dave is fighting mike""}","<img src=""stim_listB/fight5.gif""</stim_listB>",is fighting,
null,"<div style=""font-size:60px;"">+</div>",,html-keyboard-response,132,734916,0.0-15.0-0.1,92970,List2B,black,man,,,,null,,,,
null,"<img src=""stim_listB/argue6.gif""</stim_listB>",,html-keyboard-response,133,736921,0.0-15.0-1.1,92970,List2B,black,man,,,,null,,,,
null,are arguing with each other,,html-keyboard-response,134,738923,0.0-15.0-2.1,92970,List2B,black,man,,,,null,,,,
15806,,,survey-text,135,754732,0.0-15.0-3.1,92970,List2B,black,man,,,,,"{""Q0"":""mike and luke are arguing with each other""}","<img src=""stim_listB/argue6.gif""</stim_listB>",are arguing with each other,
null,"<div style=""font-size:60px;"">+</div>",,html-keyboard-response,136,755250,0.0-15.0-0.2,92970,List2B,black,man,,,,null,,,,
null,"<img src=""stim_listB/talk1.gif""</stim_listB>",,html-keyboard-response,137,757257,0.0-15.0-1.2,92970,List2B,black,man,,,,null,,,,
null,is talking to,,html-keyboard-response,138,759263,0.0-15.0-2.2,92970,List2B,black,man,,,,null,,,,
7649,,,survey-text,139,766916,0.0-15.0-3.2,92970,List2B,black,man,,,,,"{""Q0"":""jane is talking to luke""}","<img src=""stim_listB/talk1.gif""</stim_listB>",is talking to,
null,"<div style=""font-size:60px;"">+</div>",,html-keyboard-response,140,767421,0.0-15.0-0.3,92970,List2B,black,man,,,,null,,,,
null,"<img src=""stim_listB/argue3.gif""</stim_listB>",,html-keyboard-response,141,769428,0.0-15.0-1.3,92970,List2B,black,man,,,,null,,,,
null,is arguing with,,html-keyboard-response,142,771434,0.0-15.0-2.3,92970,List2B,black,man,,,,null,,,,
6979,,,survey-text,143,778422,0.0-15.0-3.3,92970,List2B,black,man,,,,,"{""Q0"":""mike is arguing with beth""}","<img src=""stim_listB/argue3.gif""</stim_listB>",is arguing with,
null,"<div style=""font-size:60px;"">+</div>",,html-keyboard-response,144,778925,0.0-15.0-0.4,92970,List2B,black,man,,,,null,,,,
null,"<img src=""stim_listB/meet2.gif""</stim_listB>",,html-keyboard-response,145,780931,0.0-15.0-1.4,92970,List2B,black,man,,,,null,,,,
null,are meeting each other,,html-keyboard-response,146,782935,0.0-15.0-2.4,92970,List2B,black,man,,,,null,,,,
8130,,,survey-text,147,791068,0.0-15.0-3.4,92970,List2B,black,man,,,,,"{""Q0"":""ruth and luke are meeting each other""}","<img src=""stim_listB/meet2.gif""</stim_listB>",are meeting each other,
null,"<div style=""font-size:60px;"">+</div>",,html-keyboard-response,148,791572,0.0-15.0-0.5,92970,List2B,black,man,,,,null,,,,
null,"<img src=""stim_listB/argue2.gif""</stim_listB>",,html-keyboard-response,149,793576,0.0-15.0-1.5,92970,List2B,black,man,,,,null,,,,
null,are arguing with each other,,html-keyboard-response,150,795581,0.0-15.0-2.5,92970,List2B,black,man,,,,null,,,,
13626,,,survey-text,151,809211,0.0-15.0-3.5,92970,List2B,black,man,,,,,"{""Q0"":""luke and jane are arguing with each other""}","<img src=""stim_listB/argue2.gif""</stim_listB>",are arguing with each other,
null,"<div style=""font-size:60px;"">+</div>",,html-keyboard-response,152,809717,0.0-15.0-0.6,92970,List2B,black,man,,,,null,,,,
null,"<img src=""stim_listB/touch6.gif""</stim_listB>",,html-keyboard-response,153,811724,0.0-15.0-1.6,92970,List2B,black,man,,,,null,,,,
null,are touching each other,,html-keyboard-response,154,813730,0.0-15.0-2.6,92970,List2B,black,man,,,,null,,,,
8150,,,survey-text,155,821883,0.0-15.0-3.6,92970,List2B,black,man,,,,,"{""Q0"":""luke and fred are touching each other""}","<img src=""stim_listB/touch6.gif""</stim_listB>",are touching each other,
null,"<div style=""font-size:60px;"">+</div>",,html-keyboard-response,156,822387,0.0-15.0-0.7,92970,List2B,black,man,,,,null,,,,
null,"<img src=""stim_listB/hug1.gif""</stim_listB>",,html-keyboard-response,157,824392,0.0-15.0-1.7,92970,List2B,black,man,,,,null,,,,
null,is hugging,,html-keyboard-response,158,826395,0.0-15.0-2.7,92970,List2B,black,man,,,,null,,,,
6645,,,survey-text,159,833042,0.0-15.0-3.7,92970,List2B,black,man,,,,,"{""Q0"":""luke is hugging ruth""}","<img src=""stim_listB/hug1.gif""</stim_listB>",is hugging,
null,"<div style=""font-size:60px;"">+</div>",,html-keyboard-response,160,833546,0.0-15.0-0.8,92970,List2B,black,man,,,,null,,,,
null,"<img src=""stim_listB/hug2.gif""</stim_listB>",,html-keyboard-response,161,835552,0.0-15.0-1.8,92970,List2B,black,man,,,,null,,,,
null,are hugging each other,,html-keyboard-response,162,837555,0.0-15.0-2.8,92970,List2B,black,man,,,,null,,,,
7613,,,survey-text,163,845171,0.0-15.0-3.8,92970,List2B,black,man,,,,,"{""Q0"":""jane and dave are hugging each other""}","<img src=""stim_listB/hug2.gif""</stim_listB>",are hugging each other,
null,"<div style=""font-size:60px;"">+</div>",,html-keyboard-response,164,845677,0.0-15.0-0.9,92970,List2B,black,man,,,,null,,,,
null,"<img src=""stim_listB/dance7.gif""</stim_listB>",,html-keyboard-response,165,847682,0.0-15.0-1.9,92970,List2B,black,man,,,,null,,,,
null,is dancing with,,html-keyboard-response,166,849688,0.0-15.0-2.9,92970,List2B,black,man,,,,null,,,,
6232,,,survey-text,167,855923,0.0-15.0-3.9,92970,List2B,black,man,,,,,"{""Q0"":""kate is dancing with ruth""}","<img src=""stim_listB/dance7.gif""</stim_listB>",is dancing with,
null,"<div style=""font-size:60px;"">+</div>",,html-keyboard-response,168,856428,0.0-15.0-0.10,92970,List2B,black,man,,,,null,,,,
null,"<img src=""stim_listB/fight8.gif""</stim_listB>",,html-keyboard-response,169,858434,0.0-15.0-1.10,92970,List2B,black,man,,,,null,,,,
null,are fighting each other,,html-keyboard-response,170,860439,0.0-15.0-2.10,92970,List2B,black,man,,,,null,,,,
11263,,,survey-text,171,871705,0.0-15.0-3.10,92970,List2B,black,man,,,,,"{""Q0"":""beth and ruth are fighting each other""}","<img src=""stim_listB/fight8.gif""</stim_listB>",are fighting each other,
null,"<div style=""font-size:60px;"">+</div>",,html-keyboard-response,172,872209,0.0-15.0-0.11,92970,List2B,black,man,,,,null,,,,
null,"<img src=""stim_listB/dance5.gif""</stim_listB>",,html-keyboard-response,173,874215,0.0-15.0-1.11,92970,List2B,black,man,,,,null,,,,
null,is dancing with,,html-keyboard-response,174,876219,0.0-15.0-2.11,92970,List2B,black,man,,,,null,,,,
9269,,,survey-text,175,885490,0.0-15.0-3.11,92970,List2B,black,man,,,,,"{""Q0"":""luke is dancing with mike""}","<img src=""stim_listB/dance5.gif""</stim_listB>",is dancing with,
null,"<div style=""font-size:60px;"">+</div>",,html-keyboard-response,176,885994,0.0-15.0-0.12,92970,List2B,black,man,,,,null,,,,
null,"<img src=""stim_listB/fight2.gif""</stim_listB>",,html-keyboard-response,177,888000,0.0-15.0-1.12,92970,List2B,black,man,,,,null,,,,
null,are fighting each other,,html-keyboard-response,178,890003,0.0-15.0-2.12,92970,List2B,black,man,,,,null,,,,
8340,,,survey-text,179,898346,0.0-15.0-3.12,92970,List2B,black,man,,,,,"{""Q0"":""luke and ruth are fighting each other""}","<img src=""stim_listB/fight2.gif""</stim_listB>",are fighting each other,
null,"<div style=""font-size:60px;"">+</div>",,html-keyboard-response,180,898850,0.0-15.0-0.13,92970,List2B,black,man,,,,null,,,,
null,"<img src=""stim_listB/marry5.gif""</stim_listB>",,html-keyboard-response,181,900856,0.0-15.0-1.13,92970,List2B,black,man,,,,null,,,,
null,is marrying,,html-keyboard-response,182,902862,0.0-15.0-2.13,92970,List2B,black,man,,,,null,,,,
8617,,,survey-text,183,911482,0.0-15.0-3.13,92970,List2B,black,man,,,,,"{""Q0"":""fred is marrying dave""}","<img src=""stim_listB/marry5.gif""</stim_listB>",is marrying,
null,"<div style=""font-size:60px;"">+</div>",,html-keyboard-response,184,911987,0.0-15.0-0.14,92970,List2B,black,man,,,,null,,,,
null,"<img src=""stim_listB/argue5.gif""</stim_listB>",,html-keyboard-response,185,913993,0.0-15.0-1.14,92970,List2B,black,man,,,,null,,,,
null,is arguing with,,html-keyboard-response,186,915999,0.0-15.0-2.14,92970,List2B,black,man,,,,null,,,,
6450,,,survey-text,187,922452,0.0-15.0-3.14,92970,List2B,black,man,,,,,"{""Q0"":""fred is arguing with dave""}","<img src=""stim_listB/argue5.gif""</stim_listB>",is arguing with,
null,"<div style=""font-size:60px;"">+</div>",,html-keyboard-response,188,922959,0.0-15.0-0.15,92970,List2B,black,man,,,,null,,,,
null,"<img src=""stim_listB/marry4.gif""</stim_listB>",,html-keyboard-response,189,924965,0.0-15.0-1.15,92970,List2B,black,man,,,,null,,,,
null,are marrying each other,,html-keyboard-response,190,926968,0.0-15.0-2.15,92970,List2B,black,man,,,,null,,,,
8330,,,survey-text,191,935301,0.0-15.0-3.15,92970,List2B,black,man,,,,,"{""Q0"":""fred and kate are marrying each other""}","<img src=""stim_listB/marry4.gif""</stim_listB>",are marrying each other,
null,"<div style=""font-size:60px;"">+</div>",,html-keyboard-response,192,935808,0.0-15.0-0.16,92970,List2B,black,man,,,,null,,,,
null,"<img src=""stim_listB/meet5.gif""</stim_listB>",,html-keyboard-response,193,937811,0.0-15.0-1.16,92970,List2B,black,man,,,,null,,,,
null,is meeting,,html-keyboard-response,194,939816,0.0-15.0-2.16,92970,List2B,black,man,,,,null,,,,
5257,,,survey-text,195,945076,0.0-15.0-3.16,92970,List2B,black,man,,,,,"{""Q0"":""mike is meeting dave""}","<img src=""stim_listB/meet5.gif""</stim_listB>",is meeting,
null,"<div style=""font-size:60px;"">+</div>",,html-keyboard-response,196,945584,0.0-15.0-0.17,92970,List2B,black,man,,,,null,,,,
null,"<img src=""stim_listB/meet6.gif""</stim_listB>",,html-keyboard-response,197,947591,0.0-15.0-1.17,92970,List2B,black,man,,,,null,,,,
null,are meeting each other,,html-keyboard-response,198,949596,0.0-15.0-2.17,92970,List2B,black,man,,,,null,,,,
8085,,,survey-text,199,957684,0.0-15.0-3.17,92970,List2B,black,man,,,,,"{""Q0"":""luke and fred are meeting each other""}","<img src=""stim_listB/meet6.gif""</stim_listB>",are meeting each other,
null,"<div style=""font-size:60px;"">+</div>",,html-keyboard-response,200,958204,0.0-15.0-0.18,92970,List2B,black,man,,,,null,,,,
null,"<img src=""stim_listB/hug3.gif""</stim_listB>",,html-keyboard-response,201,960209,0.0-15.0-1.18,92970,List2B,black,man,,,,null,,,,
null,is hugging,,html-keyboard-response,202,962213,0.0-15.0-2.18,92970,List2B,black,man,,,,null,,,,
6177,,,survey-text,203,968393,0.0-15.0-3.18,92970,List2B,black,man,,,,,"{""Q0"":""fred is hugging beth""}","<img src=""stim_listB/hug3.gif""</stim_listB>",is hugging,
null,"<div style=""font-size:60px;"">+</div>",,html-keyboard-response,204,968898,0.0-15.0-0.19,92970,List2B,black,man,,,,null,,,,
null,"<img src=""stim_listB/touch3.gif""</stim_listB>",,html-keyboard-response,205,970906,0.0-15.0-1.19,92970,List2B,black,man,,,,null,,,,
null,is touching,,html-keyboard-response,206,972915,0.0-15.0-2.19,92970,List2B,black,man,,,,null,,,,
5695,,,survey-text,207,978612,0.0-15.0-3.19,92970,List2B,black,man,,,,,"{""Q0"":""kate is touching mike""}","<img src=""stim_listB/touch3.gif""</stim_listB>",is touching,
2201,"<img src='img/portrait_matrix_list2.JPG' style='width:900px;height:500px;''></img><p>If you have memorised all the portraits and names and are ready to start, press Continue.</p><p><strong>Please note: Your memory of these faces will be tested 4 times during this experiment.</strong></p>",0,html-button-response,208,980816,0.0-16.0-0.0,92970,List2B,black,man,,,,,,,,
2570,"<img src=""portrait/BW2.jpg""style=""width:400px;height:400px;""></img>",2,html-button-response,209,984394,0.0-16.0-1.0,92970,List2B,black,man,,TRUE,2,,,,,
null,CORRECT,,html-keyboard-response,210,985898,0.0-16.0-2.0-0.0,92970,List2B,black,man,,,,null,,,,
1396,"<img src=""portrait/BM1.jpg""style=""width:400px;height:400px;""></img>",4,html-button-response,211,987298,0.0-16.0-4.0,92970,List2B,black,man,,TRUE,4,,,,,
null,CORRECT,,html-keyboard-response,212,988806,0.0-16.0-5.0-0.0,92970,List2B,black,man,,,,null,,,,
1248,"<img src=""portrait/WW2.jpg""style=""width:400px;height:400px;""></img>",3,html-button-response,213,990059,0.0-16.0-7.0,92970,List2B,black,man,,TRUE,3,,,,,
null,CORRECT,,html-keyboard-response,214,991568,0.0-16.0-8.0-0.0,92970,List2B,black,man,,,,null,,,,
1213,"<img src=""portrait/BM2.jpg""style=""width:400px;height:400px;""></img>",5,html-button-response,215,992786,0.0-16.0-10.0,92970,List2B,black,man,,TRUE,5,,,,,
null,CORRECT,,html-keyboard-response,216,994295,0.0-16.0-11.0-0.0,92970,List2B,black,man,,,,null,,,,
1941,"<img src=""portrait/BW1.jpg""style=""width:400px;height:400px;""></img>",0,html-button-response,217,996240,0.0-16.0-13.0,92970,List2B,black,man,,TRUE,0,,,,,
null,CORRECT,,html-keyboard-response,218,997748,0.0-16.0-14.0-0.0,92970,List2B,black,man,,,,null,,,,
2393,"<img src=""portrait/WW1.jpg""style=""width:400px;height:400px;""></img>",1,html-button-response,219,1000146,0.0-16.0-16.0,92970,List2B,black,man,,TRUE,1,,,,,
null,CORRECT,,html-keyboard-response,220,1001657,0.0-16.0-17.0-0.0,92970,List2B,black,man,,,,null,,,,
2949,"<img src=""portrait/WM2.jpg""style=""width:400px;height:400px;""></img>",7,html-button-response,221,1004610,0.0-16.0-19.0,92970,List2B,black,man,,TRUE,7,,,,,
null,CORRECT,,html-keyboard-response,222,1006124,0.0-16.0-20.0-0.0,92970,List2B,black,man,,,,null,,,,
2577,"<img src=""portrait/WM1.jpg""style=""width:400px;height:400px;""></img>",6,html-button-response,223,1008706,0.0-16.0-22.0,92970,List2B,black,man,,TRUE,6,,,,,
null,CORRECT,,html-keyboard-response,224,1010216,0.0-16.0-23.0-0.0,92970,List2B,black,man,,,,null,,,,
1453,<p>You got 8 out of 8 right first time. Press Continue.</p>,0,html-button-response,225,1011674,0.0-16.0-25.0,92970,List2B,black,man,,,,,,,,
null,"<div style=""font-size:60px;"">+</div>",,html-keyboard-response,226,1013189,0.0-17.0-0.0,92970,List2B,black,man,,,,null,,,,
null,"<img src=""stim_listB/shout1.gif""</stim_listB>",,html-keyboard-response,227,1015196,0.0-17.0-1.0,92970,List2B,black,man,,,,null,,,,
null,is shouting at,,html-keyboard-response,228,1017198,0.0-17.0-2.0,92970,List2B,black,man,,,,null,,,,
6952,,,survey-text,229,1024153,0.0-17.0-3.0,92970,List2B,black,man,,,,,"{""Q0"":""luke is shouting at ruth""}","<img src=""stim_listB/shout1.gif""</stim_listB>",is shouting at,
null,"<div style=""font-size:60px;"">+</div>",,html-keyboard-response,230,1024659,0.0-17.0-0.1,92970,List2B,black,man,,,,null,,,,
null,"<img src=""stim_listB/talk8.gif""</stim_listB>",,html-keyboard-response,231,1026666,0.0-17.0-1.1,92970,List2B,black,man,,,,null,,,,
null,are talking to each other,,html-keyboard-response,232,1028672,0.0-17.0-2.1,92970,List2B,black,man,,,,null,,,,
8478,,,survey-text,233,1037153,0.0-17.0-3.1,92970,List2B,black,man,,,,,"{""Q0"":""jane and beth are talking to each other""}","<img src=""stim_listB/talk8.gif""</stim_listB>",are talking to each other,
null,"<div style=""font-size:60px;"">+</div>",,html-keyboard-response,234,1037661,0.0-17.0-0.2,92970,List2B,black,man,,,,null,,,,
null,"<img src=""stim_listB/kiss3.gif""</stim_listB>",,html-keyboard-response,235,1039665,0.0-17.0-1.2,92970,List2B,black,man,,,,null,,,,
null,is kissing,,html-keyboard-response,236,1041673,0.0-17.0-2.2,92970,List2B,black,man,,,,null,,,,
6816,,,survey-text,237,1048491,0.0-17.0-3.2,92970,List2B,black,man,,,,,"{""Q0"":""fred is kissing beth""}","<img src=""stim_listB/kiss3.gif""</stim_listB>",is kissing,
null,"<div style=""font-size:60px;"">+</div>",,html-keyboard-response,238,1048999,0.0-17.0-0.3,92970,List2B,black,man,,,,null,,,,
null,"<img src=""stim_listB/touch5.gif""</stim_listB>",,html-keyboard-response,239,1051007,0.0-17.0-1.3,92970,List2B,black,man,,,,null,,,,
null,is touching,,html-keyboard-response,240,1053012,0.0-17.0-2.3,92970,List2B,black,man,,,,null,,,,
7891,,,survey-text,241,1060906,0.0-17.0-3.3,92970,List2B,black,man,,,,,"{""Q0"":""mike is touching dave""}","<img src=""stim_listB/touch5.gif""</stim_listB>",is touching,
null,"<div style=""font-size:60px;"">+</div>",,html-keyboard-response,242,1061421,0.0-17.0-0.4,92970,List2B,black,man,,,,null,,,,
null,"<img src=""stim_listB/fight7.gif""</stim_listB>",,html-keyboard-response,243,1063427,0.0-17.0-1.4,92970,List2B,black,man,,,,null,,,,
null,is fighting,,html-keyboard-response,244,1065430,0.0-17.0-2.4,92970,List2B,black,man,,,,null,,,,
8087,,,survey-text,245,1073523,0.0-17.0-3.4,92970,List2B,black,man,,,,,"{""Q0"":""kate is fighting jane""}","<img src=""stim_listB/fight7.gif""</stim_listB>",is fighting,
null,"<div style=""font-size:60px;"">+</div>",,html-keyboard-response,246,1074030,0.0-17.0-0.5,92970,List2B,black,man,,,,null,,,,
null,"<img src=""stim_listB/argue4.gif""</stim_listB>",,html-keyboard-response,247,1076038,0.0-17.0-1.5,92970,List2B,black,man,,,,null,,,,
null,are arguing with each other,,html-keyboard-response,248,1078040,0.0-17.0-2.5,92970,List2B,black,man,,,,null,,,,
9177,,,survey-text,249,1087221,0.0-17.0-3.5,92970,List2B,black,man,,,,,"{""Q0"":""fred and kate are arguing with each other""}","<img src=""stim_listB/argue4.gif""</stim_listB>",are arguing with each other,
null,"<div style=""font-size:60px;"">+</div>",,html-keyboard-response,250,1087727,0.0-17.0-0.6,92970,List2B,black,man,,,,null,,,,
null,"<img src=""stim_listB/shout7.gif""</stim_listB>",,html-keyboard-response,251,1089731,0.0-17.0-1.6,92970,List2B,black,man,,,,null,,,,
null,is shouting at,,html-keyboard-response,252,1091736,0.0-17.0-2.6,92970,List2B,black,man,,,,null,,,,
7432,,,survey-text,253,1099171,0.0-17.0-3.6,92970,List2B,black,man,,,,,"{""Q0"":""beth is shouting at ruth""}","<img src=""stim_listB/shout7.gif""</stim_listB>",is shouting at,
null,"<div style=""font-size:60px;"">+</div>",,html-keyboard-response,254,1099677,0.0-17.0-0.7,92970,List2B,black,man,,,,null,,,,
null,"<img src=""stim_listB/kiss2.gif""</stim_listB>",,html-keyboard-response,255,1101684,0.0-17.0-1.7,92970,List2B,black,man,,,,null,,,,
null,are kissing each other,,html-keyboard-response,256,1103687,0.0-17.0-2.7,92970,List2B,black,man,,,,null,,,,
14256,,,survey-text,257,1117947,0.0-17.0-3.7,92970,List2B,black,man,,,,,"{""Q0"":""jane and dave are kissing each other""}","<img src=""stim_listB/kiss2.gif""</stim_listB>",are kissing each other,
null,"<div style=""font-size:60px;"">+</div>",,html-keyboard-response,258,1118455,0.0-17.0-0.8,92970,List2B,black,man,,,,null,,,,
null,"<img src=""stim_listB/shout8.gif""</stim_listB>",,html-keyboard-response,259,1120461,0.0-17.0-1.8,92970,List2B,black,man,,,,null,,,,
null,are shouting at each other,,html-keyboard-response,260,1122467,0.0-17.0-2.8,92970,List2B,black,man,,,,null,,,,
11293,,,survey-text,261,1133763,0.0-17.0-3.8,92970,List2B,black,man,,,,,"{""Q0"":""kate and jane are shouting at each other""}","<img src=""stim_listB/shout8.gif""</stim_listB>",are shouting at each other,
null,"<div style=""font-size:60px;"">+</div>",,html-keyboard-response,262,1134269,0.0-17.0-0.9,92970,List2B,black,man,,,,null,,,,
null,"<img src=""stim_listB/dance8.gif""</stim_listB>",,html-keyboard-response,263,1136275,0.0-17.0-1.9,92970,List2B,black,man,,,,null,,,,
null,are dancing with each other,,html-keyboard-response,264,1138279,0.0-17.0-2.9,92970,List2B,black,man,,,,null,,,,
9847,,,survey-text,265,1148129,0.0-17.0-3.9,92970,List2B,black,man,,,,,"{""Q0"":""jane and beth are dancing with each other""}","<img src=""stim_listB/dance8.gif""</stim_listB>",are dancing with each other,
null,"<div style=""font-size:60px;"">+</div>",,html-keyboard-response,266,1148634,0.0-17.0-0.10,92970,List2B,black,man,,,,null,,,,
null,"<img src=""stim_listB/shout4.gif""</stim_listB>",,html-keyboard-response,267,1150640,0.0-17.0-1.10,92970,List2B,black,man,,,,null,,,,
null,are shouting at each other,,html-keyboard-response,268,1152643,0.0-17.0-2.10,92970,List2B,black,man,,,,null,,,,
11755,,,survey-text,269,1164401,0.0-17.0-3.10,92970,List2B,black,man,,,,,"{""Q0"":""mike and kate are shouting at each other""}","<img src=""stim_listB/shout4.gif""</stim_listB>",are shouting at each other,
null,"<div style=""font-size:60px;"">+</div>",,html-keyboard-response,270,1164903,0.0-17.0-0.11,92970,List2B,black,man,,,,null,,,,
null,"<img src=""stim_listB/touch7.gif""</stim_listB>",,html-keyboard-response,271,1166911,0.0-17.0-1.11,92970,List2B,black,man,,,,null,,,,
null,is touching,,html-keyboard-response,272,1168916,0.0-17.0-2.11,92970,List2B,black,man,,,,null,,,,
7730,,,survey-text,273,1176649,0.0-17.0-3.11,92970,List2B,black,man,,,,,"{""Q0"":""kate is touching jane""}","<img src=""stim_listB/touch7.gif""</stim_listB>",is touching,
null,"<div style=""font-size:60px;"">+</div>",,html-keyboard-response,274,1177168,0.0-17.0-0.12,92970,List2B,black,man,,,,null,,,,
null,"<img src=""stim_listB/dance1.gif""</stim_listB>",,html-keyboard-response,275,1179173,0.0-17.0-1.12,92970,List2B,black,man,,,,null,,,,
null,is dancing with,,html-keyboard-response,276,1181178,0.0-17.0-2.12,92970,List2B,black,man,,,,null,,,,
10587,,,survey-text,277,1191769,0.0-17.0-3.12,92970,List2B,black,man,,,,,"{""Q0"":""jane is dancing with luke""}","<img src=""stim_listB/dance1.gif""</stim_listB>",is dancing with,
null,"<div style=""font-size:60px;"">+</div>",,html-keyboard-response,278,1192276,0.0-17.0-0.13,92970,List2B,black,man,,,,null,,,,
null,"<img src=""stim_listB/meet1.gif""</stim_listB>",,html-keyboard-response,279,1194281,0.0-17.0-1.13,92970,List2B,black,man,,,,null,,,,
null,is meeting,,html-keyboard-response,280,1196286,0.0-17.0-2.13,92970,List2B,black,man,,,,null,,,,
5408,,,survey-text,281,1201698,0.0-17.0-3.13,92970,List2B,black,man,,,,,"{""Q0"":""dave is meeting jane""}","<img src=""stim_listB/meet1.gif""</stim_listB>",is meeting,
null,"<div style=""font-size:60px;"">+</div>",,html-keyboard-response,282,1202207,0.0-17.0-0.14,92970,List2B,black,man,,,,null,,,,
null,"<img src=""stim_listB/marry6.gif""</stim_listB>",,html-keyboard-response,283,1204213,0.0-17.0-1.14,92970,List2B,black,man,,,,null,,,,
null,are marrying each other,,html-keyboard-response,284,1206217,0.0-17.0-2.14,92970,List2B,black,man,,,,null,,,,
9364,,,survey-text,285,1215584,0.0-17.0-3.14,92970,List2B,black,man,,,,,"{""Q0"":""mike and luke are marrying each other""}","<img src=""stim_listB/marry6.gif""</stim_listB>",are marrying each other,
null,"<div style=""font-size:60px;"">+</div>",,html-keyboard-response,286,1216094,0.0-17.0-0.15,92970,List2B,black,man,,,,null,,,,
null,"<img src=""stim_listB/dance2.gif""</stim_listB>",,html-keyboard-response,287,1218099,0.0-17.0-1.15,92970,List2B,black,man,,,,null,,,,
null,are dancing with each other,,html-keyboard-response,288,1220102,0.0-17.0-2.15,92970,List2B,black,man,,,,null,,,,
11323,,,survey-text,289,1231428,0.0-17.0-3.15,92970,List2B,black,man,,,,,"{""Q0"":""dave and ruth are dancing with each other""}","<img src=""stim_listB/dance2.gif""</stim_listB>",are dancing with each other,
null,"<div style=""font-size:60px;"">+</div>",,html-keyboard-response,290,1231934,0.0-17.0-0.16,92970,List2B,black,man,,,,null,,,,
null,"<img src=""stim_listB/kiss1.gif""</stim_listB>",,html-keyboard-response,291,1233938,0.0-17.0-1.16,92970,List2B,black,man,,,,null,,,,
null,is kissing,,html-keyboard-response,292,1235944,0.0-17.0-2.16,92970,List2B,black,man,,,,null,,,,
6006,,,survey-text,293,1241955,0.0-17.0-3.16,92970,List2B,black,man,,,,,"{""Q0"":""ruth is kissing luke""}","<img src=""stim_listB/kiss1.gif""</stim_listB>",is kissing,
null,"<div style=""font-size:60px;"">+</div>",,html-keyboard-response,294,1242461,0.0-17.0-0.17,92970,List2B,black,man,,,,null,,,,
null,"<img src=""stim_listB/shout5.gif""</stim_listB>",,html-keyboard-response,295,1244467,0.0-17.0-1.17,92970,List2B,black,man,,,,null,,,,
null,is shouting at,,html-keyboard-response,296,1246472,0.0-17.0-2.17,92970,List2B,black,man,,,,null,,,,
9152,,,survey-text,297,1255627,0.0-17.0-3.17,92970,List2B,black,man,,,,,"{""Q0"":""fred is shouting at luke""}","<img src=""stim_listB/shout5.gif""</stim_listB>",is shouting at,
null,"<div style=""font-size:60px;"">+</div>",,html-keyboard-response,298,1256142,0.0-17.0-0.18,92970,List2B,black,man,,,,null,,,,
null,"<img src=""stim_listB/hug7.gif""</stim_listB>",,html-keyboard-response,299,1258148,0.0-17.0-1.18,92970,List2B,black,man,,,,null,,,,
null,is hugging,,html-keyboard-response,300,1260150,0.0-17.0-2.18,92970,List2B,black,man,,,,null,,,,
5786,,,survey-text,301,1265939,0.0-17.0-3.18,92970,List2B,black,man,,,,,"{""Q0"":""beth is hugging ruth""}","<img src=""stim_listB/hug7.gif""</stim_listB>",is hugging,
null,"<div style=""font-size:60px;"">+</div>",,html-keyboard-response,302,1266480,0.0-17.0-0.19,92970,List2B,black,man,,,,null,,,,
null,"<img src=""stim_listB/hug6.gif""</stim_listB>",,html-keyboard-response,303,1268486,0.0-17.0-1.19,92970,List2B,black,man,,,,null,,,,
null,are hugging each other,,html-keyboard-response,304,1270489,0.0-17.0-2.19,92970,List2B,black,man,,,,null,,,,
8048,,,survey-text,305,1278540,0.0-17.0-3.19,92970,List2B,black,man,,,,,"{""Q0"":""dave and mike are hugging each other""}","<img src=""stim_listB/hug6.gif""</stim_listB>",are hugging each other,
3604,"<img src='img/portrait_matrix_list2.JPG' style='width:900px;height:500px;''></img><p>If you have memorised all the portraits and names and are ready to start, press Continue.</p><p><strong>Please note: Your memory of these faces will be tested 4 times during this experiment.</strong></p>",0,html-button-response,306,1282148,0.0-18.0-0.0,92970,List2B,black,man,,,,,,,,
1467,"<img src=""portrait/WM1.jpg""style=""width:400px;height:400px;""></img>",6,html-button-response,307,1284625,0.0-18.0-1.0,92970,List2B,black,man,,TRUE,6,,,,,
null,CORRECT,,html-keyboard-response,308,1286139,0.0-18.0-2.0-0.0,92970,List2B,black,man,,,,null,,,,
1834,"<img src=""portrait/WM2.jpg""style=""width:400px;height:400px;""></img>",7,html-button-response,309,1287979,0.0-18.0-4.0,92970,List2B,black,man,,TRUE,7,,,,,
null,CORRECT,,html-keyboard-response,310,1289490,0.0-18.0-5.0-0.0,92970,List2B,black,man,,,,null,,,,
1434,"<img src=""portrait/BM2.jpg""style=""width:400px;height:400px;""></img>",5,html-button-response,311,1290931,0.0-18.0-7.0,92970,List2B,black,man,,TRUE,5,,,,,
null,CORRECT,,html-keyboard-response,312,1292442,0.0-18.0-8.0-0.0,92970,List2B,black,man,,,,null,,,,
946,"<img src=""portrait/BM1.jpg""style=""width:400px;height:400px;""></img>",4,html-button-response,313,1293393,0.0-18.0-10.0,92970,List2B,black,man,,TRUE,4,,,,,
null,CORRECT,,html-keyboard-response,314,1294903,0.0-18.0-11.0-0.0,92970,List2B,black,man,,,,null,,,,
2502,"<img src=""portrait/WW1.jpg""style=""width:400px;height:400px;""></img>",1,html-button-response,315,1297410,0.0-18.0-13.0,92970,List2B,black,man,,TRUE,1,,,,,
null,CORRECT,,html-keyboard-response,316,1298918,0.0-18.0-14.0-0.0,92970,List2B,black,man,,,,null,,,,
1223,"<img src=""portrait/BW1.jpg""style=""width:400px;height:400px;""></img>",0,html-button-response,317,1300146,0.0-18.0-16.0,92970,List2B,black,man,,TRUE,0,,,,,
null,CORRECT,,html-keyboard-response,318,1301662,0.0-18.0-17.0-0.0,92970,List2B,black,man,,,,null,,,,
1216,"<img src=""portrait/BW2.jpg""style=""width:400px;height:400px;""></img>",2,html-button-response,319,1302883,0.0-18.0-19.0,92970,List2B,black,man,,TRUE,2,,,,,
null,CORRECT,,html-keyboard-response,320,1304407,0.0-18.0-20.0-0.0,92970,List2B,black,man,,,,null,,,,
1575,"<img src=""portrait/WW2.jpg""style=""width:400px;height:400px;""></img>",3,html-button-response,321,1305987,0.0-18.0-22.0,92970,List2B,black,man,,TRUE,3,,,,,
null,CORRECT,,html-keyboard-response,322,1307498,0.0-18.0-23.0-0.0,92970,List2B,black,man,,,,null,,,,
1475,<p>You got 8 out of 8 right first time. Press Continue.</p>,0,html-button-response,323,1308977,0.0-18.0-25.0,92970,List2B,black,man,,,,,,,,
null,"<div style=""font-size:60px;"">+</div>",,html-keyboard-response,324,1310493,0.0-19.0-0.0,92970,List2B,black,man,,,,null,,,,
null,"<img src=""stim_listB/kiss4.gif""</stim_listB>",,html-keyboard-response,325,1312500,0.0-19.0-1.0,92970,List2B,black,man,,,,null,,,,
null,are kissing each other,,html-keyboard-response,326,1314503,0.0-19.0-2.0,92970,List2B,black,man,,,,null,,,,
9776,,,survey-text,327,1324282,0.0-19.0-3.0,92970,List2B,black,man,,,,,"{""Q0"":""mike and kate are kissing each other""}","<img src=""stim_listB/kiss4.gif""</stim_listB>",are kissing each other,
null,"<div style=""font-size:60px;"">+</div>",,html-keyboard-response,328,1324793,0.0-19.0-0.1,92970,List2B,black,man,,,,null,,,,
null,"<img src=""stim_listB/talk3.gif""</stim_listB>",,html-keyboard-response,329,1326799,0.0-19.0-1.1,92970,List2B,black,man,,,,null,,,,
null,is talking to,,html-keyboard-response,330,1328802,0.0-19.0-2.1,92970,List2B,black,man,,,,null,,,,
6285,,,survey-text,331,1335089,0.0-19.0-3.1,92970,List2B,black,man,,,,,"{""Q0"":""kate is talking to fred""}","<img src=""stim_listB/talk3.gif""</stim_listB>",is talking to,
null,"<div style=""font-size:60px;"">+</div>",,html-keyboard-response,332,1335597,0.0-19.0-0.2,92970,List2B,black,man,,,,null,,,,
null,"<img src=""stim_listB/fight1.gif""</stim_listB>",,html-keyboard-response,333,1337604,0.0-19.0-1.2,92970,List2B,black,man,,,,null,,,,
null,is fighting,,html-keyboard-response,334,1339607,0.0-19.0-2.2,92970,List2B,black,man,,,,null,,,,
43057,,,survey-text,335,1382667,0.0-19.0-3.2,92970,List2B,black,man,,,,,"{""Q0"":""dave is fighting jane""}","<img src=""stim_listB/fight1.gif""</stim_listB>",is fighting,
null,"<div style=""font-size:60px;"">+</div>",,html-keyboard-response,336,1383178,0.0-19.0-0.3,92970,List2B,black,man,,,,null,,,,
null,"<img src=""stim_listB/marry8.gif""</stim_listB>",,html-keyboard-response,337,1385184,0.0-19.0-1.3,92970,List2B,black,man,,,,null,,,,
null,are marrying each other,,html-keyboard-response,338,1387186,0.0-19.0-2.3,92970,List2B,black,man,,,,null,,,,
8719,,,survey-text,339,1395908,0.0-19.0-3.3,92970,List2B,black,man,,,,,"{""Q0"":""ruth and kate are marrying each other""}","<img src=""stim_listB/marry8.gif""</stim_listB>",are marrying each other,
null,"<div style=""font-size:60px;"">+</div>",,html-keyboard-response,340,1396421,0.0-19.0-0.4,92970,List2B,black,man,,,,null,,,,
null,"<img src=""stim_listB/hug4.gif""</stim_listB>",,html-keyboard-response,341,1398428,0.0-19.0-1.4,92970,List2B,black,man,,,,null,,,,
null,are hugging each other,,html-keyboard-response,342,1400432,0.0-19.0-2.4,92970,List2B,black,man,,,,null,,,,
10343,,,survey-text,343,1410777,0.0-19.0-3.4,92970,List2B,black,man,,,,,"{""Q0"":""kate and mike are hugging each other""}","<img src=""stim_listB/hug4.gif""</stim_listB>",are hugging each other,
null,"<div style=""font-size:60px;"">+</div>",,html-keyboard-response,344,1411281,0.0-19.0-0.5,92970,List2B,black,man,,,,null,,,,
null,"<img src=""stim_listB/fight3.gif""</stim_listB>",,html-keyboard-response,345,1413286,0.0-19.0-1.5,92970,List2B,black,man,,,,null,,,,
null,is fighting,,html-keyboard-response,346,1415293,0.0-19.0-2.5,92970,List2B,black,man,,,,null,,,,
11944,,,survey-text,347,1427241,0.0-19.0-3.5,92970,List2B,black,man,,,,,"{""Q0"":""kate is fighting mike""}","<img src=""stim_listB/fight3.gif""</stim_listB>",is fighting,
null,"<div style=""font-size:60px;"">+</div>",,html-keyboard-response,348,1427748,0.0-19.0-0.6,92970,List2B,black,man,,,,null,,,,
null,"<img src=""stim_listB/talk2.gif""</stim_listB>",,html-keyboard-response,349,1429755,0.0-19.0-1.6,92970,List2B,black,man,,,,null,,,,
null,are talking to each other,,html-keyboard-response,350,1431759,0.0-19.0-2.6,92970,List2B,black,man,,,,null,,,,
7847,,,survey-text,351,1439608,0.0-19.0-3.6,92970,List2B,black,man,,,,,"{""Q0"":""dave and ruth are talking to each other""}","<img src=""stim_listB/talk2.gif""</stim_listB>",are talking to each other,
null,"<div style=""font-size:60px;"">+</div>",,html-keyboard-response,352,1440115,0.0-19.0-0.7,92970,List2B,black,man,,,,null,,,,
null,"<img src=""stim_listB/meet7.gif""</stim_listB>",,html-keyboard-response,353,1442119,0.0-19.0-1.7,92970,List2B,black,man,,,,null,,,,
null,is meeting,,html-keyboard-response,354,1444123,0.0-19.0-2.7,92970,List2B,black,man,,,,null,,,,
8402,,,survey-text,355,1452529,0.0-19.0-3.7,92970,List2B,black,man,,,,,"{""Q0"":""jane is meeting kate""}","<img src=""stim_listB/meet7.gif""</stim_listB>",is meeting,
null,"<div style=""font-size:60px;"">+</div>",,html-keyboard-response,356,1453037,0.0-19.0-0.8,92970,List2B,black,man,,,,null,,,,
null,"<img src=""stim_listB/kiss7.gif""</stim_listB>",,html-keyboard-response,357,1455044,0.0-19.0-1.8,92970,List2B,black,man,,,,null,,,,
null,is kissing,,html-keyboard-response,358,1457050,0.0-19.0-2.8,92970,List2B,black,man,,,,null,,,,
5204,,,survey-text,359,1462257,0.0-19.0-3.8,92970,List2B,black,man,,,,,"{""Q0"":""beth is kissing ruth""}","<img src=""stim_listB/kiss7.gif""</stim_listB>",is kissing,
null,"<div style=""font-size:60px;"">+</div>",,html-keyboard-response,360,1462764,0.0-19.0-0.9,92970,List2B,black,man,,,,null,,,,
null,"<img src=""stim_listB/meet4.gif""</stim_listB>",,html-keyboard-response,361,1464780,0.0-19.0-1.9,92970,List2B,black,man,,,,null,,,,
null,are meeting each other,,html-keyboard-response,362,1466783,0.0-19.0-2.9,92970,List2B,black,man,,,,null,,,,
10358,,,survey-text,363,1477147,0.0-19.0-3.9,92970,List2B,black,man,,,,,"{""Q0"":""beth and fred are meeting each other""}","<img src=""stim_listB/meet4.gif""</stim_listB>",are meeting each other,
null,"<div style=""font-size:60px;"">+</div>",,html-keyboard-response,364,1477653,0.0-19.0-0.10,92970,List2B,black,man,,,,null,,,,
null,"<img src=""stim_listB/meet3.gif""</stim_listB>",,html-keyboard-response,365,1479660,0.0-19.0-1.10,92970,List2B,black,man,,,,null,,,,
null,is meeting,,html-keyboard-response,366,1481663,0.0-19.0-2.10,92970,List2B,black,man,,,,null,,,,
6281,,,survey-text,367,1487946,0.0-19.0-3.10,92970,List2B,black,man,,,,,"{""Q0"":""mike is meeting kate""}","<img src=""stim_listB/meet3.gif""</stim_listB>",is meeting,
null,"<div style=""font-size:60px;"">+</div>",,html-keyboard-response,368,1488454,0.0-19.0-0.11,92970,List2B,black,man,,,,null,,,,
null,"<img src=""stim_listB/shout2.gif""</stim_listB>",,html-keyboard-response,369,1490462,0.0-19.0-1.11,92970,List2B,black,man,,,,null,,,,
null,are shouting at each other,,html-keyboard-response,370,1492464,0.0-19.0-2.11,92970,List2B,black,man,,,,null,,,,
8879,,,survey-text,371,1501347,0.0-19.0-3.11,92970,List2B,black,man,,,,,"{""Q0"":""jane and dve are shouting at each other""}","<img src=""stim_listB/shout2.gif""</stim_listB>",are shouting at each other,
null,"<div style=""font-size:60px;"">+</div>",,html-keyboard-response,372,1501853,0.0-19.0-0.12,92970,List2B,black,man,,,,null,,,,
null,"<img src=""stim_listB/dance4.gif""</stim_listB>",,html-keyboard-response,373,1503859,0.0-19.0-1.12,92970,List2B,black,man,,,,null,,,,
null,are dancing with each other,,html-keyboard-response,374,1505865,0.0-19.0-2.12,92970,List2B,black,man,,,,null,,,,
10319,,,survey-text,375,1516187,0.0-19.0-3.12,92970,List2B,black,man,,,,,"{""Q0"":""mike and beth are dancing with each other""}","<img src=""stim_listB/dance4.gif""</stim_listB>",are dancing with each other,
null,"<div style=""font-size:60px;"">+</div>",,html-keyboard-response,376,1516694,0.0-19.0-0.13,92970,List2B,black,man,,,,null,,,,
null,"<img src=""stim_listB/meet8.gif""</stim_listB>",,html-keyboard-response,377,1518701,0.0-19.0-1.13,92970,List2B,black,man,,,,null,,,,
null,are meeting each other,,html-keyboard-response,378,1520705,0.0-19.0-2.13,92970,List2B,black,man,,,,null,,,,
12655,,,survey-text,379,1533362,0.0-19.0-3.13,92970,List2B,black,man,,,,,"{""Q0"":""beth and ruth are meeting each other""}","<img src=""stim_listB/meet8.gif""</stim_listB>",are meeting each other,
null,"<div style=""font-size:60px;"">+</div>",,html-keyboard-response,380,1533868,0.0-19.0-0.14,92970,List2B,black,man,,,,null,,,,
null,"<img src=""stim_listB/fight4.gif""</stim_listB>",,html-keyboard-response,381,1535872,0.0-19.0-1.14,92970,List2B,black,man,,,,null,,,,
null,are fighting each other,,html-keyboard-response,382,1537874,0.0-19.0-2.14,92970,List2B,black,man,,,,null,,,,
9069,,,survey-text,383,1546946,0.0-19.0-3.14,92970,List2B,black,man,,,,,"{""Q0"":""beth and fred are fighting each other""}","<img src=""stim_listB/fight4.gif""</stim_listB>",are fighting each other,
null,"<div style=""font-size:60px;"">+</div>",,html-keyboard-response,384,1547457,0.0-19.0-0.15,92970,List2B,black,man,,,,null,,,,
null,"<img src=""stim_listB/shout6.gif""</stim_listB>",,html-keyboard-response,385,1549461,0.0-19.0-1.15,92970,List2B,black,man,,,,null,,,,
null,are shouting at each other,,html-keyboard-response,386,1551463,0.0-19.0-2.15,92970,List2B,black,man,,,,null,,,,
11255,,,survey-text,387,1562722,0.0-19.0-3.15,92970,List2B,black,man,,,,,"{""Q0"":""mike and dave are shouting at each other""}","<img src=""stim_listB/shout6.gif""</stim_listB>",are shouting at each other,
null,"<div style=""font-size:60px;"">+</div>",,html-keyboard-response,388,1563225,0.0-19.0-0.16,92970,List2B,black,man,,,,null,,,,
null,"<img src=""stim_listB/talk5.gif""</stim_listB>",,html-keyboard-response,389,1565230,0.0-19.0-1.16,92970,List2B,black,man,,,,null,,,,
null,is talking to,,html-keyboard-response,390,1567233,0.0-19.0-2.16,92970,List2B,black,man,,,,null,,,,
7029,,,survey-text,391,1574266,0.0-19.0-3.16,92970,List2B,black,man,,,,,"{""Q0"":""luke is talking to mike""}","<img src=""stim_listB/talk5.gif""</stim_listB>",is talking to,
null,"<div style=""font-size:60px;"">+</div>",,html-keyboard-response,392,1574772,0.0-19.0-0.17,92970,List2B,black,man,,,,null,,,,
null,"<img src=""stim_listB/hug8.gif""</stim_listB>",,html-keyboard-response,393,1576778,0.0-19.0-1.17,92970,List2B,black,man,,,,null,,,,
null,are hugging each other,,html-keyboard-response,394,1578783,0.0-19.0-2.17,92970,List2B,black,man,,,,null,,,,
7194,,,survey-text,395,1585980,0.0-19.0-3.17,92970,List2B,black,man,,,,,"{""Q0"":""kate is hugging jane""}","<img src=""stim_listB/hug8.gif""</stim_listB>",are hugging each other,
null,"<div style=""font-size:60px;"">+</div>",,html-keyboard-response,396,1586486,0.0-19.0-0.18,92970,List2B,black,man,,,,null,,,,
null,"<img src=""stim_listB/marry1.gif""</stim_listB>",,html-keyboard-response,397,1588492,0.0-19.0-1.18,92970,List2B,black,man,,,,null,,,,
null,is marrying,,html-keyboard-response,398,1590496,0.0-19.0-2.18,92970,List2B,black,man,,,,null,,,,
9384,,,survey-text,399,1599883,0.0-19.0-3.18,92970,List2B,black,man,,,,,"{""Q0"":""dave is dancing with ruth""}","<img src=""stim_listB/marry1.gif""</stim_listB>",is marrying,
null,"<div style=""font-size:60px;"">+</div>",,html-keyboard-response,400,1600388,0.0-19.0-0.19,92970,List2B,black,man,,,,null,,,,
null,"<img src=""stim_listB/marry2.gif""</stim_listB>",,html-keyboard-response,401,1602392,0.0-19.0-1.19,92970,List2B,black,man,,,,null,,,,
null,are marrying each other,,html-keyboard-response,402,1604396,0.0-19.0-2.19,92970,List2B,black,man,,,,null,,,,
8396,,,survey-text,403,1612796,0.0-19.0-3.19,92970,List2B,black,man,,,,,"{""Q0"":""luke and jane are marrying each other""}","<img src=""stim_listB/marry2.gif""</stim_listB>",are marrying each other,
2597,<p>Thank you for completing that task.</p><p>The final part of this session is a short questionnaire.</p><p>Press Continue.</p>,0,html-button-response,404,1615396,0.0-20.0,92970,List2B,black,man,,,,,,,,
27622,,,survey-text,405,1644029,0.0-21.0,92970,List2B,black,man,,,,,"{""Q0"":""26"",""Q1"":""english"",""Q2"":""english"",""Q3"":""usa"",""Q4"":""black"",""Q5"":""male""}",,,demographics
121720,,,survey-likert,406,1765771,0.0-22.0,92970,List2B,black,man,,,,,"{""Q0"":4,""Q1"":4,""Q2"":3,""Q3"":4,""Q4"":3,""Q5"":3,""Q6"":3,""Q7"":2,""Q8"":4,""Q9"":4,""Q10"":1,""Q11"":2,""Q12"":3,""Q13"":3}",,,likert_race
149577,,,survey-likert,407,1915367,0.0-23.0,92970,List2B,black,man,,,,,"{""Q0"":4,""Q1"":4,""Q2"":3,""Q3"":5,""Q4"":3,""Q5"":4,""Q6"":3,""Q7"":1,""Q8"":5,""Q9"":4,""Q10"":1,""Q11"":1,""Q12"":3,""Q13"":3}",,,likert_gender
5597,,,survey-text,408,1920970,0.0-24.0,92970,List2B,black,man,,,,,"{""Q0"":""ccc""}",,,worker_id
47554,,,external-html,409,1968968,0.0-25.0,92970,List2B,black,man,debrief.html,,,,,,,
