rt,stimulus,button_pressed,trial_type,trial_index,time_elapsed,internal_node_id,subject,list,ppt_race,ppt_gender,url,first_guess,correct,key_press,responses,image_type,phrase_type,test_part
1542,Welcome to the experiment. Press Continue to begin.,0,html-button-response,0,1545,0.0-0.0,9563,List1A,white,man,,,,,,,,
26342,,,external-html,1,29048,0.0-1.0,9563,List1A,white,man,consent.html,,,,,,,
20233,"<p>On the next page, you will see portraits of 8 people and their names.</p><p>Your first task is to take a few minutes to memorise the names of these people.</p><p>You will have to recall their names during the rest of the experiment, so it is</p><p>essential that you try to memorise these people and their names as best as you can.</p><br><p><strong>You will then be tested on your memory of these names and portraits.</strong></p><br><p>The experiment will start after you have completed this memory test.</p><br><p>Ready?</p>",0,html-button-response,2,49283,0.0-2.0,9563,List1A,white,man,,,,,,,,
89298,"<img src='img/portrait_matrix_list1.JPG' style='width:900px;height:500px;''></img><p>If you have memorised all the portraits and names and are ready to start, press Continue.</p><p><strong>Please note: Your memory of these faces will be tested 4 times during this experiment.</strong></p>",0,html-button-response,3,139582,0.0-3.0-0.0,9563,List1A,white,man,,,,,,,,
7486,"<img src=""portrait/WM1.jpg""style=""width:400px;height:400px;""></img>",6,html-button-response,4,148070,0.0-3.0-1.0,9563,List1A,white,man,,TRUE,6,,,,,
null,CORRECT,,html-keyboard-response,5,149580,0.0-3.0-2.0-0.0,9563,List1A,white,man,,,,null,,,,
4153,"<img src=""portrait/WM2.jpg""style=""width:400px;height:400px;""></img>",7,html-button-response,6,153734,0.0-3.0-4.0,9563,List1A,white,man,,TRUE,7,,,,,
null,CORRECT,,html-keyboard-response,7,155248,0.0-3.0-5.0-0.0,9563,List1A,white,man,,,,null,,,,
4877,"<img src=""portrait/BW1.jpg""style=""width:400px;height:400px;""></img>",0,html-button-response,8,160126,0.0-3.0-7.0,9563,List1A,white,man,,TRUE,0,,,,,
null,CORRECT,,html-keyboard-response,9,161644,0.0-3.0-8.0-0.0,9563,List1A,white,man,,,,null,,,,
3905,"<img src=""portrait/BM2.jpg""style=""width:400px;height:400px;""></img>",5,html-button-response,10,165550,0.0-3.0-10.0,9563,List1A,white,man,,TRUE,5,,,,,
null,CORRECT,,html-keyboard-response,11,167058,0.0-3.0-11.0-0.0,9563,List1A,white,man,,,,null,,,,
4003,"<img src=""portrait/BM1.jpg""style=""width:400px;height:400px;""></img>",4,html-button-response,12,171062,0.0-3.0-13.0,9563,List1A,white,man,,TRUE,4,,,,,
null,CORRECT,,html-keyboard-response,13,172572,0.0-3.0-14.0-0.0,9563,List1A,white,man,,,,null,,,,
4513,"<img src=""portrait/WW2.jpg""style=""width:400px;height:400px;""></img>",3,html-button-response,14,177086,0.0-3.0-16.0,9563,List1A,white,man,,TRUE,3,,,,,
null,CORRECT,,html-keyboard-response,15,178599,0.0-3.0-17.0-0.0,9563,List1A,white,man,,,,null,,,,
4681,"<img src=""portrait/WW1.jpg""style=""width:400px;height:400px;""></img>",1,html-button-response,16,183280,0.0-3.0-19.0,9563,List1A,white,man,,TRUE,1,,,,,
null,CORRECT,,html-keyboard-response,17,184797,0.0-3.0-20.0-0.0,9563,List1A,white,man,,,,null,,,,
3778,"<img src=""portrait/BW2.jpg""style=""width:400px;height:400px;""></img>",2,html-button-response,18,188576,0.0-3.0-22.0,9563,List1A,white,man,,TRUE,2,,,,,
null,CORRECT,,html-keyboard-response,19,190087,0.0-3.0-23.0-0.0,9563,List1A,white,man,,,,null,,,,
1376,<p>You got 8 out of 8 right first time. Press Continue.</p>,0,html-button-response,20,191464,0.0-3.0-25.0,9563,List1A,white,man,,,,,,,,
17266,"<p>In this experiment, you will view photographs of the people from the memory game interacting.</p><p>By using the <strong>exact</strong> phrase given <i>after</i> the photograph appears and recalling the correct names of the people in the photographs, form a sentence describing the interaction. You do not need to capitalise names.</p><p>Type your answer in the space provided. Please complete every sentence before moving onto the next trial.</p><p>You will only have a few seconds to memorise each given photograph and phrase before you can respond, so try your best to focus.</p><p>An example is given below. Press 'Continue' when you are ready.</p><img src='img/speaking_example_v2.jpg' style='width:800px;height:460px;''></img>",0,html-button-response,21,209736,0.0-4.0,9563,List1A,white,man,,,,,,,,
2286,"<p>Before the experiment starts, you will watch two example trials. Press 'Continue'.</p>",0,html-button-response,22,213024,0.0-5.0,9563,List1A,white,man,,,,,,,,
null,<img src='img/speaking_WW.gif'></img>,,html-keyboard-response,23,216034,0.0-6.0,9563,List1A,white,man,,,,null,,,,
null,<p>is speaking to</p>,,html-keyboard-response,24,218045,0.0-7.0,9563,List1A,white,man,,,,null,,,,
4083,<p><b>Answer:</b> kate is speaking to beth</p>,0,html-button-response,25,222128,0.0-8.0,9563,List1A,white,man,,,,,,,,
null,<img src='img/pointing_BM.gif'></img>,,html-keyboard-response,26,225142,0.0-9.0,9563,List1A,white,man,,,,null,,,,
null,<p>are pointing at each other</p>,,html-keyboard-response,27,227143,0.0-10.0,9563,List1A,white,man,,,,null,,,,
3368,<p><b>Answer:</b> luke and dave are pointing at each other</p>,0,html-button-response,28,230512,0.0-11.0,9563,List1A,white,man,,,,,,,,
2110,"<p>Ready to start the experiment?</p><br><p><strong>Remember to describe the picture using a full sentence,</strong></p><p><strong>that combines the names of the people with the given phrase.</strong></p><p><strong>If you do not do this correctly you will not be paid.</strong></p><p><strong> You do not need to capitalise names or use punctuation.</strong></p><br><p>Press 'Continue' to begin.</p>",0,html-button-response,29,233624,0.0-12.0,9563,List1A,white,man,,,,,,,,
null,"<div style=""font-size:60px;"">+</div>",,html-keyboard-response,30,235139,0.0-13.0-0.0,9563,List1A,white,man,,,,null,,,,
null,"<img src=""stim_listA/talk2.gif""</stim_listA>",,html-keyboard-response,31,237154,0.0-13.0-1.0,9563,List1A,white,man,,,,null,,,,
null,are talking to each other,,html-keyboard-response,32,239156,0.0-13.0-2.0,9563,List1A,white,man,,,,null,,,,
11686,,,survey-text,33,250843,0.0-13.0-3.0,9563,List1A,white,man,,,,,"{""Q0"":""Mike and Beth are talking to each other""}","<img src=""stim_listA/talk2.gif""</stim_listA>",are talking to each other,
null,"<div style=""font-size:60px;"">+</div>",,html-keyboard-response,34,251356,0.0-13.0-0.1,9563,List1A,white,man,,,,null,,,,
null,"<img src=""stim_listA/dance2.gif""</stim_listA>",,html-keyboard-response,35,253358,0.0-13.0-1.1,9563,List1A,white,man,,,,null,,,,
null,are dancing with each other,,html-keyboard-response,36,255369,0.0-13.0-2.1,9563,List1A,white,man,,,,null,,,,
7586,,,survey-text,37,262955,0.0-13.0-3.1,9563,List1A,white,man,,,,,"{""Q0"":""Mike and Beth""}","<img src=""stim_listA/dance2.gif""</stim_listA>",are dancing with each other,
null,"<div style=""font-size:60px;"">+</div>",,html-keyboard-response,38,263457,0.0-13.0-0.2,9563,List1A,white,man,,,,null,,,,
null,"<img src=""stim_listA/argue7.gif""</stim_listA>",,html-keyboard-response,39,265460,0.0-13.0-1.2,9563,List1A,white,man,,,,null,,,,
null,is arguing with,,html-keyboard-response,40,267465,0.0-13.0-2.2,9563,List1A,white,man,,,,null,,,,
7201,,,survey-text,41,274667,0.0-13.0-3.2,9563,List1A,white,man,,,,,"{""Q0"":""Kate and Ruth""}","<img src=""stim_listA/argue7.gif""</stim_listA>",is arguing with,
null,"<div style=""font-size:60px;"">+</div>",,html-keyboard-response,42,275169,0.0-13.0-0.3,9563,List1A,white,man,,,,null,,,,
null,"<img src=""stim_listA/kiss8.gif""</stim_listA>",,html-keyboard-response,43,277170,0.0-13.0-1.3,9563,List1A,white,man,,,,null,,,,
null,are kissing each other,,html-keyboard-response,44,279171,0.0-13.0-2.3,9563,List1A,white,man,,,,null,,,,
4583,,,survey-text,45,283755,0.0-13.0-3.3,9563,List1A,white,man,,,,,"{""Q0"":""Jane and Kate""}","<img src=""stim_listA/kiss8.gif""</stim_listA>",are kissing each other,
null,"<div style=""font-size:60px;"">+</div>",,html-keyboard-response,46,284266,0.0-13.0-0.4,9563,List1A,white,man,,,,null,,,,
null,"<img src=""stim_listA/hug6.gif""</stim_listA>",,html-keyboard-response,47,286281,0.0-13.0-1.4,9563,List1A,white,man,,,,null,,,,
null,are hugging each other,,html-keyboard-response,48,288295,0.0-13.0-2.4,9563,List1A,white,man,,,,null,,,,
6163,,,survey-text,49,294459,0.0-13.0-3.4,9563,List1A,white,man,,,,,"{""Q0"":""Mike and Dave""}","<img src=""stim_listA/hug6.gif""</stim_listA>",are hugging each other,
null,"<div style=""font-size:60px;"">+</div>",,html-keyboard-response,50,294965,0.0-13.0-0.5,9563,List1A,white,man,,,,null,,,,
null,"<img src=""stim_listA/touch6.gif""</stim_listA>",,html-keyboard-response,51,296978,0.0-13.0-1.5,9563,List1A,white,man,,,,null,,,,
null,are touching each other,,html-keyboard-response,52,298987,0.0-13.0-2.5,9563,List1A,white,man,,,,null,,,,
4821,,,survey-text,53,303809,0.0-13.0-3.5,9563,List1A,white,man,,,,,"{""Q0"":""Fred and Luke""}","<img src=""stim_listA/touch6.gif""</stim_listA>",are touching each other,
null,"<div style=""font-size:60px;"">+</div>",,html-keyboard-response,54,304311,0.0-13.0-0.6,9563,List1A,white,man,,,,null,,,,
null,"<img src=""stim_listA/touch8.gif""</stim_listA>",,html-keyboard-response,55,306324,0.0-13.0-1.6,9563,List1A,white,man,,,,null,,,,
null,are touching each other,,html-keyboard-response,56,308329,0.0-13.0-2.6,9563,List1A,white,man,,,,null,,,,
5151,,,survey-text,57,313481,0.0-13.0-3.6,9563,List1A,white,man,,,,,"{""Q0"":""Ruth and Beth""}","<img src=""stim_listA/touch8.gif""</stim_listA>",are touching each other,
null,"<div style=""font-size:60px;"">+</div>",,html-keyboard-response,58,313989,0.0-13.0-0.7,9563,List1A,white,man,,,,null,,,,
null,"<img src=""stim_listA/shout8.gif""</stim_listA>",,html-keyboard-response,59,315991,0.0-13.0-1.7,9563,List1A,white,man,,,,null,,,,
null,are shouting at each other,,html-keyboard-response,60,318005,0.0-13.0-2.7,9563,List1A,white,man,,,,null,,,,
5819,,,survey-text,61,323825,0.0-13.0-3.7,9563,List1A,white,man,,,,,"{""Q0"":""Kate and Jane""}","<img src=""stim_listA/shout8.gif""</stim_listA>",are shouting at each other,
null,"<div style=""font-size:60px;"">+</div>",,html-keyboard-response,62,324333,0.0-13.0-0.8,9563,List1A,white,man,,,,null,,,,
null,"<img src=""stim_listA/touch5.gif""</stim_listA>",,html-keyboard-response,63,326349,0.0-13.0-1.8,9563,List1A,white,man,,,,null,,,,
null,is touching,,html-keyboard-response,64,328351,0.0-13.0-2.8,9563,List1A,white,man,,,,null,,,,
4442,,,survey-text,65,332793,0.0-13.0-3.8,9563,List1A,white,man,,,,,"{""Q0"":""Mike and Dave""}","<img src=""stim_listA/touch5.gif""</stim_listA>",is touching,
null,"<div style=""font-size:60px;"">+</div>",,html-keyboard-response,66,333307,0.0-13.0-0.9,9563,List1A,white,man,,,,null,,,,
null,"<img src=""stim_listA/fight2.gif""</stim_listA>",,html-keyboard-response,67,335314,0.0-13.0-1.9,9563,List1A,white,man,,,,null,,,,
null,are fighting each other,,html-keyboard-response,68,337316,0.0-13.0-2.9,9563,List1A,white,man,,,,null,,,,
4653,,,survey-text,69,341969,0.0-13.0-3.9,9563,List1A,white,man,,,,,"{""Q0"":""Fred and Beth""}","<img src=""stim_listA/fight2.gif""</stim_listA>",are fighting each other,
null,"<div style=""font-size:60px;"">+</div>",,html-keyboard-response,70,342471,0.0-13.0-0.10,9563,List1A,white,man,,,,null,,,,
null,"<img src=""stim_listA/talk6.gif""</stim_listA>",,html-keyboard-response,71,344479,0.0-13.0-1.10,9563,List1A,white,man,,,,null,,,,
null,are talking to each other,,html-keyboard-response,72,346482,0.0-13.0-2.10,9563,List1A,white,man,,,,null,,,,
4086,,,survey-text,73,350569,0.0-13.0-3.10,9563,List1A,white,man,,,,,"{""Q0"":""Mike and Luke""}","<img src=""stim_listA/talk6.gif""</stim_listA>",are talking to each other,
null,"<div style=""font-size:60px;"">+</div>",,html-keyboard-response,74,351076,0.0-13.0-0.11,9563,List1A,white,man,,,,null,,,,
null,"<img src=""stim_listA/dance6.gif""</stim_listA>",,html-keyboard-response,75,353083,0.0-13.0-1.11,9563,List1A,white,man,,,,null,,,,
null,are dancing with each other,,html-keyboard-response,76,355097,0.0-13.0-2.11,9563,List1A,white,man,,,,null,,,,
5688,,,survey-text,77,360785,0.0-13.0-3.11,9563,List1A,white,man,,,,,"{""Q0"":""Mike and Luke""}","<img src=""stim_listA/dance6.gif""</stim_listA>",are dancing with each other,
null,"<div style=""font-size:60px;"">+</div>",,html-keyboard-response,78,361289,0.0-13.0-0.12,9563,List1A,white,man,,,,null,,,,
null,"<img src=""stim_listA/hug7.gif""</stim_listA>",,html-keyboard-response,79,363310,0.0-13.0-1.12,9563,List1A,white,man,,,,null,,,,
null,is hugging,,html-keyboard-response,80,365312,0.0-13.0-2.12,9563,List1A,white,man,,,,null,,,,
4047,,,survey-text,81,369360,0.0-13.0-3.12,9563,List1A,white,man,,,,,"{""Q0"":""Ruth and Beth""}","<img src=""stim_listA/hug7.gif""</stim_listA>",is hugging,
null,"<div style=""font-size:60px;"">+</div>",,html-keyboard-response,82,369867,0.0-13.0-0.13,9563,List1A,white,man,,,,null,,,,
null,"<img src=""stim_listA/meet4.gif""</stim_listA>",,html-keyboard-response,83,371884,0.0-13.0-1.13,9563,List1A,white,man,,,,null,,,,
null,are meeting each other,,html-keyboard-response,84,373885,0.0-13.0-2.13,9563,List1A,white,man,,,,null,,,,
4289,,,survey-text,85,378176,0.0-13.0-3.13,9563,List1A,white,man,,,,,"{""Q0"":""Luke and Ruth""}","<img src=""stim_listA/meet4.gif""</stim_listA>",are meeting each other,
null,"<div style=""font-size:60px;"">+</div>",,html-keyboard-response,86,378683,0.0-13.0-0.14,9563,List1A,white,man,,,,null,,,,
null,"<img src=""stim_listA/meet3.gif""</stim_listA>",,html-keyboard-response,87,380695,0.0-13.0-1.14,9563,List1A,white,man,,,,null,,,,
null,is meeting,,html-keyboard-response,88,382696,0.0-13.0-2.14,9563,List1A,white,man,,,,null,,,,
5582,,,survey-text,89,388279,0.0-13.0-3.14,9563,List1A,white,man,,,,,"{""Q0"":""jane is meeting Dave""}","<img src=""stim_listA/meet3.gif""</stim_listA>",is meeting,
null,"<div style=""font-size:60px;"">+</div>",,html-keyboard-response,90,388793,0.0-13.0-0.15,9563,List1A,white,man,,,,null,,,,
null,"<img src=""stim_listA/touch7.gif""</stim_listA>",,html-keyboard-response,91,390797,0.0-13.0-1.15,9563,List1A,white,man,,,,null,,,,
null,is touching,,html-keyboard-response,92,392799,0.0-13.0-2.15,9563,List1A,white,man,,,,null,,,,
5959,,,survey-text,93,398759,0.0-13.0-3.15,9563,List1A,white,man,,,,,"{""Q0"":""Kate is touching Jane""}","<img src=""stim_listA/touch7.gif""</stim_listA>",is touching,
null,"<div style=""font-size:60px;"">+</div>",,html-keyboard-response,94,399274,0.0-13.0-0.16,9563,List1A,white,man,,,,null,,,,
null,"<img src=""stim_listA/marry7.gif""</stim_listA>",,html-keyboard-response,95,401290,0.0-13.0-1.16,9563,List1A,white,man,,,,null,,,,
null,is marrying,,html-keyboard-response,96,403292,0.0-13.0-2.16,9563,List1A,white,man,,,,null,,,,
7523,,,survey-text,97,410816,0.0-13.0-3.16,9563,List1A,white,man,,,,,"{""Q0"":""Ruth is marrying Beth""}","<img src=""stim_listA/marry7.gif""</stim_listA>",is marrying,
null,"<div style=""font-size:60px;"">+</div>",,html-keyboard-response,98,411320,0.0-13.0-0.17,9563,List1A,white,man,,,,null,,,,
null,"<img src=""stim_listA/kiss4.gif""</stim_listA>",,html-keyboard-response,99,413335,0.0-13.0-1.17,9563,List1A,white,man,,,,null,,,,
null,are kissing each other,,html-keyboard-response,100,415347,0.0-13.0-2.17,9563,List1A,white,man,,,,null,,,,
4844,,,survey-text,101,420192,0.0-13.0-3.17,9563,List1A,white,man,,,,,"{""Q0"":""Dave and Jane""}","<img src=""stim_listA/kiss4.gif""</stim_listA>",are kissing each other,
null,"<div style=""font-size:60px;"">+</div>",,html-keyboard-response,102,420705,0.0-13.0-0.18,9563,List1A,white,man,,,,null,,,,
null,"<img src=""stim_listA/meet1.gif""</stim_listA>",,html-keyboard-response,103,422720,0.0-13.0-1.18,9563,List1A,white,man,,,,null,,,,
null,is meeting,,html-keyboard-response,104,424720,0.0-13.0-2.18,9563,List1A,white,man,,,,null,,,,
6506,,,survey-text,105,431227,0.0-13.0-3.18,9563,List1A,white,man,,,,,"{""Q0"":""Mike is meeting Kate""}","<img src=""stim_listA/meet1.gif""</stim_listA>",is meeting,
null,"<div style=""font-size:60px;"">+</div>",,html-keyboard-response,106,431728,0.0-13.0-0.19,9563,List1A,white,man,,,,null,,,,
null,"<img src=""stim_listA/talk3.gif""</stim_listA>",,html-keyboard-response,107,433735,0.0-13.0-1.19,9563,List1A,white,man,,,,null,,,,
null,is talking to,,html-keyboard-response,108,435744,0.0-13.0-2.19,9563,List1A,white,man,,,,null,,,,
6059,,,survey-text,109,441803,0.0-13.0-3.19,9563,List1A,white,man,,,,,"{""Q0"":""Luke is talking to Jane""}","<img src=""stim_listA/talk3.gif""</stim_listA>",is talking to,
14119,"<img src='img/portrait_matrix_list1.JPG' style='width:900px;height:500px;''></img><p>If you have memorised all the portraits and names and are ready to start, press Continue.</p><p><strong>Please note: Your memory of these faces will be tested 4 times during this experiment.</strong></p>",0,html-button-response,110,455923,0.0-14.0-0.0,9563,List1A,white,man,,,,,,,,
3669,"<img src=""portrait/BM2.jpg""style=""width:400px;height:400px;""></img>",5,html-button-response,111,460595,0.0-14.0-1.0,9563,List1A,white,man,,TRUE,5,,,,,
null,CORRECT,,html-keyboard-response,112,462123,0.0-14.0-2.0-0.0,9563,List1A,white,man,,,,null,,,,
3936,"<img src=""portrait/BW1.jpg""style=""width:400px;height:400px;""></img>",0,html-button-response,113,466059,0.0-14.0-4.0,9563,List1A,white,man,,TRUE,0,,,,,
null,CORRECT,,html-keyboard-response,114,467573,0.0-14.0-5.0-0.0,9563,List1A,white,man,,,,null,,,,
2661,"<img src=""portrait/WM2.jpg""style=""width:400px;height:400px;""></img>",7,html-button-response,115,470235,0.0-14.0-7.0,9563,List1A,white,man,,TRUE,7,,,,,
null,CORRECT,,html-keyboard-response,116,471753,0.0-14.0-8.0-0.0,9563,List1A,white,man,,,,null,,,,
3889,"<img src=""portrait/BM1.jpg""style=""width:400px;height:400px;""></img>",4,html-button-response,117,475643,0.0-14.0-10.0,9563,List1A,white,man,,TRUE,4,,,,,
null,CORRECT,,html-keyboard-response,118,477152,0.0-14.0-11.0-0.0,9563,List1A,white,man,,,,null,,,,
4177,"<img src=""portrait/WW1.jpg""style=""width:400px;height:400px;""></img>",1,html-button-response,119,481331,0.0-14.0-13.0,9563,List1A,white,man,,TRUE,1,,,,,
null,CORRECT,,html-keyboard-response,120,482853,0.0-14.0-14.0-0.0,9563,List1A,white,man,,,,null,,,,
2872,"<img src=""portrait/BW2.jpg""style=""width:400px;height:400px;""></img>",2,html-button-response,121,485727,0.0-14.0-16.0,9563,List1A,white,man,,TRUE,2,,,,,
null,CORRECT,,html-keyboard-response,122,487237,0.0-14.0-17.0-0.0,9563,List1A,white,man,,,,null,,,,
5785,"<img src=""portrait/WW2.jpg""style=""width:400px;height:400px;""></img>",3,html-button-response,123,493023,0.0-14.0-19.0,9563,List1A,white,man,,TRUE,3,,,,,
null,CORRECT,,html-keyboard-response,124,494541,0.0-14.0-20.0-0.0,9563,List1A,white,man,,,,null,,,,
2696,"<img src=""portrait/WM1.jpg""style=""width:400px;height:400px;""></img>",6,html-button-response,125,497239,0.0-14.0-22.0,9563,List1A,white,man,,TRUE,6,,,,,
null,CORRECT,,html-keyboard-response,126,498749,0.0-14.0-23.0-0.0,9563,List1A,white,man,,,,null,,,,
1448,<p>You got 8 out of 8 right first time. Press Continue.</p>,0,html-button-response,127,500199,0.0-14.0-25.0,9563,List1A,white,man,,,,,,,,
null,"<div style=""font-size:60px;"">+</div>",,html-keyboard-response,128,501730,0.0-15.0-0.0,9563,List1A,white,man,,,,null,,,,
null,"<img src=""stim_listA/marry2.gif""</stim_listA>",,html-keyboard-response,129,503747,0.0-15.0-1.0,9563,List1A,white,man,,,,null,,,,
null,are marrying each other,,html-keyboard-response,130,505750,0.0-15.0-2.0,9563,List1A,white,man,,,,null,,,,
8856,,,survey-text,131,514607,0.0-15.0-3.0,9563,List1A,white,man,,,,,"{""Q0"":""fred and kate""}","<img src=""stim_listA/marry2.gif""</stim_listA>",are marrying each other,
null,"<div style=""font-size:60px;"">+</div>",,html-keyboard-response,132,515110,0.0-15.0-0.1,9563,List1A,white,man,,,,null,,,,
null,"<img src=""stim_listA/touch2.gif""</stim_listA>",,html-keyboard-response,133,517111,0.0-15.0-1.1,9563,List1A,white,man,,,,null,,,,
null,are touching each other,,html-keyboard-response,134,519115,0.0-15.0-2.1,9563,List1A,white,man,,,,null,,,,
10714,,,survey-text,135,529831,0.0-15.0-3.1,9563,List1A,white,man,,,,,"{""Q0"":""beth and fred""}","<img src=""stim_listA/touch2.gif""</stim_listA>",are touching each other,
null,"<div style=""font-size:60px;"">+</div>",,html-keyboard-response,136,530332,0.0-15.0-0.2,9563,List1A,white,man,,,,null,,,,
null,"<img src=""stim_listA/shout2.gif""</stim_listA>",,html-keyboard-response,137,532338,0.0-15.0-1.2,9563,List1A,white,man,,,,null,,,,
null,are shouting at each other,,html-keyboard-response,138,534344,0.0-15.0-2.2,9563,List1A,white,man,,,,null,,,,
7838,,,survey-text,139,542183,0.0-15.0-3.2,9563,List1A,white,man,,,,,"{""Q0"":""mike and kate""}","<img src=""stim_listA/shout2.gif""</stim_listA>",are shouting at each other,
null,"<div style=""font-size:60px;"">+</div>",,html-keyboard-response,140,542688,0.0-15.0-0.3,9563,List1A,white,man,,,,null,,,,
null,"<img src=""stim_listA/argue4.gif""</stim_listA>",,html-keyboard-response,141,544691,0.0-15.0-1.3,9563,List1A,white,man,,,,null,,,,
null,are arguing with each other,,html-keyboard-response,142,546700,0.0-15.0-2.3,9563,List1A,white,man,,,,null,,,,
7822,,,survey-text,143,554522,0.0-15.0-3.3,9563,List1A,white,man,,,,,"{""Q0"":""jane and luke""}","<img src=""stim_listA/argue4.gif""</stim_listA>",are arguing with each other,
null,"<div style=""font-size:60px;"">+</div>",,html-keyboard-response,144,555033,0.0-15.0-0.4,9563,List1A,white,man,,,,null,,,,
null,"<img src=""stim_listA/kiss6.gif""</stim_listA>",,html-keyboard-response,145,557049,0.0-15.0-1.4,9563,List1A,white,man,,,,null,,,,
null,are kissing each other,,html-keyboard-response,146,559050,0.0-15.0-2.4,9563,List1A,white,man,,,,null,,,,
5616,,,survey-text,147,564666,0.0-15.0-3.4,9563,List1A,white,man,,,,,"{""Q0"":""mike dave""}","<img src=""stim_listA/kiss6.gif""</stim_listA>",are kissing each other,
null,"<div style=""font-size:60px;"">+</div>",,html-keyboard-response,148,565181,0.0-15.0-0.5,9563,List1A,white,man,,,,null,,,,
null,"<img src=""stim_listA/meet2.gif""</stim_listA>",,html-keyboard-response,149,567197,0.0-15.0-1.5,9563,List1A,white,man,,,,null,,,,
null,are meeting each other,,html-keyboard-response,150,569198,0.0-15.0-2.5,9563,List1A,white,man,,,,null,,,,
4084,,,survey-text,151,573282,0.0-15.0-3.5,9563,List1A,white,man,,,,,"{""Q0"":""beth fred""}","<img src=""stim_listA/meet2.gif""</stim_listA>",are meeting each other,
null,"<div style=""font-size:60px;"">+</div>",,html-keyboard-response,152,573793,0.0-15.0-0.6,9563,List1A,white,man,,,,null,,,,
null,"<img src=""stim_listA/meet8.gif""</stim_listA>",,html-keyboard-response,153,575795,0.0-15.0-1.6,9563,List1A,white,man,,,,null,,,,
null,are meeting each other,,html-keyboard-response,154,577796,0.0-15.0-2.6,9563,List1A,white,man,,,,null,,,,
4221,,,survey-text,155,582018,0.0-15.0-3.6,9563,List1A,white,man,,,,,"{""Q0"":""ruth beth""}","<img src=""stim_listA/meet8.gif""</stim_listA>",are meeting each other,
null,"<div style=""font-size:60px;"">+</div>",,html-keyboard-response,156,582525,0.0-15.0-0.7,9563,List1A,white,man,,,,null,,,,
null,"<img src=""stim_listA/talk8.gif""</stim_listA>",,html-keyboard-response,157,584542,0.0-15.0-1.7,9563,List1A,white,man,,,,null,,,,
null,are talking to each other,,html-keyboard-response,158,586544,0.0-15.0-2.7,9563,List1A,white,man,,,,null,,,,
4210,,,survey-text,159,590754,0.0-15.0-3.7,9563,List1A,white,man,,,,,"{""Q0"":""ruth and kate""}","<img src=""stim_listA/talk8.gif""</stim_listA>",are talking to each other,
null,"<div style=""font-size:60px;"">+</div>",,html-keyboard-response,160,591256,0.0-15.0-0.8,9563,List1A,white,man,,,,null,,,,
null,"<img src=""stim_listA/argue6.gif""</stim_listA>",,html-keyboard-response,161,593270,0.0-15.0-1.8,9563,List1A,white,man,,,,null,,,,
null,are arguing with each other,,html-keyboard-response,162,595271,0.0-15.0-2.8,9563,List1A,white,man,,,,null,,,,
3611,,,survey-text,163,598882,0.0-15.0-3.8,9563,List1A,white,man,,,,,"{""Q0"":""fred and dave""}","<img src=""stim_listA/argue6.gif""</stim_listA>",are arguing with each other,
null,"<div style=""font-size:60px;"">+</div>",,html-keyboard-response,164,599389,0.0-15.0-0.9,9563,List1A,white,man,,,,null,,,,
null,"<img src=""stim_listA/hug1.gif""</stim_listA>",,html-keyboard-response,165,601401,0.0-15.0-1.9,9563,List1A,white,man,,,,null,,,,
null,is hugging,,html-keyboard-response,166,603405,0.0-15.0-2.9,9563,List1A,white,man,,,,null,,,,
7928,,,survey-text,167,611333,0.0-15.0-3.9,9563,List1A,white,man,,,,,"{""Q0"":""fred is hugging ruth""}","<img src=""stim_listA/hug1.gif""</stim_listA>",is hugging,
null,"<div style=""font-size:60px;"">+</div>",,html-keyboard-response,168,611839,0.0-15.0-0.10,9563,List1A,white,man,,,,null,,,,
null,"<img src=""stim_listA/dance5.gif""</stim_listA>",,html-keyboard-response,169,613844,0.0-15.0-1.10,9563,List1A,white,man,,,,null,,,,
null,is dancing with,,html-keyboard-response,170,615853,0.0-15.0-2.10,9563,List1A,white,man,,,,null,,,,
3087,,,survey-text,171,618941,0.0-15.0-3.10,9563,List1A,white,man,,,,,"{""Q0"":""fred dave""}","<img src=""stim_listA/dance5.gif""</stim_listA>",is dancing with,
null,"<div style=""font-size:60px;"">+</div>",,html-keyboard-response,172,619449,0.0-15.0-0.11,9563,List1A,white,man,,,,null,,,,
null,"<img src=""stim_listA/touch1.gif""</stim_listA>",,html-keyboard-response,173,621465,0.0-15.0-1.11,9563,List1A,white,man,,,,null,,,,
null,is touching,,html-keyboard-response,174,623470,0.0-15.0-2.11,9563,List1A,white,man,,,,null,,,,
3734,,,survey-text,175,627205,0.0-15.0-3.11,9563,List1A,white,man,,,,,"{""Q0"":""beth mike""}","<img src=""stim_listA/touch1.gif""</stim_listA>",is touching,
null,"<div style=""font-size:60px;"">+</div>",,html-keyboard-response,176,627720,0.0-15.0-0.12,9563,List1A,white,man,,,,null,,,,
null,"<img src=""stim_listA/argue2.gif""</stim_listA>",,html-keyboard-response,177,629727,0.0-15.0-1.12,9563,List1A,white,man,,,,null,,,,
null,are arguing with each other,,html-keyboard-response,178,631741,0.0-15.0-2.12,9563,List1A,white,man,,,,null,,,,
4959,,,survey-text,179,636701,0.0-15.0-3.12,9563,List1A,white,man,,,,,"{""Q0"":""kate fred""}","<img src=""stim_listA/argue2.gif""</stim_listA>",are arguing with each other,
null,"<div style=""font-size:60px;"">+</div>",,html-keyboard-response,180,637216,0.0-15.0-0.13,9563,List1A,white,man,,,,null,,,,
null,"<img src=""stim_listA/dance8.gif""</stim_listA>",,html-keyboard-response,181,639227,0.0-15.0-1.13,9563,List1A,white,man,,,,null,,,,
null,are dancing with each other,,html-keyboard-response,182,641229,0.0-15.0-2.13,9563,List1A,white,man,,,,null,,,,
4079,,,survey-text,183,645309,0.0-15.0-3.13,9563,List1A,white,man,,,,,"{""Q0"":""kate ruth""}","<img src=""stim_listA/dance8.gif""</stim_listA>",are dancing with each other,
null,"<div style=""font-size:60px;"">+</div>",,html-keyboard-response,184,645810,0.0-15.0-0.14,9563,List1A,white,man,,,,null,,,,
null,"<img src=""stim_listA/talk4.gif""</stim_listA>",,html-keyboard-response,185,647815,0.0-15.0-1.14,9563,List1A,white,man,,,,null,,,,
null,are talking to each other,,html-keyboard-response,186,649817,0.0-15.0-2.14,9563,List1A,white,man,,,,null,,,,
4044,,,survey-text,187,653861,0.0-15.0-3.14,9563,List1A,white,man,,,,,"{""Q0"":""ruth dave""}","<img src=""stim_listA/talk4.gif""</stim_listA>",are talking to each other,
null,"<div style=""font-size:60px;"">+</div>",,html-keyboard-response,188,654363,0.0-15.0-0.15,9563,List1A,white,man,,,,null,,,,
null,"<img src=""stim_listA/marry6.gif""</stim_listA>",,html-keyboard-response,189,656370,0.0-15.0-1.15,9563,List1A,white,man,,,,null,,,,
null,are marrying each other,,html-keyboard-response,190,658377,0.0-15.0-2.15,9563,List1A,white,man,,,,null,,,,
3915,,,survey-text,191,662293,0.0-15.0-3.15,9563,List1A,white,man,,,,,"{""Q0"":""fred dave""}","<img src=""stim_listA/marry6.gif""</stim_listA>",are marrying each other,
null,"<div style=""font-size:60px;"">+</div>",,html-keyboard-response,192,662800,0.0-15.0-0.16,9563,List1A,white,man,,,,null,,,,
null,"<img src=""stim_listA/marry5.gif""</stim_listA>",,html-keyboard-response,193,664818,0.0-15.0-1.16,9563,List1A,white,man,,,,null,,,,
null,is marrying,,html-keyboard-response,194,666820,0.0-15.0-2.16,9563,List1A,white,man,,,,null,,,,
3779,,,survey-text,195,670599,0.0-15.0-3.16,9563,List1A,white,man,,,,,"{""Q0"":""mike luke""}","<img src=""stim_listA/marry5.gif""</stim_listA>",is marrying,
null,"<div style=""font-size:60px;"">+</div>",,html-keyboard-response,196,671101,0.0-15.0-0.17,9563,List1A,white,man,,,,null,,,,
null,"<img src=""stim_listA/kiss2.gif""</stim_listA>",,html-keyboard-response,197,673111,0.0-15.0-1.17,9563,List1A,white,man,,,,null,,,,
null,are kissing each other,,html-keyboard-response,198,675123,0.0-15.0-2.17,9563,List1A,white,man,,,,null,,,,
4531,,,survey-text,199,679655,0.0-15.0-3.17,9563,List1A,white,man,,,,,"{""Q0"":""mike kate""}","<img src=""stim_listA/kiss2.gif""</stim_listA>",are kissing each other,
null,"<div style=""font-size:60px;"">+</div>",,html-keyboard-response,200,680158,0.0-15.0-0.18,9563,List1A,white,man,,,,null,,,,
null,"<img src=""stim_listA/fight4.gif""</stim_listA>",,html-keyboard-response,201,682160,0.0-15.0-1.18,9563,List1A,white,man,,,,null,,,,
null,are fighting each other,,html-keyboard-response,202,684165,0.0-15.0-2.18,9563,List1A,white,man,,,,null,,,,
4513,,,survey-text,203,688679,0.0-15.0-3.18,9563,List1A,white,man,,,,,"{""Q0"":""luke beth""}","<img src=""stim_listA/fight4.gif""</stim_listA>",are fighting each other,
null,"<div style=""font-size:60px;"">+</div>",,html-keyboard-response,204,689194,0.0-15.0-0.19,9563,List1A,white,man,,,,null,,,,
null,"<img src=""stim_listA/fight1.gif""</stim_listA>",,html-keyboard-response,205,691196,0.0-15.0-1.19,9563,List1A,white,man,,,,null,,,,
null,is fighting,,html-keyboard-response,206,693204,0.0-15.0-2.19,9563,List1A,white,man,,,,null,,,,
4658,,,survey-text,207,697863,0.0-15.0-3.19,9563,List1A,white,man,,,,,"{""Q0"":""mike kate""}","<img src=""stim_listA/fight1.gif""</stim_listA>",is fighting,
5159,"<img src='img/portrait_matrix_list1.JPG' style='width:900px;height:500px;''></img><p>If you have memorised all the portraits and names and are ready to start, press Continue.</p><p><strong>Please note: Your memory of these faces will be tested 4 times during this experiment.</strong></p>",0,html-button-response,208,703023,0.0-16.0-0.0,9563,List1A,white,man,,,,,,,,
2671,"<img src=""portrait/WW2.jpg""style=""width:400px;height:400px;""></img>",3,html-button-response,209,706711,0.0-16.0-1.0,9563,List1A,white,man,,TRUE,3,,,,,
null,CORRECT,,html-keyboard-response,210,708238,0.0-16.0-2.0-0.0,9563,List1A,white,man,,,,null,,,,
2528,"<img src=""portrait/WW1.jpg""style=""width:400px;height:400px;""></img>",1,html-button-response,211,710767,0.0-16.0-4.0,9563,List1A,white,man,,TRUE,1,,,,,
null,CORRECT,,html-keyboard-response,212,712271,0.0-16.0-5.0-0.0,9563,List1A,white,man,,,,null,,,,
2079,"<img src=""portrait/WM2.jpg""style=""width:400px;height:400px;""></img>",7,html-button-response,213,714351,0.0-16.0-7.0,9563,List1A,white,man,,TRUE,7,,,,,
null,CORRECT,,html-keyboard-response,214,715869,0.0-16.0-8.0-0.0,9563,List1A,white,man,,,,null,,,,
2185,"<img src=""portrait/BM2.jpg""style=""width:400px;height:400px;""></img>",5,html-button-response,215,718055,0.0-16.0-10.0,9563,List1A,white,man,,TRUE,5,,,,,
null,CORRECT,,html-keyboard-response,216,719567,0.0-16.0-11.0-0.0,9563,List1A,white,man,,,,null,,,,
1575,"<img src=""portrait/BM1.jpg""style=""width:400px;height:400px;""></img>",4,html-button-response,217,721143,0.0-16.0-13.0,9563,List1A,white,man,,TRUE,4,,,,,
null,CORRECT,,html-keyboard-response,218,722657,0.0-16.0-14.0-0.0,9563,List1A,white,man,,,,null,,,,
3055,"<img src=""portrait/BW2.jpg""style=""width:400px;height:400px;""></img>",2,html-button-response,219,725714,0.0-16.0-16.0,9563,List1A,white,man,,TRUE,2,,,,,
null,CORRECT,,html-keyboard-response,220,727220,0.0-16.0-17.0-0.0,9563,List1A,white,man,,,,null,,,,
2910,"<img src=""portrait/WM1.jpg""style=""width:400px;height:400px;""></img>",6,html-button-response,221,730130,0.0-16.0-19.0,9563,List1A,white,man,,TRUE,6,,,,,
null,CORRECT,,html-keyboard-response,222,731650,0.0-16.0-20.0-0.0,9563,List1A,white,man,,,,null,,,,
3534,"<img src=""portrait/BW1.jpg""style=""width:400px;height:400px;""></img>",0,html-button-response,223,735186,0.0-16.0-22.0,9563,List1A,white,man,,TRUE,0,,,,,
null,CORRECT,,html-keyboard-response,224,736687,0.0-16.0-23.0-0.0,9563,List1A,white,man,,,,null,,,,
1033,<p>You got 8 out of 8 right first time. Press Continue.</p>,0,html-button-response,225,737722,0.0-16.0-25.0,9563,List1A,white,man,,,,,,,,
null,"<div style=""font-size:60px;"">+</div>",,html-keyboard-response,226,739239,0.0-17.0-0.0,9563,List1A,white,man,,,,null,,,,
null,"<img src=""stim_listA/marry1.gif""</stim_listA>",,html-keyboard-response,227,741245,0.0-17.0-1.0,9563,List1A,white,man,,,,null,,,,
null,is marrying,,html-keyboard-response,228,743250,0.0-17.0-2.0,9563,List1A,white,man,,,,null,,,,
4935,,,survey-text,229,748186,0.0-17.0-3.0,9563,List1A,white,man,,,,,"{""Q0"":""mike beth""}","<img src=""stim_listA/marry1.gif""</stim_listA>",is marrying,
null,"<div style=""font-size:60px;"">+</div>",,html-keyboard-response,230,748693,0.0-17.0-0.1,9563,List1A,white,man,,,,null,,,,
null,"<img src=""stim_listA/touch4.gif""</stim_listA>",,html-keyboard-response,231,750696,0.0-17.0-1.1,9563,List1A,white,man,,,,null,,,,
null,are touching each other,,html-keyboard-response,232,752697,0.0-17.0-2.1,9563,List1A,white,man,,,,null,,,,
3936,,,survey-text,233,756634,0.0-17.0-3.1,9563,List1A,white,man,,,,,"{""Q0"":""ruth luke""}","<img src=""stim_listA/touch4.gif""</stim_listA>",are touching each other,
null,"<div style=""font-size:60px;"">+</div>",,html-keyboard-response,234,757135,0.0-17.0-0.2,9563,List1A,white,man,,,,null,,,,
null,"<img src=""stim_listA/hug4.gif""</stim_listA>",,html-keyboard-response,235,759143,0.0-17.0-1.2,9563,List1A,white,man,,,,null,,,,
null,are hugging each other,,html-keyboard-response,236,761145,0.0-17.0-2.2,9563,List1A,white,man,,,,null,,,,
3471,,,survey-text,237,764618,0.0-17.0-3.2,9563,List1A,white,man,,,,,"{""Q0"":""dave jane""}","<img src=""stim_listA/hug4.gif""</stim_listA>",are hugging each other,
null,"<div style=""font-size:60px;"">+</div>",,html-keyboard-response,238,765123,0.0-17.0-0.3,9563,List1A,white,man,,,,null,,,,
null,"<img src=""stim_listA/shout4.gif""</stim_listA>",,html-keyboard-response,239,767138,0.0-17.0-1.3,9563,List1A,white,man,,,,null,,,,
null,are shouting at each other,,html-keyboard-response,240,769139,0.0-17.0-2.3,9563,List1A,white,man,,,,null,,,,
3342,,,survey-text,241,772482,0.0-17.0-3.3,9563,List1A,white,man,,,,,"{""Q0"":""dave jane""}","<img src=""stim_listA/shout4.gif""</stim_listA>",are shouting at each other,
null,"<div style=""font-size:60px;"">+</div>",,html-keyboard-response,242,772983,0.0-17.0-0.4,9563,List1A,white,man,,,,null,,,,
null,"<img src=""stim_listA/shout7.gif""</stim_listA>",,html-keyboard-response,243,774995,0.0-17.0-1.4,9563,List1A,white,man,,,,null,,,,
null,is shouting at,,html-keyboard-response,244,776996,0.0-17.0-2.4,9563,List1A,white,man,,,,null,,,,
3916,,,survey-text,245,780913,0.0-17.0-3.4,9563,List1A,white,man,,,,,"{""Q0"":""ruth beth""}","<img src=""stim_listA/shout7.gif""</stim_listA>",is shouting at,
null,"<div style=""font-size:60px;"">+</div>",,html-keyboard-response,246,781417,0.0-17.0-0.5,9563,List1A,white,man,,,,null,,,,
null,"<img src=""stim_listA/fight7.gif""</stim_listA>",,html-keyboard-response,247,783434,0.0-17.0-1.5,9563,List1A,white,man,,,,null,,,,
null,is fighting,,html-keyboard-response,248,785438,0.0-17.0-2.5,9563,List1A,white,man,,,,null,,,,
3637,,,survey-text,249,789076,0.0-17.0-3.5,9563,List1A,white,man,,,,,"{""Q0"":""kate jane""}","<img src=""stim_listA/fight7.gif""</stim_listA>",is fighting,
null,"<div style=""font-size:60px;"">+</div>",,html-keyboard-response,250,789577,0.0-17.0-0.6,9563,List1A,white,man,,,,null,,,,
null,"<img src=""stim_listA/shout3.gif""</stim_listA>",,html-keyboard-response,251,791582,0.0-17.0-1.6,9563,List1A,white,man,,,,null,,,,
null,is shouting at,,html-keyboard-response,252,793583,0.0-17.0-2.6,9563,List1A,white,man,,,,null,,,,
3636,,,survey-text,253,797220,0.0-17.0-3.6,9563,List1A,white,man,,,,,"{""Q0"":""ruth luke""}","<img src=""stim_listA/shout3.gif""</stim_listA>",is shouting at,
null,"<div style=""font-size:60px;"">+</div>",,html-keyboard-response,254,797722,0.0-17.0-0.7,9563,List1A,white,man,,,,null,,,,
null,"<img src=""stim_listA/kiss1.gif""</stim_listA>",,html-keyboard-response,255,799733,0.0-17.0-1.7,9563,List1A,white,man,,,,null,,,,
null,is kissing,,html-keyboard-response,256,801733,0.0-17.0-2.7,9563,List1A,white,man,,,,null,,,,
4278,,,survey-text,257,806012,0.0-17.0-3.7,9563,List1A,white,man,,,,,"{""Q0"":""fred beth""}","<img src=""stim_listA/kiss1.gif""</stim_listA>",is kissing,
null,"<div style=""font-size:60px;"">+</div>",,html-keyboard-response,258,806526,0.0-17.0-0.8,9563,List1A,white,man,,,,null,,,,
null,"<img src=""stim_listA/meet5.gif""</stim_listA>",,html-keyboard-response,259,808528,0.0-17.0-1.8,9563,List1A,white,man,,,,null,,,,
null,is meeting,,html-keyboard-response,260,810536,0.0-17.0-2.8,9563,List1A,white,man,,,,null,,,,
3371,,,survey-text,261,813908,0.0-17.0-3.8,9563,List1A,white,man,,,,,"{""Q0"":""mike dave""}","<img src=""stim_listA/meet5.gif""</stim_listA>",is meeting,
null,"<div style=""font-size:60px;"">+</div>",,html-keyboard-response,262,814419,0.0-17.0-0.9,9563,List1A,white,man,,,,null,,,,
null,"<img src=""stim_listA/kiss5.gif""</stim_listA>",,html-keyboard-response,263,816426,0.0-17.0-1.9,9563,List1A,white,man,,,,null,,,,
null,is kissing,,html-keyboard-response,264,818429,0.0-17.0-2.9,9563,List1A,white,man,,,,null,,,,
3551,,,survey-text,265,821980,0.0-17.0-3.9,9563,List1A,white,man,,,,,"{""Q0"":""fred luke""}","<img src=""stim_listA/kiss5.gif""</stim_listA>",is kissing,
null,"<div style=""font-size:60px;"">+</div>",,html-keyboard-response,266,822489,0.0-17.0-0.10,9563,List1A,white,man,,,,null,,,,
null,"<img src=""stim_listA/fight6.gif""</stim_listA>",,html-keyboard-response,267,824506,0.0-17.0-1.10,9563,List1A,white,man,,,,null,,,,
null,are fighting each other,,html-keyboard-response,268,826508,0.0-17.0-2.10,9563,List1A,white,man,,,,null,,,,
4071,,,survey-text,269,830580,0.0-17.0-3.10,9563,List1A,white,man,,,,,"{""Q0"":""fred luke""}","<img src=""stim_listA/fight6.gif""</stim_listA>",are fighting each other,
null,"<div style=""font-size:60px;"">+</div>",,html-keyboard-response,270,831087,0.0-17.0-0.11,9563,List1A,white,man,,,,null,,,,
null,"<img src=""stim_listA/dance1.gif""</stim_listA>",,html-keyboard-response,271,833101,0.0-17.0-1.11,9563,List1A,white,man,,,,null,,,,
null,is dancing with,,html-keyboard-response,272,835103,0.0-17.0-2.11,9563,List1A,white,man,,,,null,,,,
5436,,,survey-text,273,840540,0.0-17.0-3.11,9563,List1A,white,man,,,,,"{""Q0"":""fred kate""}","<img src=""stim_listA/dance1.gif""</stim_listA>",is dancing with,
null,"<div style=""font-size:60px;"">+</div>",,html-keyboard-response,274,841050,0.0-17.0-0.12,9563,List1A,white,man,,,,null,,,,
null,"<img src=""stim_listA/argue1.gif""</stim_listA>",,html-keyboard-response,275,843063,0.0-17.0-1.12,9563,List1A,white,man,,,,null,,,,
null,is arguing with,,html-keyboard-response,276,845065,0.0-17.0-2.12,9563,List1A,white,man,,,,null,,,,
3975,,,survey-text,277,849040,0.0-17.0-3.12,9563,List1A,white,man,,,,,"{""Q0"":""mike beth""}","<img src=""stim_listA/argue1.gif""</stim_listA>",is arguing with,
null,"<div style=""font-size:60px;"">+</div>",,html-keyboard-response,278,849550,0.0-17.0-0.13,9563,List1A,white,man,,,,null,,,,
null,"<img src=""stim_listA/dance4.gif""</stim_listA>",,html-keyboard-response,279,851566,0.0-17.0-1.13,9563,List1A,white,man,,,,null,,,,
null,are dancing with each other,,html-keyboard-response,280,853567,0.0-17.0-2.13,9563,List1A,white,man,,,,null,,,,
3056,,,survey-text,281,856624,0.0-17.0-3.13,9563,List1A,white,man,,,,,"{""Q0"":""dave ruth""}","<img src=""stim_listA/dance4.gif""</stim_listA>",are dancing with each other,
null,"<div style=""font-size:60px;"">+</div>",,html-keyboard-response,282,857133,0.0-17.0-0.14,9563,List1A,white,man,,,,null,,,,
null,"<img src=""stim_listA/argue3.gif""</stim_listA>",,html-keyboard-response,283,859134,0.0-17.0-1.14,9563,List1A,white,man,,,,null,,,,
null,is arguing with,,html-keyboard-response,284,861143,0.0-17.0-2.14,9563,List1A,white,man,,,,null,,,,
3913,,,survey-text,285,865056,0.0-17.0-3.14,9563,List1A,white,man,,,,,"{""Q0"":""dave ruth""}","<img src=""stim_listA/argue3.gif""</stim_listA>",is arguing with,
null,"<div style=""font-size:60px;"">+</div>",,html-keyboard-response,286,865563,0.0-17.0-0.15,9563,List1A,white,man,,,,null,,,,
null,"<img src=""stim_listA/meet6.gif""</stim_listA>",,html-keyboard-response,287,867576,0.0-17.0-1.15,9563,List1A,white,man,,,,null,,,,
null,are meeting each other,,html-keyboard-response,288,869591,0.0-17.0-2.15,9563,List1A,white,man,,,,null,,,,
3799,,,survey-text,289,873392,0.0-17.0-3.15,9563,List1A,white,man,,,,,"{""Q0"":""fred luke""}","<img src=""stim_listA/meet6.gif""</stim_listA>",are meeting each other,
null,"<div style=""font-size:60px;"">+</div>",,html-keyboard-response,290,873893,0.0-17.0-0.16,9563,List1A,white,man,,,,null,,,,
null,"<img src=""stim_listA/shout5.gif""</stim_listA>",,html-keyboard-response,291,875896,0.0-17.0-1.16,9563,List1A,white,man,,,,null,,,,
null,is shouting at,,html-keyboard-response,292,877897,0.0-17.0-2.16,9563,List1A,white,man,,,,null,,,,
3351,,,survey-text,293,881248,0.0-17.0-3.16,9563,List1A,white,man,,,,,"{""Q0"":""fred luke""}","<img src=""stim_listA/shout5.gif""</stim_listA>",is shouting at,
null,"<div style=""font-size:60px;"">+</div>",,html-keyboard-response,294,881757,0.0-17.0-0.17,9563,List1A,white,man,,,,null,,,,
null,"<img src=""stim_listA/talk1.gif""</stim_listA>",,html-keyboard-response,295,883760,0.0-17.0-1.17,9563,List1A,white,man,,,,null,,,,
null,is talking to,,html-keyboard-response,296,885767,0.0-17.0-2.17,9563,List1A,white,man,,,,null,,,,
4424,,,survey-text,297,890192,0.0-17.0-3.17,9563,List1A,white,man,,,,,"{""Q0"":""fred kate""}","<img src=""stim_listA/talk1.gif""</stim_listA>",is talking to,
null,"<div style=""font-size:60px;"">+</div>",,html-keyboard-response,298,890701,0.0-17.0-0.18,9563,List1A,white,man,,,,null,,,,
null,"<img src=""stim_listA/shout6.gif""</stim_listA>",,html-keyboard-response,299,892703,0.0-17.0-1.18,9563,List1A,white,man,,,,null,,,,
null,are shouting at each other,,html-keyboard-response,300,894704,0.0-17.0-2.18,9563,List1A,white,man,,,,null,,,,
3295,,,survey-text,301,898000,0.0-17.0-3.18,9563,List1A,white,man,,,,,"{""Q0"":""dave mike""}","<img src=""stim_listA/shout6.gif""</stim_listA>",are shouting at each other,
null,"<div style=""font-size:60px;"">+</div>",,html-keyboard-response,302,898502,0.0-17.0-0.19,9563,List1A,white,man,,,,null,,,,
null,"<img src=""stim_listA/fight8.gif""</stim_listA>",,html-keyboard-response,303,900509,0.0-17.0-1.19,9563,List1A,white,man,,,,null,,,,
null,are fighting each other,,html-keyboard-response,304,902513,0.0-17.0-2.19,9563,List1A,white,man,,,,null,,,,
3591,,,survey-text,305,906105,0.0-17.0-3.19,9563,List1A,white,man,,,,,"{""Q0"":""ruth beth""}","<img src=""stim_listA/fight8.gif""</stim_listA>",are fighting each other,
3000,"<img src='img/portrait_matrix_list1.JPG' style='width:900px;height:500px;''></img><p>If you have memorised all the portraits and names and are ready to start, press Continue.</p><p><strong>Please note: Your memory of these faces will be tested 4 times during this experiment.</strong></p>",0,html-button-response,306,909105,0.0-18.0-0.0,9563,List1A,white,man,,,,,,,,
1556,"<img src=""portrait/WM2.jpg""style=""width:400px;height:400px;""></img>",7,html-button-response,307,911673,0.0-18.0-1.0,9563,List1A,white,man,,TRUE,7,,,,,
null,CORRECT,,html-keyboard-response,308,913181,0.0-18.0-2.0-0.0,9563,List1A,white,man,,,,null,,,,
1946,"<img src=""portrait/BM2.jpg""style=""width:400px;height:400px;""></img>",5,html-button-response,309,915129,0.0-18.0-4.0,9563,List1A,white,man,,TRUE,5,,,,,
null,CORRECT,,html-keyboard-response,310,916632,0.0-18.0-5.0-0.0,9563,List1A,white,man,,,,null,,,,
2823,"<img src=""portrait/WW1.jpg""style=""width:400px;height:400px;""></img>",1,html-button-response,311,919457,0.0-18.0-7.0,9563,List1A,white,man,,TRUE,1,,,,,
null,CORRECT,,html-keyboard-response,312,920980,0.0-18.0-8.0-0.0,9563,List1A,white,man,,,,null,,,,
1636,"<img src=""portrait/BW1.jpg""style=""width:400px;height:400px;""></img>",0,html-button-response,313,922617,0.0-18.0-10.0,9563,List1A,white,man,,TRUE,0,,,,,
null,CORRECT,,html-keyboard-response,314,924127,0.0-18.0-11.0-0.0,9563,List1A,white,man,,,,null,,,,
1600,"<img src=""portrait/WM1.jpg""style=""width:400px;height:400px;""></img>",5,html-button-response,315,925729,0.0-18.0-13.0,9563,List1A,white,man,,TRUE,6,,,,,
3478,"<img src=""portrait/WM1.jpg""style=""width:400px;height:400px;""></img>",6,html-button-response,316,930209,0.0-18.0-15.0-0.0,9563,List1A,white,man,,FALSE,6,,,,,
null,CORRECT,,html-keyboard-response,317,931712,0.0-18.0-15.0-1.0-0.0,9563,List1A,white,man,,,,null,,,,
1799,"<img src=""portrait/BW2.jpg""style=""width:400px;height:400px;""></img>",2,html-button-response,318,933513,0.0-18.0-16.0,9563,List1A,white,man,,TRUE,2,,,,,
null,CORRECT,,html-keyboard-response,319,935039,0.0-18.0-17.0-0.0,9563,List1A,white,man,,,,null,,,,
1872,"<img src=""portrait/WW2.jpg""style=""width:400px;height:400px;""></img>",3,html-button-response,320,936913,0.0-18.0-19.0,9563,List1A,white,man,,TRUE,3,,,,,
null,CORRECT,,html-keyboard-response,321,938422,0.0-18.0-20.0-0.0,9563,List1A,white,man,,,,null,,,,
1417,"<img src=""portrait/BM1.jpg""style=""width:400px;height:400px;""></img>",4,html-button-response,322,939841,0.0-18.0-22.0,9563,List1A,white,man,,TRUE,4,,,,,
null,CORRECT,,html-keyboard-response,323,941351,0.0-18.0-23.0-0.0,9563,List1A,white,man,,,,null,,,,
888,<p>You got 7 out of 8 right first time. Press Continue.</p>,0,html-button-response,324,942241,0.0-18.0-25.0,9563,List1A,white,man,,,,,,,,
2354,"As you did not score 100%, the memory game will repeat. Press Continue.",0,html-button-response,325,945609,0.0-18.0-26.0-0.0,9563,List1A,white,man,,,,,,,,
2924,"<img src='img/portrait_matrix_list1.JPG' style='width:900px;height:500px;''></img><p>If you have memorised all the portraits and names and are ready to start, press Continue.</p><p><strong>Please note: Your memory of these faces will be tested 4 times during this experiment.</strong></p>",0,html-button-response,326,949545,0.0-18.1-0.1,9563,List1A,white,man,,,,,,,,
2088,"<img src=""portrait/WM2.jpg""style=""width:400px;height:400px;""></img>",7,html-button-response,327,952641,0.0-18.1-1.1,9563,List1A,white,man,,TRUE,7,,,,,
null,CORRECT,,html-keyboard-response,328,954151,0.0-18.1-2.1-0.1,9563,List1A,white,man,,,,null,,,,
1640,"<img src=""portrait/BM2.jpg""style=""width:400px;height:400px;""></img>",5,html-button-response,329,955793,0.0-18.1-4.1,9563,List1A,white,man,,TRUE,5,,,,,
null,CORRECT,,html-keyboard-response,330,957314,0.0-18.1-5.1-0.1,9563,List1A,white,man,,,,null,,,,
1405,"<img src=""portrait/WW1.jpg""style=""width:400px;height:400px;""></img>",1,html-button-response,331,958721,0.0-18.1-7.1,9563,List1A,white,man,,TRUE,1,,,,,
null,CORRECT,,html-keyboard-response,332,960249,0.0-18.1-8.1-0.1,9563,List1A,white,man,,,,null,,,,
2327,"<img src=""portrait/BW1.jpg""style=""width:400px;height:400px;""></img>",0,html-button-response,333,962577,0.0-18.1-10.1,9563,List1A,white,man,,TRUE,0,,,,,
null,CORRECT,,html-keyboard-response,334,964106,0.0-18.1-11.1-0.1,9563,List1A,white,man,,,,null,,,,
1814,"<img src=""portrait/WM1.jpg""style=""width:400px;height:400px;""></img>",6,html-button-response,335,965921,0.0-18.1-13.1,9563,List1A,white,man,,TRUE,6,,,,,
null,CORRECT,,html-keyboard-response,336,967446,0.0-18.1-14.1-0.1,9563,List1A,white,man,,,,null,,,,
1484,"<img src=""portrait/BW2.jpg""style=""width:400px;height:400px;""></img>",2,html-button-response,337,968931,0.0-18.1-16.1,9563,List1A,white,man,,TRUE,2,,,,,
null,CORRECT,,html-keyboard-response,338,970447,0.0-18.1-17.1-0.1,9563,List1A,white,man,,,,null,,,,
1355,"<img src=""portrait/WW2.jpg""style=""width:400px;height:400px;""></img>",3,html-button-response,339,971803,0.0-18.1-19.1,9563,List1A,white,man,,TRUE,3,,,,,
null,CORRECT,,html-keyboard-response,340,973312,0.0-18.1-20.1-0.1,9563,List1A,white,man,,,,null,,,,
1401,"<img src=""portrait/BM1.jpg""style=""width:400px;height:400px;""></img>",4,html-button-response,341,974715,0.0-18.1-22.1,9563,List1A,white,man,,TRUE,4,,,,,
null,CORRECT,,html-keyboard-response,342,976228,0.0-18.1-23.1-0.1,9563,List1A,white,man,,,,null,,,,
917,<p>You got 8 out of 8 right first time. Press Continue.</p>,0,html-button-response,343,977147,0.0-18.1-25.1,9563,List1A,white,man,,,,,,,,
null,"<div style=""font-size:60px;"">+</div>",,html-keyboard-response,344,978661,0.0-19.0-0.0,9563,List1A,white,man,,,,null,,,,
null,"<img src=""stim_listA/hug3.gif""</stim_listA>",,html-keyboard-response,345,980676,0.0-19.0-1.0,9563,List1A,white,man,,,,null,,,,
null,is hugging,,html-keyboard-response,346,982681,0.0-19.0-2.0,9563,List1A,white,man,,,,null,,,,
5185,,,survey-text,347,987867,0.0-19.0-3.0,9563,List1A,white,man,,,,,"{""Q0"":""ruth luke""}","<img src=""stim_listA/hug3.gif""</stim_listA>",is hugging,
null,"<div style=""font-size:60px;"">+</div>",,html-keyboard-response,348,988374,0.0-19.0-0.1,9563,List1A,white,man,,,,null,,,,
null,"<img src=""stim_listA/hug2.gif""</stim_listA>",,html-keyboard-response,349,990388,0.0-19.0-1.1,9563,List1A,white,man,,,,null,,,,
null,are hugging each other,,html-keyboard-response,350,992394,0.0-19.0-2.1,9563,List1A,white,man,,,,null,,,,
5256,,,survey-text,351,997652,0.0-19.0-3.1,9563,List1A,white,man,,,,,"{""Q0"":""kate mike""}","<img src=""stim_listA/hug2.gif""</stim_listA>",are hugging each other,
null,"<div style=""font-size:60px;"">+</div>",,html-keyboard-response,352,998154,0.0-19.0-0.2,9563,List1A,white,man,,,,null,,,,
null,"<img src=""stim_listA/marry8.gif""</stim_listA>",,html-keyboard-response,353,1000171,0.0-19.0-1.2,9563,List1A,white,man,,,,null,,,,
null,are marrying each other,,html-keyboard-response,354,1002173,0.0-19.0-2.2,9563,List1A,white,man,,,,null,,,,
8924,,,survey-text,355,1011099,0.0-19.0-3.2,9563,List1A,white,man,,,,,"{""Q0"":""beth jane""}","<img src=""stim_listA/marry8.gif""</stim_listA>",are marrying each other,
null,"<div style=""font-size:60px;"">+</div>",,html-keyboard-response,356,1011610,0.0-19.0-0.3,9563,List1A,white,man,,,,null,,,,
null,"<img src=""stim_listA/touch3.gif""</stim_listA>",,html-keyboard-response,357,1013611,0.0-19.0-1.3,9563,List1A,white,man,,,,null,,,,
null,is touching,,html-keyboard-response,358,1015613,0.0-19.0-2.3,9563,List1A,white,man,,,,null,,,,
3604,,,survey-text,359,1019219,0.0-19.0-3.3,9563,List1A,white,man,,,,,"{""Q0"":""jane dave""}","<img src=""stim_listA/touch3.gif""</stim_listA>",is touching,
null,"<div style=""font-size:60px;"">+</div>",,html-keyboard-response,360,1019735,0.0-19.0-0.4,9563,List1A,white,man,,,,null,,,,
null,"<img src=""stim_listA/fight5.gif""</stim_listA>",,html-keyboard-response,361,1021747,0.0-19.0-1.4,9563,List1A,white,man,,,,null,,,,
null,is fighting,,html-keyboard-response,362,1023758,0.0-19.0-2.4,9563,List1A,white,man,,,,null,,,,
3312,,,survey-text,363,1027070,0.0-19.0-3.4,9563,List1A,white,man,,,,,"{""Q0"":""mike dave""}","<img src=""stim_listA/fight5.gif""</stim_listA>",is fighting,
null,"<div style=""font-size:60px;"">+</div>",,html-keyboard-response,364,1027582,0.0-19.0-0.5,9563,List1A,white,man,,,,null,,,,
null,"<img src=""stim_listA/talk7.gif""</stim_listA>",,html-keyboard-response,365,1029591,0.0-19.0-1.5,9563,List1A,white,man,,,,null,,,,
null,is talking to,,html-keyboard-response,366,1031592,0.0-19.0-2.5,9563,List1A,white,man,,,,null,,,,
4173,,,survey-text,367,1035766,0.0-19.0-3.5,9563,List1A,white,man,,,,,"{""Q0"":""jane beth""}","<img src=""stim_listA/talk7.gif""</stim_listA>",is talking to,
null,"<div style=""font-size:60px;"">+</div>",,html-keyboard-response,368,1036270,0.0-19.0-0.6,9563,List1A,white,man,,,,null,,,,
null,"<img src=""stim_listA/kiss7.gif""</stim_listA>",,html-keyboard-response,369,1038274,0.0-19.0-1.6,9563,List1A,white,man,,,,null,,,,
null,is kissing,,html-keyboard-response,370,1040289,0.0-19.0-2.6,9563,List1A,white,man,,,,null,,,,
5804,,,survey-text,371,1046094,0.0-19.0-3.6,9563,List1A,white,man,,,,,"{""Q0"":""beth ruth""}","<img src=""stim_listA/kiss7.gif""</stim_listA>",is kissing,
null,"<div style=""font-size:60px;"">+</div>",,html-keyboard-response,372,1046601,0.0-19.0-0.7,9563,List1A,white,man,,,,null,,,,
null,"<img src=""stim_listA/meet7.gif""</stim_listA>",,html-keyboard-response,373,1048616,0.0-19.0-1.7,9563,List1A,white,man,,,,null,,,,
null,is meeting,,html-keyboard-response,374,1050627,0.0-19.0-2.7,9563,List1A,white,man,,,,null,,,,
3770,,,survey-text,375,1054398,0.0-19.0-3.7,9563,List1A,white,man,,,,,"{""Q0"":""kate jane""}","<img src=""stim_listA/meet7.gif""</stim_listA>",is meeting,
null,"<div style=""font-size:60px;"">+</div>",,html-keyboard-response,376,1054913,0.0-19.0-0.8,9563,List1A,white,man,,,,null,,,,
null,"<img src=""stim_listA/hug8.gif""</stim_listA>",,html-keyboard-response,377,1056929,0.0-19.0-1.8,9563,List1A,white,man,,,,null,,,,
null,are hugging each other,,html-keyboard-response,378,1058935,0.0-19.0-2.8,9563,List1A,white,man,,,,null,,,,
7550,,,survey-text,379,1066486,0.0-19.0-3.8,9563,List1A,white,man,,,,,"{""Q0"":""kate jane""}","<img src=""stim_listA/hug8.gif""</stim_listA>",are hugging each other,
null,"<div style=""font-size:60px;"">+</div>",,html-keyboard-response,380,1066994,0.0-19.0-0.9,9563,List1A,white,man,,,,null,,,,
null,"<img src=""stim_listA/hug5.gif""</stim_listA>",,html-keyboard-response,381,1069006,0.0-19.0-1.9,9563,List1A,white,man,,,,null,,,,
null,is hugging,,html-keyboard-response,382,1071017,0.0-19.0-2.9,9563,List1A,white,man,,,,null,,,,
5588,,,survey-text,383,1076606,0.0-19.0-3.9,9563,List1A,white,man,,,,,"{""Q0"":""fred luke""}","<img src=""stim_listA/hug5.gif""</stim_listA>",is hugging,
null,"<div style=""font-size:60px;"">+</div>",,html-keyboard-response,384,1077112,0.0-19.0-0.10,9563,List1A,white,man,,,,null,,,,
null,"<img src=""stim_listA/dance7.gif""</stim_listA>",,html-keyboard-response,385,1079124,0.0-19.0-1.10,9563,List1A,white,man,,,,null,,,,
null,is dancing with,,html-keyboard-response,386,1081139,0.0-19.0-2.10,9563,List1A,white,man,,,,null,,,,
8979,,,survey-text,387,1090118,0.0-19.0-3.10,9563,List1A,white,man,,,,,"{""Q0"":""beth jane""}","<img src=""stim_listA/dance7.gif""</stim_listA>",is dancing with,
null,"<div style=""font-size:60px;"">+</div>",,html-keyboard-response,388,1090621,0.0-19.0-0.11,9563,List1A,white,man,,,,null,,,,
null,"<img src=""stim_listA/argue5.gif""</stim_listA>",,html-keyboard-response,389,1092625,0.0-19.0-1.11,9563,List1A,white,man,,,,null,,,,
null,is arguing with,,html-keyboard-response,390,1094627,0.0-19.0-2.11,9563,List1A,white,man,,,,null,,,,
10186,,,survey-text,391,1104814,0.0-19.0-3.11,9563,List1A,white,man,,,,,"{""Q0"":""mike luke ""}","<img src=""stim_listA/argue5.gif""</stim_listA>",is arguing with,
null,"<div style=""font-size:60px;"">+</div>",,html-keyboard-response,392,1105323,0.0-19.0-0.12,9563,List1A,white,man,,,,null,,,,
null,"<img src=""stim_listA/talk5.gif""</stim_listA>",,html-keyboard-response,393,1107324,0.0-19.0-1.12,9563,List1A,white,man,,,,null,,,,
null,is talking to,,html-keyboard-response,394,1109331,0.0-19.0-2.12,9563,List1A,white,man,,,,null,,,,
3795,,,survey-text,395,1113126,0.0-19.0-3.12,9563,List1A,white,man,,,,,"{""Q0"":""fred dave""}","<img src=""stim_listA/talk5.gif""</stim_listA>",is talking to,
null,"<div style=""font-size:60px;"">+</div>",,html-keyboard-response,396,1113637,0.0-19.0-0.13,9563,List1A,white,man,,,,null,,,,
null,"<img src=""stim_listA/marry4.gif""</stim_listA>",,html-keyboard-response,397,1115650,0.0-19.0-1.13,9563,List1A,white,man,,,,null,,,,
null,are marrying each other,,html-keyboard-response,398,1117651,0.0-19.0-2.13,9563,List1A,white,man,,,,null,,,,
4011,,,survey-text,399,1121663,0.0-19.0-3.13,9563,List1A,white,man,,,,,"{""Q0"":""jane luke""}","<img src=""stim_listA/marry4.gif""</stim_listA>",are marrying each other,
null,"<div style=""font-size:60px;"">+</div>",,html-keyboard-response,400,1122167,0.0-19.0-0.14,9563,List1A,white,man,,,,null,,,,
null,"<img src=""stim_listA/shout1.gif""</stim_listA>",,html-keyboard-response,401,1124171,0.0-19.0-1.14,9563,List1A,white,man,,,,null,,,,
null,is shouting at,,html-keyboard-response,402,1126172,0.0-19.0-2.14,9563,List1A,white,man,,,,null,,,,
10153,,,survey-text,403,1136326,0.0-19.0-3.14,9563,List1A,white,man,,,,,"{""Q0"":""beth fred""}","<img src=""stim_listA/shout1.gif""</stim_listA>",is shouting at,
null,"<div style=""font-size:60px;"">+</div>",,html-keyboard-response,404,1136827,0.0-19.0-0.15,9563,List1A,white,man,,,,null,,,,
null,"<img src=""stim_listA/marry3.gif""</stim_listA>",,html-keyboard-response,405,1138828,0.0-19.0-1.15,9563,List1A,white,man,,,,null,,,,
null,is marrying,,html-keyboard-response,406,1140830,0.0-19.0-2.15,9563,List1A,white,man,,,,null,,,,
4135,,,survey-text,407,1144966,0.0-19.0-3.15,9563,List1A,white,man,,,,,"{""Q0"":""dave ruth""}","<img src=""stim_listA/marry3.gif""</stim_listA>",is marrying,
null,"<div style=""font-size:60px;"">+</div>",,html-keyboard-response,408,1145476,0.0-19.0-0.16,9563,List1A,white,man,,,,null,,,,
null,"<img src=""stim_listA/dance3.gif""</stim_listA>",,html-keyboard-response,409,1147493,0.0-19.0-1.16,9563,List1A,white,man,,,,null,,,,
null,is dancing with,,html-keyboard-response,410,1149509,0.0-19.0-2.16,9563,List1A,white,man,,,,null,,,,
3707,,,survey-text,411,1153216,0.0-19.0-3.16,9563,List1A,white,man,,,,,"{""Q0"":""jane luke""}","<img src=""stim_listA/dance3.gif""</stim_listA>",is dancing with,
null,"<div style=""font-size:60px;"">+</div>",,html-keyboard-response,412,1153725,0.0-19.0-0.17,9563,List1A,white,man,,,,null,,,,
null,"<img src=""stim_listA/argue8.gif""</stim_listA>",,html-keyboard-response,413,1155726,0.0-19.0-1.17,9563,List1A,white,man,,,,null,,,,
null,are arguing with each other,,html-keyboard-response,414,1157728,0.0-19.0-2.17,9563,List1A,white,man,,,,null,,,,
6567,,,survey-text,415,1164296,0.0-19.0-3.17,9563,List1A,white,man,,,,,"{""Q0"":""beth jane""}","<img src=""stim_listA/argue8.gif""</stim_listA>",are arguing with each other,
null,"<div style=""font-size:60px;"">+</div>",,html-keyboard-response,416,1164804,0.0-19.0-0.18,9563,List1A,white,man,,,,null,,,,
null,"<img src=""stim_listA/fight3.gif""</stim_listA>",,html-keyboard-response,417,1166821,0.0-19.0-1.18,9563,List1A,white,man,,,,null,,,,
null,is fighting,,html-keyboard-response,418,1168823,0.0-19.0-2.18,9563,List1A,white,man,,,,null,,,,
8984,,,survey-text,419,1177808,0.0-19.0-3.18,9563,List1A,white,man,,,,,"{""Q0"":""jane dave""}","<img src=""stim_listA/fight3.gif""</stim_listA>",is fighting,
null,"<div style=""font-size:60px;"">+</div>",,html-keyboard-response,420,1178312,0.0-19.0-0.19,9563,List1A,white,man,,,,null,,,,
null,"<img src=""stim_listA/kiss3.gif""</stim_listA>",,html-keyboard-response,421,1180318,0.0-19.0-1.19,9563,List1A,white,man,,,,null,,,,
null,is kissing,,html-keyboard-response,422,1182320,0.0-19.0-2.19,9563,List1A,white,man,,,,null,,,,
4367,,,survey-text,423,1186688,0.0-19.0-3.19,9563,List1A,white,man,,,,,"{""Q0"":""luke ruth""}","<img src=""stim_listA/kiss3.gif""</stim_listA>",is kissing,
2432,<p>Thank you for completing that task.</p><p>The final part of this session is a short questionnaire.</p><p>Press Continue.</p>,0,html-button-response,424,1189120,0.0-20.0,9563,List1A,white,man,,,,,,,,
24489,,,survey-text,425,1214619,0.0-21.0,9563,List1A,white,man,,,,,"{""Q0"":""39"",""Q1"":""English"",""Q2"":""English"",""Q3"":""England"",""Q4"":""Caucasian"",""Q5"":""Male""}",,,demographics
38927,,,survey-likert,426,1253549,0.0-22.0,9563,List1A,white,man,,,,,"{""Q0"":3,""Q1"":3,""Q2"":3,""Q3"":4,""Q4"":3,""Q5"":4,""Q6"":3,""Q7"":2,""Q8"":2,""Q9"":3,""Q10"":4,""Q11"":4,""Q12"":2,""Q13"":3}",,,likert_race
39992,,,survey-likert,427,1293544,0.0-23.0,9563,List1A,white,man,,,,,"{""Q0"":3,""Q1"":2,""Q2"":4,""Q3"":3,""Q4"":3,""Q5"":3,""Q6"":3,""Q7"":3,""Q8"":4,""Q9"":4,""Q10"":4,""Q11"":4,""Q12"":2,""Q13"":2}",,,likert_gender
9277,,,survey-text,428,1302822,0.0-24.0,9563,List1A,white,man,,,,,"{""Q0"":""ccc""}",,,worker_id
14538,,,external-html,429,1317686,0.0-25.0,9563,List1A,white,man,debrief.html,,,,,,,
