rt,stimulus,button_pressed,trial_type,trial_index,time_elapsed,internal_node_id,subject,list,ppt_race,ppt_gender,url,first_guess,correct,key_press,responses,image_type,phrase_type,test_part
2090,Welcome to the experiment. Press Continue to begin.,0,html-button-response,0,2123,0.0-0.0,96926,List1A,black,man,,,,,,,,
9632,,,external-html,1,12863,0.0-1.0,96926,List1A,black,man,consent.html,,,,,,,
45596,"<p>On the next page, you will see portraits of 8 people and their names.</p><p>Your first task is to take a few minutes to memorise the names of these people.</p><p>You will have to recall their names during the rest of the experiment, so it is</p><p>essential that you try to memorise these people and their names as best as you can.</p><br><p><strong>You will then be tested on your memory of these names and portraits.</strong></p><br><p>The experiment will start after you have completed this memory test.</p><br><p>Ready?</p>",0,html-button-response,2,58461,0.0-2.0,96926,List1A,black,man,,,,,,,,
63979,"<img src='img/portrait_matrix_list1.JPG' style='width:900px;height:500px;''></img><p>If you have memorised all the portraits and names and are ready to start, press Continue.</p><p><strong>Please note: Your memory of these faces will be tested 4 times during this experiment.</strong></p>",0,html-button-response,3,123442,0.0-3.0-0.0,96926,List1A,black,man,,,,,,,,
24624,"<img src=""portrait/BM2.jpg""style=""width:400px;height:400px;""></img>",4,html-button-response,4,149068,0.0-3.0-1.0,96926,List1A,black,man,,TRUE,5,,,,,
5145,"<img src=""portrait/BM2.jpg""style=""width:400px;height:400px;""></img>",5,html-button-response,5,155216,0.0-3.0-3.0-0.0,96926,List1A,black,man,,FALSE,5,,,,,
null,CORRECT,,html-keyboard-response,6,156719,0.0-3.0-3.0-1.0-0.0,96926,List1A,black,man,,,,null,,,,
6471,"<img src=""portrait/BM1.jpg""style=""width:400px;height:400px;""></img>",4,html-button-response,7,163192,0.0-3.0-4.0,96926,List1A,black,man,,TRUE,4,,,,,
null,CORRECT,,html-keyboard-response,8,164694,0.0-3.0-5.0-0.0,96926,List1A,black,man,,,,null,,,,
13735,"<img src=""portrait/BW1.jpg""style=""width:400px;height:400px;""></img>",2,html-button-response,9,178430,0.0-3.0-7.0,96926,List1A,black,man,,TRUE,0,,,,,
2867,"<img src=""portrait/BW1.jpg""style=""width:400px;height:400px;""></img>",0,html-button-response,10,182300,0.0-3.0-9.0-0.0,96926,List1A,black,man,,FALSE,0,,,,,
null,CORRECT,,html-keyboard-response,11,183801,0.0-3.0-9.0-1.0-0.0,96926,List1A,black,man,,,,null,,,,
7805,"<img src=""portrait/WM1.jpg""style=""width:400px;height:400px;""></img>",6,html-button-response,12,191608,0.0-3.0-10.0,96926,List1A,black,man,,TRUE,6,,,,,
null,CORRECT,,html-keyboard-response,13,193111,0.0-3.0-11.0-0.0,96926,List1A,black,man,,,,null,,,,
1845,"<img src=""portrait/WM2.jpg""style=""width:400px;height:400px;""></img>",7,html-button-response,14,194958,0.0-3.0-13.0,96926,List1A,black,man,,TRUE,7,,,,,
null,CORRECT,,html-keyboard-response,15,196460,0.0-3.0-14.0-0.0,96926,List1A,black,man,,,,null,,,,
5381,"<img src=""portrait/BW2.jpg""style=""width:400px;height:400px;""></img>",2,html-button-response,16,201842,0.0-3.0-16.0,96926,List1A,black,man,,TRUE,2,,,,,
null,CORRECT,,html-keyboard-response,17,203345,0.0-3.0-17.0-0.0,96926,List1A,black,man,,,,null,,,,
13226,"<img src=""portrait/WW1.jpg""style=""width:400px;height:400px;""></img>",3,html-button-response,18,216572,0.0-3.0-19.0,96926,List1A,black,man,,TRUE,1,,,,,
1306,"<img src=""portrait/WW1.jpg""style=""width:400px;height:400px;""></img>",1,html-button-response,19,218880,0.0-3.0-21.0-0.0,96926,List1A,black,man,,FALSE,1,,,,,
null,CORRECT,,html-keyboard-response,20,220382,0.0-3.0-21.0-1.0-0.0,96926,List1A,black,man,,,,null,,,,
5173,"<img src=""portrait/WW2.jpg""style=""width:400px;height:400px;""></img>",1,html-button-response,21,225556,0.0-3.0-22.0,96926,List1A,black,man,,TRUE,3,,,,,
1644,"<img src=""portrait/WW2.jpg""style=""width:400px;height:400px;""></img>",3,html-button-response,22,228202,0.0-3.0-24.0-0.0,96926,List1A,black,man,,FALSE,3,,,,,
null,CORRECT,,html-keyboard-response,23,229705,0.0-3.0-24.0-1.0-0.0,96926,List1A,black,man,,,,null,,,,
1461,<p>You got 4 out of 8 right first time. Press Continue.</p>,0,html-button-response,24,231168,0.0-3.0-25.0,96926,List1A,black,man,,,,,,,,
1834,"As you did not score 100%, the memory game will repeat. Press Continue.",0,html-button-response,25,234004,0.0-3.0-26.0-0.0,96926,List1A,black,man,,,,,,,,
20125,"<img src='img/portrait_matrix_list1.JPG' style='width:900px;height:500px;''></img><p>If you have memorised all the portraits and names and are ready to start, press Continue.</p><p><strong>Please note: Your memory of these faces will be tested 4 times during this experiment.</strong></p>",0,html-button-response,26,255132,0.0-3.1-0.1,96926,List1A,black,man,,,,,,,,
4754,"<img src=""portrait/BM2.jpg""style=""width:400px;height:400px;""></img>",5,html-button-response,27,260888,0.0-3.1-1.1,96926,List1A,black,man,,TRUE,5,,,,,
null,CORRECT,,html-keyboard-response,28,262390,0.0-3.1-2.1-0.1,96926,List1A,black,man,,,,null,,,,
1814,"<img src=""portrait/BM1.jpg""style=""width:400px;height:400px;""></img>",4,html-button-response,29,264206,0.0-3.1-4.1,96926,List1A,black,man,,TRUE,4,,,,,
null,CORRECT,,html-keyboard-response,30,265711,0.0-3.1-5.1-0.1,96926,List1A,black,man,,,,null,,,,
5748,"<img src=""portrait/BW1.jpg""style=""width:400px;height:400px;""></img>",0,html-button-response,31,271460,0.0-3.1-7.1,96926,List1A,black,man,,TRUE,0,,,,,
null,CORRECT,,html-keyboard-response,32,272963,0.0-3.1-8.1-0.1,96926,List1A,black,man,,,,null,,,,
3208,"<img src=""portrait/WM1.jpg""style=""width:400px;height:400px;""></img>",6,html-button-response,33,276172,0.0-3.1-10.1,96926,List1A,black,man,,TRUE,6,,,,,
null,CORRECT,,html-keyboard-response,34,277674,0.0-3.1-11.1-0.1,96926,List1A,black,man,,,,null,,,,
1204,"<img src=""portrait/WM2.jpg""style=""width:400px;height:400px;""></img>",7,html-button-response,35,278881,0.0-3.1-13.1,96926,List1A,black,man,,TRUE,7,,,,,
null,CORRECT,,html-keyboard-response,36,280385,0.0-3.1-14.1-0.1,96926,List1A,black,man,,,,null,,,,
2774,"<img src=""portrait/BW2.jpg""style=""width:400px;height:400px;""></img>",2,html-button-response,37,283160,0.0-3.1-16.1,96926,List1A,black,man,,TRUE,2,,,,,
null,CORRECT,,html-keyboard-response,38,284664,0.0-3.1-17.1-0.1,96926,List1A,black,man,,,,null,,,,
5783,"<img src=""portrait/WW1.jpg""style=""width:400px;height:400px;""></img>",3,html-button-response,39,290448,0.0-3.1-19.1,96926,List1A,black,man,,TRUE,1,,,,,
2570,"<img src=""portrait/WW1.jpg""style=""width:400px;height:400px;""></img>",1,html-button-response,40,294022,0.0-3.1-21.1-0.1,96926,List1A,black,man,,FALSE,1,,,,,
null,CORRECT,,html-keyboard-response,41,295524,0.0-3.1-21.1-1.1-0.1,96926,List1A,black,man,,,,null,,,,
3376,"<img src=""portrait/WW2.jpg""style=""width:400px;height:400px;""></img>",3,html-button-response,42,298902,0.0-3.1-22.1,96926,List1A,black,man,,TRUE,3,,,,,
null,CORRECT,,html-keyboard-response,43,300406,0.0-3.1-23.1-0.1,96926,List1A,black,man,,,,null,,,,
1373,<p>You got 7 out of 8 right first time. Press Continue.</p>,0,html-button-response,44,301780,0.0-3.1-25.1,96926,List1A,black,man,,,,,,,,
922,"As you did not score 100%, the memory game will repeat. Press Continue.",0,html-button-response,45,303704,0.0-3.1-26.1-0.1,96926,List1A,black,man,,,,,,,,
12240,"<img src='img/portrait_matrix_list1.JPG' style='width:900px;height:500px;''></img><p>If you have memorised all the portraits and names and are ready to start, press Continue.</p><p><strong>Please note: Your memory of these faces will be tested 4 times during this experiment.</strong></p>",0,html-button-response,46,316946,0.0-3.2-0.2,96926,List1A,black,man,,,,,,,,
2409,"<img src=""portrait/BM2.jpg""style=""width:400px;height:400px;""></img>",5,html-button-response,47,320358,0.0-3.2-1.2,96926,List1A,black,man,,TRUE,5,,,,,
null,CORRECT,,html-keyboard-response,48,321860,0.0-3.2-2.2-0.2,96926,List1A,black,man,,,,null,,,,
2382,"<img src=""portrait/BM1.jpg""style=""width:400px;height:400px;""></img>",4,html-button-response,49,324244,0.0-3.2-4.2,96926,List1A,black,man,,TRUE,4,,,,,
null,CORRECT,,html-keyboard-response,50,325746,0.0-3.2-5.2-0.2,96926,List1A,black,man,,,,null,,,,
3897,"<img src=""portrait/BW1.jpg""style=""width:400px;height:400px;""></img>",0,html-button-response,51,329644,0.0-3.2-7.2,96926,List1A,black,man,,TRUE,0,,,,,
null,CORRECT,,html-keyboard-response,52,331147,0.0-3.2-8.2-0.2,96926,List1A,black,man,,,,null,,,,
5668,"<img src=""portrait/WM1.jpg""style=""width:400px;height:400px;""></img>",6,html-button-response,53,336818,0.0-3.2-10.2,96926,List1A,black,man,,TRUE,6,,,,,
null,CORRECT,,html-keyboard-response,54,338322,0.0-3.2-11.2-0.2,96926,List1A,black,man,,,,null,,,,
1466,"<img src=""portrait/WM2.jpg""style=""width:400px;height:400px;""></img>",7,html-button-response,55,339790,0.0-3.2-13.2,96926,List1A,black,man,,TRUE,7,,,,,
null,CORRECT,,html-keyboard-response,56,341293,0.0-3.2-14.2-0.2,96926,List1A,black,man,,,,null,,,,
2423,"<img src=""portrait/BW2.jpg""style=""width:400px;height:400px;""></img>",2,html-button-response,57,343718,0.0-3.2-16.2,96926,List1A,black,man,,TRUE,2,,,,,
null,CORRECT,,html-keyboard-response,58,345222,0.0-3.2-17.2-0.2,96926,List1A,black,man,,,,null,,,,
7561,"<img src=""portrait/WW1.jpg""style=""width:400px;height:400px;""></img>",1,html-button-response,59,352784,0.0-3.2-19.2,96926,List1A,black,man,,TRUE,1,,,,,
null,CORRECT,,html-keyboard-response,60,354286,0.0-3.2-20.2-0.2,96926,List1A,black,man,,,,null,,,,
1334,"<img src=""portrait/WW2.jpg""style=""width:400px;height:400px;""></img>",3,html-button-response,61,355622,0.0-3.2-22.2,96926,List1A,black,man,,TRUE,3,,,,,
null,CORRECT,,html-keyboard-response,62,357124,0.0-3.2-23.2-0.2,96926,List1A,black,man,,,,null,,,,
1927,<p>You got 8 out of 8 right first time. Press Continue.</p>,0,html-button-response,63,359052,0.0-3.2-25.2,96926,List1A,black,man,,,,,,,,
33598,"<p>In this experiment, you will view photographs of the people from the memory game interacting.</p><p>By using the <strong>exact</strong> phrase given <i>after</i> the photograph appears and recalling the correct names of the people in the photographs, form a sentence describing the interaction. You do not need to capitalise names.</p><p>Type your answer in the space provided. Please complete every sentence before moving onto the next trial.</p><p>You will only have a few seconds to memorise each given photograph and phrase before you can respond, so try your best to focus.</p><p>An example is given below. Press 'Continue' when you are ready.</p><img src='img/speaking_example_v2.jpg' style='width:800px;height:460px;''></img>",0,html-button-response,64,393652,0.0-4.0,96926,List1A,black,man,,,,,,,,
2884,"<p>Before the experiment starts, you will watch two example trials. Press 'Continue'.</p>",0,html-button-response,65,397537,0.0-5.0,96926,List1A,black,man,,,,,,,,
null,<img src='img/speaking_WW.gif'></img>,,html-keyboard-response,66,400540,0.0-6.0,96926,List1A,black,man,,,,null,,,,
null,<p>is speaking to</p>,,html-keyboard-response,67,402541,0.0-7.0,96926,List1A,black,man,,,,null,,,,
4679,<p><b>Answer:</b> kate is speaking to beth</p>,0,html-button-response,68,407221,0.0-8.0,96926,List1A,black,man,,,,,,,,
null,<img src='img/pointing_BM.gif'></img>,,html-keyboard-response,69,410223,0.0-9.0,96926,List1A,black,man,,,,null,,,,
null,<p>are pointing at each other</p>,,html-keyboard-response,70,412224,0.0-10.0,96926,List1A,black,man,,,,null,,,,
7947,<p><b>Answer:</b> luke and dave are pointing at each other</p>,0,html-button-response,71,420171,0.0-11.0,96926,List1A,black,man,,,,,,,,
6566,"<p>Ready to start the experiment?</p><br><p><strong>Remember to describe the picture using a full sentence,</strong></p><p><strong>that combines the names of the people with the given phrase.</strong></p><p><strong>If you do not do this correctly you will not be paid.</strong></p><p><strong> You do not need to capitalise names or use punctuation.</strong></p><br><p>Press 'Continue' to begin.</p>",0,html-button-response,72,427739,0.0-12.0,96926,List1A,black,man,,,,,,,,
null,"<div style=""font-size:60px;"">+</div>",,html-keyboard-response,73,429243,0.0-13.0-0.0,96926,List1A,black,man,,,,null,,,,
null,"<img src=""stim_listA/touch2.gif""</stim_listA>",,html-keyboard-response,74,431244,0.0-13.0-1.0,96926,List1A,black,man,,,,null,,,,
null,are touching each other,,html-keyboard-response,75,433246,0.0-13.0-2.0,96926,List1A,black,man,,,,null,,,,
19831,,,survey-text,76,453079,0.0-13.0-3.0,96926,List1A,black,man,,,,,"{""Q0"":""beth and fred are touching each other""}","<img src=""stim_listA/touch2.gif""</stim_listA>",are touching each other,
null,"<div style=""font-size:60px;"">+</div>",,html-keyboard-response,77,453582,0.0-13.0-0.1,96926,List1A,black,man,,,,null,,,,
null,"<img src=""stim_listA/meet4.gif""</stim_listA>",,html-keyboard-response,78,455582,0.0-13.0-1.1,96926,List1A,black,man,,,,null,,,,
null,are meeting each other,,html-keyboard-response,79,457585,0.0-13.0-2.1,96926,List1A,black,man,,,,null,,,,
25549,,,survey-text,80,483135,0.0-13.0-3.1,96926,List1A,black,man,,,,,"{""Q0"":""Luke and Jane are touching each other""}","<img src=""stim_listA/meet4.gif""</stim_listA>",are meeting each other,
null,"<div style=""font-size:60px;"">+</div>",,html-keyboard-response,81,483636,0.0-13.0-0.2,96926,List1A,black,man,,,,null,,,,
null,"<img src=""stim_listA/fight5.gif""</stim_listA>",,html-keyboard-response,82,485638,0.0-13.0-1.2,96926,List1A,black,man,,,,null,,,,
null,is fighting,,html-keyboard-response,83,487638,0.0-13.0-2.2,96926,List1A,black,man,,,,null,,,,
21788,,,survey-text,84,509427,0.0-13.0-3.2,96926,List1A,black,man,,,,,"{""Q0"":""Fred and John are fighting""}","<img src=""stim_listA/fight5.gif""</stim_listA>",is fighting,
null,"<div style=""font-size:60px;"">+</div>",,html-keyboard-response,85,509928,0.0-13.0-0.3,96926,List1A,black,man,,,,null,,,,
null,"<img src=""stim_listA/talk7.gif""</stim_listA>",,html-keyboard-response,86,511930,0.0-13.0-1.3,96926,List1A,black,man,,,,null,,,,
null,is talking to,,html-keyboard-response,87,513932,0.0-13.0-2.3,96926,List1A,black,man,,,,null,,,,
13747,,,survey-text,88,527680,0.0-13.0-3.3,96926,List1A,black,man,,,,,"{""Q0"":""Jane is talking to Beth""}","<img src=""stim_listA/talk7.gif""</stim_listA>",is talking to,
null,"<div style=""font-size:60px;"">+</div>",,html-keyboard-response,89,528181,0.0-13.0-0.4,96926,List1A,black,man,,,,null,,,,
null,"<img src=""stim_listA/hug3.gif""</stim_listA>",,html-keyboard-response,90,530183,0.0-13.0-1.4,96926,List1A,black,man,,,,null,,,,
null,is hugging,,html-keyboard-response,91,532184,0.0-13.0-2.4,96926,List1A,black,man,,,,null,,,,
21829,,,survey-text,92,554015,0.0-13.0-3.4,96926,List1A,black,man,,,,,"{""Q0"":""Luke is hugging Beth""}","<img src=""stim_listA/hug3.gif""</stim_listA>",is hugging,
null,"<div style=""font-size:60px;"">+</div>",,html-keyboard-response,93,554516,0.0-13.0-0.5,96926,List1A,black,man,,,,null,,,,
null,"<img src=""stim_listA/talk4.gif""</stim_listA>",,html-keyboard-response,94,556518,0.0-13.0-1.5,96926,List1A,black,man,,,,null,,,,
null,are talking to each other,,html-keyboard-response,95,558519,0.0-13.0-2.5,96926,List1A,black,man,,,,null,,,,
21590,,,survey-text,96,580111,0.0-13.0-3.5,96926,List1A,black,man,,,,,"{""Q0"":""John is talking to someone""}","<img src=""stim_listA/talk4.gif""</stim_listA>",are talking to each other,
null,"<div style=""font-size:60px;"">+</div>",,html-keyboard-response,97,580612,0.0-13.0-0.6,96926,List1A,black,man,,,,null,,,,
null,"<img src=""stim_listA/argue3.gif""</stim_listA>",,html-keyboard-response,98,582614,0.0-13.0-1.6,96926,List1A,black,man,,,,null,,,,
null,is arguing with,,html-keyboard-response,99,584616,0.0-13.0-2.6,96926,List1A,black,man,,,,null,,,,
30787,,,survey-text,100,615404,0.0-13.0-3.6,96926,List1A,black,man,,,,,"{""Q0"":""Not luke is talking to not jane""}","<img src=""stim_listA/argue3.gif""</stim_listA>",is arguing with,
null,"<div style=""font-size:60px;"">+</div>",,html-keyboard-response,101,615906,0.0-13.0-0.7,96926,List1A,black,man,,,,null,,,,
null,"<img src=""stim_listA/marry6.gif""</stim_listA>",,html-keyboard-response,102,617908,0.0-13.0-1.7,96926,List1A,black,man,,,,null,,,,
null,are marrying each other,,html-keyboard-response,103,619909,0.0-13.0-2.7,96926,List1A,black,man,,,,null,,,,
17254,,,survey-text,104,637163,0.0-13.0-3.7,96926,List1A,black,man,,,,,"{""Q0"":""mike and not luke are marrying each other""}","<img src=""stim_listA/marry6.gif""</stim_listA>",are marrying each other,
null,"<div style=""font-size:60px;"">+</div>",,html-keyboard-response,105,637665,0.0-13.0-0.8,96926,List1A,black,man,,,,null,,,,
null,"<img src=""stim_listA/touch6.gif""</stim_listA>",,html-keyboard-response,106,639667,0.0-13.0-1.8,96926,List1A,black,man,,,,null,,,,
null,are touching each other,,html-keyboard-response,107,641669,0.0-13.0-2.8,96926,List1A,black,man,,,,null,,,,
12262,,,survey-text,108,653931,0.0-13.0-3.8,96926,List1A,black,man,,,,,"{""Q0"":""Luke and Mike are touching each other""}","<img src=""stim_listA/touch6.gif""</stim_listA>",are touching each other,
null,"<div style=""font-size:60px;"">+</div>",,html-keyboard-response,109,654433,0.0-13.0-0.9,96926,List1A,black,man,,,,null,,,,
null,"<img src=""stim_listA/marry5.gif""</stim_listA>",,html-keyboard-response,110,656435,0.0-13.0-1.9,96926,List1A,black,man,,,,null,,,,
null,is marrying,,html-keyboard-response,111,658438,0.0-13.0-2.9,96926,List1A,black,man,,,,null,,,,
11892,,,survey-text,112,670331,0.0-13.0-3.9,96926,List1A,black,man,,,,,"{""Q0"":""Mike is marrying Luke""}","<img src=""stim_listA/marry5.gif""</stim_listA>",is marrying,
null,"<div style=""font-size:60px;"">+</div>",,html-keyboard-response,113,670833,0.0-13.0-0.10,96926,List1A,black,man,,,,null,,,,
null,"<img src=""stim_listA/talk1.gif""</stim_listA>",,html-keyboard-response,114,672835,0.0-13.0-1.10,96926,List1A,black,man,,,,null,,,,
null,is talking to,,html-keyboard-response,115,674837,0.0-13.0-2.10,96926,List1A,black,man,,,,null,,,,
9367,,,survey-text,116,684204,0.0-13.0-3.10,96926,List1A,black,man,,,,,"{""Q0"":""Fred is talking to Kate""}","<img src=""stim_listA/talk1.gif""</stim_listA>",is talking to,
null,"<div style=""font-size:60px;"">+</div>",,html-keyboard-response,117,684707,0.0-13.0-0.11,96926,List1A,black,man,,,,null,,,,
null,"<img src=""stim_listA/argue4.gif""</stim_listA>",,html-keyboard-response,118,686709,0.0-13.0-1.11,96926,List1A,black,man,,,,null,,,,
null,are arguing with each other,,html-keyboard-response,119,688711,0.0-13.0-2.11,96926,List1A,black,man,,,,null,,,,
11125,,,survey-text,120,699837,0.0-13.0-3.11,96926,List1A,black,man,,,,,"{""Q0"":""Luke and Jane are arguing with each other""}","<img src=""stim_listA/argue4.gif""</stim_listA>",are arguing with each other,
null,"<div style=""font-size:60px;"">+</div>",,html-keyboard-response,121,700340,0.0-13.0-0.12,96926,List1A,black,man,,,,null,,,,
null,"<img src=""stim_listA/argue8.gif""</stim_listA>",,html-keyboard-response,122,702342,0.0-13.0-1.12,96926,List1A,black,man,,,,null,,,,
null,are arguing with each other,,html-keyboard-response,123,704344,0.0-13.0-2.12,96926,List1A,black,man,,,,null,,,,
14833,,,survey-text,124,719178,0.0-13.0-3.12,96926,List1A,black,man,,,,,"{""Q0"":""Jane and Beth are arguing with each other""}","<img src=""stim_listA/argue8.gif""</stim_listA>",are arguing with each other,
null,"<div style=""font-size:60px;"">+</div>",,html-keyboard-response,125,719679,0.0-13.0-0.13,96926,List1A,black,man,,,,null,,,,
null,"<img src=""stim_listA/kiss8.gif""</stim_listA>",,html-keyboard-response,126,721681,0.0-13.0-1.13,96926,List1A,black,man,,,,null,,,,
null,are kissing each other,,html-keyboard-response,127,723683,0.0-13.0-2.13,96926,List1A,black,man,,,,null,,,,
9505,,,survey-text,128,733189,0.0-13.0-3.13,96926,List1A,black,man,,,,,"{""Q0"":""Jane and kate are kissing each other""}","<img src=""stim_listA/kiss8.gif""</stim_listA>",are kissing each other,
null,"<div style=""font-size:60px;"">+</div>",,html-keyboard-response,129,733691,0.0-13.0-0.14,96926,List1A,black,man,,,,null,,,,
null,"<img src=""stim_listA/hug2.gif""</stim_listA>",,html-keyboard-response,130,735692,0.0-13.0-1.14,96926,List1A,black,man,,,,null,,,,
null,are hugging each other,,html-keyboard-response,131,737693,0.0-13.0-2.14,96926,List1A,black,man,,,,null,,,,
12668,,,survey-text,132,750362,0.0-13.0-3.14,96926,List1A,black,man,,,,,"{""Q0"":""Mike and kate are hugging each other""}","<img src=""stim_listA/hug2.gif""</stim_listA>",are hugging each other,
null,"<div style=""font-size:60px;"">+</div>",,html-keyboard-response,133,750863,0.0-13.0-0.15,96926,List1A,black,man,,,,null,,,,
null,"<img src=""stim_listA/shout3.gif""</stim_listA>",,html-keyboard-response,134,752864,0.0-13.0-1.15,96926,List1A,black,man,,,,null,,,,
null,is shouting at,,html-keyboard-response,135,754866,0.0-13.0-2.15,96926,List1A,black,man,,,,null,,,,
10827,,,survey-text,136,765694,0.0-13.0-3.15,96926,List1A,black,man,,,,,"{""Q0"":""Luke is shouting at not Jane""}","<img src=""stim_listA/shout3.gif""</stim_listA>",is shouting at,
null,"<div style=""font-size:60px;"">+</div>",,html-keyboard-response,137,766196,0.0-13.0-0.16,96926,List1A,black,man,,,,null,,,,
null,"<img src=""stim_listA/fight3.gif""</stim_listA>",,html-keyboard-response,138,768197,0.0-13.0-1.16,96926,List1A,black,man,,,,null,,,,
null,is fighting,,html-keyboard-response,139,770198,0.0-13.0-2.16,96926,List1A,black,man,,,,null,,,,
8889,,,survey-text,140,779087,0.0-13.0-3.16,96926,List1A,black,man,,,,,"{""Q0"":""Jane is fighting with not luke""}","<img src=""stim_listA/fight3.gif""</stim_listA>",is fighting,
null,"<div style=""font-size:60px;"">+</div>",,html-keyboard-response,141,779589,0.0-13.0-0.17,96926,List1A,black,man,,,,null,,,,
null,"<img src=""stim_listA/hug8.gif""</stim_listA>",,html-keyboard-response,142,781590,0.0-13.0-1.17,96926,List1A,black,man,,,,null,,,,
null,are hugging each other,,html-keyboard-response,143,783593,0.0-13.0-2.17,96926,List1A,black,man,,,,null,,,,
16372,,,survey-text,144,799966,0.0-13.0-3.17,96926,List1A,black,man,,,,,"{""Q0"":""Jane and beth are hugging each other""}","<img src=""stim_listA/hug8.gif""</stim_listA>",are hugging each other,
null,"<div style=""font-size:60px;"">+</div>",,html-keyboard-response,145,800467,0.0-13.0-0.18,96926,List1A,black,man,,,,null,,,,
null,"<img src=""stim_listA/meet3.gif""</stim_listA>",,html-keyboard-response,146,802469,0.0-13.0-1.18,96926,List1A,black,man,,,,null,,,,
null,is meeting,,html-keyboard-response,147,804470,0.0-13.0-2.18,96926,List1A,black,man,,,,null,,,,
6470,,,survey-text,148,810941,0.0-13.0-3.18,96926,List1A,black,man,,,,,"{""Q0"":""Jane is meeting not luke""}","<img src=""stim_listA/meet3.gif""</stim_listA>",is meeting,
null,"<div style=""font-size:60px;"">+</div>",,html-keyboard-response,149,811442,0.0-13.0-0.19,96926,List1A,black,man,,,,null,,,,
null,"<img src=""stim_listA/talk8.gif""</stim_listA>",,html-keyboard-response,150,813444,0.0-13.0-1.19,96926,List1A,black,man,,,,null,,,,
null,are talking to each other,,html-keyboard-response,151,815446,0.0-13.0-2.19,96926,List1A,black,man,,,,null,,,,
13112,,,survey-text,152,828559,0.0-13.0-3.19,96926,List1A,black,man,,,,,"{""Q0"":""not jane is talking to kate""}","<img src=""stim_listA/talk8.gif""</stim_listA>",are talking to each other,
30159,"<img src='img/portrait_matrix_list1.JPG' style='width:900px;height:500px;''></img><p>If you have memorised all the portraits and names and are ready to start, press Continue.</p><p><strong>Please note: Your memory of these faces will be tested 4 times during this experiment.</strong></p>",0,html-button-response,153,858720,0.0-14.0-0.0,96926,List1A,black,man,,,,,,,,
22556,"<img src=""portrait/BW1.jpg""style=""width:400px;height:400px;""></img>",0,html-button-response,154,882278,0.0-14.0-1.0,96926,List1A,black,man,,TRUE,0,,,,,
null,CORRECT,,html-keyboard-response,155,883779,0.0-14.0-2.0-0.0,96926,List1A,black,man,,,,null,,,,
2753,"<img src=""portrait/BM2.jpg""style=""width:400px;height:400px;""></img>",5,html-button-response,156,886534,0.0-14.0-4.0,96926,List1A,black,man,,TRUE,5,,,,,
null,CORRECT,,html-keyboard-response,157,888036,0.0-14.0-5.0-0.0,96926,List1A,black,man,,,,null,,,,
2360,"<img src=""portrait/BW2.jpg""style=""width:400px;height:400px;""></img>",2,html-button-response,158,890397,0.0-14.0-7.0,96926,List1A,black,man,,TRUE,2,,,,,
null,CORRECT,,html-keyboard-response,159,891900,0.0-14.0-8.0-0.0,96926,List1A,black,man,,,,null,,,,
8598,"<img src=""portrait/WW2.jpg""style=""width:400px;height:400px;""></img>",3,html-button-response,160,900500,0.0-14.0-10.0,96926,List1A,black,man,,TRUE,3,,,,,
null,CORRECT,,html-keyboard-response,161,902002,0.0-14.0-11.0-0.0,96926,List1A,black,man,,,,null,,,,
3411,"<img src=""portrait/WM1.jpg""style=""width:400px;height:400px;""></img>",6,html-button-response,162,905414,0.0-14.0-13.0,96926,List1A,black,man,,TRUE,6,,,,,
null,CORRECT,,html-keyboard-response,163,906915,0.0-14.0-14.0-0.0,96926,List1A,black,man,,,,null,,,,
2584,"<img src=""portrait/WW1.jpg""style=""width:400px;height:400px;""></img>",1,html-button-response,164,909501,0.0-14.0-16.0,96926,List1A,black,man,,TRUE,1,,,,,
null,CORRECT,,html-keyboard-response,165,911004,0.0-14.0-17.0-0.0,96926,List1A,black,man,,,,null,,,,
2271,"<img src=""portrait/BM1.jpg""style=""width:400px;height:400px;""></img>",4,html-button-response,166,913275,0.0-14.0-19.0,96926,List1A,black,man,,TRUE,4,,,,,
null,CORRECT,,html-keyboard-response,167,914778,0.0-14.0-20.0-0.0,96926,List1A,black,man,,,,null,,,,
3050,"<img src=""portrait/WM2.jpg""style=""width:400px;height:400px;""></img>",7,html-button-response,168,917830,0.0-14.0-22.0,96926,List1A,black,man,,TRUE,7,,,,,
null,CORRECT,,html-keyboard-response,169,919332,0.0-14.0-23.0-0.0,96926,List1A,black,man,,,,null,,,,
1734,<p>You got 8 out of 8 right first time. Press Continue.</p>,0,html-button-response,170,921067,0.0-14.0-25.0,96926,List1A,black,man,,,,,,,,
null,"<div style=""font-size:60px;"">+</div>",,html-keyboard-response,171,922569,0.0-15.0-0.0,96926,List1A,black,man,,,,null,,,,
null,"<img src=""stim_listA/talk3.gif""</stim_listA>",,html-keyboard-response,172,924571,0.0-15.0-1.0,96926,List1A,black,man,,,,null,,,,
null,is talking to,,html-keyboard-response,173,926572,0.0-15.0-2.0,96926,List1A,black,man,,,,null,,,,
7652,,,survey-text,174,934224,0.0-15.0-3.0,96926,List1A,black,man,,,,,"{""Q0"":""Luke is talking to jane""}","<img src=""stim_listA/talk3.gif""</stim_listA>",is talking to,
null,"<div style=""font-size:60px;"">+</div>",,html-keyboard-response,175,934725,0.0-15.0-0.1,96926,List1A,black,man,,,,null,,,,
null,"<img src=""stim_listA/hug7.gif""</stim_listA>",,html-keyboard-response,176,936728,0.0-15.0-1.1,96926,List1A,black,man,,,,null,,,,
null,is hugging,,html-keyboard-response,177,938729,0.0-15.0-2.1,96926,List1A,black,man,,,,null,,,,
10497,,,survey-text,178,949228,0.0-15.0-3.1,96926,List1A,black,man,,,,,"{""Q0"":""ruth is hugging beth""}","<img src=""stim_listA/hug7.gif""</stim_listA>",is hugging,
null,"<div style=""font-size:60px;"">+</div>",,html-keyboard-response,179,949729,0.0-15.0-0.2,96926,List1A,black,man,,,,null,,,,
null,"<img src=""stim_listA/meet1.gif""</stim_listA>",,html-keyboard-response,180,951730,0.0-15.0-1.2,96926,List1A,black,man,,,,null,,,,
null,is meeting,,html-keyboard-response,181,953732,0.0-15.0-2.2,96926,List1A,black,man,,,,null,,,,
7040,,,survey-text,182,960774,0.0-15.0-3.2,96926,List1A,black,man,,,,,"{""Q0"":""Kate is meeting mike""}","<img src=""stim_listA/meet1.gif""</stim_listA>",is meeting,
null,"<div style=""font-size:60px;"">+</div>",,html-keyboard-response,183,961275,0.0-15.0-0.3,96926,List1A,black,man,,,,null,,,,
null,"<img src=""stim_listA/kiss1.gif""</stim_listA>",,html-keyboard-response,184,963276,0.0-15.0-1.3,96926,List1A,black,man,,,,null,,,,
null,is kissing,,html-keyboard-response,185,965277,0.0-15.0-2.3,96926,List1A,black,man,,,,null,,,,
7438,,,survey-text,186,972716,0.0-15.0-3.3,96926,List1A,black,man,,,,,"{""Q0"":""beth is kissing fred""}","<img src=""stim_listA/kiss1.gif""</stim_listA>",is kissing,
null,"<div style=""font-size:60px;"">+</div>",,html-keyboard-response,187,973218,0.0-15.0-0.4,96926,List1A,black,man,,,,null,,,,
null,"<img src=""stim_listA/shout7.gif""</stim_listA>",,html-keyboard-response,188,975220,0.0-15.0-1.4,96926,List1A,black,man,,,,null,,,,
null,is shouting at,,html-keyboard-response,189,977222,0.0-15.0-2.4,96926,List1A,black,man,,,,null,,,,
9288,,,survey-text,190,986510,0.0-15.0-3.4,96926,List1A,black,man,,,,,"{""Q0"":""beth is shouting at ruth""}","<img src=""stim_listA/shout7.gif""</stim_listA>",is shouting at,
null,"<div style=""font-size:60px;"">+</div>",,html-keyboard-response,191,987012,0.0-15.0-0.5,96926,List1A,black,man,,,,null,,,,
null,"<img src=""stim_listA/marry3.gif""</stim_listA>",,html-keyboard-response,192,989015,0.0-15.0-1.5,96926,List1A,black,man,,,,null,,,,
null,is marrying,,html-keyboard-response,193,991017,0.0-15.0-2.5,96926,List1A,black,man,,,,null,,,,
9624,,,survey-text,194,1000642,0.0-15.0-3.5,96926,List1A,black,man,,,,,"{""Q0"":""ruth is marrying dave""}","<img src=""stim_listA/marry3.gif""</stim_listA>",is marrying,
null,"<div style=""font-size:60px;"">+</div>",,html-keyboard-response,195,1001144,0.0-15.0-0.6,96926,List1A,black,man,,,,null,,,,
null,"<img src=""stim_listA/talk2.gif""</stim_listA>",,html-keyboard-response,196,1003146,0.0-15.0-1.6,96926,List1A,black,man,,,,null,,,,
null,are talking to each other,,html-keyboard-response,197,1005148,0.0-15.0-2.6,96926,List1A,black,man,,,,null,,,,
10260,,,survey-text,198,1015409,0.0-15.0-3.6,96926,List1A,black,man,,,,,"{""Q0"":""beth and mike are talking to each other""}","<img src=""stim_listA/talk2.gif""</stim_listA>",are talking to each other,
null,"<div style=""font-size:60px;"">+</div>",,html-keyboard-response,199,1015911,0.0-15.0-0.7,96926,List1A,black,man,,,,null,,,,
null,"<img src=""stim_listA/argue2.gif""</stim_listA>",,html-keyboard-response,200,1017913,0.0-15.0-1.7,96926,List1A,black,man,,,,null,,,,
null,are arguing with each other,,html-keyboard-response,201,1019916,0.0-15.0-2.7,96926,List1A,black,man,,,,null,,,,
10167,,,survey-text,202,1030086,0.0-15.0-3.7,96926,List1A,black,man,,,,,"{""Q0"":""kate and fred are arguing with each other""}","<img src=""stim_listA/argue2.gif""</stim_listA>",are arguing with each other,
null,"<div style=""font-size:60px;"">+</div>",,html-keyboard-response,203,1030587,0.0-15.0-0.8,96926,List1A,black,man,,,,null,,,,
null,"<img src=""stim_listA/dance4.gif""</stim_listA>",,html-keyboard-response,204,1032588,0.0-15.0-1.8,96926,List1A,black,man,,,,null,,,,
null,are dancing with each other,,html-keyboard-response,205,1034591,0.0-15.0-2.8,96926,List1A,black,man,,,,null,,,,
9872,,,survey-text,206,1044464,0.0-15.0-3.8,96926,List1A,black,man,,,,,"{""Q0"":""dave and ruth are dancing with each other""}","<img src=""stim_listA/dance4.gif""</stim_listA>",are dancing with each other,
null,"<div style=""font-size:60px;"">+</div>",,html-keyboard-response,207,1044966,0.0-15.0-0.9,96926,List1A,black,man,,,,null,,,,
null,"<img src=""stim_listA/fight7.gif""</stim_listA>",,html-keyboard-response,208,1046967,0.0-15.0-1.9,96926,List1A,black,man,,,,null,,,,
null,is fighting,,html-keyboard-response,209,1048970,0.0-15.0-2.9,96926,List1A,black,man,,,,null,,,,
7858,,,survey-text,210,1056829,0.0-15.0-3.9,96926,List1A,black,man,,,,,"{""Q0"":""kate is fighting jane""}","<img src=""stim_listA/fight7.gif""</stim_listA>",is fighting,
null,"<div style=""font-size:60px;"">+</div>",,html-keyboard-response,211,1057331,0.0-15.0-0.10,96926,List1A,black,man,,,,null,,,,
null,"<img src=""stim_listA/dance8.gif""</stim_listA>",,html-keyboard-response,212,1059332,0.0-15.0-1.10,96926,List1A,black,man,,,,null,,,,
null,are dancing with each other,,html-keyboard-response,213,1061334,0.0-15.0-2.10,96926,List1A,black,man,,,,null,,,,
14483,,,survey-text,214,1075818,0.0-15.0-3.10,96926,List1A,black,man,,,,,"{""Q0"":""ruth and kate are dancing with each other""}","<img src=""stim_listA/dance8.gif""</stim_listA>",are dancing with each other,
null,"<div style=""font-size:60px;"">+</div>",,html-keyboard-response,215,1076321,0.0-15.0-0.11,96926,List1A,black,man,,,,null,,,,
null,"<img src=""stim_listA/meet5.gif""</stim_listA>",,html-keyboard-response,216,1078322,0.0-15.0-1.11,96926,List1A,black,man,,,,null,,,,
null,is meeting,,html-keyboard-response,217,1080323,0.0-15.0-2.11,96926,List1A,black,man,,,,null,,,,
13608,,,survey-text,218,1093932,0.0-15.0-3.11,96926,List1A,black,man,,,,,"{""Q0"":""dave is meeting fred""}","<img src=""stim_listA/meet5.gif""</stim_listA>",is meeting,
null,"<div style=""font-size:60px;"">+</div>",,html-keyboard-response,219,1094434,0.0-15.0-0.12,96926,List1A,black,man,,,,null,,,,
null,"<img src=""stim_listA/marry1.gif""</stim_listA>",,html-keyboard-response,220,1096435,0.0-15.0-1.12,96926,List1A,black,man,,,,null,,,,
null,is marrying,,html-keyboard-response,221,1098437,0.0-15.0-2.12,96926,List1A,black,man,,,,null,,,,
6537,,,survey-text,222,1104975,0.0-15.0-3.12,96926,List1A,black,man,,,,,"{""Q0"":""mike is marrying beth""}","<img src=""stim_listA/marry1.gif""</stim_listA>",is marrying,
null,"<div style=""font-size:60px;"">+</div>",,html-keyboard-response,223,1105475,0.0-15.0-0.13,96926,List1A,black,man,,,,null,,,,
null,"<img src=""stim_listA/talk5.gif""</stim_listA>",,html-keyboard-response,224,1107478,0.0-15.0-1.13,96926,List1A,black,man,,,,null,,,,
null,is talking to,,html-keyboard-response,225,1109479,0.0-15.0-2.13,96926,List1A,black,man,,,,null,,,,
8101,,,survey-text,226,1117582,0.0-15.0-3.13,96926,List1A,black,man,,,,,"{""Q0"":""dave is talking to fred""}","<img src=""stim_listA/talk5.gif""</stim_listA>",is talking to,
null,"<div style=""font-size:60px;"">+</div>",,html-keyboard-response,227,1118085,0.0-15.0-0.14,96926,List1A,black,man,,,,null,,,,
null,"<img src=""stim_listA/kiss4.gif""</stim_listA>",,html-keyboard-response,228,1120087,0.0-15.0-1.14,96926,List1A,black,man,,,,null,,,,
null,are kissing each other,,html-keyboard-response,229,1122089,0.0-15.0-2.14,96926,List1A,black,man,,,,null,,,,
8824,,,survey-text,230,1130914,0.0-15.0-3.14,96926,List1A,black,man,,,,,"{""Q0"":""jane and dave are kissing each other""}","<img src=""stim_listA/kiss4.gif""</stim_listA>",are kissing each other,
null,"<div style=""font-size:60px;"">+</div>",,html-keyboard-response,231,1131416,0.0-15.0-0.15,96926,List1A,black,man,,,,null,,,,
null,"<img src=""stim_listA/argue1.gif""</stim_listA>",,html-keyboard-response,232,1133418,0.0-15.0-1.15,96926,List1A,black,man,,,,null,,,,
null,is arguing with,,html-keyboard-response,233,1135420,0.0-15.0-2.15,96926,List1A,black,man,,,,null,,,,
7659,,,survey-text,234,1143080,0.0-15.0-3.15,96926,List1A,black,man,,,,,"{""Q0"":""mike is arguing with beth""}","<img src=""stim_listA/argue1.gif""</stim_listA>",is arguing with,
null,"<div style=""font-size:60px;"">+</div>",,html-keyboard-response,235,1143581,0.0-15.0-0.16,96926,List1A,black,man,,,,null,,,,
null,"<img src=""stim_listA/dance7.gif""</stim_listA>",,html-keyboard-response,236,1145583,0.0-15.0-1.16,96926,List1A,black,man,,,,null,,,,
null,is dancing with,,html-keyboard-response,237,1147585,0.0-15.0-2.16,96926,List1A,black,man,,,,null,,,,
7411,,,survey-text,238,1154997,0.0-15.0-3.16,96926,List1A,black,man,,,,,"{""Q0"":""jane is dancing with beth""}","<img src=""stim_listA/dance7.gif""</stim_listA>",is dancing with,
null,"<div style=""font-size:60px;"">+</div>",,html-keyboard-response,239,1155498,0.0-15.0-0.17,96926,List1A,black,man,,,,null,,,,
null,"<img src=""stim_listA/kiss3.gif""</stim_listA>",,html-keyboard-response,240,1157500,0.0-15.0-1.17,96926,List1A,black,man,,,,null,,,,
null,is kissing,,html-keyboard-response,241,1159502,0.0-15.0-2.17,96926,List1A,black,man,,,,null,,,,
11460,,,survey-text,242,1170964,0.0-15.0-3.17,96926,List1A,black,man,,,,,"{""Q0"":""luke is kissing ruth""}","<img src=""stim_listA/kiss3.gif""</stim_listA>",is kissing,
null,"<div style=""font-size:60px;"">+</div>",,html-keyboard-response,243,1171466,0.0-15.0-0.18,96926,List1A,black,man,,,,null,,,,
null,"<img src=""stim_listA/hug4.gif""</stim_listA>",,html-keyboard-response,244,1173467,0.0-15.0-1.18,96926,List1A,black,man,,,,null,,,,
null,are hugging each other,,html-keyboard-response,245,1175468,0.0-15.0-2.18,96926,List1A,black,man,,,,null,,,,
8618,,,survey-text,246,1184087,0.0-15.0-3.18,96926,List1A,black,man,,,,,"{""Q0"":""jane and dave are hugging each other""}","<img src=""stim_listA/hug4.gif""</stim_listA>",are hugging each other,
null,"<div style=""font-size:60px;"">+</div>",,html-keyboard-response,247,1184589,0.0-15.0-0.19,96926,List1A,black,man,,,,null,,,,
null,"<img src=""stim_listA/meet6.gif""</stim_listA>",,html-keyboard-response,248,1186591,0.0-15.0-1.19,96926,List1A,black,man,,,,null,,,,
null,are meeting each other,,html-keyboard-response,249,1188593,0.0-15.0-2.19,96926,List1A,black,man,,,,null,,,,
10843,,,survey-text,250,1199438,0.0-15.0-3.19,96926,List1A,black,man,,,,,"{""Q0"":""luke and fred are meeting each other""}","<img src=""stim_listA/meet6.gif""</stim_listA>",are meeting each other,
20189,"<img src='img/portrait_matrix_list1.JPG' style='width:900px;height:500px;''></img><p>If you have memorised all the portraits and names and are ready to start, press Continue.</p><p><strong>Please note: Your memory of these faces will be tested 4 times during this experiment.</strong></p>",0,html-button-response,251,1219629,0.0-16.0-0.0,96926,List1A,black,man,,,,,,,,
4053,"<img src=""portrait/BW1.jpg""style=""width:400px;height:400px;""></img>",0,html-button-response,252,1224685,0.0-16.0-1.0,96926,List1A,black,man,,TRUE,0,,,,,
null,CORRECT,,html-keyboard-response,253,1226187,0.0-16.0-2.0-0.0,96926,List1A,black,man,,,,null,,,,
2968,"<img src=""portrait/WM1.jpg""style=""width:400px;height:400px;""></img>",6,html-button-response,254,1229157,0.0-16.0-4.0,96926,List1A,black,man,,TRUE,6,,,,,
null,CORRECT,,html-keyboard-response,255,1230659,0.0-16.0-5.0-0.0,96926,List1A,black,man,,,,null,,,,
2248,"<img src=""portrait/WW2.jpg""style=""width:400px;height:400px;""></img>",3,html-button-response,256,1232909,0.0-16.0-7.0,96926,List1A,black,man,,TRUE,3,,,,,
null,CORRECT,,html-keyboard-response,257,1234412,0.0-16.0-8.0-0.0,96926,List1A,black,man,,,,null,,,,
2335,"<img src=""portrait/BM1.jpg""style=""width:400px;height:400px;""></img>",4,html-button-response,258,1236749,0.0-16.0-10.0,96926,List1A,black,man,,TRUE,4,,,,,
null,CORRECT,,html-keyboard-response,259,1238253,0.0-16.0-11.0-0.0,96926,List1A,black,man,,,,null,,,,
4458,"<img src=""portrait/WW1.jpg""style=""width:400px;height:400px;""></img>",1,html-button-response,260,1242713,0.0-16.0-13.0,96926,List1A,black,man,,TRUE,1,,,,,
null,CORRECT,,html-keyboard-response,261,1244215,0.0-16.0-14.0-0.0,96926,List1A,black,man,,,,null,,,,
2897,"<img src=""portrait/BM2.jpg""style=""width:400px;height:400px;""></img>",5,html-button-response,262,1247113,0.0-16.0-16.0,96926,List1A,black,man,,TRUE,5,,,,,
null,CORRECT,,html-keyboard-response,263,1248617,0.0-16.0-17.0-0.0,96926,List1A,black,man,,,,null,,,,
6417,"<img src=""portrait/WM2.jpg""style=""width:400px;height:400px;""></img>",7,html-button-response,264,1255035,0.0-16.0-19.0,96926,List1A,black,man,,TRUE,7,,,,,
null,CORRECT,,html-keyboard-response,265,1256538,0.0-16.0-20.0-0.0,96926,List1A,black,man,,,,null,,,,
2656,"<img src=""portrait/BW2.jpg""style=""width:400px;height:400px;""></img>",2,html-button-response,266,1259195,0.0-16.0-22.0,96926,List1A,black,man,,TRUE,2,,,,,
null,CORRECT,,html-keyboard-response,267,1260697,0.0-16.0-23.0-0.0,96926,List1A,black,man,,,,null,,,,
53303,<p>You got 8 out of 8 right first time. Press Continue.</p>,0,html-button-response,268,1314001,0.0-16.0-25.0,96926,List1A,black,man,,,,,,,,
null,"<div style=""font-size:60px;"">+</div>",,html-keyboard-response,269,1315504,0.0-17.0-0.0,96926,List1A,black,man,,,,null,,,,
null,"<img src=""stim_listA/marry2.gif""</stim_listA>",,html-keyboard-response,270,1317505,0.0-17.0-1.0,96926,List1A,black,man,,,,null,,,,
null,are marrying each other,,html-keyboard-response,271,1319506,0.0-17.0-2.0,96926,List1A,black,man,,,,null,,,,
14530,,,survey-text,272,1334036,0.0-17.0-3.0,96926,List1A,black,man,,,,,"{""Q0"":""fred and kate are marrying each other""}","<img src=""stim_listA/marry2.gif""</stim_listA>",are marrying each other,
null,"<div style=""font-size:60px;"">+</div>",,html-keyboard-response,273,1334537,0.0-17.0-0.1,96926,List1A,black,man,,,,null,,,,
null,"<img src=""stim_listA/dance1.gif""</stim_listA>",,html-keyboard-response,274,1336539,0.0-17.0-1.1,96926,List1A,black,man,,,,null,,,,
null,is dancing with,,html-keyboard-response,275,1338541,0.0-17.0-2.1,96926,List1A,black,man,,,,null,,,,
7555,,,survey-text,276,1346098,0.0-17.0-3.1,96926,List1A,black,man,,,,,"{""Q0"":""fred is dancing with kate""}","<img src=""stim_listA/dance1.gif""</stim_listA>",is dancing with,
null,"<div style=""font-size:60px;"">+</div>",,html-keyboard-response,277,1346599,0.0-17.0-0.2,96926,List1A,black,man,,,,null,,,,
null,"<img src=""stim_listA/fight1.gif""</stim_listA>",,html-keyboard-response,278,1348601,0.0-17.0-1.2,96926,List1A,black,man,,,,null,,,,
null,is fighting,,html-keyboard-response,279,1350603,0.0-17.0-2.2,96926,List1A,black,man,,,,null,,,,
8082,,,survey-text,280,1358686,0.0-17.0-3.2,96926,List1A,black,man,,,,,"{""Q0"":""mike and kate are fighting""}","<img src=""stim_listA/fight1.gif""</stim_listA>",is fighting,
null,"<div style=""font-size:60px;"">+</div>",,html-keyboard-response,281,1359187,0.0-17.0-0.3,96926,List1A,black,man,,,,null,,,,
null,"<img src=""stim_listA/fight4.gif""</stim_listA>",,html-keyboard-response,282,1361188,0.0-17.0-1.3,96926,List1A,black,man,,,,null,,,,
null,are fighting each other,,html-keyboard-response,283,1363189,0.0-17.0-2.3,96926,List1A,black,man,,,,null,,,,
10094,,,survey-text,284,1373285,0.0-17.0-3.3,96926,List1A,black,man,,,,,"{""Q0"":""luke and ruth are fighting each other""}","<img src=""stim_listA/fight4.gif""</stim_listA>",are fighting each other,
null,"<div style=""font-size:60px;"">+</div>",,html-keyboard-response,285,1373787,0.0-17.0-0.4,96926,List1A,black,man,,,,null,,,,
null,"<img src=""stim_listA/shout8.gif""</stim_listA>",,html-keyboard-response,286,1375789,0.0-17.0-1.4,96926,List1A,black,man,,,,null,,,,
null,are shouting at each other,,html-keyboard-response,287,1377792,0.0-17.0-2.4,96926,List1A,black,man,,,,null,,,,
10041,,,survey-text,288,1387834,0.0-17.0-3.4,96926,List1A,black,man,,,,,"{""Q0"":""jane and kate are shouting at each other""}","<img src=""stim_listA/shout8.gif""</stim_listA>",are shouting at each other,
null,"<div style=""font-size:60px;"">+</div>",,html-keyboard-response,289,1388337,0.0-17.0-0.5,96926,List1A,black,man,,,,null,,,,
null,"<img src=""stim_listA/argue5.gif""</stim_listA>",,html-keyboard-response,290,1390338,0.0-17.0-1.5,96926,List1A,black,man,,,,null,,,,
null,is arguing with,,html-keyboard-response,291,1392340,0.0-17.0-2.5,96926,List1A,black,man,,,,null,,,,
9393,,,survey-text,292,1401735,0.0-17.0-3.5,96926,List1A,black,man,,,,,"{""Q0"":""mike is arguing with luke""}","<img src=""stim_listA/argue5.gif""</stim_listA>",is arguing with,
null,"<div style=""font-size:60px;"">+</div>",,html-keyboard-response,293,1402237,0.0-17.0-0.6,96926,List1A,black,man,,,,null,,,,
null,"<img src=""stim_listA/hug1.gif""</stim_listA>",,html-keyboard-response,294,1404238,0.0-17.0-1.6,96926,List1A,black,man,,,,null,,,,
null,is hugging,,html-keyboard-response,295,1406239,0.0-17.0-2.6,96926,List1A,black,man,,,,null,,,,
7255,,,survey-text,296,1413494,0.0-17.0-3.6,96926,List1A,black,man,,,,,"{""Q0"":""beth is hugging fred""}","<img src=""stim_listA/hug1.gif""</stim_listA>",is hugging,
null,"<div style=""font-size:60px;"">+</div>",,html-keyboard-response,297,1413996,0.0-17.0-0.7,96926,List1A,black,man,,,,null,,,,
null,"<img src=""stim_listA/hug6.gif""</stim_listA>",,html-keyboard-response,298,1415999,0.0-17.0-1.7,96926,List1A,black,man,,,,null,,,,
null,are hugging each other,,html-keyboard-response,299,1418000,0.0-17.0-2.7,96926,List1A,black,man,,,,null,,,,
13367,,,survey-text,300,1431368,0.0-17.0-3.7,96926,List1A,black,man,,,,,"{""Q0"":""dave and mike are hugging each other""}","<img src=""stim_listA/hug6.gif""</stim_listA>",are hugging each other,
null,"<div style=""font-size:60px;"">+</div>",,html-keyboard-response,301,1431869,0.0-17.0-0.8,96926,List1A,black,man,,,,null,,,,
null,"<img src=""stim_listA/fight2.gif""</stim_listA>",,html-keyboard-response,302,1433871,0.0-17.0-1.8,96926,List1A,black,man,,,,null,,,,
null,are fighting each other,,html-keyboard-response,303,1435873,0.0-17.0-2.8,96926,List1A,black,man,,,,null,,,,
10199,,,survey-text,304,1446073,0.0-17.0-3.8,96926,List1A,black,man,,,,,"{""Q0"":""beth and fred are fighting each other""}","<img src=""stim_listA/fight2.gif""</stim_listA>",are fighting each other,
null,"<div style=""font-size:60px;"">+</div>",,html-keyboard-response,305,1446575,0.0-17.0-0.9,96926,List1A,black,man,,,,null,,,,
null,"<img src=""stim_listA/hug5.gif""</stim_listA>",,html-keyboard-response,306,1448577,0.0-17.0-1.9,96926,List1A,black,man,,,,null,,,,
null,is hugging,,html-keyboard-response,307,1450579,0.0-17.0-2.9,96926,List1A,black,man,,,,null,,,,
8982,,,survey-text,308,1459562,0.0-17.0-3.9,96926,List1A,black,man,,,,,"{""Q0"":""luke is hugging fred""}","<img src=""stim_listA/hug5.gif""</stim_listA>",is hugging,
null,"<div style=""font-size:60px;"">+</div>",,html-keyboard-response,309,1460064,0.0-17.0-0.10,96926,List1A,black,man,,,,null,,,,
null,"<img src=""stim_listA/meet2.gif""</stim_listA>",,html-keyboard-response,310,1462065,0.0-17.0-1.10,96926,List1A,black,man,,,,null,,,,
null,are meeting each other,,html-keyboard-response,311,1464066,0.0-17.0-2.10,96926,List1A,black,man,,,,null,,,,
12138,,,survey-text,312,1476206,0.0-17.0-3.10,96926,List1A,black,man,,,,,"{""Q0"":""fred and beth are meeting each other""}","<img src=""stim_listA/meet2.gif""</stim_listA>",are meeting each other,
null,"<div style=""font-size:60px;"">+</div>",,html-keyboard-response,313,1476707,0.0-17.0-0.11,96926,List1A,black,man,,,,null,,,,
null,"<img src=""stim_listA/dance2.gif""</stim_listA>",,html-keyboard-response,314,1478710,0.0-17.0-1.11,96926,List1A,black,man,,,,null,,,,
null,are dancing with each other,,html-keyboard-response,315,1480712,0.0-17.0-2.11,96926,List1A,black,man,,,,null,,,,
9849,,,survey-text,316,1490563,0.0-17.0-3.11,96926,List1A,black,man,,,,,"{""Q0"":""mike and beth are dancing with each other""}","<img src=""stim_listA/dance2.gif""</stim_listA>",are dancing with each other,
null,"<div style=""font-size:60px;"">+</div>",,html-keyboard-response,317,1491065,0.0-17.0-0.12,96926,List1A,black,man,,,,null,,,,
null,"<img src=""stim_listA/touch5.gif""</stim_listA>",,html-keyboard-response,318,1493067,0.0-17.0-1.12,96926,List1A,black,man,,,,null,,,,
null,is touching,,html-keyboard-response,319,1495074,0.0-17.0-2.12,96926,List1A,black,man,,,,null,,,,
7207,,,survey-text,320,1502282,0.0-17.0-3.12,96926,List1A,black,man,,,,,"{""Q0"":""mike is touching dave""}","<img src=""stim_listA/touch5.gif""</stim_listA>",is touching,
null,"<div style=""font-size:60px;"">+</div>",,html-keyboard-response,321,1502784,0.0-17.0-0.13,96926,List1A,black,man,,,,null,,,,
null,"<img src=""stim_listA/dance6.gif""</stim_listA>",,html-keyboard-response,322,1504787,0.0-17.0-1.13,96926,List1A,black,man,,,,null,,,,
null,are dancing with each other,,html-keyboard-response,323,1506788,0.0-17.0-2.13,96926,List1A,black,man,,,,null,,,,
11369,,,survey-text,324,1518159,0.0-17.0-3.13,96926,List1A,black,man,,,,,"{""Q0"":""luke and mike are dancing with each other""}","<img src=""stim_listA/dance6.gif""</stim_listA>",are dancing with each other,
null,"<div style=""font-size:60px;"">+</div>",,html-keyboard-response,325,1518661,0.0-17.0-0.14,96926,List1A,black,man,,,,null,,,,
null,"<img src=""stim_listA/touch4.gif""</stim_listA>",,html-keyboard-response,326,1520663,0.0-17.0-1.14,96926,List1A,black,man,,,,null,,,,
null,are touching each other,,html-keyboard-response,327,1522665,0.0-17.0-2.14,96926,List1A,black,man,,,,null,,,,
9472,,,survey-text,328,1532138,0.0-17.0-3.14,96926,List1A,black,man,,,,,"{""Q0"":""ruth and luke are touching each other""}","<img src=""stim_listA/touch4.gif""</stim_listA>",are touching each other,
null,"<div style=""font-size:60px;"">+</div>",,html-keyboard-response,329,1532641,0.0-17.0-0.15,96926,List1A,black,man,,,,null,,,,
null,"<img src=""stim_listA/touch8.gif""</stim_listA>",,html-keyboard-response,330,1534642,0.0-17.0-1.15,96926,List1A,black,man,,,,null,,,,
null,are touching each other,,html-keyboard-response,331,1536643,0.0-17.0-2.15,96926,List1A,black,man,,,,null,,,,
9403,,,survey-text,332,1546048,0.0-17.0-3.15,96926,List1A,black,man,,,,,"{""Q0"":""ruth and beth are touching each other""}","<img src=""stim_listA/touch8.gif""</stim_listA>",are touching each other,
null,"<div style=""font-size:60px;"">+</div>",,html-keyboard-response,333,1546549,0.0-17.0-0.16,96926,List1A,black,man,,,,null,,,,
null,"<img src=""stim_listA/dance5.gif""</stim_listA>",,html-keyboard-response,334,1548551,0.0-17.0-1.16,96926,List1A,black,man,,,,null,,,,
null,is dancing with,,html-keyboard-response,335,1550552,0.0-17.0-2.16,96926,List1A,black,man,,,,null,,,,
7714,,,survey-text,336,1558267,0.0-17.0-3.16,96926,List1A,black,man,,,,,"{""Q0"":""dave is dancing with fred""}","<img src=""stim_listA/dance5.gif""</stim_listA>",is dancing with,
null,"<div style=""font-size:60px;"">+</div>",,html-keyboard-response,337,1558768,0.0-17.0-0.17,96926,List1A,black,man,,,,null,,,,
null,"<img src=""stim_listA/kiss6.gif""</stim_listA>",,html-keyboard-response,338,1560769,0.0-17.0-1.17,96926,List1A,black,man,,,,null,,,,
null,are kissing each other,,html-keyboard-response,339,1562771,0.0-17.0-2.17,96926,List1A,black,man,,,,null,,,,
9036,,,survey-text,340,1571809,0.0-17.0-3.17,96926,List1A,black,man,,,,,"{""Q0"":""dave and mike are kissing each other""}","<img src=""stim_listA/kiss6.gif""</stim_listA>",are kissing each other,
null,"<div style=""font-size:60px;"">+</div>",,html-keyboard-response,341,1572311,0.0-17.0-0.18,96926,List1A,black,man,,,,null,,,,
null,"<img src=""stim_listA/marry4.gif""</stim_listA>",,html-keyboard-response,342,1574312,0.0-17.0-1.18,96926,List1A,black,man,,,,null,,,,
null,are marrying each other,,html-keyboard-response,343,1576314,0.0-17.0-2.18,96926,List1A,black,man,,,,null,,,,
8656,,,survey-text,344,1584972,0.0-17.0-3.18,96926,List1A,black,man,,,,,"{""Q0"":""jane and luke are marrying each other""}","<img src=""stim_listA/marry4.gif""</stim_listA>",are marrying each other,
null,"<div style=""font-size:60px;"">+</div>",,html-keyboard-response,345,1585474,0.0-17.0-0.19,96926,List1A,black,man,,,,null,,,,
null,"<img src=""stim_listA/kiss2.gif""</stim_listA>",,html-keyboard-response,346,1587475,0.0-17.0-1.19,96926,List1A,black,man,,,,null,,,,
null,are kissing each other,,html-keyboard-response,347,1589477,0.0-17.0-2.19,96926,List1A,black,man,,,,null,,,,
8286,,,survey-text,348,1597764,0.0-17.0-3.19,96926,List1A,black,man,,,,,"{""Q0"":""kate and mike are kissing each other""}","<img src=""stim_listA/kiss2.gif""</stim_listA>",are kissing each other,
13732,"<img src='img/portrait_matrix_list1.JPG' style='width:900px;height:500px;''></img><p>If you have memorised all the portraits and names and are ready to start, press Continue.</p><p><strong>Please note: Your memory of these faces will be tested 4 times during this experiment.</strong></p>",0,html-button-response,349,1611498,0.0-18.0-0.0,96926,List1A,black,man,,,,,,,,
6380,"<img src=""portrait/BM2.jpg""style=""width:400px;height:400px;""></img>",5,html-button-response,350,1618881,0.0-18.0-1.0,96926,List1A,black,man,,TRUE,5,,,,,
null,CORRECT,,html-keyboard-response,351,1620383,0.0-18.0-2.0-0.0,96926,List1A,black,man,,,,null,,,,
3418,"<img src=""portrait/BW1.jpg""style=""width:400px;height:400px;""></img>",0,html-button-response,352,1623803,0.0-18.0-4.0,96926,List1A,black,man,,TRUE,0,,,,,
null,CORRECT,,html-keyboard-response,353,1625306,0.0-18.0-5.0-0.0,96926,List1A,black,man,,,,null,,,,
2262,"<img src=""portrait/WM1.jpg""style=""width:400px;height:400px;""></img>",6,html-button-response,354,1627569,0.0-18.0-7.0,96926,List1A,black,man,,TRUE,6,,,,,
null,CORRECT,,html-keyboard-response,355,1629072,0.0-18.0-8.0-0.0,96926,List1A,black,man,,,,null,,,,
2087,"<img src=""portrait/WW1.jpg""style=""width:400px;height:400px;""></img>",1,html-button-response,356,1631161,0.0-18.0-10.0,96926,List1A,black,man,,TRUE,1,,,,,
null,CORRECT,,html-keyboard-response,357,1632664,0.0-18.0-11.0-0.0,96926,List1A,black,man,,,,null,,,,
2149,"<img src=""portrait/WM2.jpg""style=""width:400px;height:400px;""></img>",7,html-button-response,358,1634815,0.0-18.0-13.0,96926,List1A,black,man,,TRUE,7,,,,,
null,CORRECT,,html-keyboard-response,359,1636318,0.0-18.0-14.0-0.0,96926,List1A,black,man,,,,null,,,,
1541,"<img src=""portrait/BM1.jpg""style=""width:400px;height:400px;""></img>",4,html-button-response,360,1637861,0.0-18.0-16.0,96926,List1A,black,man,,TRUE,4,,,,,
null,CORRECT,,html-keyboard-response,361,1639363,0.0-18.0-17.0-0.0,96926,List1A,black,man,,,,null,,,,
2771,"<img src=""portrait/WW2.jpg""style=""width:400px;height:400px;""></img>",3,html-button-response,362,1642135,0.0-18.0-19.0,96926,List1A,black,man,,TRUE,3,,,,,
null,CORRECT,,html-keyboard-response,363,1643637,0.0-18.0-20.0-0.0,96926,List1A,black,man,,,,null,,,,
3056,"<img src=""portrait/BW2.jpg""style=""width:400px;height:400px;""></img>",2,html-button-response,364,1646695,0.0-18.0-22.0,96926,List1A,black,man,,TRUE,2,,,,,
null,CORRECT,,html-keyboard-response,365,1648197,0.0-18.0-23.0-0.0,96926,List1A,black,man,,,,null,,,,
41252,<p>You got 8 out of 8 right first time. Press Continue.</p>,0,html-button-response,366,1689451,0.0-18.0-25.0,96926,List1A,black,man,,,,,,,,
null,"<div style=""font-size:60px;"">+</div>",,html-keyboard-response,367,1690953,0.0-19.0-0.0,96926,List1A,black,man,,,,null,,,,
null,"<img src=""stim_listA/meet7.gif""</stim_listA>",,html-keyboard-response,368,1692955,0.0-19.0-1.0,96926,List1A,black,man,,,,null,,,,
null,is meeting,,html-keyboard-response,369,1694958,0.0-19.0-2.0,96926,List1A,black,man,,,,null,,,,
8871,,,survey-text,370,1703830,0.0-19.0-3.0,96926,List1A,black,man,,,,,"{""Q0"":""jane is meeting kate""}","<img src=""stim_listA/meet7.gif""</stim_listA>",is meeting,
null,"<div style=""font-size:60px;"">+</div>",,html-keyboard-response,371,1704331,0.0-19.0-0.1,96926,List1A,black,man,,,,null,,,,
null,"<img src=""stim_listA/fight8.gif""</stim_listA>",,html-keyboard-response,372,1706333,0.0-19.0-1.1,96926,List1A,black,man,,,,null,,,,
null,are fighting each other,,html-keyboard-response,373,1708334,0.0-19.0-2.1,96926,List1A,black,man,,,,null,,,,
16187,,,survey-text,374,1724521,0.0-19.0-3.1,96926,List1A,black,man,,,,,"{""Q0"":""ruth and beth are fighting each other""}","<img src=""stim_listA/fight8.gif""</stim_listA>",are fighting each other,
null,"<div style=""font-size:60px;"">+</div>",,html-keyboard-response,375,1725024,0.0-19.0-0.2,96926,List1A,black,man,,,,null,,,,
null,"<img src=""stim_listA/marry8.gif""</stim_listA>",,html-keyboard-response,376,1727026,0.0-19.0-1.2,96926,List1A,black,man,,,,null,,,,
null,are marrying each other,,html-keyboard-response,377,1729027,0.0-19.0-2.2,96926,List1A,black,man,,,,null,,,,
10014,,,survey-text,378,1739042,0.0-19.0-3.2,96926,List1A,black,man,,,,,"{""Q0"":""jane and beth are marrying each other""}","<img src=""stim_listA/marry8.gif""</stim_listA>",are marrying each other,
null,"<div style=""font-size:60px;"">+</div>",,html-keyboard-response,379,1739543,0.0-19.0-0.3,96926,List1A,black,man,,,,null,,,,
null,"<img src=""stim_listA/argue7.gif""</stim_listA>",,html-keyboard-response,380,1741545,0.0-19.0-1.3,96926,List1A,black,man,,,,null,,,,
null,is arguing with,,html-keyboard-response,381,1743545,0.0-19.0-2.3,96926,List1A,black,man,,,,null,,,,
9298,,,survey-text,382,1752844,0.0-19.0-3.3,96926,List1A,black,man,,,,,"{""Q0"":""kate is arguing with ruth""}","<img src=""stim_listA/argue7.gif""</stim_listA>",is arguing with,
null,"<div style=""font-size:60px;"">+</div>",,html-keyboard-response,383,1753347,0.0-19.0-0.4,96926,List1A,black,man,,,,null,,,,
null,"<img src=""stim_listA/talk6.gif""</stim_listA>",,html-keyboard-response,384,1755348,0.0-19.0-1.4,96926,List1A,black,man,,,,null,,,,
null,are talking to each other,,html-keyboard-response,385,1757350,0.0-19.0-2.4,96926,List1A,black,man,,,,null,,,,
10361,,,survey-text,386,1767712,0.0-19.0-3.4,96926,List1A,black,man,,,,,"{""Q0"":""luke and mike are talking to each other""}","<img src=""stim_listA/talk6.gif""</stim_listA>",are talking to each other,
null,"<div style=""font-size:60px;"">+</div>",,html-keyboard-response,387,1768213,0.0-19.0-0.5,96926,List1A,black,man,,,,null,,,,
null,"<img src=""stim_listA/touch3.gif""</stim_listA>",,html-keyboard-response,388,1770215,0.0-19.0-1.5,96926,List1A,black,man,,,,null,,,,
null,is touching,,html-keyboard-response,389,1772217,0.0-19.0-2.5,96926,List1A,black,man,,,,null,,,,
6627,,,survey-text,390,1778847,0.0-19.0-3.5,96926,List1A,black,man,,,,,"{""Q0"":""jane is touching dave""}","<img src=""stim_listA/touch3.gif""</stim_listA>",is touching,
null,"<div style=""font-size:60px;"">+</div>",,html-keyboard-response,391,1779348,0.0-19.0-0.6,96926,List1A,black,man,,,,null,,,,
null,"<img src=""stim_listA/marry7.gif""</stim_listA>",,html-keyboard-response,392,1781350,0.0-19.0-1.6,96926,List1A,black,man,,,,null,,,,
null,is marrying,,html-keyboard-response,393,1783351,0.0-19.0-2.6,96926,List1A,black,man,,,,null,,,,
9008,,,survey-text,394,1792360,0.0-19.0-3.6,96926,List1A,black,man,,,,,"{""Q0"":""ruth is marrying kate""}","<img src=""stim_listA/marry7.gif""</stim_listA>",is marrying,
null,"<div style=""font-size:60px;"">+</div>",,html-keyboard-response,395,1792861,0.0-19.0-0.7,96926,List1A,black,man,,,,null,,,,
null,"<img src=""stim_listA/shout5.gif""</stim_listA>",,html-keyboard-response,396,1794862,0.0-19.0-1.7,96926,List1A,black,man,,,,null,,,,
null,is shouting at,,html-keyboard-response,397,1796863,0.0-19.0-2.7,96926,List1A,black,man,,,,null,,,,
9892,,,survey-text,398,1806757,0.0-19.0-3.7,96926,List1A,black,man,,,,,"{""Q0"":""fred is shouting at luke""}","<img src=""stim_listA/shout5.gif""</stim_listA>",is shouting at,
null,"<div style=""font-size:60px;"">+</div>",,html-keyboard-response,399,1807259,0.0-19.0-0.8,96926,List1A,black,man,,,,null,,,,
null,"<img src=""stim_listA/meet8.gif""</stim_listA>",,html-keyboard-response,400,1809261,0.0-19.0-1.8,96926,List1A,black,man,,,,null,,,,
null,are meeting each other,,html-keyboard-response,401,1811263,0.0-19.0-2.8,96926,List1A,black,man,,,,null,,,,
11128,,,survey-text,402,1822392,0.0-19.0-3.8,96926,List1A,black,man,,,,,"{""Q0"":""jane and beth are meeting each other""}","<img src=""stim_listA/meet8.gif""</stim_listA>",are meeting each other,
null,"<div style=""font-size:60px;"">+</div>",,html-keyboard-response,403,1822895,0.0-19.0-0.9,96926,List1A,black,man,,,,null,,,,
null,"<img src=""stim_listA/fight6.gif""</stim_listA>",,html-keyboard-response,404,1824897,0.0-19.0-1.9,96926,List1A,black,man,,,,null,,,,
null,are fighting each other,,html-keyboard-response,405,1826900,0.0-19.0-2.9,96926,List1A,black,man,,,,null,,,,
7982,,,survey-text,406,1834884,0.0-19.0-3.9,96926,List1A,black,man,,,,,"{""Q0"":""fred and luke are fighting each other""}","<img src=""stim_listA/fight6.gif""</stim_listA>",are fighting each other,
null,"<div style=""font-size:60px;"">+</div>",,html-keyboard-response,407,1835385,0.0-19.0-0.10,96926,List1A,black,man,,,,null,,,,
null,"<img src=""stim_listA/shout1.gif""</stim_listA>",,html-keyboard-response,408,1837388,0.0-19.0-1.10,96926,List1A,black,man,,,,null,,,,
null,is shouting at,,html-keyboard-response,409,1839389,0.0-19.0-2.10,96926,List1A,black,man,,,,null,,,,
7254,,,survey-text,410,1846644,0.0-19.0-3.10,96926,List1A,black,man,,,,,"{""Q0"":""fred is shouting at beth""}","<img src=""stim_listA/shout1.gif""</stim_listA>",is shouting at,
null,"<div style=""font-size:60px;"">+</div>",,html-keyboard-response,411,1847146,0.0-19.0-0.11,96926,List1A,black,man,,,,null,,,,
null,"<img src=""stim_listA/shout4.gif""</stim_listA>",,html-keyboard-response,412,1849148,0.0-19.0-1.11,96926,List1A,black,man,,,,null,,,,
null,are shouting at each other,,html-keyboard-response,413,1851149,0.0-19.0-2.11,96926,List1A,black,man,,,,null,,,,
10222,,,survey-text,414,1861373,0.0-19.0-3.11,96926,List1A,black,man,,,,,"{""Q0"":""dave and jane are shouting at each other""}","<img src=""stim_listA/shout4.gif""</stim_listA>",are shouting at each other,
null,"<div style=""font-size:60px;"">+</div>",,html-keyboard-response,415,1861875,0.0-19.0-0.12,96926,List1A,black,man,,,,null,,,,
null,"<img src=""stim_listA/touch7.gif""</stim_listA>",,html-keyboard-response,416,1863878,0.0-19.0-1.12,96926,List1A,black,man,,,,null,,,,
null,is touching,,html-keyboard-response,417,1865880,0.0-19.0-2.12,96926,List1A,black,man,,,,null,,,,
10117,,,survey-text,418,1875998,0.0-19.0-3.12,96926,List1A,black,man,,,,,"{""Q0"":""jane is touching kate""}","<img src=""stim_listA/touch7.gif""</stim_listA>",is touching,
null,"<div style=""font-size:60px;"">+</div>",,html-keyboard-response,419,1876501,0.0-19.0-0.13,96926,List1A,black,man,,,,null,,,,
null,"<img src=""stim_listA/shout2.gif""</stim_listA>",,html-keyboard-response,420,1878502,0.0-19.0-1.13,96926,List1A,black,man,,,,null,,,,
null,are shouting at each other,,html-keyboard-response,421,1880503,0.0-19.0-2.13,96926,List1A,black,man,,,,null,,,,
7806,,,survey-text,422,1888310,0.0-19.0-3.13,96926,List1A,black,man,,,,,"{""Q0"":""kate and mike are shouting at each other""}","<img src=""stim_listA/shout2.gif""</stim_listA>",are shouting at each other,
null,"<div style=""font-size:60px;"">+</div>",,html-keyboard-response,423,1888813,0.0-19.0-0.14,96926,List1A,black,man,,,,null,,,,
null,"<img src=""stim_listA/shout6.gif""</stim_listA>",,html-keyboard-response,424,1890814,0.0-19.0-1.14,96926,List1A,black,man,,,,null,,,,
null,are shouting at each other,,html-keyboard-response,425,1892816,0.0-19.0-2.14,96926,List1A,black,man,,,,null,,,,
9908,,,survey-text,426,1902726,0.0-19.0-3.14,96926,List1A,black,man,,,,,"{""Q0"":""mike and dave are shouting at each other""}","<img src=""stim_listA/shout6.gif""</stim_listA>",are shouting at each other,
null,"<div style=""font-size:60px;"">+</div>",,html-keyboard-response,427,1903228,0.0-19.0-0.15,96926,List1A,black,man,,,,null,,,,
null,"<img src=""stim_listA/argue6.gif""</stim_listA>",,html-keyboard-response,428,1905231,0.0-19.0-1.15,96926,List1A,black,man,,,,null,,,,
null,are arguing with each other,,html-keyboard-response,429,1907233,0.0-19.0-2.15,96926,List1A,black,man,,,,null,,,,
10692,,,survey-text,430,1917925,0.0-19.0-3.15,96926,List1A,black,man,,,,,"{""Q0"":""dave and fred are arguing with each other""}","<img src=""stim_listA/argue6.gif""</stim_listA>",are arguing with each other,
null,"<div style=""font-size:60px;"">+</div>",,html-keyboard-response,431,1918427,0.0-19.0-0.16,96926,List1A,black,man,,,,null,,,,
null,"<img src=""stim_listA/dance3.gif""</stim_listA>",,html-keyboard-response,432,1920430,0.0-19.0-1.16,96926,List1A,black,man,,,,null,,,,
null,is dancing with,,html-keyboard-response,433,1922431,0.0-19.0-2.16,96926,List1A,black,man,,,,null,,,,
9220,,,survey-text,434,1931653,0.0-19.0-3.16,96926,List1A,black,man,,,,,"{""Q0"":""luke is dancing with jane""}","<img src=""stim_listA/dance3.gif""</stim_listA>",is dancing with,
null,"<div style=""font-size:60px;"">+</div>",,html-keyboard-response,435,1932155,0.0-19.0-0.17,96926,List1A,black,man,,,,null,,,,
null,"<img src=""stim_listA/kiss7.gif""</stim_listA>",,html-keyboard-response,436,1934158,0.0-19.0-1.17,96926,List1A,black,man,,,,null,,,,
null,is kissing,,html-keyboard-response,437,1936160,0.0-19.0-2.17,96926,List1A,black,man,,,,null,,,,
8478,,,survey-text,438,1944640,0.0-19.0-3.17,96926,List1A,black,man,,,,,"{""Q0"":""ruth is kissing kate""}","<img src=""stim_listA/kiss7.gif""</stim_listA>",is kissing,
null,"<div style=""font-size:60px;"">+</div>",,html-keyboard-response,439,1945142,0.0-19.0-0.18,96926,List1A,black,man,,,,null,,,,
null,"<img src=""stim_listA/touch1.gif""</stim_listA>",,html-keyboard-response,440,1947144,0.0-19.0-1.18,96926,List1A,black,man,,,,null,,,,
null,is touching,,html-keyboard-response,441,1949146,0.0-19.0-2.18,96926,List1A,black,man,,,,null,,,,
8683,,,survey-text,442,1957830,0.0-19.0-3.18,96926,List1A,black,man,,,,,"{""Q0"":""mike is touching kate""}","<img src=""stim_listA/touch1.gif""</stim_listA>",is touching,
null,"<div style=""font-size:60px;"">+</div>",,html-keyboard-response,443,1958332,0.0-19.0-0.19,96926,List1A,black,man,,,,null,,,,
null,"<img src=""stim_listA/kiss5.gif""</stim_listA>",,html-keyboard-response,444,1960335,0.0-19.0-1.19,96926,List1A,black,man,,,,null,,,,
null,is kissing,,html-keyboard-response,445,1962336,0.0-19.0-2.19,96926,List1A,black,man,,,,null,,,,
6595,,,survey-text,446,1968932,0.0-19.0-3.19,96926,List1A,black,man,,,,,"{""Q0"":""fred is kissing luke""}","<img src=""stim_listA/kiss5.gif""</stim_listA>",is kissing,
2938,<p>Thank you for completing that task.</p><p>The final part of this session is a short questionnaire.</p><p>Press Continue.</p>,0,html-button-response,447,1971871,0.0-20.0,96926,List1A,black,man,,,,,,,,
32286,,,survey-text,448,2005160,0.0-21.0,96926,List1A,black,man,,,,,"{""Q0"":""36"",""Q1"":""english"",""Q2"":""english"",""Q3"":""United States"",""Q4"":""African American"",""Q5"":""Male""}",,,demographics
69295,,,survey-likert,449,2074462,0.0-22.0,96926,List1A,black,man,,,,,"{""Q0"":6,""Q1"":6,""Q2"":6,""Q3"":6,""Q4"":6,""Q5"":0,""Q6"":6,""Q7"":6,""Q8"":6,""Q9"":6,""Q10"":3,""Q11"":3,""Q12"":4,""Q13"":3}",,,likert_race
56535,,,survey-likert,450,2131007,0.0-23.0,96926,List1A,black,man,,,,,"{""Q0"":3,""Q1"":3,""Q2"":3,""Q3"":6,""Q4"":3,""Q5"":6,""Q6"":3,""Q7"":3,""Q8"":6,""Q9"":6,""Q10"":3,""Q11"":3,""Q12"":5,""Q13"":3}",,,likert_gender
14634,,,survey-text,451,2145647,0.0-24.0,96926,List1A,black,man,,,,,"{""Q0"":""ccc""}",,,worker_id
35227,,,external-html,452,2181083,0.0-25.0,96926,List1A,black,man,debrief.html,,,,,,,
