rt,stimulus,button_pressed,trial_type,trial_index,time_elapsed,internal_node_id,subject,list,ppt_race,ppt_gender,url,first_guess,correct,key_press,responses,image_type,phrase_type,test_part
3032,Welcome to the experiment. Press Continue to begin.,0,html-button-response,0,3046,0.0-0.0,979,List1A,black,man,,,,,,,,
17230,,,external-html,1,21370,0.0-1.0,979,List1A,black,man,consent.html,,,,,,,
18953,"<p>On the next page, you will see portraits of 8 people and their names.</p><p>Your first task is to take a few minutes to memorise the names of these people.</p><p>You will have to recall their names during the rest of the experiment, so it is</p><p>essential that you try to memorise these people and their names as best as you can.</p><br><p><strong>You will then be tested on your memory of these names and portraits.</strong></p><br><p>The experiment will start after you have completed this memory test.</p><br><p>Ready?</p>",0,html-button-response,2,40331,0.0-2.0,979,List1A,black,man,,,,,,,,
45857,"<img src='img/portrait_matrix_list1.JPG' style='width:900px;height:500px;''></img><p>If you have memorised all the portraits and names and are ready to start, press Continue.</p><p><strong>Please note: Your memory of these faces will be tested 4 times during this experiment.</strong></p>",0,html-button-response,3,87211,0.0-3.0-0.0,979,List1A,black,man,,,,,,,,
7457,"<img src=""portrait/WW1.jpg""style=""width:400px;height:400px;""></img>",2,html-button-response,4,95688,0.0-3.0-1.0,979,List1A,black,man,,TRUE,1,,,,,
4186,"<img src=""portrait/WW1.jpg""style=""width:400px;height:400px;""></img>",3,html-button-response,5,100900,0.0-3.0-3.0-0.0,979,List1A,black,man,,FALSE,1,,,,,
null,INCORRECT,,html-keyboard-response,6,102437,0.0-3.0-3.0-2.0-0.0,979,List1A,black,man,,,,null,,,,
6155,"<img src=""portrait/BM1.jpg""style=""width:400px;height:400px;""></img>",4,html-button-response,7,108606,0.0-3.0-4.0,979,List1A,black,man,,TRUE,4,,,,,
null,CORRECT,,html-keyboard-response,8,110115,0.0-3.0-5.0-0.0,979,List1A,black,man,,,,null,,,,
5926,"<img src=""portrait/WW2.jpg""style=""width:400px;height:400px;""></img>",2,html-button-response,9,116053,0.0-3.0-7.0,979,List1A,black,man,,TRUE,3,,,,,
4167,"<img src=""portrait/WW2.jpg""style=""width:400px;height:400px;""></img>",3,html-button-response,10,121245,0.0-3.0-9.0-0.0,979,List1A,black,man,,FALSE,3,,,,,
null,CORRECT,,html-keyboard-response,11,122768,0.0-3.0-9.0-1.0-0.0,979,List1A,black,man,,,,null,,,,
3210,"<img src=""portrait/BM2.jpg""style=""width:400px;height:400px;""></img>",5,html-button-response,12,125991,0.0-3.0-10.0,979,List1A,black,man,,TRUE,5,,,,,
null,CORRECT,,html-keyboard-response,13,127512,0.0-3.0-11.0-0.0,979,List1A,black,man,,,,null,,,,
7371,"<img src=""portrait/WM1.jpg""style=""width:400px;height:400px;""></img>",6,html-button-response,14,134896,0.0-3.0-13.0,979,List1A,black,man,,TRUE,6,,,,,
null,CORRECT,,html-keyboard-response,15,136421,0.0-3.0-14.0-0.0,979,List1A,black,man,,,,null,,,,
2859,"<img src=""portrait/BW2.jpg""style=""width:400px;height:400px;""></img>",0,html-button-response,16,139288,0.0-3.0-16.0,979,List1A,black,man,,TRUE,2,,,,,
10409,"<img src=""portrait/BW2.jpg""style=""width:400px;height:400px;""></img>",2,html-button-response,17,150719,0.0-3.0-18.0-0.0,979,List1A,black,man,,FALSE,2,,,,,
null,CORRECT,,html-keyboard-response,18,152245,0.0-3.0-18.0-1.0-0.0,979,List1A,black,man,,,,null,,,,
2711,"<img src=""portrait/WM2.jpg""style=""width:400px;height:400px;""></img>",7,html-button-response,19,154969,0.0-3.0-19.0,979,List1A,black,man,,TRUE,7,,,,,
null,CORRECT,,html-keyboard-response,20,156488,0.0-3.0-20.0-0.0,979,List1A,black,man,,,,null,,,,
2785,"<img src=""portrait/BW1.jpg""style=""width:400px;height:400px;""></img>",0,html-button-response,21,159278,0.0-3.0-22.0,979,List1A,black,man,,TRUE,0,,,,,
null,CORRECT,,html-keyboard-response,22,160799,0.0-3.0-23.0-0.0,979,List1A,black,man,,,,null,,,,
2705,<p>You got 5 out of 8 right first time. Press Continue.</p>,0,html-button-response,23,163510,0.0-3.0-25.0,979,List1A,black,man,,,,,,,,
4724,"As you did not score 100%, the memory game will repeat. Press Continue.",0,html-button-response,24,169239,0.0-3.0-26.0-0.0,979,List1A,black,man,,,,,,,,
24200,"<img src='img/portrait_matrix_list1.JPG' style='width:900px;height:500px;''></img><p>If you have memorised all the portraits and names and are ready to start, press Continue.</p><p><strong>Please note: Your memory of these faces will be tested 4 times during this experiment.</strong></p>",0,html-button-response,25,194472,0.0-3.1-0.1,979,List1A,black,man,,,,,,,,
3422,"<img src=""portrait/WW1.jpg""style=""width:400px;height:400px;""></img>",3,html-button-response,26,198913,0.0-3.1-1.1,979,List1A,black,man,,TRUE,1,,,,,
1979,"<img src=""portrait/WW1.jpg""style=""width:400px;height:400px;""></img>",1,html-button-response,27,201905,0.0-3.1-3.1-0.1,979,List1A,black,man,,FALSE,1,,,,,
null,CORRECT,,html-keyboard-response,28,203419,0.0-3.1-3.1-1.1-0.1,979,List1A,black,man,,,,null,,,,
2793,"<img src=""portrait/BM1.jpg""style=""width:400px;height:400px;""></img>",4,html-button-response,29,206225,0.0-3.1-4.1,979,List1A,black,man,,TRUE,4,,,,,
null,CORRECT,,html-keyboard-response,30,207761,0.0-3.1-5.1-0.1,979,List1A,black,man,,,,null,,,,
3610,"<img src=""portrait/WW2.jpg""style=""width:400px;height:400px;""></img>",3,html-button-response,31,211377,0.0-3.1-7.1,979,List1A,black,man,,TRUE,3,,,,,
null,CORRECT,,html-keyboard-response,32,212907,0.0-3.1-8.1-0.1,979,List1A,black,man,,,,null,,,,
2528,"<img src=""portrait/BM2.jpg""style=""width:400px;height:400px;""></img>",5,html-button-response,33,215443,0.0-3.1-10.1,979,List1A,black,man,,TRUE,5,,,,,
null,CORRECT,,html-keyboard-response,34,216955,0.0-3.1-11.1-0.1,979,List1A,black,man,,,,null,,,,
2251,"<img src=""portrait/WM1.jpg""style=""width:400px;height:400px;""></img>",6,html-button-response,35,219218,0.0-3.1-13.1,979,List1A,black,man,,TRUE,6,,,,,
null,CORRECT,,html-keyboard-response,36,220753,0.0-3.1-14.1-0.1,979,List1A,black,man,,,,null,,,,
4387,"<img src=""portrait/BW2.jpg""style=""width:400px;height:400px;""></img>",2,html-button-response,37,225150,0.0-3.1-16.1,979,List1A,black,man,,TRUE,2,,,,,
null,CORRECT,,html-keyboard-response,38,226678,0.0-3.1-17.1-0.1,979,List1A,black,man,,,,null,,,,
2284,"<img src=""portrait/WM2.jpg""style=""width:400px;height:400px;""></img>",7,html-button-response,39,228970,0.0-3.1-19.1,979,List1A,black,man,,TRUE,7,,,,,
null,CORRECT,,html-keyboard-response,40,230494,0.0-3.1-20.1-0.1,979,List1A,black,man,,,,null,,,,
2279,"<img src=""portrait/BW1.jpg""style=""width:400px;height:400px;""></img>",0,html-button-response,41,232778,0.0-3.1-22.1,979,List1A,black,man,,TRUE,0,,,,,
null,CORRECT,,html-keyboard-response,42,234289,0.0-3.1-23.1-0.1,979,List1A,black,man,,,,null,,,,
2674,<p>You got 7 out of 8 right first time. Press Continue.</p>,0,html-button-response,43,236968,0.0-3.1-25.1,979,List1A,black,man,,,,,,,,
2607,"As you did not score 100%, the memory game will repeat. Press Continue.",0,html-button-response,44,240593,0.0-3.1-26.1-0.1,979,List1A,black,man,,,,,,,,
7585,"<img src='img/portrait_matrix_list1.JPG' style='width:900px;height:500px;''></img><p>If you have memorised all the portraits and names and are ready to start, press Continue.</p><p><strong>Please note: Your memory of these faces will be tested 4 times during this experiment.</strong></p>",0,html-button-response,45,249186,0.0-3.2-0.2,979,List1A,black,man,,,,,,,,
4381,"<img src=""portrait/WW1.jpg""style=""width:400px;height:400px;""></img>",3,html-button-response,46,254579,0.0-3.2-1.2,979,List1A,black,man,,TRUE,1,,,,,
2934,"<img src=""portrait/WW1.jpg""style=""width:400px;height:400px;""></img>",1,html-button-response,47,258529,0.0-3.2-3.2-0.2,979,List1A,black,man,,FALSE,1,,,,,
null,CORRECT,,html-keyboard-response,48,260036,0.0-3.2-3.2-1.2-0.2,979,List1A,black,man,,,,null,,,,
1951,"<img src=""portrait/BM1.jpg""style=""width:400px;height:400px;""></img>",4,html-button-response,49,261995,0.0-3.2-4.2,979,List1A,black,man,,TRUE,4,,,,,
null,CORRECT,,html-keyboard-response,50,263502,0.0-3.2-5.2-0.2,979,List1A,black,man,,,,null,,,,
2775,"<img src=""portrait/WW2.jpg""style=""width:400px;height:400px;""></img>",3,html-button-response,51,266283,0.0-3.2-7.2,979,List1A,black,man,,TRUE,3,,,,,
null,CORRECT,,html-keyboard-response,52,267798,0.0-3.2-8.2-0.2,979,List1A,black,man,,,,null,,,,
2503,"<img src=""portrait/BM2.jpg""style=""width:400px;height:400px;""></img>",5,html-button-response,53,270307,0.0-3.2-10.2,979,List1A,black,man,,TRUE,5,,,,,
null,CORRECT,,html-keyboard-response,54,271829,0.0-3.2-11.2-0.2,979,List1A,black,man,,,,null,,,,
1780,"<img src=""portrait/WM1.jpg""style=""width:400px;height:400px;""></img>",6,html-button-response,55,273619,0.0-3.2-13.2,979,List1A,black,man,,TRUE,6,,,,,
null,CORRECT,,html-keyboard-response,56,275142,0.0-3.2-14.2-0.2,979,List1A,black,man,,,,null,,,,
1996,"<img src=""portrait/BW2.jpg""style=""width:400px;height:400px;""></img>",2,html-button-response,57,277148,0.0-3.2-16.2,979,List1A,black,man,,TRUE,2,,,,,
null,CORRECT,,html-keyboard-response,58,278672,0.0-3.2-17.2-0.2,979,List1A,black,man,,,,null,,,,
1546,"<img src=""portrait/WM2.jpg""style=""width:400px;height:400px;""></img>",7,html-button-response,59,280226,0.0-3.2-19.2,979,List1A,black,man,,TRUE,7,,,,,
null,CORRECT,,html-keyboard-response,60,281737,0.0-3.2-20.2-0.2,979,List1A,black,man,,,,null,,,,
1623,"<img src=""portrait/BW1.jpg""style=""width:400px;height:400px;""></img>",0,html-button-response,61,283371,0.0-3.2-22.2,979,List1A,black,man,,TRUE,0,,,,,
null,CORRECT,,html-keyboard-response,62,284883,0.0-3.2-23.2-0.2,979,List1A,black,man,,,,null,,,,
2614,<p>You got 7 out of 8 right first time. Press Continue.</p>,0,html-button-response,63,287507,0.0-3.2-25.2,979,List1A,black,man,,,,,,,,
1315,"As you did not score 100%, the memory game will repeat. Press Continue.",0,html-button-response,64,289843,0.0-3.2-26.2-0.2,979,List1A,black,man,,,,,,,,
5745,"<img src='img/portrait_matrix_list1.JPG' style='width:900px;height:500px;''></img><p>If you have memorised all the portraits and names and are ready to start, press Continue.</p><p><strong>Please note: Your memory of these faces will be tested 4 times during this experiment.</strong></p>",0,html-button-response,65,296611,0.0-3.3-0.3,979,List1A,black,man,,,,,,,,
3155,"<img src=""portrait/WW1.jpg""style=""width:400px;height:400px;""></img>",1,html-button-response,66,300781,0.0-3.3-1.3,979,List1A,black,man,,TRUE,1,,,,,
null,CORRECT,,html-keyboard-response,67,302297,0.0-3.3-2.3-0.3,979,List1A,black,man,,,,null,,,,
1726,"<img src=""portrait/BM1.jpg""style=""width:400px;height:400px;""></img>",4,html-button-response,68,304029,0.0-3.3-4.3,979,List1A,black,man,,TRUE,4,,,,,
null,CORRECT,,html-keyboard-response,69,305549,0.0-3.3-5.3-0.3,979,List1A,black,man,,,,null,,,,
7263,"<img src=""portrait/WW2.jpg""style=""width:400px;height:400px;""></img>",3,html-button-response,70,312821,0.0-3.3-7.3,979,List1A,black,man,,TRUE,3,,,,,
null,CORRECT,,html-keyboard-response,71,314341,0.0-3.3-8.3-0.3,979,List1A,black,man,,,,null,,,,
1733,"<img src=""portrait/BM2.jpg""style=""width:400px;height:400px;""></img>",5,html-button-response,72,316085,0.0-3.3-10.3,979,List1A,black,man,,TRUE,5,,,,,
null,CORRECT,,html-keyboard-response,73,317602,0.0-3.3-11.3-0.3,979,List1A,black,man,,,,null,,,,
1973,"<img src=""portrait/WM1.jpg""style=""width:400px;height:400px;""></img>",6,html-button-response,74,319581,0.0-3.3-13.3,979,List1A,black,man,,TRUE,6,,,,,
null,CORRECT,,html-keyboard-response,75,321104,0.0-3.3-14.3-0.3,979,List1A,black,man,,,,null,,,,
2384,"<img src=""portrait/BW2.jpg""style=""width:400px;height:400px;""></img>",2,html-button-response,76,323493,0.0-3.3-16.3,979,List1A,black,man,,TRUE,2,,,,,
null,CORRECT,,html-keyboard-response,77,325015,0.0-3.3-17.3-0.3,979,List1A,black,man,,,,null,,,,
1813,"<img src=""portrait/WM2.jpg""style=""width:400px;height:400px;""></img>",7,html-button-response,78,326837,0.0-3.3-19.3,979,List1A,black,man,,TRUE,7,,,,,
null,CORRECT,,html-keyboard-response,79,328348,0.0-3.3-20.3-0.3,979,List1A,black,man,,,,null,,,,
3440,"<img src=""portrait/BW1.jpg""style=""width:400px;height:400px;""></img>",0,html-button-response,80,331798,0.0-3.3-22.3,979,List1A,black,man,,TRUE,0,,,,,
null,CORRECT,,html-keyboard-response,81,333326,0.0-3.3-23.3-0.3,979,List1A,black,man,,,,null,,,,
2685,<p>You got 8 out of 8 right first time. Press Continue.</p>,0,html-button-response,82,336022,0.0-3.3-25.3,979,List1A,black,man,,,,,,,,
21281,"<p>In this experiment, you will view photographs of the people from the memory game interacting.</p><p>By using the <strong>exact</strong> phrase given <i>after</i> the photograph appears and recalling the correct names of the people in the photographs, form a sentence describing the interaction. You do not need to capitalise names.</p><p>Type your answer in the space provided. Please complete every sentence before moving onto the next trial.</p><p>You will only have a few seconds to memorise each given photograph and phrase before you can respond, so try your best to focus.</p><p>An example is given below. Press 'Continue' when you are ready.</p><img src='img/speaking_example_v2.jpg' style='width:800px;height:460px;''></img>",0,html-button-response,83,358333,0.0-4.0,979,List1A,black,man,,,,,,,,
3351,"<p>Before the experiment starts, you will watch two example trials. Press 'Continue'.</p>",0,html-button-response,84,362702,0.0-5.0,979,List1A,black,man,,,,,,,,
null,<img src='img/speaking_WW.gif'></img>,,html-keyboard-response,85,365730,0.0-6.0,979,List1A,black,man,,,,null,,,,
null,<p>is speaking to</p>,,html-keyboard-response,86,367732,0.0-7.0,979,List1A,black,man,,,,null,,,,
2187,<p><b>Answer:</b> kate is speaking to beth</p>,0,html-button-response,87,369926,0.0-8.0,979,List1A,black,man,,,,,,,,
null,<img src='img/pointing_BM.gif'></img>,,html-keyboard-response,88,372956,0.0-9.0,979,List1A,black,man,,,,null,,,,
null,<p>are pointing at each other</p>,,html-keyboard-response,89,374943,0.0-10.0,979,List1A,black,man,,,,null,,,,
1533,<p><b>Answer:</b> luke and dave are pointing at each other</p>,0,html-button-response,90,376484,0.0-11.0,979,List1A,black,man,,,,,,,,
4633,"<p>Ready to start the experiment?</p><br><p><strong>Remember to describe the picture using a full sentence,</strong></p><p><strong>that combines the names of the people with the given phrase.</strong></p><p><strong>If you do not do this correctly you will not be paid.</strong></p><p><strong> You do not need to capitalise names or use punctuation.</strong></p><br><p>Press 'Continue' to begin.</p>",0,html-button-response,91,382134,0.0-12.0,979,List1A,black,man,,,,,,,,
null,"<div style=""font-size:60px;"">+</div>",,html-keyboard-response,92,383651,0.0-13.0-0.0,979,List1A,black,man,,,,null,,,,
null,"<img src=""stim_listA/hug1.gif""</stim_listA>",,html-keyboard-response,93,385679,0.0-13.0-1.0,979,List1A,black,man,,,,null,,,,
null,is hugging,,html-keyboard-response,94,387665,0.0-13.0-2.0,979,List1A,black,man,,,,null,,,,
19457,,,survey-text,95,407134,0.0-13.0-3.0,979,List1A,black,man,,,,,"{""Q0"":""fred is hugging beth""}","<img src=""stim_listA/hug1.gif""</stim_listA>",is hugging,
null,"<div style=""font-size:60px;"">+</div>",,html-keyboard-response,96,407643,0.0-13.0-0.1,979,List1A,black,man,,,,null,,,,
null,"<img src=""stim_listA/meet7.gif""</stim_listA>",,html-keyboard-response,97,409655,0.0-13.0-1.1,979,List1A,black,man,,,,null,,,,
null,is meeting,,html-keyboard-response,98,411649,0.0-13.0-2.1,979,List1A,black,man,,,,null,,,,
12765,,,survey-text,99,424418,0.0-13.0-3.1,979,List1A,black,man,,,,,"{""Q0"":""kate is meeting jane""}","<img src=""stim_listA/meet7.gif""</stim_listA>",is meeting,
null,"<div style=""font-size:60px;"">+</div>",,html-keyboard-response,100,424932,0.0-13.0-0.2,979,List1A,black,man,,,,null,,,,
null,"<img src=""stim_listA/shout6.gif""</stim_listA>",,html-keyboard-response,101,426941,0.0-13.0-1.2,979,List1A,black,man,,,,null,,,,
null,are shouting at each other,,html-keyboard-response,102,428951,0.0-13.0-2.2,979,List1A,black,man,,,,null,,,,
16894,,,survey-text,103,445851,0.0-13.0-3.2,979,List1A,black,man,,,,,"{""Q0"":""dave is shouting at mike""}","<img src=""stim_listA/shout6.gif""</stim_listA>",are shouting at each other,
null,"<div style=""font-size:60px;"">+</div>",,html-keyboard-response,104,446365,0.0-13.0-0.3,979,List1A,black,man,,,,null,,,,
null,"<img src=""stim_listA/argue2.gif""</stim_listA>",,html-keyboard-response,105,448374,0.0-13.0-1.3,979,List1A,black,man,,,,null,,,,
null,are arguing with each other,,html-keyboard-response,106,450379,0.0-13.0-2.3,979,List1A,black,man,,,,null,,,,
27869,,,survey-text,107,478251,0.0-13.0-3.3,979,List1A,black,man,,,,,"{""Q0"":""kate and fred are arguing with each other""}","<img src=""stim_listA/argue2.gif""</stim_listA>",are arguing with each other,
null,"<div style=""font-size:60px;"">+</div>",,html-keyboard-response,108,478766,0.0-13.0-0.4,979,List1A,black,man,,,,null,,,,
null,"<img src=""stim_listA/meet2.gif""</stim_listA>",,html-keyboard-response,109,480770,0.0-13.0-1.4,979,List1A,black,man,,,,null,,,,
null,are meeting each other,,html-keyboard-response,110,482783,0.0-13.0-2.4,979,List1A,black,man,,,,null,,,,
22343,,,survey-text,111,505131,0.0-13.0-3.4,979,List1A,black,man,,,,,"{""Q0"":""fred and beth are meeting each other""}","<img src=""stim_listA/meet2.gif""</stim_listA>",are meeting each other,
null,"<div style=""font-size:60px;"">+</div>",,html-keyboard-response,112,505643,0.0-13.0-0.5,979,List1A,black,man,,,,null,,,,
null,"<img src=""stim_listA/meet8.gif""</stim_listA>",,html-keyboard-response,113,507662,0.0-13.0-1.5,979,List1A,black,man,,,,null,,,,
null,are meeting each other,,html-keyboard-response,114,509650,0.0-13.0-2.5,979,List1A,black,man,,,,null,,,,
17950,,,survey-text,115,527604,0.0-13.0-3.5,979,List1A,black,man,,,,,"{""Q0"":""ruth and beth are meeting each other""}","<img src=""stim_listA/meet8.gif""</stim_listA>",are meeting each other,
null,"<div style=""font-size:60px;"">+</div>",,html-keyboard-response,116,528112,0.0-13.0-0.6,979,List1A,black,man,,,,null,,,,
null,"<img src=""stim_listA/dance7.gif""</stim_listA>",,html-keyboard-response,117,530127,0.0-13.0-1.6,979,List1A,black,man,,,,null,,,,
null,is dancing with,,html-keyboard-response,118,532129,0.0-13.0-2.6,979,List1A,black,man,,,,null,,,,
23680,,,survey-text,119,555814,0.0-13.0-3.6,979,List1A,black,man,,,,,"{""Q0"":""ruth is dancing with jane""}","<img src=""stim_listA/dance7.gif""</stim_listA>",is dancing with,
null,"<div style=""font-size:60px;"">+</div>",,html-keyboard-response,120,556320,0.0-13.0-0.7,979,List1A,black,man,,,,null,,,,
null,"<img src=""stim_listA/dance1.gif""</stim_listA>",,html-keyboard-response,121,558337,0.0-13.0-1.7,979,List1A,black,man,,,,null,,,,
null,is dancing with,,html-keyboard-response,122,560326,0.0-13.0-2.7,979,List1A,black,man,,,,null,,,,
19803,,,survey-text,123,580134,0.0-13.0-3.7,979,List1A,black,man,,,,,"{""Q0"":""fred is dancing with beth""}","<img src=""stim_listA/dance1.gif""</stim_listA>",is dancing with,
null,"<div style=""font-size:60px;"">+</div>",,html-keyboard-response,124,580651,0.0-13.0-0.8,979,List1A,black,man,,,,null,,,,
null,"<img src=""stim_listA/talk4.gif""</stim_listA>",,html-keyboard-response,125,582667,0.0-13.0-1.8,979,List1A,black,man,,,,null,,,,
null,are talking to each other,,html-keyboard-response,126,584672,0.0-13.0-2.8,979,List1A,black,man,,,,null,,,,
17954,,,survey-text,127,602632,0.0-13.0-3.8,979,List1A,black,man,,,,,"{""Q0"":""dave and ruth are talking to each other""}","<img src=""stim_listA/talk4.gif""</stim_listA>",are talking to each other,
null,"<div style=""font-size:60px;"">+</div>",,html-keyboard-response,128,603148,0.0-13.0-0.9,979,List1A,black,man,,,,null,,,,
null,"<img src=""stim_listA/hug7.gif""</stim_listA>",,html-keyboard-response,129,605158,0.0-13.0-1.9,979,List1A,black,man,,,,null,,,,
null,is hugging,,html-keyboard-response,130,607150,0.0-13.0-2.9,979,List1A,black,man,,,,null,,,,
16429,,,survey-text,131,623584,0.0-13.0-3.9,979,List1A,black,man,,,,,"{""Q0"":""ruth and kate is hugging""}","<img src=""stim_listA/hug7.gif""</stim_listA>",is hugging,
null,"<div style=""font-size:60px;"">+</div>",,html-keyboard-response,132,624096,0.0-13.0-0.10,979,List1A,black,man,,,,null,,,,
null,"<img src=""stim_listA/dance5.gif""</stim_listA>",,html-keyboard-response,133,626109,0.0-13.0-1.10,979,List1A,black,man,,,,null,,,,
null,is dancing with,,html-keyboard-response,134,628113,0.0-13.0-2.10,979,List1A,black,man,,,,null,,,,
19771,,,survey-text,135,647888,0.0-13.0-3.10,979,List1A,black,man,,,,,"{""Q0"":""dave is dancing  with fred""}","<img src=""stim_listA/dance5.gif""</stim_listA>",is dancing with,
null,"<div style=""font-size:60px;"">+</div>",,html-keyboard-response,136,648410,0.0-13.0-0.11,979,List1A,black,man,,,,null,,,,
null,"<img src=""stim_listA/fight2.gif""</stim_listA>",,html-keyboard-response,137,650424,0.0-13.0-1.11,979,List1A,black,man,,,,null,,,,
null,are fighting each other,,html-keyboard-response,138,652415,0.0-13.0-2.11,979,List1A,black,man,,,,null,,,,
19342,,,survey-text,139,671761,0.0-13.0-3.11,979,List1A,black,man,,,,,"{""Q0"":""fred and kate are fighting each other""}","<img src=""stim_listA/fight2.gif""</stim_listA>",are fighting each other,
null,"<div style=""font-size:60px;"">+</div>",,html-keyboard-response,140,672274,0.0-13.0-0.12,979,List1A,black,man,,,,null,,,,
null,"<img src=""stim_listA/touch2.gif""</stim_listA>",,html-keyboard-response,141,674292,0.0-13.0-1.12,979,List1A,black,man,,,,null,,,,
null,are touching each other,,html-keyboard-response,142,676289,0.0-13.0-2.12,979,List1A,black,man,,,,null,,,,
20194,,,survey-text,143,696489,0.0-13.0-3.12,979,List1A,black,man,,,,,"{""Q0"":""fred and kate are touching each other""}","<img src=""stim_listA/touch2.gif""</stim_listA>",are touching each other,
null,"<div style=""font-size:60px;"">+</div>",,html-keyboard-response,144,697008,0.0-13.0-0.13,979,List1A,black,man,,,,null,,,,
null,"<img src=""stim_listA/hug6.gif""</stim_listA>",,html-keyboard-response,145,699017,0.0-13.0-1.13,979,List1A,black,man,,,,null,,,,
null,are hugging each other,,html-keyboard-response,146,701021,0.0-13.0-2.13,979,List1A,black,man,,,,null,,,,
15105,,,survey-text,147,716131,0.0-13.0-3.13,979,List1A,black,man,,,,,"{""Q0"":""dave and mike are hugging each other""}","<img src=""stim_listA/hug6.gif""</stim_listA>",are hugging each other,
null,"<div style=""font-size:60px;"">+</div>",,html-keyboard-response,148,716653,0.0-13.0-0.14,979,List1A,black,man,,,,null,,,,
null,"<img src=""stim_listA/talk6.gif""</stim_listA>",,html-keyboard-response,149,718672,0.0-13.0-1.14,979,List1A,black,man,,,,null,,,,
null,are talking to each other,,html-keyboard-response,150,720658,0.0-13.0-2.14,979,List1A,black,man,,,,null,,,,
19508,,,survey-text,151,740172,0.0-13.0-3.14,979,List1A,black,man,,,,,"{""Q0"":""luke and mike are talking to each other""}","<img src=""stim_listA/talk6.gif""</stim_listA>",are talking to each other,
null,"<div style=""font-size:60px;"">+</div>",,html-keyboard-response,152,740683,0.0-13.0-0.15,979,List1A,black,man,,,,null,,,,
null,"<img src=""stim_listA/meet5.gif""</stim_listA>",,html-keyboard-response,153,742687,0.0-13.0-1.15,979,List1A,black,man,,,,null,,,,
null,is meeting,,html-keyboard-response,154,744702,0.0-13.0-2.15,979,List1A,black,man,,,,null,,,,
11050,,,survey-text,155,755756,0.0-13.0-3.15,979,List1A,black,man,,,,,"{""Q0"":""dave is meeting mike""}","<img src=""stim_listA/meet5.gif""</stim_listA>",is meeting,
null,"<div style=""font-size:60px;"">+</div>",,html-keyboard-response,156,756268,0.0-13.0-0.16,979,List1A,black,man,,,,null,,,,
null,"<img src=""stim_listA/talk3.gif""</stim_listA>",,html-keyboard-response,157,758284,0.0-13.0-1.16,979,List1A,black,man,,,,null,,,,
null,is talking to,,html-keyboard-response,158,760284,0.0-13.0-2.16,979,List1A,black,man,,,,null,,,,
11251,,,survey-text,159,771540,0.0-13.0-3.16,979,List1A,black,man,,,,,"{""Q0"":""luke is talking to jane""}","<img src=""stim_listA/talk3.gif""</stim_listA>",is talking to,
null,"<div style=""font-size:60px;"">+</div>",,html-keyboard-response,160,772054,0.0-13.0-0.17,979,List1A,black,man,,,,null,,,,
null,"<img src=""stim_listA/kiss6.gif""</stim_listA>",,html-keyboard-response,161,774072,0.0-13.0-1.17,979,List1A,black,man,,,,null,,,,
null,are kissing each other,,html-keyboard-response,162,776074,0.0-13.0-2.17,979,List1A,black,man,,,,null,,,,
16329,,,survey-text,163,792407,0.0-13.0-3.17,979,List1A,black,man,,,,,"{""Q0"":""dave and mike are kissing each other""}","<img src=""stim_listA/kiss6.gif""</stim_listA>",are kissing each other,
null,"<div style=""font-size:60px;"">+</div>",,html-keyboard-response,164,792928,0.0-13.0-0.18,979,List1A,black,man,,,,null,,,,
null,"<img src=""stim_listA/marry2.gif""</stim_listA>",,html-keyboard-response,165,794937,0.0-13.0-1.18,979,List1A,black,man,,,,null,,,,
null,are marrying each other,,html-keyboard-response,166,796940,0.0-13.0-2.18,979,List1A,black,man,,,,null,,,,
18598,,,survey-text,167,815542,0.0-13.0-3.18,979,List1A,black,man,,,,,"{""Q0"":""fred and beth are marrying each other""}","<img src=""stim_listA/marry2.gif""</stim_listA>",are marrying each other,
null,"<div style=""font-size:60px;"">+</div>",,html-keyboard-response,168,816055,0.0-13.0-0.19,979,List1A,black,man,,,,null,,,,
null,"<img src=""stim_listA/marry1.gif""</stim_listA>",,html-keyboard-response,169,818065,0.0-13.0-1.19,979,List1A,black,man,,,,null,,,,
null,is marrying,,html-keyboard-response,170,820074,0.0-13.0-2.19,979,List1A,black,man,,,,null,,,,
11567,,,survey-text,171,831646,0.0-13.0-3.19,979,List1A,black,man,,,,,"{""Q0"":""mike is marrying kate""}","<img src=""stim_listA/marry1.gif""</stim_listA>",is marrying,
11954,"<img src='img/portrait_matrix_list1.JPG' style='width:900px;height:500px;''></img><p>If you have memorised all the portraits and names and are ready to start, press Continue.</p><p><strong>Please note: Your memory of these faces will be tested 4 times during this experiment.</strong></p>",0,html-button-response,172,843610,0.0-14.0-0.0,979,List1A,black,man,,,,,,,,
5839,"<img src=""portrait/WW1.jpg""style=""width:400px;height:400px;""></img>",1,html-button-response,173,850464,0.0-14.0-1.0,979,List1A,black,man,,TRUE,1,,,,,
null,CORRECT,,html-keyboard-response,174,851991,0.0-14.0-2.0-0.0,979,List1A,black,man,,,,null,,,,
3325,"<img src=""portrait/BW1.jpg""style=""width:400px;height:400px;""></img>",0,html-button-response,175,855329,0.0-14.0-4.0,979,List1A,black,man,,TRUE,0,,,,,
null,CORRECT,,html-keyboard-response,176,856851,0.0-14.0-5.0-0.0,979,List1A,black,man,,,,null,,,,
1750,"<img src=""portrait/BM1.jpg""style=""width:400px;height:400px;""></img>",4,html-button-response,177,858608,0.0-14.0-7.0,979,List1A,black,man,,TRUE,4,,,,,
null,CORRECT,,html-keyboard-response,178,860135,0.0-14.0-8.0-0.0,979,List1A,black,man,,,,null,,,,
2137,"<img src=""portrait/BM2.jpg""style=""width:400px;height:400px;""></img>",5,html-button-response,179,862288,0.0-14.0-10.0,979,List1A,black,man,,TRUE,5,,,,,
null,CORRECT,,html-keyboard-response,180,863802,0.0-14.0-11.0-0.0,979,List1A,black,man,,,,null,,,,
1863,"<img src=""portrait/WM1.jpg""style=""width:400px;height:400px;""></img>",6,html-button-response,181,865674,0.0-14.0-13.0,979,List1A,black,man,,TRUE,6,,,,,
null,CORRECT,,html-keyboard-response,182,867179,0.0-14.0-14.0-0.0,979,List1A,black,man,,,,null,,,,
2763,"<img src=""portrait/WW2.jpg""style=""width:400px;height:400px;""></img>",3,html-button-response,183,869954,0.0-14.0-16.0,979,List1A,black,man,,TRUE,3,,,,,
null,CORRECT,,html-keyboard-response,184,871476,0.0-14.0-17.0-0.0,979,List1A,black,man,,,,null,,,,
1956,"<img src=""portrait/WM2.jpg""style=""width:400px;height:400px;""></img>",7,html-button-response,185,873442,0.0-14.0-19.0,979,List1A,black,man,,TRUE,7,,,,,
null,CORRECT,,html-keyboard-response,186,874971,0.0-14.0-20.0-0.0,979,List1A,black,man,,,,null,,,,
3654,"<img src=""portrait/BW2.jpg""style=""width:400px;height:400px;""></img>",2,html-button-response,187,878642,0.0-14.0-22.0,979,List1A,black,man,,TRUE,2,,,,,
null,CORRECT,,html-keyboard-response,188,880153,0.0-14.0-23.0-0.0,979,List1A,black,man,,,,null,,,,
2033,<p>You got 8 out of 8 right first time. Press Continue.</p>,0,html-button-response,189,882202,0.0-14.0-25.0,979,List1A,black,man,,,,,,,,
null,"<div style=""font-size:60px;"">+</div>",,html-keyboard-response,190,883730,0.0-15.0-0.0,979,List1A,black,man,,,,null,,,,
null,"<img src=""stim_listA/fight8.gif""</stim_listA>",,html-keyboard-response,191,885746,0.0-15.0-1.0,979,List1A,black,man,,,,null,,,,
null,are fighting each other,,html-keyboard-response,192,887746,0.0-15.0-2.0,979,List1A,black,man,,,,null,,,,
26268,,,survey-text,193,914024,0.0-15.0-3.0,979,List1A,black,man,,,,,"{""Q0"":""ruth and kate are fighting each other""}","<img src=""stim_listA/fight8.gif""</stim_listA>",are fighting each other,
null,"<div style=""font-size:60px;"">+</div>",,html-keyboard-response,194,914540,0.0-15.0-0.1,979,List1A,black,man,,,,null,,,,
null,"<img src=""stim_listA/kiss4.gif""</stim_listA>",,html-keyboard-response,195,916550,0.0-15.0-1.1,979,List1A,black,man,,,,null,,,,
null,are kissing each other,,html-keyboard-response,196,918555,0.0-15.0-2.1,979,List1A,black,man,,,,null,,,,
14855,,,survey-text,197,933417,0.0-15.0-3.1,979,List1A,black,man,,,,,"{""Q0"":""dave and jane are jissing each other""}","<img src=""stim_listA/kiss4.gif""</stim_listA>",are kissing each other,
null,"<div style=""font-size:60px;"">+</div>",,html-keyboard-response,198,933937,0.0-15.0-0.2,979,List1A,black,man,,,,null,,,,
null,"<img src=""stim_listA/shout5.gif""</stim_listA>",,html-keyboard-response,199,935941,0.0-15.0-1.2,979,List1A,black,man,,,,null,,,,
null,is shouting at,,html-keyboard-response,200,937946,0.0-15.0-2.2,979,List1A,black,man,,,,null,,,,
13423,,,survey-text,201,951372,0.0-15.0-3.2,979,List1A,black,man,,,,,"{""Q0"":""fred is shouting at luke""}","<img src=""stim_listA/shout5.gif""</stim_listA>",is shouting at,
null,"<div style=""font-size:60px;"">+</div>",,html-keyboard-response,202,951888,0.0-15.0-0.3,979,List1A,black,man,,,,null,,,,
null,"<img src=""stim_listA/touch5.gif""</stim_listA>",,html-keyboard-response,203,953905,0.0-15.0-1.3,979,List1A,black,man,,,,null,,,,
null,is touching,,html-keyboard-response,204,955895,0.0-15.0-2.3,979,List1A,black,man,,,,null,,,,
16016,,,survey-text,205,971915,0.0-15.0-3.3,979,List1A,black,man,,,,,"{""Q0"":""dave is touching mike""}","<img src=""stim_listA/touch5.gif""</stim_listA>",is touching,
null,"<div style=""font-size:60px;"">+</div>",,html-keyboard-response,206,972419,0.0-15.0-0.4,979,List1A,black,man,,,,null,,,,
null,"<img src=""stim_listA/marry6.gif""</stim_listA>",,html-keyboard-response,207,974442,0.0-15.0-1.4,979,List1A,black,man,,,,null,,,,
null,are marrying each other,,html-keyboard-response,208,976437,0.0-15.0-2.4,979,List1A,black,man,,,,null,,,,
16241,,,survey-text,209,992683,0.0-15.0-3.4,979,List1A,black,man,,,,,"{""Q0"":""dave and fred are marrying each other""}","<img src=""stim_listA/marry6.gif""</stim_listA>",are marrying each other,
null,"<div style=""font-size:60px;"">+</div>",,html-keyboard-response,210,993204,0.0-15.0-0.5,979,List1A,black,man,,,,null,,,,
null,"<img src=""stim_listA/talk8.gif""</stim_listA>",,html-keyboard-response,211,995222,0.0-15.0-1.5,979,List1A,black,man,,,,null,,,,
null,are talking to each other,,html-keyboard-response,212,997225,0.0-15.0-2.5,979,List1A,black,man,,,,null,,,,
22082,,,survey-text,213,1019316,0.0-15.0-3.5,979,List1A,black,man,,,,,"{""Q0"":""kate and ruth are talking to each other""}","<img src=""stim_listA/talk8.gif""</stim_listA>",are talking to each other,
null,"<div style=""font-size:60px;"">+</div>",,html-keyboard-response,214,1019832,0.0-15.0-0.6,979,List1A,black,man,,,,null,,,,
null,"<img src=""stim_listA/touch3.gif""</stim_listA>",,html-keyboard-response,215,1021849,0.0-15.0-1.6,979,List1A,black,man,,,,null,,,,
null,is touching,,html-keyboard-response,216,1023849,0.0-15.0-2.6,979,List1A,black,man,,,,null,,,,
78658,,,survey-text,217,1102512,0.0-15.0-3.6,979,List1A,black,man,,,,,"{""Q0"":""dave and ruth are marrying each other""}","<img src=""stim_listA/touch3.gif""</stim_listA>",is touching,
null,"<div style=""font-size:60px;"">+</div>",,html-keyboard-response,218,1103031,0.0-15.0-0.7,979,List1A,black,man,,,,null,,,,
null,"<img src=""stim_listA/shout3.gif""</stim_listA>",,html-keyboard-response,219,1105037,0.0-15.0-1.7,979,List1A,black,man,,,,null,,,,
null,is shouting at,,html-keyboard-response,220,1107048,0.0-15.0-2.7,979,List1A,black,man,,,,null,,,,
14755,,,survey-text,221,1121808,0.0-15.0-3.7,979,List1A,black,man,,,,,"{""Q0"":""luke is shouting at ruth""}","<img src=""stim_listA/shout3.gif""</stim_listA>",is shouting at,
null,"<div style=""font-size:60px;"">+</div>",,html-keyboard-response,222,1122314,0.0-15.0-0.8,979,List1A,black,man,,,,null,,,,
null,"<img src=""stim_listA/kiss8.gif""</stim_listA>",,html-keyboard-response,223,1124332,0.0-15.0-1.8,979,List1A,black,man,,,,null,,,,
null,are kissing each other,,html-keyboard-response,224,1126331,0.0-15.0-2.8,979,List1A,black,man,,,,null,,,,
37177,,,survey-text,225,1163513,0.0-15.0-3.8,979,List1A,black,man,,,,,"{""Q0"":""fred is fighting kate""}","<img src=""stim_listA/kiss8.gif""</stim_listA>",are kissing each other,
null,"<div style=""font-size:60px;"">+</div>",,html-keyboard-response,226,1164028,0.0-15.0-0.9,979,List1A,black,man,,,,null,,,,
null,"<img src=""stim_listA/fight1.gif""</stim_listA>",,html-keyboard-response,227,1166045,0.0-15.0-1.9,979,List1A,black,man,,,,null,,,,
null,is fighting,,html-keyboard-response,228,1168048,0.0-15.0-2.9,979,List1A,black,man,,,,null,,,,
12158,,,survey-text,229,1180210,0.0-15.0-3.9,979,List1A,black,man,,,,,"{""Q0"":""kate is fighting mike""}","<img src=""stim_listA/fight1.gif""</stim_listA>",is fighting,
null,"<div style=""font-size:60px;"">+</div>",,html-keyboard-response,230,1180727,0.0-15.0-0.10,979,List1A,black,man,,,,null,,,,
null,"<img src=""stim_listA/hug2.gif""</stim_listA>",,html-keyboard-response,231,1182745,0.0-15.0-1.10,979,List1A,black,man,,,,null,,,,
null,are hugging each other,,html-keyboard-response,232,1184733,0.0-15.0-2.10,979,List1A,black,man,,,,null,,,,
15241,,,survey-text,233,1199980,0.0-15.0-3.10,979,List1A,black,man,,,,,"{""Q0"":""kate and mike are marrying each other""}","<img src=""stim_listA/hug2.gif""</stim_listA>",are hugging each other,
null,"<div style=""font-size:60px;"">+</div>",,html-keyboard-response,234,1200496,0.0-15.0-0.11,979,List1A,black,man,,,,null,,,,
null,"<img src=""stim_listA/hug5.gif""</stim_listA>",,html-keyboard-response,235,1202511,0.0-15.0-1.11,979,List1A,black,man,,,,null,,,,
null,is hugging,,html-keyboard-response,236,1204501,0.0-15.0-2.11,979,List1A,black,man,,,,null,,,,
11393,,,survey-text,237,1215898,0.0-15.0-3.11,979,List1A,black,man,,,,,"{""Q0"":""fred is hugging luke""}","<img src=""stim_listA/hug5.gif""</stim_listA>",is hugging,
null,"<div style=""font-size:60px;"">+</div>",,html-keyboard-response,238,1216416,0.0-15.0-0.12,979,List1A,black,man,,,,null,,,,
null,"<img src=""stim_listA/shout7.gif""</stim_listA>",,html-keyboard-response,239,1218432,0.0-15.0-1.12,979,List1A,black,man,,,,null,,,,
null,is shouting at,,html-keyboard-response,240,1220423,0.0-15.0-2.12,979,List1A,black,man,,,,null,,,,
15607,,,survey-text,241,1236035,0.0-15.0-3.12,979,List1A,black,man,,,,,"{""Q0"":""beth is shouting at ruth""}","<img src=""stim_listA/shout7.gif""</stim_listA>",is shouting at,
null,"<div style=""font-size:60px;"">+</div>",,html-keyboard-response,242,1236548,0.0-15.0-0.13,979,List1A,black,man,,,,null,,,,
null,"<img src=""stim_listA/marry7.gif""</stim_listA>",,html-keyboard-response,243,1238565,0.0-15.0-1.13,979,List1A,black,man,,,,null,,,,
null,is marrying,,html-keyboard-response,244,1240554,0.0-15.0-2.13,979,List1A,black,man,,,,null,,,,
9701,,,survey-text,245,1250259,0.0-15.0-3.13,979,List1A,black,man,,,,,"{""Q0"":""ruth is marrying kate""}","<img src=""stim_listA/marry7.gif""</stim_listA>",is marrying,
null,"<div style=""font-size:60px;"">+</div>",,html-keyboard-response,246,1250773,0.0-15.0-0.14,979,List1A,black,man,,,,null,,,,
null,"<img src=""stim_listA/dance6.gif""</stim_listA>",,html-keyboard-response,247,1252789,0.0-15.0-1.14,979,List1A,black,man,,,,null,,,,
null,are dancing with each other,,html-keyboard-response,248,1254792,0.0-15.0-2.14,979,List1A,black,man,,,,null,,,,
19560,,,survey-text,249,1274358,0.0-15.0-3.14,979,List1A,black,man,,,,,"{""Q0"":""luke and mike are dancing with each other""}","<img src=""stim_listA/dance6.gif""</stim_listA>",are dancing with each other,
null,"<div style=""font-size:60px;"">+</div>",,html-keyboard-response,250,1274871,0.0-15.0-0.15,979,List1A,black,man,,,,null,,,,
null,"<img src=""stim_listA/argue5.gif""</stim_listA>",,html-keyboard-response,251,1276887,0.0-15.0-1.15,979,List1A,black,man,,,,null,,,,
null,is arguing with,,html-keyboard-response,252,1278887,0.0-15.0-2.15,979,List1A,black,man,,,,null,,,,
12652,,,survey-text,253,1291542,0.0-15.0-3.15,979,List1A,black,man,,,,,"{""Q0"":""luke is arguing with mike""}","<img src=""stim_listA/argue5.gif""</stim_listA>",is arguing with,
null,"<div style=""font-size:60px;"">+</div>",,html-keyboard-response,254,1292052,0.0-15.0-0.16,979,List1A,black,man,,,,null,,,,
null,"<img src=""stim_listA/talk5.gif""</stim_listA>",,html-keyboard-response,255,1294072,0.0-15.0-1.16,979,List1A,black,man,,,,null,,,,
null,is talking to,,html-keyboard-response,256,1296058,0.0-15.0-2.16,979,List1A,black,man,,,,null,,,,
9829,,,survey-text,257,1305893,0.0-15.0-3.16,979,List1A,black,man,,,,,"{""Q0"":""dave is talking to fred""}","<img src=""stim_listA/talk5.gif""</stim_listA>",is talking to,
null,"<div style=""font-size:60px;"">+</div>",,html-keyboard-response,258,1306407,0.0-15.0-0.17,979,List1A,black,man,,,,null,,,,
null,"<img src=""stim_listA/touch8.gif""</stim_listA>",,html-keyboard-response,259,1308426,0.0-15.0-1.17,979,List1A,black,man,,,,null,,,,
null,are touching each other,,html-keyboard-response,260,1310415,0.0-15.0-2.17,979,List1A,black,man,,,,null,,,,
20530,,,survey-text,261,1330950,0.0-15.0-3.17,979,List1A,black,man,,,,,"{""Q0"":""beth and jane are touching each other""}","<img src=""stim_listA/touch8.gif""</stim_listA>",are touching each other,
null,"<div style=""font-size:60px;"">+</div>",,html-keyboard-response,262,1331470,0.0-15.0-0.18,979,List1A,black,man,,,,null,,,,
null,"<img src=""stim_listA/meet3.gif""</stim_listA>",,html-keyboard-response,263,1333485,0.0-15.0-1.18,979,List1A,black,man,,,,null,,,,
null,is meeting,,html-keyboard-response,264,1335489,0.0-15.0-2.18,979,List1A,black,man,,,,null,,,,
9370,,,survey-text,265,1344864,0.0-15.0-3.18,979,List1A,black,man,,,,,"{""Q0"":""dave is meeting jane ""}","<img src=""stim_listA/meet3.gif""</stim_listA>",is meeting,
null,"<div style=""font-size:60px;"">+</div>",,html-keyboard-response,266,1345377,0.0-15.0-0.19,979,List1A,black,man,,,,null,,,,
null,"<img src=""stim_listA/shout4.gif""</stim_listA>",,html-keyboard-response,267,1347393,0.0-15.0-1.19,979,List1A,black,man,,,,null,,,,
null,are shouting at each other,,html-keyboard-response,268,1349395,0.0-15.0-2.19,979,List1A,black,man,,,,null,,,,
16352,,,survey-text,269,1365751,0.0-15.0-3.19,979,List1A,black,man,,,,,"{""Q0"":""dave and jane are shouting at each other""}","<img src=""stim_listA/shout4.gif""</stim_listA>",are shouting at each other,
10363,"<img src='img/portrait_matrix_list1.JPG' style='width:900px;height:500px;''></img><p>If you have memorised all the portraits and names and are ready to start, press Continue.</p><p><strong>Please note: Your memory of these faces will be tested 4 times during this experiment.</strong></p>",0,html-button-response,270,1376122,0.0-16.0-0.0,979,List1A,black,man,,,,,,,,
3426,"<img src=""portrait/WW1.jpg""style=""width:400px;height:400px;""></img>",1,html-button-response,271,1380571,0.0-16.0-1.0,979,List1A,black,man,,TRUE,1,,,,,
null,CORRECT,,html-keyboard-response,272,1382086,0.0-16.0-2.0-0.0,979,List1A,black,man,,,,null,,,,
2302,"<img src=""portrait/BW2.jpg""style=""width:400px;height:400px;""></img>",2,html-button-response,273,1384402,0.0-16.0-4.0,979,List1A,black,man,,TRUE,2,,,,,
null,CORRECT,,html-keyboard-response,274,1385920,0.0-16.0-5.0-0.0,979,List1A,black,man,,,,null,,,,
1988,"<img src=""portrait/WW2.jpg""style=""width:400px;height:400px;""></img>",3,html-button-response,275,1387914,0.0-16.0-7.0,979,List1A,black,man,,TRUE,3,,,,,
null,CORRECT,,html-keyboard-response,276,1389433,0.0-16.0-8.0-0.0,979,List1A,black,man,,,,null,,,,
2193,"<img src=""portrait/BM2.jpg""style=""width:400px;height:400px;""></img>",5,html-button-response,277,1391633,0.0-16.0-10.0,979,List1A,black,man,,TRUE,5,,,,,
null,CORRECT,,html-keyboard-response,278,1393163,0.0-16.0-11.0-0.0,979,List1A,black,man,,,,null,,,,
1720,"<img src=""portrait/WM2.jpg""style=""width:400px;height:400px;""></img>",7,html-button-response,279,1394890,0.0-16.0-13.0,979,List1A,black,man,,TRUE,7,,,,,
null,CORRECT,,html-keyboard-response,280,1396396,0.0-16.0-14.0-0.0,979,List1A,black,man,,,,null,,,,
1671,"<img src=""portrait/WM1.jpg""style=""width:400px;height:400px;""></img>",6,html-button-response,281,1398083,0.0-16.0-16.0,979,List1A,black,man,,TRUE,6,,,,,
null,CORRECT,,html-keyboard-response,282,1399607,0.0-16.0-17.0-0.0,979,List1A,black,man,,,,null,,,,
2460,"<img src=""portrait/BM1.jpg""style=""width:400px;height:400px;""></img>",4,html-button-response,283,1402075,0.0-16.0-19.0,979,List1A,black,man,,TRUE,4,,,,,
null,CORRECT,,html-keyboard-response,284,1403604,0.0-16.0-20.0-0.0,979,List1A,black,man,,,,null,,,,
2238,"<img src=""portrait/BW1.jpg""style=""width:400px;height:400px;""></img>",0,html-button-response,285,1405849,0.0-16.0-22.0,979,List1A,black,man,,TRUE,0,,,,,
null,CORRECT,,html-keyboard-response,286,1407376,0.0-16.0-23.0-0.0,979,List1A,black,man,,,,null,,,,
1784,<p>You got 8 out of 8 right first time. Press Continue.</p>,0,html-button-response,287,1409180,0.0-16.0-25.0,979,List1A,black,man,,,,,,,,
null,"<div style=""font-size:60px;"">+</div>",,html-keyboard-response,288,1410707,0.0-17.0-0.0,979,List1A,black,man,,,,null,,,,
null,"<img src=""stim_listA/hug3.gif""</stim_listA>",,html-keyboard-response,289,1412718,0.0-17.0-1.0,979,List1A,black,man,,,,null,,,,
null,is hugging,,html-keyboard-response,290,1414726,0.0-17.0-2.0,979,List1A,black,man,,,,null,,,,
10384,,,survey-text,291,1425121,0.0-17.0-3.0,979,List1A,black,man,,,,,"{""Q0"":""ruth is hugging luke""}","<img src=""stim_listA/hug3.gif""</stim_listA>",is hugging,
null,"<div style=""font-size:60px;"">+</div>",,html-keyboard-response,292,1425641,0.0-17.0-0.1,979,List1A,black,man,,,,null,,,,
null,"<img src=""stim_listA/talk1.gif""</stim_listA>",,html-keyboard-response,293,1427658,0.0-17.0-1.1,979,List1A,black,man,,,,null,,,,
null,is talking to,,html-keyboard-response,294,1429659,0.0-17.0-2.1,979,List1A,black,man,,,,null,,,,
15708,,,survey-text,295,1445372,0.0-17.0-3.1,979,List1A,black,man,,,,,"{""Q0"":""fred is talking to kate""}","<img src=""stim_listA/talk1.gif""</stim_listA>",is talking to,
null,"<div style=""font-size:60px;"">+</div>",,html-keyboard-response,296,1445896,0.0-17.0-0.2,979,List1A,black,man,,,,null,,,,
null,"<img src=""stim_listA/touch7.gif""</stim_listA>",,html-keyboard-response,297,1447913,0.0-17.0-1.2,979,List1A,black,man,,,,null,,,,
null,is touching,,html-keyboard-response,298,1449908,0.0-17.0-2.2,979,List1A,black,man,,,,null,,,,
13850,,,survey-text,299,1463763,0.0-17.0-3.2,979,List1A,black,man,,,,,"{""Q0"":""jane is touching kate""}","<img src=""stim_listA/touch7.gif""</stim_listA>",is touching,
null,"<div style=""font-size:60px;"">+</div>",,html-keyboard-response,300,1464273,0.0-17.0-0.3,979,List1A,black,man,,,,null,,,,
null,"<img src=""stim_listA/talk7.gif""</stim_listA>",,html-keyboard-response,301,1466292,0.0-17.0-1.3,979,List1A,black,man,,,,null,,,,
null,is talking to,,html-keyboard-response,302,1468280,0.0-17.0-2.3,979,List1A,black,man,,,,null,,,,
11107,,,survey-text,303,1479393,0.0-17.0-3.3,979,List1A,black,man,,,,,"{""Q0"":""jane is talking to beth""}","<img src=""stim_listA/talk7.gif""</stim_listA>",is talking to,
null,"<div style=""font-size:60px;"">+</div>",,html-keyboard-response,304,1479911,0.0-17.0-0.4,979,List1A,black,man,,,,null,,,,
null,"<img src=""stim_listA/dance4.gif""</stim_listA>",,html-keyboard-response,305,1481929,0.0-17.0-1.4,979,List1A,black,man,,,,null,,,,
null,are dancing with each other,,html-keyboard-response,306,1483930,0.0-17.0-2.4,979,List1A,black,man,,,,null,,,,
15414,,,survey-text,307,1499349,0.0-17.0-3.4,979,List1A,black,man,,,,,"{""Q0"":""ruth and dave are dancing with each other""}","<img src=""stim_listA/dance4.gif""</stim_listA>",are dancing with each other,
null,"<div style=""font-size:60px;"">+</div>",,html-keyboard-response,308,1499873,0.0-17.0-0.5,979,List1A,black,man,,,,null,,,,
null,"<img src=""stim_listA/marry4.gif""</stim_listA>",,html-keyboard-response,309,1501891,0.0-17.0-1.5,979,List1A,black,man,,,,null,,,,
null,are marrying each other,,html-keyboard-response,310,1503895,0.0-17.0-2.5,979,List1A,black,man,,,,null,,,,
23304,,,survey-text,311,1527205,0.0-17.0-3.5,979,List1A,black,man,,,,,"{""Q0"":""jane and luke are marrying each other""}","<img src=""stim_listA/marry4.gif""</stim_listA>",are marrying each other,
null,"<div style=""font-size:60px;"">+</div>",,html-keyboard-response,312,1527725,0.0-17.0-0.6,979,List1A,black,man,,,,null,,,,
null,"<img src=""stim_listA/touch6.gif""</stim_listA>",,html-keyboard-response,313,1529739,0.0-17.0-1.6,979,List1A,black,man,,,,null,,,,
null,are touching each other,,html-keyboard-response,314,1531741,0.0-17.0-2.6,979,List1A,black,man,,,,null,,,,
18803,,,survey-text,315,1550550,0.0-17.0-3.6,979,List1A,black,man,,,,,"{""Q0"":""fred and luke are touching each other""}","<img src=""stim_listA/touch6.gif""</stim_listA>",are touching each other,
null,"<div style=""font-size:60px;"">+</div>",,html-keyboard-response,316,1551069,0.0-17.0-0.7,979,List1A,black,man,,,,null,,,,
null,"<img src=""stim_listA/marry3.gif""</stim_listA>",,html-keyboard-response,317,1553083,0.0-17.0-1.7,979,List1A,black,man,,,,null,,,,
null,is marrying,,html-keyboard-response,318,1555089,0.0-17.0-2.7,979,List1A,black,man,,,,null,,,,
11040,,,survey-text,319,1566134,0.0-17.0-3.7,979,List1A,black,man,,,,,"{""Q0"":""dave is marrying ruth""}","<img src=""stim_listA/marry3.gif""</stim_listA>",is marrying,
null,"<div style=""font-size:60px;"">+</div>",,html-keyboard-response,320,1566652,0.0-17.0-0.8,979,List1A,black,man,,,,null,,,,
null,"<img src=""stim_listA/argue3.gif""</stim_listA>",,html-keyboard-response,321,1568679,0.0-17.0-1.8,979,List1A,black,man,,,,null,,,,
null,is arguing with,,html-keyboard-response,322,1570659,0.0-17.0-2.8,979,List1A,black,man,,,,null,,,,
18200,,,survey-text,323,1588865,0.0-17.0-3.8,979,List1A,black,man,,,,,"{""Q0"":""dave is arguing with ruth""}","<img src=""stim_listA/argue3.gif""</stim_listA>",is arguing with,
null,"<div style=""font-size:60px;"">+</div>",,html-keyboard-response,324,1589371,0.0-17.0-0.9,979,List1A,black,man,,,,null,,,,
null,"<img src=""stim_listA/touch4.gif""</stim_listA>",,html-keyboard-response,325,1591392,0.0-17.0-1.9,979,List1A,black,man,,,,null,,,,
null,are touching each other,,html-keyboard-response,326,1593390,0.0-17.0-2.9,979,List1A,black,man,,,,null,,,,
16629,,,survey-text,327,1610024,0.0-17.0-3.9,979,List1A,black,man,,,,,"{""Q0"":""luke and ruth are touching each other""}","<img src=""stim_listA/touch4.gif""</stim_listA>",are touching each other,
null,"<div style=""font-size:60px;"">+</div>",,html-keyboard-response,328,1610537,0.0-17.0-0.10,979,List1A,black,man,,,,null,,,,
null,"<img src=""stim_listA/fight7.gif""</stim_listA>",,html-keyboard-response,329,1612545,0.0-17.0-1.10,979,List1A,black,man,,,,null,,,,
null,is fighting,,html-keyboard-response,330,1614550,0.0-17.0-2.10,979,List1A,black,man,,,,null,,,,
18813,,,survey-text,331,1633369,0.0-17.0-3.10,979,List1A,black,man,,,,,"{""Q0"":""jane is fighting with kate""}","<img src=""stim_listA/fight7.gif""</stim_listA>",is fighting,
null,"<div style=""font-size:60px;"">+</div>",,html-keyboard-response,332,1633881,0.0-17.0-0.11,979,List1A,black,man,,,,null,,,,
null,"<img src=""stim_listA/fight6.gif""</stim_listA>",,html-keyboard-response,333,1635888,0.0-17.0-1.11,979,List1A,black,man,,,,null,,,,
null,are fighting each other,,html-keyboard-response,334,1637900,0.0-17.0-2.11,979,List1A,black,man,,,,null,,,,
15689,,,survey-text,335,1653594,0.0-17.0-3.11,979,List1A,black,man,,,,,"{""Q0"":""fred and luke are fighting each other""}","<img src=""stim_listA/fight6.gif""</stim_listA>",are fighting each other,
null,"<div style=""font-size:60px;"">+</div>",,html-keyboard-response,336,1654099,0.0-17.0-0.12,979,List1A,black,man,,,,null,,,,
null,"<img src=""stim_listA/kiss2.gif""</stim_listA>",,html-keyboard-response,337,1656107,0.0-17.0-1.12,979,List1A,black,man,,,,null,,,,
null,are kissing each other,,html-keyboard-response,338,1658118,0.0-17.0-2.12,979,List1A,black,man,,,,null,,,,
13669,,,survey-text,339,1671793,0.0-17.0-3.12,979,List1A,black,man,,,,,"{""Q0"":""mike and jane are kissing each other""}","<img src=""stim_listA/kiss2.gif""</stim_listA>",are kissing each other,
null,"<div style=""font-size:60px;"">+</div>",,html-keyboard-response,340,1672304,0.0-17.0-0.13,979,List1A,black,man,,,,null,,,,
null,"<img src=""stim_listA/argue1.gif""</stim_listA>",,html-keyboard-response,341,1674318,0.0-17.0-1.13,979,List1A,black,man,,,,null,,,,
null,is arguing with,,html-keyboard-response,342,1676323,0.0-17.0-2.13,979,List1A,black,man,,,,null,,,,
15841,,,survey-text,343,1692169,0.0-17.0-3.13,979,List1A,black,man,,,,,"{""Q0"":""mike is arguing with beth""}","<img src=""stim_listA/argue1.gif""</stim_listA>",is arguing with,
null,"<div style=""font-size:60px;"">+</div>",,html-keyboard-response,344,1692687,0.0-17.0-0.14,979,List1A,black,man,,,,null,,,,
null,"<img src=""stim_listA/touch1.gif""</stim_listA>",,html-keyboard-response,345,1694700,0.0-17.0-1.14,979,List1A,black,man,,,,null,,,,
null,is touching,,html-keyboard-response,346,1696707,0.0-17.0-2.14,979,List1A,black,man,,,,null,,,,
13179,,,survey-text,347,1709892,0.0-17.0-3.14,979,List1A,black,man,,,,,"{""Q0"":""mike is touching kate""}","<img src=""stim_listA/touch1.gif""</stim_listA>",is touching,
null,"<div style=""font-size:60px;"">+</div>",,html-keyboard-response,348,1710403,0.0-17.0-0.15,979,List1A,black,man,,,,null,,,,
null,"<img src=""stim_listA/fight4.gif""</stim_listA>",,html-keyboard-response,349,1712421,0.0-17.0-1.15,979,List1A,black,man,,,,null,,,,
null,are fighting each other,,html-keyboard-response,350,1714423,0.0-17.0-2.15,979,List1A,black,man,,,,null,,,,
19247,,,survey-text,351,1733675,0.0-17.0-3.15,979,List1A,black,man,,,,,"{""Q0"":""ruth and luke are fighting each other""}","<img src=""stim_listA/fight4.gif""</stim_listA>",are fighting each other,
null,"<div style=""font-size:60px;"">+</div>",,html-keyboard-response,352,1734183,0.0-17.0-0.16,979,List1A,black,man,,,,null,,,,
null,"<img src=""stim_listA/fight3.gif""</stim_listA>",,html-keyboard-response,353,1736201,0.0-17.0-1.16,979,List1A,black,man,,,,null,,,,
null,is fighting,,html-keyboard-response,354,1738201,0.0-17.0-2.16,979,List1A,black,man,,,,null,,,,
12711,,,survey-text,355,1750917,0.0-17.0-3.16,979,List1A,black,man,,,,,"{""Q0"":""dave is fighting jane""}","<img src=""stim_listA/fight3.gif""</stim_listA>",is fighting,
null,"<div style=""font-size:60px;"">+</div>",,html-keyboard-response,356,1751437,0.0-17.0-0.17,979,List1A,black,man,,,,null,,,,
null,"<img src=""stim_listA/talk2.gif""</stim_listA>",,html-keyboard-response,357,1753454,0.0-17.0-1.17,979,List1A,black,man,,,,null,,,,
null,are talking to each other,,html-keyboard-response,358,1755452,0.0-17.0-2.17,979,List1A,black,man,,,,null,,,,
22589,,,survey-text,359,1778045,0.0-17.0-3.17,979,List1A,black,man,,,,,"{""Q0"":""mike and beth are talking to each other""}","<img src=""stim_listA/talk2.gif""</stim_listA>",are talking to each other,
null,"<div style=""font-size:60px;"">+</div>",,html-keyboard-response,360,1778561,0.0-17.0-0.18,979,List1A,black,man,,,,null,,,,
null,"<img src=""stim_listA/shout1.gif""</stim_listA>",,html-keyboard-response,361,1780578,0.0-17.0-1.18,979,List1A,black,man,,,,null,,,,
null,is shouting at,,html-keyboard-response,362,1782566,0.0-17.0-2.18,979,List1A,black,man,,,,null,,,,
12300,,,survey-text,363,1794871,0.0-17.0-3.18,979,List1A,black,man,,,,,"{""Q0"":""fred is shouting at beth""}","<img src=""stim_listA/shout1.gif""</stim_listA>",is shouting at,
null,"<div style=""font-size:60px;"">+</div>",,html-keyboard-response,364,1795380,0.0-17.0-0.19,979,List1A,black,man,,,,null,,,,
null,"<img src=""stim_listA/kiss1.gif""</stim_listA>",,html-keyboard-response,365,1797398,0.0-17.0-1.19,979,List1A,black,man,,,,null,,,,
null,is kissing,,html-keyboard-response,366,1799391,0.0-17.0-2.19,979,List1A,black,man,,,,null,,,,
18138,,,survey-text,367,1817534,0.0-17.0-3.19,979,List1A,black,man,,,,,"{""Q0"":""fred is kissing beth""}","<img src=""stim_listA/kiss1.gif""</stim_listA>",is kissing,
8034,"<img src='img/portrait_matrix_list1.JPG' style='width:900px;height:500px;''></img><p>If you have memorised all the portraits and names and are ready to start, press Continue.</p><p><strong>Please note: Your memory of these faces will be tested 4 times during this experiment.</strong></p>",0,html-button-response,368,1825577,0.0-18.0-0.0,979,List1A,black,man,,,,,,,,
2216,"<img src=""portrait/WM2.jpg""style=""width:400px;height:400px;""></img>",7,html-button-response,369,1828809,0.0-18.0-1.0,979,List1A,black,man,,TRUE,7,,,,,
null,CORRECT,,html-keyboard-response,370,1830315,0.0-18.0-2.0-0.0,979,List1A,black,man,,,,null,,,,
1462,"<img src=""portrait/WM1.jpg""style=""width:400px;height:400px;""></img>",6,html-button-response,371,1831794,0.0-18.0-4.0,979,List1A,black,man,,TRUE,6,,,,,
null,CORRECT,,html-keyboard-response,372,1833313,0.0-18.0-5.0-0.0,979,List1A,black,man,,,,null,,,,
1793,"<img src=""portrait/BM1.jpg""style=""width:400px;height:400px;""></img>",4,html-button-response,373,1835113,0.0-18.0-7.0,979,List1A,black,man,,TRUE,4,,,,,
null,CORRECT,,html-keyboard-response,374,1836625,0.0-18.0-8.0-0.0,979,List1A,black,man,,,,null,,,,
3320,"<img src=""portrait/BW2.jpg""style=""width:400px;height:400px;""></img>",2,html-button-response,375,1839952,0.0-18.0-10.0,979,List1A,black,man,,TRUE,2,,,,,
null,CORRECT,,html-keyboard-response,376,1841471,0.0-18.0-11.0-0.0,979,List1A,black,man,,,,null,,,,
2339,"<img src=""portrait/WW1.jpg""style=""width:400px;height:400px;""></img>",1,html-button-response,377,1843818,0.0-18.0-13.0,979,List1A,black,man,,TRUE,1,,,,,
null,CORRECT,,html-keyboard-response,378,1845318,0.0-18.0-14.0-0.0,979,List1A,black,man,,,,null,,,,
1763,"<img src=""portrait/BW1.jpg""style=""width:400px;height:400px;""></img>",0,html-button-response,379,1847089,0.0-18.0-16.0,979,List1A,black,man,,TRUE,0,,,,,
null,CORRECT,,html-keyboard-response,380,1848598,0.0-18.0-17.0-0.0,979,List1A,black,man,,,,null,,,,
2215,"<img src=""portrait/BM2.jpg""style=""width:400px;height:400px;""></img>",5,html-button-response,381,1850825,0.0-18.0-19.0,979,List1A,black,man,,TRUE,5,,,,,
null,CORRECT,,html-keyboard-response,382,1852344,0.0-18.0-20.0-0.0,979,List1A,black,man,,,,null,,,,
1714,"<img src=""portrait/WW2.jpg""style=""width:400px;height:400px;""></img>",3,html-button-response,383,1854066,0.0-18.0-22.0,979,List1A,black,man,,TRUE,3,,,,,
null,CORRECT,,html-keyboard-response,384,1855575,0.0-18.0-23.0-0.0,979,List1A,black,man,,,,null,,,,
1401,<p>You got 8 out of 8 right first time. Press Continue.</p>,0,html-button-response,385,1856984,0.0-18.0-25.0,979,List1A,black,man,,,,,,,,
null,"<div style=""font-size:60px;"">+</div>",,html-keyboard-response,386,1858517,0.0-19.0-0.0,979,List1A,black,man,,,,null,,,,
null,"<img src=""stim_listA/shout2.gif""</stim_listA>",,html-keyboard-response,387,1860529,0.0-19.0-1.0,979,List1A,black,man,,,,null,,,,
null,are shouting at each other,,html-keyboard-response,388,1862532,0.0-19.0-2.0,979,List1A,black,man,,,,null,,,,
20670,,,survey-text,389,1883211,0.0-19.0-3.0,979,List1A,black,man,,,,,"{""Q0"":""beth and mike are shouting at each other""}","<img src=""stim_listA/shout2.gif""</stim_listA>",are shouting at each other,
null,"<div style=""font-size:60px;"">+</div>",,html-keyboard-response,390,1883723,0.0-19.0-0.1,979,List1A,black,man,,,,null,,,,
null,"<img src=""stim_listA/dance2.gif""</stim_listA>",,html-keyboard-response,391,1885736,0.0-19.0-1.1,979,List1A,black,man,,,,null,,,,
null,are dancing with each other,,html-keyboard-response,392,1887730,0.0-19.0-2.1,979,List1A,black,man,,,,null,,,,
24034,,,survey-text,393,1911769,0.0-19.0-3.1,979,List1A,black,man,,,,,"{""Q0"":""mike and beth are dancing with each other""}","<img src=""stim_listA/dance2.gif""</stim_listA>",are dancing with each other,
null,"<div style=""font-size:60px;"">+</div>",,html-keyboard-response,394,1912283,0.0-19.0-0.2,979,List1A,black,man,,,,null,,,,
null,"<img src=""stim_listA/shout8.gif""</stim_listA>",,html-keyboard-response,395,1914300,0.0-19.0-1.2,979,List1A,black,man,,,,null,,,,
null,are shouting at each other,,html-keyboard-response,396,1916288,0.0-19.0-2.2,979,List1A,black,man,,,,null,,,,
18367,,,survey-text,397,1934660,0.0-19.0-3.2,979,List1A,black,man,,,,,"{""Q0"":""jane and kate are shouting at each other""}","<img src=""stim_listA/shout8.gif""</stim_listA>",are shouting at each other,
null,"<div style=""font-size:60px;"">+</div>",,html-keyboard-response,398,1935185,0.0-19.0-0.3,979,List1A,black,man,,,,null,,,,
null,"<img src=""stim_listA/kiss5.gif""</stim_listA>",,html-keyboard-response,399,1937196,0.0-19.0-1.3,979,List1A,black,man,,,,null,,,,
null,is kissing,,html-keyboard-response,400,1939202,0.0-19.0-2.3,979,List1A,black,man,,,,null,,,,
11971,,,survey-text,401,1951177,0.0-19.0-3.3,979,List1A,black,man,,,,,"{""Q0"":""fred is kissing luke""}","<img src=""stim_listA/kiss5.gif""</stim_listA>",is kissing,
null,"<div style=""font-size:60px;"">+</div>",,html-keyboard-response,402,1951697,0.0-19.0-0.4,979,List1A,black,man,,,,null,,,,
null,"<img src=""stim_listA/meet4.gif""</stim_listA>",,html-keyboard-response,403,1953701,0.0-19.0-1.4,979,List1A,black,man,,,,null,,,,
null,are meeting each other,,html-keyboard-response,404,1955717,0.0-19.0-2.4,979,List1A,black,man,,,,null,,,,
16402,,,survey-text,405,1972124,0.0-19.0-3.4,979,List1A,black,man,,,,,"{""Q0"":""luke and ruth are meeting each other""}","<img src=""stim_listA/meet4.gif""</stim_listA>",are meeting each other,
null,"<div style=""font-size:60px;"">+</div>",,html-keyboard-response,406,1972635,0.0-19.0-0.5,979,List1A,black,man,,,,null,,,,
null,"<img src=""stim_listA/marry8.gif""</stim_listA>",,html-keyboard-response,407,1974648,0.0-19.0-1.5,979,List1A,black,man,,,,null,,,,
null,are marrying each other,,html-keyboard-response,408,1976653,0.0-19.0-2.5,979,List1A,black,man,,,,null,,,,
15465,,,survey-text,409,1992124,0.0-19.0-3.5,979,List1A,black,man,,,,,"{""Q0"":""jane and beth are marrying each other""}","<img src=""stim_listA/marry8.gif""</stim_listA>",are marrying each other,
null,"<div style=""font-size:60px;"">+</div>",,html-keyboard-response,410,1992636,0.0-19.0-0.6,979,List1A,black,man,,,,null,,,,
null,"<img src=""stim_listA/hug8.gif""</stim_listA>",,html-keyboard-response,411,1994650,0.0-19.0-1.6,979,List1A,black,man,,,,null,,,,
null,are hugging each other,,html-keyboard-response,412,1996653,0.0-19.0-2.6,979,List1A,black,man,,,,null,,,,
17625,,,survey-text,413,2014285,0.0-19.0-3.6,979,List1A,black,man,,,,,"{""Q0"":""beth and jane are hugging each other""}","<img src=""stim_listA/hug8.gif""</stim_listA>",are hugging each other,
null,"<div style=""font-size:60px;"">+</div>",,html-keyboard-response,414,2014799,0.0-19.0-0.7,979,List1A,black,man,,,,null,,,,
null,"<img src=""stim_listA/argue6.gif""</stim_listA>",,html-keyboard-response,415,2016814,0.0-19.0-1.7,979,List1A,black,man,,,,null,,,,
null,are arguing with each other,,html-keyboard-response,416,2018820,0.0-19.0-2.7,979,List1A,black,man,,,,null,,,,
15405,,,survey-text,417,2034230,0.0-19.0-3.7,979,List1A,black,man,,,,,"{""Q0"":""fred and dave are arguing with each other""}","<img src=""stim_listA/argue6.gif""</stim_listA>",are arguing with each other,
null,"<div style=""font-size:60px;"">+</div>",,html-keyboard-response,418,2034754,0.0-19.0-0.8,979,List1A,black,man,,,,null,,,,
null,"<img src=""stim_listA/argue4.gif""</stim_listA>",,html-keyboard-response,419,2036769,0.0-19.0-1.8,979,List1A,black,man,,,,null,,,,
null,are arguing with each other,,html-keyboard-response,420,2038766,0.0-19.0-2.8,979,List1A,black,man,,,,null,,,,
15987,,,survey-text,421,2054760,0.0-19.0-3.8,979,List1A,black,man,,,,,"{""Q0"":""luke and jane are arguing with each other""}","<img src=""stim_listA/argue4.gif""</stim_listA>",are arguing with each other,
null,"<div style=""font-size:60px;"">+</div>",,html-keyboard-response,422,2055280,0.0-19.0-0.9,979,List1A,black,man,,,,null,,,,
null,"<img src=""stim_listA/fight5.gif""</stim_listA>",,html-keyboard-response,423,2057295,0.0-19.0-1.9,979,List1A,black,man,,,,null,,,,
null,is fighting,,html-keyboard-response,424,2059295,0.0-19.0-2.9,979,List1A,black,man,,,,null,,,,
10178,,,survey-text,425,2069479,0.0-19.0-3.9,979,List1A,black,man,,,,,"{""Q0"":""dave is fighting mike""}","<img src=""stim_listA/fight5.gif""</stim_listA>",is fighting,
null,"<div style=""font-size:60px;"">+</div>",,html-keyboard-response,426,2069984,0.0-19.0-0.10,979,List1A,black,man,,,,null,,,,
null,"<img src=""stim_listA/kiss7.gif""</stim_listA>",,html-keyboard-response,427,2072003,0.0-19.0-1.10,979,List1A,black,man,,,,null,,,,
null,is kissing,,html-keyboard-response,428,2073999,0.0-19.0-2.10,979,List1A,black,man,,,,null,,,,
11475,,,survey-text,429,2085478,0.0-19.0-3.10,979,List1A,black,man,,,,,"{""Q0"":""ruth is kissing beth""}","<img src=""stim_listA/kiss7.gif""</stim_listA>",is kissing,
null,"<div style=""font-size:60px;"">+</div>",,html-keyboard-response,430,2085988,0.0-19.0-0.11,979,List1A,black,man,,,,null,,,,
null,"<img src=""stim_listA/argue7.gif""</stim_listA>",,html-keyboard-response,431,2087993,0.0-19.0-1.11,979,List1A,black,man,,,,null,,,,
null,is arguing with,,html-keyboard-response,432,2090003,0.0-19.0-2.11,979,List1A,black,man,,,,null,,,,
9294,,,survey-text,433,2099303,0.0-19.0-3.11,979,List1A,black,man,,,,,"{""Q0"":""kate is arguing with ruth""}","<img src=""stim_listA/argue7.gif""</stim_listA>",is arguing with,
null,"<div style=""font-size:60px;"">+</div>",,html-keyboard-response,434,2099810,0.0-19.0-0.12,979,List1A,black,man,,,,null,,,,
null,"<img src=""stim_listA/kiss3.gif""</stim_listA>",,html-keyboard-response,435,2101824,0.0-19.0-1.12,979,List1A,black,man,,,,null,,,,
null,is kissing,,html-keyboard-response,436,2103816,0.0-19.0-2.12,979,List1A,black,man,,,,null,,,,
16375,,,survey-text,437,2120202,0.0-19.0-3.12,979,List1A,black,man,,,,,"{""Q0"":""ruth is kissing luke""}","<img src=""stim_listA/kiss3.gif""</stim_listA>",is kissing,
null,"<div style=""font-size:60px;"">+</div>",,html-keyboard-response,438,2120709,0.0-19.0-0.13,979,List1A,black,man,,,,null,,,,
null,"<img src=""stim_listA/dance8.gif""</stim_listA>",,html-keyboard-response,439,2122720,0.0-19.0-1.13,979,List1A,black,man,,,,null,,,,
null,are dancing with each other,,html-keyboard-response,440,2124726,0.0-19.0-2.13,979,List1A,black,man,,,,null,,,,
19862,,,survey-text,441,2144594,0.0-19.0-3.13,979,List1A,black,man,,,,,"{""Q0"":""kate and ruth are dancing with each other""}","<img src=""stim_listA/dance8.gif""</stim_listA>",are dancing with each other,
null,"<div style=""font-size:60px;"">+</div>",,html-keyboard-response,442,2145106,0.0-19.0-0.14,979,List1A,black,man,,,,null,,,,
null,"<img src=""stim_listA/hug4.gif""</stim_listA>",,html-keyboard-response,443,2147118,0.0-19.0-1.14,979,List1A,black,man,,,,null,,,,
null,are hugging each other,,html-keyboard-response,444,2149124,0.0-19.0-2.14,979,List1A,black,man,,,,null,,,,
12632,,,survey-text,445,2161762,0.0-19.0-3.14,979,List1A,black,man,,,,,"{""Q0"":""dave and jane are hugging each other""}","<img src=""stim_listA/hug4.gif""</stim_listA>",are hugging each other,
null,"<div style=""font-size:60px;"">+</div>",,html-keyboard-response,446,2162275,0.0-19.0-0.15,979,List1A,black,man,,,,null,,,,
null,"<img src=""stim_listA/marry5.gif""</stim_listA>",,html-keyboard-response,447,2164290,0.0-19.0-1.15,979,List1A,black,man,,,,null,,,,
null,is marrying,,html-keyboard-response,448,2166295,0.0-19.0-2.15,979,List1A,black,man,,,,null,,,,
8080,,,survey-text,449,2174380,0.0-19.0-3.15,979,List1A,black,man,,,,,"{""Q0"":""mike is marrying luke""}","<img src=""stim_listA/marry5.gif""</stim_listA>",is marrying,
null,"<div style=""font-size:60px;"">+</div>",,html-keyboard-response,450,2174893,0.0-19.0-0.16,979,List1A,black,man,,,,null,,,,
null,"<img src=""stim_listA/meet6.gif""</stim_listA>",,html-keyboard-response,451,2176912,0.0-19.0-1.16,979,List1A,black,man,,,,null,,,,
null,are meeting each other,,html-keyboard-response,452,2178901,0.0-19.0-2.16,979,List1A,black,man,,,,null,,,,
13042,,,survey-text,453,2191947,0.0-19.0-3.16,979,List1A,black,man,,,,,"{""Q0"":""fred and luke are meeting each other""}","<img src=""stim_listA/meet6.gif""</stim_listA>",are meeting each other,
null,"<div style=""font-size:60px;"">+</div>",,html-keyboard-response,454,2192465,0.0-19.0-0.17,979,List1A,black,man,,,,null,,,,
null,"<img src=""stim_listA/dance3.gif""</stim_listA>",,html-keyboard-response,455,2194483,0.0-19.0-1.17,979,List1A,black,man,,,,null,,,,
null,is dancing with,,html-keyboard-response,456,2196485,0.0-19.0-2.17,979,List1A,black,man,,,,null,,,,
9522,,,survey-text,457,2206012,0.0-19.0-3.17,979,List1A,black,man,,,,,"{""Q0"":""jane is dancing with luke""}","<img src=""stim_listA/dance3.gif""</stim_listA>",is dancing with,
null,"<div style=""font-size:60px;"">+</div>",,html-keyboard-response,458,2206520,0.0-19.0-0.18,979,List1A,black,man,,,,null,,,,
null,"<img src=""stim_listA/argue8.gif""</stim_listA>",,html-keyboard-response,459,2208537,0.0-19.0-1.18,979,List1A,black,man,,,,null,,,,
null,are arguing with each other,,html-keyboard-response,460,2210540,0.0-19.0-2.18,979,List1A,black,man,,,,null,,,,
17746,,,survey-text,461,2228290,0.0-19.0-3.18,979,List1A,black,man,,,,,"{""Q0"":""jane and beth are arguing with each other""}","<img src=""stim_listA/argue8.gif""</stim_listA>",are arguing with each other,
null,"<div style=""font-size:60px;"">+</div>",,html-keyboard-response,462,2228800,0.0-19.0-0.19,979,List1A,black,man,,,,null,,,,
null,"<img src=""stim_listA/meet1.gif""</stim_listA>",,html-keyboard-response,463,2230817,0.0-19.0-1.19,979,List1A,black,man,,,,null,,,,
null,is meeting,,html-keyboard-response,464,2232805,0.0-19.0-2.19,979,List1A,black,man,,,,null,,,,
7256,,,survey-text,465,2240069,0.0-19.0-3.19,979,List1A,black,man,,,,,"{""Q0"":""mike is meeting kate""}","<img src=""stim_listA/meet1.gif""</stim_listA>",is meeting,
3792,<p>Thank you for completing that task.</p><p>The final part of this session is a short questionnaire.</p><p>Press Continue.</p>,0,html-button-response,466,2243869,0.0-20.0,979,List1A,black,man,,,,,,,,
48092,,,survey-text,467,2292982,0.0-21.0,979,List1A,black,man,,,,,"{""Q0"":""25"",""Q1"":""English"",""Q2"":""English"",""Q3"":""Ireland"",""Q4"":""Black Irish"",""Q5"":""Male""}",,,demographics
73094,,,survey-likert,468,2366101,0.0-22.0,979,List1A,black,man,,,,,"{""Q0"":6,""Q1"":6,""Q2"":6,""Q3"":6,""Q4"":6,""Q5"":6,""Q6"":3,""Q7"":0,""Q8"":6,""Q9"":6,""Q10"":6,""Q11"":6,""Q12"":6,""Q13"":6}",,,likert_race
53670,,,survey-likert,469,2419799,0.0-23.0,979,List1A,black,man,,,,,"{""Q0"":6,""Q1"":6,""Q2"":6,""Q3"":6,""Q4"":6,""Q5"":6,""Q6"":6,""Q7"":6,""Q8"":6,""Q9"":6,""Q10"":6,""Q11"":6,""Q12"":6,""Q13"":5}",,,likert_gender
7281,,,survey-text,470,2427091,0.0-24.0,979,List1A,black,man,,,,,"{""Q0"":""ccc""}",,,worker_id
32623,,,external-html,471,2459810,0.0-25.0,979,List1A,black,man,debrief.html,,,,,,,
