"rt","stimulus","button_pressed","trial_type","trial_index","time_elapsed","internal_node_id","subject","list","ppt_gender","ppt_language","ptptID","url","first_guess","correct","key_press","responses","image","verb","phrase","condition","test_part"
"189839.59999990463","Welcome to the experiment. Press Continue to begin.","0","html-button-response","0","189838","0.0-0.0","16769","ListB","man","chinese","SW-C-M-B4","","","","","","","","","",""
"2253795.9000000954","","","external-html","1","2444963","0.0-1.0","16769","ListB","man","chinese","SW-C-M-B4","consent.html","","","","","","","","",""
"200782","<p>在下一页中，您将看到8个人物肖像和他们各自的名字。</p><p>请花费几分钟的时间记住这些人物及其所对应的名字。</p><p>之后的实验中需要您对人物的名字做出回忆，</p><p>因此在实验开始前请确保您已 经完全记住这些人物及其所对应的名字。</p><p><strong>然后您将完成一个测试以检验您对人物和名字的记忆。</strong></p><p>完成此记忆测试后，您将正式进入实验。</p><p>准备好了吗？</p>","0","html-button-response","2","2645740","0.0-2.0","16769","ListB","man","chinese","SW-C-M-B4","","","","","","","","","",""
"17405899.400000095","<img src='img/portrait_matrix_listB_chinese.jpg' style='width:900px;height:500px;''></img><p>如果您已经记住了所有的人物和名字，请点击继续。</p><p><strong>请注意：您对先前记忆的面孔将在本实验中被测试5次。</strong></p>","0","html-button-response","3","20052655","0.0-3.0-0.0","16769","ListB","man","chinese","SW-C-M-B4","","","","","","","","","",""
"5113.799999952316","<img src=""portrait/WW1.jpg""style=""height:400px;""></img>","1","html-button-response","4","20058783","0.0-3.0-1.0","16769","ListB","man","chinese","SW-C-M-B4","","true","1","","","","","","",""
"null","正确","","html-keyboard-response","5","20060308","0.0-3.0-2.0-0.0","16769","ListB","man","chinese","SW-C-M-B4","","","","null","","","","","",""
"2471.4000000953674","<img src=""portrait/WW2.jpg""style=""height:400px;""></img>","3","html-button-response","6","20062782","0.0-3.0-4.0","16769","ListB","man","chinese","SW-C-M-B4","","true","3","","","","","","",""
"null","正确","","html-keyboard-response","7","20064338","0.0-3.0-5.0-0.0","16769","ListB","man","chinese","SW-C-M-B4","","","","null","","","","","",""
"4356.600000143051","<img src=""portrait/BW2.jpg""style=""height:400px;""></img>","2","html-button-response","8","20068698","0.0-3.0-7.0","16769","ListB","man","chinese","SW-C-M-B4","","true","2","","","","","","",""
"null","正确","","html-keyboard-response","9","20070212","0.0-3.0-8.0-0.0","16769","ListB","man","chinese","SW-C-M-B4","","","","null","","","","","",""
"4803.899999856949","<img src=""portrait/BM2.jpg""style=""height:400px;""></img>","5","html-button-response","10","20075019","0.0-3.0-10.0","16769","ListB","man","chinese","SW-C-M-B4","","true","5","","","","","","",""
"null","正确","","html-keyboard-response","11","20076543","0.0-3.0-11.0-0.0","16769","ListB","man","chinese","SW-C-M-B4","","","","null","","","","","",""
"2050.0999999046326","<img src=""portrait/WM2.jpg""style=""height:400px;""></img>","7","html-button-response","12","20078596","0.0-3.0-13.0","16769","ListB","man","chinese","SW-C-M-B4","","true","7","","","","","","",""
"null","正确","","html-keyboard-response","13","20080142","0.0-3.0-14.0-0.0","16769","ListB","man","chinese","SW-C-M-B4","","","","null","","","","","",""
"14542","<img src=""portrait/BW1.jpg""style=""height:400px;""></img>","0","html-button-response","14","20094687","0.0-3.0-16.0","16769","ListB","man","chinese","SW-C-M-B4","","true","0","","","","","","",""
"null","正确","","html-keyboard-response","15","20096216","0.0-3.0-17.0-0.0","16769","ListB","man","chinese","SW-C-M-B4","","","","null","","","","","",""
"5348.400000095367","<img src=""portrait/BM1.jpg""style=""height:400px;""></img>","4","html-button-response","16","20101567","0.0-3.0-19.0","16769","ListB","man","chinese","SW-C-M-B4","","true","4","","","","","","",""
"null","正确","","html-keyboard-response","17","20103097","0.0-3.0-20.0-0.0","16769","ListB","man","chinese","SW-C-M-B4","","","","null","","","","","",""
"5244.900000095367","<img src=""portrait/WM1.jpg""style=""height:400px;""></img>","6","html-button-response","18","20108344","0.0-3.0-22.0","16769","ListB","man","chinese","SW-C-M-B4","","true","6","","","","","","",""
"null","正确","","html-keyboard-response","19","20109875","0.0-3.0-23.0-0.0","16769","ListB","man","chinese","SW-C-M-B4","","","","null","","","","","",""
"3532.0999999046326","<p>您第一次在8题里答对了 8 题。 请点击继续</p>","0","html-button-response","20","20113409","0.0-3.0-25.0","16769","ListB","man","chinese","SW-C-M-B4","","","","","","","","","",""
"500407.2000000477","<p>此次实验您将会看到先前记忆任务里的人物照片。</p><p>人物照片消失后您将看到一个动词短语，请正确回忆人物的名字并用特定的 动词短语组成一句完整的句子。</p><p>请在指定的框内输入您的答案。在进入下一题之前请确保您填写了完整的句子。</p><p>人物照片和动词短语只会在屏幕上出现几秒钟，因此请您答题时尽量集中注意力。</p><p>以下是例子。请您在准备好后按下“继续”。</p><img src='img/chinese_speaking_example.jpg' style='width:800px;height:460px;''></img>","0","html-button-response","21","20614822","0.0-4.0","16769","ListB","man","chinese","SW-C-M-B4","","","","","","","","","",""
"6808.799999952316","<p>在实验开始前，将为您展示两个示例实验。</p>","0","html-button-response","22","20622658","0.0-5.0","16769","ListB","man","chinese","SW-C-M-B4","","","","","","","","","",""
"null","<img src='img/meet.gif' style='height:400px;''></img>","","html-keyboard-response","23","20625688","0.0-6.0","16769","ListB","man","chinese","SW-C-M-B4","","","","null","","","","","",""
"null","<p>正在约见</p>","","html-keyboard-response","24","20627707","0.0-7.0","16769","ListB","man","chinese","SW-C-M-B4","","","","null","","","","","",""
"2451.9000000953674","<p><b>答案：</b> 霍普正在约见露丝</p>","0","html-button-response","25","20630161","0.0-8.0","16769","ListB","man","chinese","SW-C-M-B4","","","","","","","","","",""
"null","<img src='img/spy.gif' style='height:400px;''></img>","","html-keyboard-response","26","20633191","0.0-9.0","16769","ListB","man","chinese","SW-C-M-B4","","","","null","","","","","",""
"null","<p>正在监视</p>","","html-keyboard-response","27","20635227","0.0-10.0","16769","ListB","man","chinese","SW-C-M-B4","","","","null","","","","","",""
"1665.2999999523163","<p><b>答案：</b> 弗雷正在监视麦克</p>","0","html-button-response","28","20636894","0.0-11.0","16769","ListB","man","chinese","SW-C-M-B4","","","","","","","","","",""
"14040.400000095367","<p>准备好开始了吗？</p><br><p><strong>请记住，您的答案需是一句完整的句子</strong></p><p><strong>，并用给到的图片人物和动词短语作答。</strong></p><p><strong>只有正确并完整完成实验才可获得报酬。</strong></p><p><strong> 您不需要加入任何标点符号。</strong></p><br><p>请按 ‘继续’ 键开始。</p>","0","html-button-response","29","20651941","0.0-12.0","16769","ListB","man","chinese","SW-C-M-B4","","","","","","","","","",""
"null","<div style=""font-size:60px;"">+</div>","","html-keyboard-response","30","20653447","0.0-13.0-0.0","16769","ListB","man","chinese","SW-C-M-B4","","","","null","","","","","",""
"null","<img src='gifs/ChineseGender4a.gif' style='height:400px;''></img>","","html-keyboard-response","31","20655456","0.0-13.0-1.0","16769","ListB","man","chinese","SW-C-M-B4","","","","null","","","","","",""
"null","正在表扬","","html-keyboard-response","32","20658462","0.0-13.0-2.0","16769","ListB","man","chinese","SW-C-M-B4","","","","null","","","","","",""
"86795.5","","","survey-text","33","20745271","0.0-13.0-3.0","16769","ListB","man","chinese","SW-C-M-B4","","","","","{""Q0"":""戴夫正在表扬霍普""}","<img src='gifs/ChineseGender4a.gif' style='height:400px;''></img>","表扬","正在表扬","chinese",""
"null","<div style=""font-size:60px;"">+</div>","","html-keyboard-response","34","20745784","0.0-13.0-0.1","16769","ListB","man","chinese","SW-C-M-B4","","","","null","","","","","",""
"null","<img src='gifs/BlackGender4a.gif' style='height:400px;''></img>","","html-keyboard-response","35","20747803","0.0-13.0-1.1","16769","ListB","man","chinese","SW-C-M-B4","","","","null","","","","","",""
"null","正在提到","","html-keyboard-response","36","20750820","0.0-13.0-2.1","16769","ListB","man","chinese","SW-C-M-B4","","","","null","","","","","",""
"29363.400000095367","","","survey-text","37","20780187","0.0-13.0-3.1","16769","ListB","man","chinese","SW-C-M-B4","","","","","{""Q0"":""麦克正在提到霍普""}","<img src='gifs/BlackGender4a.gif' style='height:400px;''></img>","提到","正在提到","chinese",""
"null","<div style=""font-size:60px;"">+</div>","","html-keyboard-response","38","20780697","0.0-13.0-0.2","16769","ListB","man","chinese","SW-C-M-B4","","","","null","","","","","",""
"null","<img src='gifs/ChineseGender3a.gif' style='height:400px;''></img>","","html-keyboard-response","39","20782717","0.0-13.0-1.2","16769","ListB","man","chinese","SW-C-M-B4","","","","null","","","","","",""
"null","正在接近","","html-keyboard-response","40","20785749","0.0-13.0-2.2","16769","ListB","man","chinese","SW-C-M-B4","","","","null","","","","","",""
"16914.5","","","survey-text","41","20802667","0.0-13.0-3.2","16769","ListB","man","chinese","SW-C-M-B4","","","","","{""Q0"":""露丝正在接近戴夫""}","<img src='gifs/ChineseGender3a.gif' style='height:400px;''></img>","接近","正在接近","chinese",""
"null","<div style=""font-size:60px;"">+</div>","","html-keyboard-response","42","20803208","0.0-13.0-0.3","16769","ListB","man","chinese","SW-C-M-B4","","","","null","","","","","",""
"null","<img src='gifs/ChineseGender4b.gif' style='height:400px;''></img>","","html-keyboard-response","43","20805242","0.0-13.0-1.3","16769","ListB","man","chinese","SW-C-M-B4","","","","null","","","","","",""
"null","正在加入","","html-keyboard-response","44","20808278","0.0-13.0-2.3","16769","ListB","man","chinese","SW-C-M-B4","","","","null","","","","","",""
"24767.099999904633","","","survey-text","45","20833050","0.0-13.0-3.3","16769","ListB","man","chinese","SW-C-M-B4","","","","","{""Q0"":""戴夫正在加入霍普""}","<img src='gifs/ChineseGender4b.gif' style='height:400px;''></img>","加入","正在加入","chinese",""
"null","<div style=""font-size:60px;"">+</div>","","html-keyboard-response","46","20833562","0.0-13.0-0.4","16769","ListB","man","chinese","SW-C-M-B4","","","","null","","","","","",""
"null","<img src='gifs/ChineseGender3b.gif' style='height:400px;''></img>","","html-keyboard-response","47","20835570","0.0-13.0-1.4","16769","ListB","man","chinese","SW-C-M-B4","","","","null","","","","","",""
"null","正在答应","","html-keyboard-response","48","20838598","0.0-13.0-2.4","16769","ListB","man","chinese","SW-C-M-B4","","","","null","","","","","",""
"32358.299999952316","","","survey-text","49","20870960","0.0-13.0-3.4","16769","ListB","man","chinese","SW-C-M-B4","","","","","{""Q0"":""戴夫正在答应露丝""}","<img src='gifs/ChineseGender3b.gif' style='height:400px;''></img>","答应","正在答应","chinese",""
"null","<div style=""font-size:60px;"">+</div>","","html-keyboard-response","50","20871473","0.0-13.0-0.5","16769","ListB","man","chinese","SW-C-M-B4","","","","null","","","","","",""
"null","<img src='gifs/ChineseGender3a.gif' style='height:400px;''></img>","","html-keyboard-response","51","20873478","0.0-13.0-1.5","16769","ListB","man","chinese","SW-C-M-B4","","","","null","","","","","",""
"null","正在聘用","","html-keyboard-response","52","20876490","0.0-13.0-2.5","16769","ListB","man","chinese","SW-C-M-B4","","","","null","","","","","",""
"20839","","","survey-text","53","20897333","0.0-13.0-3.5","16769","ListB","man","chinese","SW-C-M-B4","","","","","{""Q0"":""露丝正在聘用戴夫""}","<img src='gifs/ChineseGender3a.gif' style='height:400px;''></img>","聘用","正在聘用","chinese",""
"null","<div style=""font-size:60px;"">+</div>","","html-keyboard-response","54","20897845","0.0-13.0-0.6","16769","ListB","man","chinese","SW-C-M-B4","","","","null","","","","","",""
"null","<img src='gifs/MaleRace2b.gif' style='height:400px;''></img>","","html-keyboard-response","55","20899866","0.0-13.0-1.6","16769","ListB","man","chinese","SW-C-M-B4","","","","null","","","","","",""
"null","正在联系","","html-keyboard-response","56","20902893","0.0-13.0-2.6","16769","ListB","man","chinese","SW-C-M-B4","","","","null","","","","","",""
"36225.39999985695","","","survey-text","57","20939122","0.0-13.0-3.6","16769","ListB","man","chinese","SW-C-M-B4","","","","","{""Q0"":""麦克正在联系霍普""}","<img src='gifs/MaleRace2b.gif' style='height:400px;''></img>","联系","正在联系","chinese",""
"null","<div style=""font-size:60px;"">+</div>","","html-keyboard-response","58","20939639","0.0-13.0-0.7","16769","ListB","man","chinese","SW-C-M-B4","","","","null","","","","","",""
"null","<img src='gifs/BlackGender1a.gif' style='height:400px;''></img>","","html-keyboard-response","59","20941642","0.0-13.0-1.7","16769","ListB","man","chinese","SW-C-M-B4","","","","null","","","","","",""
"null","正在陪伴","","html-keyboard-response","60","20944649","0.0-13.0-2.7","16769","ListB","man","chinese","SW-C-M-B4","","","","null","","","","","",""
"35338.5","","","survey-text","61","20979992","0.0-13.0-3.7","16769","ListB","man","chinese","SW-C-M-B4","","","","","{""Q0"":""霍普正在陪伴露丝""}","<img src='gifs/BlackGender1a.gif' style='height:400px;''></img>","陪伴","正在陪伴","chinese",""
"null","<div style=""font-size:60px;"">+</div>","","html-keyboard-response","62","20980505","0.0-13.0-0.8","16769","ListB","man","chinese","SW-C-M-B4","","","","null","","","","","",""
"null","<img src='gifs/ChineseGender2b.gif' style='height:400px;''></img>","","html-keyboard-response","63","20982552","0.0-13.0-1.8","16769","ListB","man","chinese","SW-C-M-B4","","","","null","","","","","",""
"null","正在聆听","","html-keyboard-response","64","20985571","0.0-13.0-2.8","16769","ListB","man","chinese","SW-C-M-B4","","","","null","","","","","",""
"19839.5","","","survey-text","65","21005414","0.0-13.0-3.8","16769","ListB","man","chinese","SW-C-M-B4","","","","","{""Q0"":""露丝正在聆听代克""}","<img src='gifs/ChineseGender2b.gif' style='height:400px;''></img>","聆听","正在聆听","chinese",""
"null","<div style=""font-size:60px;"">+</div>","","html-keyboard-response","66","21005945","0.0-13.0-0.9","16769","ListB","man","chinese","SW-C-M-B4","","","","null","","","","","",""
"null","<img src='gifs/BlackGender4b.gif' style='height:400px;''></img>","","html-keyboard-response","67","21007977","0.0-13.0-1.9","16769","ListB","man","chinese","SW-C-M-B4","","","","null","","","","","",""
"null","正在聘用","","html-keyboard-response","68","21011010","0.0-13.0-2.9","16769","ListB","man","chinese","SW-C-M-B4","","","","null","","","","","",""
"16526.60000014305","","","survey-text","69","21027539","0.0-13.0-3.9","16769","ListB","man","chinese","SW-C-M-B4","","","","","{""Q0"":""霍普正在聘用麦克""}","<img src='gifs/BlackGender4b.gif' style='height:400px;''></img>","聘用","正在聘用","chinese",""
"null","<div style=""font-size:60px;"">+</div>","","html-keyboard-response","70","21028055","0.0-13.0-0.10","16769","ListB","man","chinese","SW-C-M-B4","","","","null","","","","","",""
"null","<img src='gifs/FemaleRace2a.gif' style='height:400px;''></img>","","html-keyboard-response","71","21030103","0.0-13.0-1.10","16769","ListB","man","chinese","SW-C-M-B4","","","","null","","","","","",""
"null","正在跟随","","html-keyboard-response","72","21033131","0.0-13.0-2.10","16769","ListB","man","chinese","SW-C-M-B4","","","","null","","","","","",""
"26305.39999985695","","","survey-text","73","21059440","0.0-13.0-3.10","16769","ListB","man","chinese","SW-C-M-B4","","","","","{""Q0"":""霍普正在约见露丝""}","<img src='gifs/FemaleRace2a.gif' style='height:400px;''></img>","跟随","正在跟随","chinese",""
"null","<div style=""font-size:60px;"">+</div>","","html-keyboard-response","74","21059955","0.0-13.0-0.11","16769","ListB","man","chinese","SW-C-M-B4","","","","null","","","","","",""
"null","<img src='gifs/MaleRace2a.gif' style='height:400px;''></img>","","html-keyboard-response","75","21061994","0.0-13.0-1.11","16769","ListB","man","chinese","SW-C-M-B4","","","","null","","","","","",""
"null","正在介绍","","html-keyboard-response","76","21065018","0.0-13.0-2.11","16769","ListB","man","chinese","SW-C-M-B4","","","","null","","","","","",""
"12787","","","survey-text","77","21077807","0.0-13.0-3.11","16769","ListB","man","chinese","SW-C-M-B4","","","","","{""Q0"":""代克正在介绍麦克""}","<img src='gifs/MaleRace2a.gif' style='height:400px;''></img>","介绍","正在介绍","chinese",""
"null","<div style=""font-size:60px;"">+</div>","","html-keyboard-response","78","21078319","0.0-13.0-0.12","16769","ListB","man","chinese","SW-C-M-B4","","","","null","","","","","",""
"null","<img src='gifs/BlackGender3b.gif' style='height:400px;''></img>","","html-keyboard-response","79","21080337","0.0-13.0-1.12","16769","ListB","man","chinese","SW-C-M-B4","","","","null","","","","","",""
"null","正在聘用","","html-keyboard-response","80","21083374","0.0-13.0-2.12","16769","ListB","man","chinese","SW-C-M-B4","","","","null","","","","","",""
"51216.200000047684","","","survey-text","81","21134593","0.0-13.0-3.12","16769","ListB","man","chinese","SW-C-M-B4","","","","","{""Q0"":""霍普正在聘用约翰""}","<img src='gifs/BlackGender3b.gif' style='height:400px;''></img>","聘用","正在聘用","chinese",""
"null","<div style=""font-size:60px;"">+</div>","","html-keyboard-response","82","21135107","0.0-13.0-0.13","16769","ListB","man","chinese","SW-C-M-B4","","","","null","","","","","",""
"null","<img src='gifs/FemaleRace1a.gif' style='height:400px;''></img>","","html-keyboard-response","83","21137111","0.0-13.0-1.13","16769","ListB","man","chinese","SW-C-M-B4","","","","null","","","","","",""
"null","正在面向","","html-keyboard-response","84","21140134","0.0-13.0-2.13","16769","ListB","man","chinese","SW-C-M-B4","","","","null","","","","","",""
"24098.89999985695","","","survey-text","85","21164235","0.0-13.0-3.13","16769","ListB","man","chinese","SW-C-M-B4","","","","","{""Q0"":""霍普正在面见露丝""}","<img src='gifs/FemaleRace1a.gif' style='height:400px;''></img>","面向","正在面向","chinese",""
"null","<div style=""font-size:60px;"">+</div>","","html-keyboard-response","86","21164751","0.0-13.0-0.14","16769","ListB","man","chinese","SW-C-M-B4","","","","null","","","","","",""
"null","<img src='gifs/BlackGender4a.gif' style='height:400px;''></img>","","html-keyboard-response","87","21166768","0.0-13.0-1.14","16769","ListB","man","chinese","SW-C-M-B4","","","","null","","","","","",""
"null","正在联系","","html-keyboard-response","88","21169805","0.0-13.0-2.14","16769","ListB","man","chinese","SW-C-M-B4","","","","null","","","","","",""
"13238.299999952316","","","survey-text","89","21183049","0.0-13.0-3.14","16769","ListB","man","chinese","SW-C-M-B4","","","","","{""Q0"":""麦克正在联系霍普""}","<img src='gifs/BlackGender4a.gif' style='height:400px;''></img>","联系","正在联系","chinese",""
"null","<div style=""font-size:60px;"">+</div>","","html-keyboard-response","90","21183561","0.0-13.0-0.15","16769","ListB","man","chinese","SW-C-M-B4","","","","null","","","","","",""
"null","<img src='gifs/BlackGender1b.gif' style='height:400px;''></img>","","html-keyboard-response","91","21185570","0.0-13.0-1.15","16769","ListB","man","chinese","SW-C-M-B4","","","","null","","","","","",""
"null","正在说服","","html-keyboard-response","92","21188592","0.0-13.0-2.15","16769","ListB","man","chinese","SW-C-M-B4","","","","null","","","","","",""
"27112.5","","","survey-text","93","21215709","0.0-13.0-3.15","16769","ListB","man","chinese","SW-C-M-B4","","","","","{""Q0"":""代克正在说服霍普""}","<img src='gifs/BlackGender1b.gif' style='height:400px;''></img>","说服","正在说服","chinese",""
"null","<div style=""font-size:60px;"">+</div>","","html-keyboard-response","94","21216222","0.0-13.0-0.16","16769","ListB","man","chinese","SW-C-M-B4","","","","null","","","","","",""
"null","<img src='gifs/FemaleRace3a.gif' style='height:400px;''></img>","","html-keyboard-response","95","21218257","0.0-13.0-1.16","16769","ListB","man","chinese","SW-C-M-B4","","","","null","","","","","",""
"null","正在触摸","","html-keyboard-response","96","21221278","0.0-13.0-2.16","16769","ListB","man","chinese","SW-C-M-B4","","","","null","","","","","",""
"16348","","","survey-text","97","21237629","0.0-13.0-3.16","16769","ListB","man","chinese","SW-C-M-B4","","","","","{""Q0"":""露丝正在触摸霍普""}","<img src='gifs/FemaleRace3a.gif' style='height:400px;''></img>","触摸","正在触摸","chinese",""
"null","<div style=""font-size:60px;"">+</div>","","html-keyboard-response","98","21238146","0.0-13.0-0.17","16769","ListB","man","chinese","SW-C-M-B4","","","","null","","","","","",""
"null","<img src='gifs/ChineseGender2a.gif' style='height:400px;''></img>","","html-keyboard-response","99","21240189","0.0-13.0-1.17","16769","ListB","man","chinese","SW-C-M-B4","","","","null","","","","","",""
"null","正在介绍","","html-keyboard-response","100","21243212","0.0-13.0-2.17","16769","ListB","man","chinese","SW-C-M-B4","","","","null","","","","","",""
"10148.5","","","survey-text","101","21253366","0.0-13.0-3.17","16769","ListB","man","chinese","SW-C-M-B4","","","","","{""Q0"":""代克正在介绍露丝""}","<img src='gifs/ChineseGender2a.gif' style='height:400px;''></img>","介绍","正在介绍","chinese",""
"171328.29999995232","<img src='img/portrait_matrix_listB_chinese.jpg' style='width:900px;height:500px;''></img><p>如果您已经记住了所有的人物和名字，请点击继续。</p><p><strong>请注意：您对先前记忆的面孔将在本实验中被测试5次。</strong></p>","0","html-button-response","102","21424689","0.0-14.0-0.0","16769","ListB","man","chinese","SW-C-M-B4","","","","","","","","","",""
"12322.5","<img src=""portrait/WM1.jpg""style=""height:400px;""></img>","6","html-button-response","103","21438032","0.0-14.0-1.0","16769","ListB","man","chinese","SW-C-M-B4","","true","6","","","","","","",""
"null","正确","","html-keyboard-response","104","21439564","0.0-14.0-2.0-0.0","16769","ListB","man","chinese","SW-C-M-B4","","","","null","","","","","",""
"2992.7000000476837","<img src=""portrait/WW1.jpg""style=""height:400px;""></img>","1","html-button-response","105","21442558","0.0-14.0-4.0","16769","ListB","man","chinese","SW-C-M-B4","","true","1","","","","","","",""
"null","正确","","html-keyboard-response","106","21444083","0.0-14.0-5.0-0.0","16769","ListB","man","chinese","SW-C-M-B4","","","","null","","","","","",""
"2601.2000000476837","<img src=""portrait/WW2.jpg""style=""height:400px;""></img>","3","html-button-response","107","21446687","0.0-14.0-7.0","16769","ListB","man","chinese","SW-C-M-B4","","true","3","","","","","","",""
"null","正确","","html-keyboard-response","108","21448199","0.0-14.0-8.0-0.0","16769","ListB","man","chinese","SW-C-M-B4","","","","null","","","","","",""
"7477.300000190735","<img src=""portrait/BW2.jpg""style=""height:400px;""></img>","2","html-button-response","109","21455679","0.0-14.0-10.0","16769","ListB","man","chinese","SW-C-M-B4","","true","2","","","","","","",""
"null","正确","","html-keyboard-response","110","21457199","0.0-14.0-11.0-0.0","16769","ListB","man","chinese","SW-C-M-B4","","","","null","","","","","",""
"2288.5999999046326","<img src=""portrait/BM1.jpg""style=""height:400px;""></img>","4","html-button-response","111","21459490","0.0-14.0-13.0","16769","ListB","man","chinese","SW-C-M-B4","","true","4","","","","","","",""
"null","正确","","html-keyboard-response","112","21461041","0.0-14.0-14.0-0.0","16769","ListB","man","chinese","SW-C-M-B4","","","","null","","","","","",""
"1243.5999999046326","<img src=""portrait/BW1.jpg""style=""height:400px;""></img>","4","html-button-response","113","21462287","0.0-14.0-16.0","16769","ListB","man","chinese","SW-C-M-B4","","true","0","","","","","","",""
"6688.299999952316","<img src=""portrait/BW1.jpg""style=""height:400px;""></img>","0","html-button-response","114","21469987","0.0-14.0-18.0-0.0","16769","ListB","man","chinese","SW-C-M-B4","","false","0","","","","","","",""
"null","正确","","html-keyboard-response","115","21471515","0.0-14.0-18.0-1.0-0.0","16769","ListB","man","chinese","SW-C-M-B4","","","","null","","","","","",""
"6792.200000047684","<img src=""portrait/WM2.jpg""style=""height:400px;""></img>","7","html-button-response","116","21478311","0.0-14.0-19.0","16769","ListB","man","chinese","SW-C-M-B4","","true","7","","","","","","",""
"null","正确","","html-keyboard-response","117","21479832","0.0-14.0-20.0-0.0","16769","ListB","man","chinese","SW-C-M-B4","","","","null","","","","","",""
"2195.2999999523163","<img src=""portrait/BM2.jpg""style=""height:400px;""></img>","5","html-button-response","118","21482030","0.0-14.0-22.0","16769","ListB","man","chinese","SW-C-M-B4","","true","5","","","","","","",""
"null","正确","","html-keyboard-response","119","21483570","0.0-14.0-23.0-0.0","16769","ListB","man","chinese","SW-C-M-B4","","","","null","","","","","",""
"1769.6000001430511","<p>您第一次在8题里答对了 7 题。 请点击继续</p>","0","html-button-response","120","21485342","0.0-14.0-25.0","16769","ListB","man","chinese","SW-C-M-B4","","","","","","","","","",""
"1959.2000000476837","因为您没有全部答对，记忆游戏将重新开始。请点击继续。","0","html-button-response","121","21488317","0.0-14.0-26.0-0.0","16769","ListB","man","chinese","SW-C-M-B4","","","","","","","","","",""
"2845.7999999523163","<img src='img/portrait_matrix_listB_chinese.jpg' style='width:900px;height:500px;''></img><p>如果您已经记住了所有的人物和名字，请点击继续。</p><p><strong>请注意：您对先前记忆的面孔将在本实验中被测试5次。</strong></p>","0","html-button-response","122","21492178","0.0-14.1-0.1","16769","ListB","man","chinese","SW-C-M-B4","","","","","","","","","",""
"3316.7000000476837","<img src=""portrait/WM1.jpg""style=""height:400px;""></img>","6","html-button-response","123","21496513","0.0-14.1-1.1","16769","ListB","man","chinese","SW-C-M-B4","","true","6","","","","","","",""
"null","正确","","html-keyboard-response","124","21498095","0.0-14.1-2.1-0.1","16769","ListB","man","chinese","SW-C-M-B4","","","","null","","","","","",""
"3164.4000000953674","<img src=""portrait/WW1.jpg""style=""height:400px;""></img>","1","html-button-response","125","21501262","0.0-14.1-4.1","16769","ListB","man","chinese","SW-C-M-B4","","true","1","","","","","","",""
"null","正确","","html-keyboard-response","126","21502777","0.0-14.1-5.1-0.1","16769","ListB","man","chinese","SW-C-M-B4","","","","null","","","","","",""
"3196.5","<img src=""portrait/WW2.jpg""style=""height:400px;""></img>","3","html-button-response","127","21505976","0.0-14.1-7.1","16769","ListB","man","chinese","SW-C-M-B4","","true","3","","","","","","",""
"null","正确","","html-keyboard-response","128","21507553","0.0-14.1-8.1-0.1","16769","ListB","man","chinese","SW-C-M-B4","","","","null","","","","","",""
"3283.5","<img src=""portrait/BW2.jpg""style=""height:400px;""></img>","2","html-button-response","129","21510838","0.0-14.1-10.1","16769","ListB","man","chinese","SW-C-M-B4","","true","2","","","","","","",""
"null","正确","","html-keyboard-response","130","21512346","0.0-14.1-11.1-0.1","16769","ListB","man","chinese","SW-C-M-B4","","","","null","","","","","",""
"4001.699999809265","<img src=""portrait/BM1.jpg""style=""height:400px;""></img>","4","html-button-response","131","21516350","0.0-14.1-13.1","16769","ListB","man","chinese","SW-C-M-B4","","true","4","","","","","","",""
"null","正确","","html-keyboard-response","132","21517862","0.0-14.1-14.1-0.1","16769","ListB","man","chinese","SW-C-M-B4","","","","null","","","","","",""
"2869.899999856949","<img src=""portrait/BW1.jpg""style=""height:400px;""></img>","0","html-button-response","133","21520735","0.0-14.1-16.1","16769","ListB","man","chinese","SW-C-M-B4","","true","0","","","","","","",""
"null","正确","","html-keyboard-response","134","21522282","0.0-14.1-17.1-0.1","16769","ListB","man","chinese","SW-C-M-B4","","","","null","","","","","",""
"4612.900000095367","<img src=""portrait/WM2.jpg""style=""height:400px;""></img>","7","html-button-response","135","21526898","0.0-14.1-19.1","16769","ListB","man","chinese","SW-C-M-B4","","true","7","","","","","","",""
"null","正确","","html-keyboard-response","136","21528412","0.0-14.1-20.1-0.1","16769","ListB","man","chinese","SW-C-M-B4","","","","null","","","","","",""
"2274.5","<img src=""portrait/BM2.jpg""style=""height:400px;""></img>","5","html-button-response","137","21530689","0.0-14.1-22.1","16769","ListB","man","chinese","SW-C-M-B4","","true","5","","","","","","",""
"null","正确","","html-keyboard-response","138","21532235","0.0-14.1-23.1-0.1","16769","ListB","man","chinese","SW-C-M-B4","","","","null","","","","","",""
"4356.399999856949","<p>您第一次在8题里答对了 8 题。 请点击继续</p>","0","html-button-response","139","21536593","0.0-14.1-25.1","16769","ListB","man","chinese","SW-C-M-B4","","","","","","","","","",""
"null","<div style=""font-size:60px;"">+</div>","","html-keyboard-response","140","21538123","0.0-15.0-0.0","16769","ListB","man","chinese","SW-C-M-B4","","","","null","","","","","",""
"null","<img src='gifs/FemaleRace3b.gif' style='height:400px;''></img>","","html-keyboard-response","141","21540130","0.0-15.0-1.0","16769","ListB","man","chinese","SW-C-M-B4","","","","null","","","","","",""
"null","正在联系","","html-keyboard-response","142","21543152","0.0-15.0-2.0","16769","ListB","man","chinese","SW-C-M-B4","","","","null","","","","","",""
"14365.099999904633","","","survey-text","143","21557520","0.0-15.0-3.0","16769","ListB","man","chinese","SW-C-M-B4","","","","","{""Q0"":""露丝正在联系贝斯""}","<img src='gifs/FemaleRace3b.gif' style='height:400px;''></img>","联系","正在联系","chinese",""
"null","<div style=""font-size:60px;"">+</div>","","html-keyboard-response","144","21558032","0.0-15.0-0.1","16769","ListB","man","chinese","SW-C-M-B4","","","","null","","","","","",""
"null","<img src='gifs/FemaleRace1a.gif' style='height:400px;''></img>","","html-keyboard-response","145","21560051","0.0-15.0-1.1","16769","ListB","man","chinese","SW-C-M-B4","","","","null","","","","","",""
"null","正在接近","","html-keyboard-response","146","21563080","0.0-15.0-2.1","16769","ListB","man","chinese","SW-C-M-B4","","","","null","","","","","",""
"16151.399999856949","","","survey-text","147","21579235","0.0-15.0-3.1","16769","ListB","man","chinese","SW-C-M-B4","","","","","{""Q0"":""贝斯正在接近霍普""}","<img src='gifs/FemaleRace1a.gif' style='height:400px;''></img>","接近","正在接近","chinese",""
"null","<div style=""font-size:60px;"">+</div>","","html-keyboard-response","148","21579745","0.0-15.0-0.2","16769","ListB","man","chinese","SW-C-M-B4","","","","null","","","","","",""
"null","<img src='gifs/BlackGender1b.gif' style='height:400px;''></img>","","html-keyboard-response","149","21581752","0.0-15.0-1.2","16769","ListB","man","chinese","SW-C-M-B4","","","","null","","","","","",""
"null","正在表扬","","html-keyboard-response","150","21584767","0.0-15.0-2.2","16769","ListB","man","chinese","SW-C-M-B4","","","","null","","","","","",""
"19368.299999952316","","","survey-text","151","21604139","0.0-15.0-3.2","16769","ListB","man","chinese","SW-C-M-B4","","","","","{""Q0"":""贝斯正在表扬弗雷""}","<img src='gifs/BlackGender1b.gif' style='height:400px;''></img>","表扬","正在表扬","chinese",""
"null","<div style=""font-size:60px;"">+</div>","","html-keyboard-response","152","21604656","0.0-15.0-0.3","16769","ListB","man","chinese","SW-C-M-B4","","","","null","","","","","",""
"null","<img src='gifs/BlackGender4b.gif' style='height:400px;''></img>","","html-keyboard-response","153","21606703","0.0-15.0-1.3","16769","ListB","man","chinese","SW-C-M-B4","","","","null","","","","","",""
"null","正在接近","","html-keyboard-response","154","21609727","0.0-15.0-2.3","16769","ListB","man","chinese","SW-C-M-B4","","","","null","","","","","",""
"23389.799999952316","","","survey-text","155","21633114","0.0-15.0-3.3","16769","ListB","man","chinese","SW-C-M-B4","","","","","{""Q0"":""麦克正在接近凯特""}","<img src='gifs/BlackGender4b.gif' style='height:400px;''></img>","接近","正在接近","chinese",""
"null","<div style=""font-size:60px;"">+</div>","","html-keyboard-response","156","21633628","0.0-15.0-0.4","16769","ListB","man","chinese","SW-C-M-B4","","","","null","","","","","",""
"null","<img src='gifs/ChineseGender1b.gif' style='height:400px;''></img>","","html-keyboard-response","157","21635632","0.0-15.0-1.4","16769","ListB","man","chinese","SW-C-M-B4","","","","null","","","","","",""
"null","正在走向","","html-keyboard-response","158","21638667","0.0-15.0-2.4","16769","ListB","man","chinese","SW-C-M-B4","","","","null","","","","","",""
"35437.39999985695","","","survey-text","159","21674111","0.0-15.0-3.4","16769","ListB","man","chinese","SW-C-M-B4","","","","","{""Q0"":""霍普正在走向浩克""}","<img src='gifs/ChineseGender1b.gif' style='height:400px;''></img>","走向","正在走向","chinese",""
"null","<div style=""font-size:60px;"">+</div>","","html-keyboard-response","160","21674626","0.0-15.0-0.5","16769","ListB","man","chinese","SW-C-M-B4","","","","null","","","","","",""
"null","<img src='gifs/BlackGender2b.gif' style='height:400px;''></img>","","html-keyboard-response","161","21676647","0.0-15.0-1.5","16769","ListB","man","chinese","SW-C-M-B4","","","","null","","","","","",""
"null","正在看着","","html-keyboard-response","162","21679675","0.0-15.0-2.5","16769","ListB","man","chinese","SW-C-M-B4","","","","null","","","","","",""
"31117.700000047684","","","survey-text","163","21710792","0.0-15.0-3.5","16769","ListB","man","chinese","SW-C-M-B4","","","","","{""Q0"":""贝斯正在看着麦克""}","<img src='gifs/BlackGender2b.gif' style='height:400px;''></img>","看着","正在看着","chinese",""
"null","<div style=""font-size:60px;"">+</div>","","html-keyboard-response","164","21711296","0.0-15.0-0.6","16769","ListB","man","chinese","SW-C-M-B4","","","","null","","","","","",""
"null","<img src='gifs/MaleRace1a.gif' style='height:400px;''></img>","","html-keyboard-response","165","21713311","0.0-15.0-1.6","16769","ListB","man","chinese","SW-C-M-B4","","","","null","","","","","",""
"null","正在介绍","","html-keyboard-response","166","21716329","0.0-15.0-2.6","16769","ListB","man","chinese","SW-C-M-B4","","","","null","","","","","",""
"22053","","","survey-text","167","21738386","0.0-15.0-3.6","16769","ListB","man","chinese","SW-C-M-B4","","","","","{""Q0"":""浩克正在介绍弗雷""}","<img src='gifs/MaleRace1a.gif' style='height:400px;''></img>","介绍","正在介绍","chinese",""
"null","<div style=""font-size:60px;"">+</div>","","html-keyboard-response","168","21738890","0.0-15.0-0.7","16769","ListB","man","chinese","SW-C-M-B4","","","","null","","","","","",""
"null","<img src='gifs/MaleRace4b.gif' style='height:400px;''></img>","","html-keyboard-response","169","21740919","0.0-15.0-1.7","16769","ListB","man","chinese","SW-C-M-B4","","","","null","","","","","",""
"null","正在提到","","html-keyboard-response","170","21743939","0.0-15.0-2.7","16769","ListB","man","chinese","SW-C-M-B4","","","","null","","","","","",""
"16762.199999809265","","","survey-text","171","21760705","0.0-15.0-3.7","16769","ListB","man","chinese","SW-C-M-B4","","","","","{""Q0"":""戴夫正在提到麦克""}","<img src='gifs/MaleRace4b.gif' style='height:400px;''></img>","提到","正在提到","chinese",""
"null","<div style=""font-size:60px;"">+</div>","","html-keyboard-response","172","21761218","0.0-15.0-0.8","16769","ListB","man","chinese","SW-C-M-B4","","","","null","","","","","",""
"null","<img src='gifs/MaleRace3a.gif' style='height:400px;''></img>","","html-keyboard-response","173","21763235","0.0-15.0-1.8","16769","ListB","man","chinese","SW-C-M-B4","","","","null","","","","","",""
"null","正在答应","","html-keyboard-response","174","21766259","0.0-15.0-2.8","16769","ListB","man","chinese","SW-C-M-B4","","","","null","","","","","",""
"138651.90000009537","","","survey-text","175","21904911","0.0-15.0-3.8","16769","ListB","man","chinese","SW-C-M-B4","","","","","{""Q0"":""弗雷正在答应麦克""}","<img src='gifs/MaleRace3a.gif' style='height:400px;''></img>","答应","正在答应","chinese",""
"null","<div style=""font-size:60px;"">+</div>","","html-keyboard-response","176","21905424","0.0-15.0-0.9","16769","ListB","man","chinese","SW-C-M-B4","","","","null","","","","","",""
"null","<img src='gifs/ChineseGender2b.gif' style='height:400px;''></img>","","html-keyboard-response","177","21907434","0.0-15.0-1.9","16769","ListB","man","chinese","SW-C-M-B4","","","","null","","","","","",""
"null","正在说服","","html-keyboard-response","178","21910464","0.0-15.0-2.9","16769","ListB","man","chinese","SW-C-M-B4","","","","null","","","","","",""
"12191.799999952316","","","survey-text","179","21922659","0.0-15.0-3.9","16769","ListB","man","chinese","SW-C-M-B4","","","","","{""Q0"":""浩克正在说服露丝""}","<img src='gifs/ChineseGender2b.gif' style='height:400px;''></img>","说服","正在说服","chinese",""
"null","<div style=""font-size:60px;"">+</div>","","html-keyboard-response","180","21923164","0.0-15.0-0.10","16769","ListB","man","chinese","SW-C-M-B4","","","","null","","","","","",""
"null","<img src='gifs/ChineseGender4b.gif' style='height:400px;''></img>","","html-keyboard-response","181","21925176","0.0-15.0-1.10","16769","ListB","man","chinese","SW-C-M-B4","","","","null","","","","","",""
"null","正在答应","","html-keyboard-response","182","21928188","0.0-15.0-2.10","16769","ListB","man","chinese","SW-C-M-B4","","","","null","","","","","",""
"14244.399999856949","","","survey-text","183","21942438","0.0-15.0-3.10","16769","ListB","man","chinese","SW-C-M-B4","","","","","{""Q0"":""戴夫正在答应霍普""}","<img src='gifs/ChineseGender4b.gif' style='height:400px;''></img>","答应","正在答应","chinese",""
"null","<div style=""font-size:60px;"">+</div>","","html-keyboard-response","184","21942954","0.0-15.0-0.11","16769","ListB","man","chinese","SW-C-M-B4","","","","null","","","","","",""
"null","<img src='gifs/ChineseGender4a.gif' style='height:400px;''></img>","","html-keyboard-response","185","21944971","0.0-15.0-1.11","16769","ListB","man","chinese","SW-C-M-B4","","","","null","","","","","",""
"null","正在加入","","html-keyboard-response","186","21948006","0.0-15.0-2.11","16769","ListB","man","chinese","SW-C-M-B4","","","","null","","","","","",""
"14143.200000047684","","","survey-text","187","21962157","0.0-15.0-3.11","16769","ListB","man","chinese","SW-C-M-B4","","","","","{""Q0"":""霍普正在加入戴夫""}","<img src='gifs/ChineseGender4a.gif' style='height:400px;''></img>","加入","正在加入","chinese",""
"null","<div style=""font-size:60px;"">+</div>","","html-keyboard-response","188","21962667","0.0-15.0-0.12","16769","ListB","man","chinese","SW-C-M-B4","","","","null","","","","","",""
"null","<img src='gifs/MaleRace1b.gif' style='height:400px;''></img>","","html-keyboard-response","189","21964681","0.0-15.0-1.12","16769","ListB","man","chinese","SW-C-M-B4","","","","null","","","","","",""
"null","正在接近","","html-keyboard-response","190","21967711","0.0-15.0-2.12","16769","ListB","man","chinese","SW-C-M-B4","","","","null","","","","","",""
"9590.799999952316","","","survey-text","191","21977306","0.0-15.0-3.12","16769","ListB","man","chinese","SW-C-M-B4","","","","","{""Q0"":""浩克正在接近弗雷""}","<img src='gifs/MaleRace1b.gif' style='height:400px;''></img>","接近","正在接近","chinese",""
"null","<div style=""font-size:60px;"">+</div>","","html-keyboard-response","192","21977809","0.0-15.0-0.13","16769","ListB","man","chinese","SW-C-M-B4","","","","null","","","","","",""
"null","<img src='gifs/BlackGender2a.gif' style='height:400px;''></img>","","html-keyboard-response","193","21979833","0.0-15.0-1.13","16769","ListB","man","chinese","SW-C-M-B4","","","","null","","","","","",""
"null","正在聆听","","html-keyboard-response","194","21982870","0.0-15.0-2.13","16769","ListB","man","chinese","SW-C-M-B4","","","","null","","","","","",""
"35158.59999990463","","","survey-text","195","22018036","0.0-15.0-3.13","16769","ListB","man","chinese","SW-C-M-B4","","","","","{""Q0"":""麦克正在聆听贝斯""}","<img src='gifs/BlackGender2a.gif' style='height:400px;''></img>","聆听","正在聆听","chinese",""
"null","<div style=""font-size:60px;"">+</div>","","html-keyboard-response","196","22018543","0.0-15.0-0.14","16769","ListB","man","chinese","SW-C-M-B4","","","","null","","","","","",""
"null","<img src='gifs/FemaleRace3a.gif' style='height:400px;''></img>","","html-keyboard-response","197","22020580","0.0-15.0-1.14","16769","ListB","man","chinese","SW-C-M-B4","","","","null","","","","","",""
"null","正在触摸","","html-keyboard-response","198","22023600","0.0-15.0-2.14","16769","ListB","man","chinese","SW-C-M-B4","","","","null","","","","","",""
"19835.900000095367","","","survey-text","199","22043439","0.0-15.0-3.14","16769","ListB","man","chinese","SW-C-M-B4","","","","","{""Q0"":""露丝正在触摸贝斯""}","<img src='gifs/FemaleRace3a.gif' style='height:400px;''></img>","触摸","正在触摸","chinese",""
"null","<div style=""font-size:60px;"">+</div>","","html-keyboard-response","200","22043944","0.0-15.0-0.15","16769","ListB","man","chinese","SW-C-M-B4","","","","null","","","","","",""
"null","<img src='gifs/MaleRace1b.gif' style='height:400px;''></img>","","html-keyboard-response","201","22045948","0.0-15.0-1.15","16769","ListB","man","chinese","SW-C-M-B4","","","","null","","","","","",""
"null","正在介绍","","html-keyboard-response","202","22048994","0.0-15.0-2.15","16769","ListB","man","chinese","SW-C-M-B4","","","","null","","","","","",""
"10106.299999952316","","","survey-text","203","22059105","0.0-15.0-3.15","16769","ListB","man","chinese","SW-C-M-B4","","","","","{""Q0"":""浩克正在介绍弗雷""}","<img src='gifs/MaleRace1b.gif' style='height:400px;''></img>","介绍","正在介绍","chinese",""
"null","<div style=""font-size:60px;"">+</div>","","html-keyboard-response","204","22059639","0.0-15.0-0.16","16769","ListB","man","chinese","SW-C-M-B4","","","","null","","","","","",""
"null","<img src='gifs/FemaleRace4b.gif' style='height:400px;''></img>","","html-keyboard-response","205","22061671","0.0-15.0-1.16","16769","ListB","man","chinese","SW-C-M-B4","","","","null","","","","","",""
"null","正在聘用","","html-keyboard-response","206","22064710","0.0-15.0-2.16","16769","ListB","man","chinese","SW-C-M-B4","","","","null","","","","","",""
"10891.700000047684","","","survey-text","207","22075594","0.0-15.0-3.16","16769","ListB","man","chinese","SW-C-M-B4","","","","","{""Q0"":""露丝正在""}","<img src='gifs/FemaleRace4b.gif' style='height:400px;''></img>","聘用","正在聘用","chinese",""
"null","<div style=""font-size:60px;"">+</div>","","html-keyboard-response","208","22076107","0.0-15.0-0.17","16769","ListB","man","chinese","SW-C-M-B4","","","","null","","","","","",""
"null","<img src='gifs/BlackGender1a.gif' style='height:400px;''></img>","","html-keyboard-response","209","22078125","0.0-15.0-1.17","16769","ListB","man","chinese","SW-C-M-B4","","","","null","","","","","",""
"null","正在加入","","html-keyboard-response","210","22081160","0.0-15.0-2.17","16769","ListB","man","chinese","SW-C-M-B4","","","","null","","","","","",""
"15228.5","","","survey-text","211","22096392","0.0-15.0-3.17","16769","ListB","man","chinese","SW-C-M-B4","","","","","{""Q0"":""贝斯正在加入弗雷""}","<img src='gifs/BlackGender1a.gif' style='height:400px;''></img>","加入","正在加入","chinese",""
"125589.70000004768","<img src='img/portrait_matrix_listB_chinese.jpg' style='width:900px;height:500px;''></img><p>如果您已经记住了所有的人物和名字，请点击继续。</p><p><strong>请注意：您对先前记忆的面孔将在本实验中被测试5次。</strong></p>","0","html-button-response","212","22221989","0.0-16.0-0.0","16769","ListB","man","chinese","SW-C-M-B4","","","","","","","","","",""
"6033.600000143051","<img src=""portrait/BW1.jpg""style=""height:400px;""></img>","0","html-button-response","213","22229041","0.0-16.0-1.0","16769","ListB","man","chinese","SW-C-M-B4","","true","0","","","","","","",""
"null","正确","","html-keyboard-response","214","22230569","0.0-16.0-2.0-0.0","16769","ListB","man","chinese","SW-C-M-B4","","","","null","","","","","",""
"2289.0999999046326","<img src=""portrait/WW2.jpg""style=""height:400px;""></img>","3","html-button-response","215","22232861","0.0-16.0-4.0","16769","ListB","man","chinese","SW-C-M-B4","","true","3","","","","","","",""
"null","正确","","html-keyboard-response","216","22234438","0.0-16.0-5.0-0.0","16769","ListB","man","chinese","SW-C-M-B4","","","","null","","","","","",""
"2162.5","<img src=""portrait/BM2.jpg""style=""height:400px;""></img>","5","html-button-response","217","22236603","0.0-16.0-7.0","16769","ListB","man","chinese","SW-C-M-B4","","true","5","","","","","","",""
"null","正确","","html-keyboard-response","218","22238137","0.0-16.0-8.0-0.0","16769","ListB","man","chinese","SW-C-M-B4","","","","null","","","","","",""
"5574.799999952316","<img src=""portrait/BM1.jpg""style=""height:400px;""></img>","4","html-button-response","219","22243714","0.0-16.0-10.0","16769","ListB","man","chinese","SW-C-M-B4","","true","4","","","","","","",""
"null","正确","","html-keyboard-response","220","22245244","0.0-16.0-11.0-0.0","16769","ListB","man","chinese","SW-C-M-B4","","","","null","","","","","",""
"2834.600000143051","<img src=""portrait/WW1.jpg""style=""height:400px;""></img>","1","html-button-response","221","22248081","0.0-16.0-13.0","16769","ListB","man","chinese","SW-C-M-B4","","true","1","","","","","","",""
"null","正确","","html-keyboard-response","222","22249646","0.0-16.0-14.0-0.0","16769","ListB","man","chinese","SW-C-M-B4","","","","null","","","","","",""
"3582.7999999523163","<img src=""portrait/WM1.jpg""style=""height:400px;""></img>","6","html-button-response","223","22253231","0.0-16.0-16.0","16769","ListB","man","chinese","SW-C-M-B4","","true","6","","","","","","",""
"null","正确","","html-keyboard-response","224","22254736","0.0-16.0-17.0-0.0","16769","ListB","man","chinese","SW-C-M-B4","","","","null","","","","","",""
"3575.2000000476837","<img src=""portrait/BW2.jpg""style=""height:400px;""></img>","2","html-button-response","225","22258314","0.0-16.0-19.0","16769","ListB","man","chinese","SW-C-M-B4","","true","2","","","","","","",""
"null","正确","","html-keyboard-response","226","22259843","0.0-16.0-20.0-0.0","16769","ListB","man","chinese","SW-C-M-B4","","","","null","","","","","",""
"3728.399999856949","<img src=""portrait/WM2.jpg""style=""height:400px;""></img>","7","html-button-response","227","22263574","0.0-16.0-22.0","16769","ListB","man","chinese","SW-C-M-B4","","true","7","","","","","","",""
"null","正确","","html-keyboard-response","228","22265101","0.0-16.0-23.0-0.0","16769","ListB","man","chinese","SW-C-M-B4","","","","null","","","","","",""
"1602.5","<p>您第一次在8题里答对了 8 题。 请点击继续</p>","0","html-button-response","229","22266705","0.0-16.0-25.0","16769","ListB","man","chinese","SW-C-M-B4","","","","","","","","","",""
"null","<div style=""font-size:60px;"">+</div>","","html-keyboard-response","230","22268226","0.0-17.0-0.0","16769","ListB","man","chinese","SW-C-M-B4","","","","null","","","","","",""
"null","<img src='gifs/FemaleRace2a.gif' style='height:400px;''></img>","","html-keyboard-response","231","22270259","0.0-17.0-1.0","16769","ListB","man","chinese","SW-C-M-B4","","","","null","","","","","",""
"null","正在面向","","html-keyboard-response","232","22273296","0.0-17.0-2.0","16769","ListB","man","chinese","SW-C-M-B4","","","","null","","","","","",""
"38629.799999952316","","","survey-text","233","22311936","0.0-17.0-3.0","16769","ListB","man","chinese","SW-C-M-B4","","","","","{""Q0"":""凯特正在面向霍普""}","<img src='gifs/FemaleRace2a.gif' style='height:400px;''></img>","面向","正在面向","chinese",""
"null","<div style=""font-size:60px;"">+</div>","","html-keyboard-response","234","22312451","0.0-17.0-0.1","16769","ListB","man","chinese","SW-C-M-B4","","","","null","","","","","",""
"null","<img src='gifs/ChineseGender2a.gif' style='height:400px;''></img>","","html-keyboard-response","235","22314468","0.0-17.0-1.1","16769","ListB","man","chinese","SW-C-M-B4","","","","null","","","","","",""
"null","正在联系","","html-keyboard-response","236","22317487","0.0-17.0-2.1","16769","ListB","man","chinese","SW-C-M-B4","","","","null","","","","","",""
"10293.400000095367","","","survey-text","237","22327784","0.0-17.0-3.1","16769","ListB","man","chinese","SW-C-M-B4","","","","","{""Q0"":""卢克正在联系露丝""}","<img src='gifs/ChineseGender2a.gif' style='height:400px;''></img>","联系","正在联系","chinese",""
"null","<div style=""font-size:60px;"">+</div>","","html-keyboard-response","238","22328298","0.0-17.0-0.2","16769","ListB","man","chinese","SW-C-M-B4","","","","null","","","","","",""
"null","<img src='gifs/ChineseGender1a.gif' style='height:400px;''></img>","","html-keyboard-response","239","22330302","0.0-17.0-1.2","16769","ListB","man","chinese","SW-C-M-B4","","","","null","","","","","",""
"null","正在表扬","","html-keyboard-response","240","22333320","0.0-17.0-2.2","16769","ListB","man","chinese","SW-C-M-B4","","","","null","","","","","",""
"14666.200000047684","","","survey-text","241","22347987","0.0-17.0-3.2","16769","ListB","man","chinese","SW-C-M-B4","","","","","{""Q0"":""卢克正在表扬霍普""}","<img src='gifs/ChineseGender1a.gif' style='height:400px;''></img>","表扬","正在表扬","chinese",""
"null","<div style=""font-size:60px;"">+</div>","","html-keyboard-response","242","22348493","0.0-17.0-0.3","16769","ListB","man","chinese","SW-C-M-B4","","","","null","","","","","",""
"null","<img src='gifs/MaleRace3a.gif' style='height:400px;''></img>","","html-keyboard-response","243","22350510","0.0-17.0-1.3","16769","ListB","man","chinese","SW-C-M-B4","","","","null","","","","","",""
"null","正在面向","","html-keyboard-response","244","22353545","0.0-17.0-2.3","16769","ListB","man","chinese","SW-C-M-B4","","","","null","","","","","",""
"33966.199999809265","","","survey-text","245","22387517","0.0-17.0-3.3","16769","ListB","man","chinese","SW-C-M-B4","","","","","{""Q0"":""弗雷正在面向戴夫""}","<img src='gifs/MaleRace3a.gif' style='height:400px;''></img>","面向","正在面向","chinese",""
"null","<div style=""font-size:60px;"">+</div>","","html-keyboard-response","246","22388019","0.0-17.0-0.4","16769","ListB","man","chinese","SW-C-M-B4","","","","null","","","","","",""
"null","<img src='gifs/BlackGender3a.gif' style='height:400px;''></img>","","html-keyboard-response","247","22390049","0.0-17.0-1.4","16769","ListB","man","chinese","SW-C-M-B4","","","","null","","","","","",""
"null","正在看着","","html-keyboard-response","248","22393080","0.0-17.0-2.4","16769","ListB","man","chinese","SW-C-M-B4","","","","null","","","","","",""
"9924","","","survey-text","249","22403007","0.0-17.0-3.4","16769","ListB","man","chinese","SW-C-M-B4","","","","","{""Q0"":""凯特正在看着弗雷""}","<img src='gifs/BlackGender3a.gif' style='height:400px;''></img>","看着","正在看着","chinese",""
"null","<div style=""font-size:60px;"">+</div>","","html-keyboard-response","250","22403520","0.0-17.0-0.5","16769","ListB","man","chinese","SW-C-M-B4","","","","null","","","","","",""
"null","<img src='gifs/FemaleRace1b.gif' style='height:400px;''></img>","","html-keyboard-response","251","22405564","0.0-17.0-1.5","16769","ListB","man","chinese","SW-C-M-B4","","","","null","","","","","",""
"null","正在加入","","html-keyboard-response","252","22408580","0.0-17.0-2.5","16769","ListB","man","chinese","SW-C-M-B4","","","","null","","","","","",""
"26538.599999904633","","","survey-text","253","22435124","0.0-17.0-3.5","16769","ListB","man","chinese","SW-C-M-B4","","","","","{""Q0"":""贝斯正在加入霍普""}","<img src='gifs/FemaleRace1b.gif' style='height:400px;''></img>","加入","正在加入","chinese",""
"null","<div style=""font-size:60px;"">+</div>","","html-keyboard-response","254","22435630","0.0-17.0-0.6","16769","ListB","man","chinese","SW-C-M-B4","","","","null","","","","","",""
"null","<img src='gifs/MaleRace3b.gif' style='height:400px;''></img>","","html-keyboard-response","255","22437643","0.0-17.0-1.6","16769","ListB","man","chinese","SW-C-M-B4","","","","null","","","","","",""
"null","正在提到","","html-keyboard-response","256","22440667","0.0-17.0-2.6","16769","ListB","man","chinese","SW-C-M-B4","","","","null","","","","","",""
"66061.5","","","survey-text","257","22506742","0.0-17.0-3.6","16769","ListB","man","chinese","SW-C-M-B4","","","","","{""Q0"":""弗雷正在提到戴夫""}","<img src='gifs/MaleRace3b.gif' style='height:400px;''></img>","提到","正在提到","chinese",""
"null","<div style=""font-size:60px;"">+</div>","","html-keyboard-response","258","22507251","0.0-17.0-0.7","16769","ListB","man","chinese","SW-C-M-B4","","","","null","","","","","",""
"null","<img src='gifs/BlackGender3a.gif' style='height:400px;''></img>","","html-keyboard-response","259","22509266","0.0-17.0-1.7","16769","ListB","man","chinese","SW-C-M-B4","","","","null","","","","","",""
"null","正在跟随","","html-keyboard-response","260","22512274","0.0-17.0-2.7","16769","ListB","man","chinese","SW-C-M-B4","","","","null","","","","","",""
"21167.5","","","survey-text","261","22533445","0.0-17.0-3.7","16769","ListB","man","chinese","SW-C-M-B4","","","","","{""Q0"":""凯特正在跟随弗雷""}","<img src='gifs/BlackGender3a.gif' style='height:400px;''></img>","跟随","正在跟随","chinese",""
"null","<div style=""font-size:60px;"">+</div>","","html-keyboard-response","262","22533956","0.0-17.0-0.8","16769","ListB","man","chinese","SW-C-M-B4","","","","null","","","","","",""
"null","<img src='gifs/MaleRace1a.gif' style='height:400px;''></img>","","html-keyboard-response","263","22535966","0.0-17.0-1.8","16769","ListB","man","chinese","SW-C-M-B4","","","","null","","","","","",""
"null","正在看着","","html-keyboard-response","264","22539000","0.0-17.0-2.8","16769","ListB","man","chinese","SW-C-M-B4","","","","null","","","","","",""
"9889.5","","","survey-text","265","22548895","0.0-17.0-3.8","16769","ListB","man","chinese","SW-C-M-B4","","","","","{""Q0"":""卢克正在看着弗雷""}","<img src='gifs/MaleRace1a.gif' style='height:400px;''></img>","看着","正在看着","chinese",""
"null","<div style=""font-size:60px;"">+</div>","","html-keyboard-response","266","22549411","0.0-17.0-0.9","16769","ListB","man","chinese","SW-C-M-B4","","","","null","","","","","",""
"null","<img src='gifs/FemaleRace1b.gif' style='height:400px;''></img>","","html-keyboard-response","267","22551428","0.0-17.0-1.9","16769","ListB","man","chinese","SW-C-M-B4","","","","null","","","","","",""
"null","正在跟随","","html-keyboard-response","268","22554460","0.0-17.0-2.9","16769","ListB","man","chinese","SW-C-M-B4","","","","null","","","","","",""
"16485.099999904633","","","survey-text","269","22570949","0.0-17.0-3.9","16769","ListB","man","chinese","SW-C-M-B4","","","","","{""Q0"":""贝斯正在跟随霍普夫·""}","<img src='gifs/FemaleRace1b.gif' style='height:400px;''></img>","跟随","正在跟随","chinese",""
"null","<div style=""font-size:60px;"">+</div>","","html-keyboard-response","270","22571453","0.0-17.0-0.10","16769","ListB","man","chinese","SW-C-M-B4","","","","null","","","","","",""
"null","<img src='gifs/FemaleRace2b.gif' style='height:400px;''></img>","","html-keyboard-response","271","22573475","0.0-17.0-1.10","16769","ListB","man","chinese","SW-C-M-B4","","","","null","","","","","",""
"null","正在走向","","html-keyboard-response","272","22576505","0.0-17.0-2.10","16769","ListB","man","chinese","SW-C-M-B4","","","","null","","","","","",""
"11954.700000047684","","","survey-text","273","22588456","0.0-17.0-3.10","16769","ListB","man","chinese","SW-C-M-B4","","","","","{""Q0"":""霍普正在走向凯特""}","<img src='gifs/FemaleRace2b.gif' style='height:400px;''></img>","走向","正在走向","chinese",""
"null","<div style=""font-size:60px;"">+</div>","","html-keyboard-response","274","22588965","0.0-17.0-0.11","16769","ListB","man","chinese","SW-C-M-B4","","","","null","","","","","",""
"null","<img src='gifs/FemaleRace2b.gif' style='height:400px;''></img>","","html-keyboard-response","275","22590982","0.0-17.0-1.11","16769","ListB","man","chinese","SW-C-M-B4","","","","null","","","","","",""
"null","正在陪伴","","html-keyboard-response","276","22594015","0.0-17.0-2.11","16769","ListB","man","chinese","SW-C-M-B4","","","","null","","","","","",""
"9260.400000095367","","","survey-text","277","22603281","0.0-17.0-3.11","16769","ListB","man","chinese","SW-C-M-B4","","","","","{""Q0"":""凯特正在陪伴霍普""}","<img src='gifs/FemaleRace2b.gif' style='height:400px;''></img>","陪伴","正在陪伴","chinese",""
"null","<div style=""font-size:60px;"">+</div>","","html-keyboard-response","278","22603786","0.0-17.0-0.12","16769","ListB","man","chinese","SW-C-M-B4","","","","null","","","","","",""
"null","<img src='gifs/FemaleRace4a.gif' style='height:400px;''></img>","","html-keyboard-response","279","22605802","0.0-17.0-1.12","16769","ListB","man","chinese","SW-C-M-B4","","","","null","","","","","",""
"null","正在答应","","html-keyboard-response","280","22608815","0.0-17.0-2.12","16769","ListB","man","chinese","SW-C-M-B4","","","","null","","","","","",""
"8969.100000143051","","","survey-text","281","22617789","0.0-17.0-3.12","16769","ListB","man","chinese","SW-C-M-B4","","","","","{""Q0"":""露丝正在答应凯特""}","<img src='gifs/FemaleRace4a.gif' style='height:400px;''></img>","答应","正在答应","chinese",""
"null","<div style=""font-size:60px;"">+</div>","","html-keyboard-response","282","22618295","0.0-17.0-0.13","16769","ListB","man","chinese","SW-C-M-B4","","","","null","","","","","",""
"null","<img src='gifs/ChineseGender1a.gif' style='height:400px;''></img>","","html-keyboard-response","283","22620298","0.0-17.0-1.13","16769","ListB","man","chinese","SW-C-M-B4","","","","null","","","","","",""
"null","正在触摸","","html-keyboard-response","284","22623334","0.0-17.0-2.13","16769","ListB","man","chinese","SW-C-M-B4","","","","null","","","","","",""
"13129.600000143051","","","survey-text","285","22636468","0.0-17.0-3.13","16769","ListB","man","chinese","SW-C-M-B4","","","","","{""Q0"":""凯特正在触摸卢克""}","<img src='gifs/ChineseGender1a.gif' style='height:400px;''></img>","触摸","正在触摸","chinese",""
"null","<div style=""font-size:60px;"">+</div>","","html-keyboard-response","286","22636979","0.0-17.0-0.14","16769","ListB","man","chinese","SW-C-M-B4","","","","null","","","","","",""
"null","<img src='gifs/ChineseGender1b.gif' style='height:400px;''></img>","","html-keyboard-response","287","22638996","0.0-17.0-1.14","16769","ListB","man","chinese","SW-C-M-B4","","","","null","","","","","",""
"null","正在聆听","","html-keyboard-response","288","22642022","0.0-17.0-2.14","16769","ListB","man","chinese","SW-C-M-B4","","","","null","","","","","",""
"10385.900000095367","","","survey-text","289","22652413","0.0-17.0-3.14","16769","ListB","man","chinese","SW-C-M-B4","","","","","{""Q0"":""卢克正在聆听凯特""}","<img src='gifs/ChineseGender1b.gif' style='height:400px;''></img>","聆听","正在聆听","chinese",""
"null","<div style=""font-size:60px;"">+</div>","","html-keyboard-response","290","22652928","0.0-17.0-0.15","16769","ListB","man","chinese","SW-C-M-B4","","","","null","","","","","",""
"null","<img src='gifs/ChineseGender3b.gif' style='height:400px;''></img>","","html-keyboard-response","291","22654945","0.0-17.0-1.15","16769","ListB","man","chinese","SW-C-M-B4","","","","null","","","","","",""
"null","正在提到","","html-keyboard-response","292","22657981","0.0-17.0-2.15","16769","ListB","man","chinese","SW-C-M-B4","","","","null","","","","","",""
"42177","","","survey-text","293","22700163","0.0-17.0-3.15","16769","ListB","man","chinese","SW-C-M-B4","","","","","{""Q0"":""戴夫正在提到露丝""}","<img src='gifs/ChineseGender3b.gif' style='height:400px;''></img>","提到","正在提到","chinese",""
"null","<div style=""font-size:60px;"">+</div>","","html-keyboard-response","294","22700671","0.0-17.0-0.16","16769","ListB","man","chinese","SW-C-M-B4","","","","null","","","","","",""
"null","<img src='gifs/MaleRace2a.gif' style='height:400px;''></img>","","html-keyboard-response","295","22702689","0.0-17.0-1.16","16769","ListB","man","chinese","SW-C-M-B4","","","","null","","","","","",""
"null","正在看着","","html-keyboard-response","296","22705717","0.0-17.0-2.16","16769","ListB","man","chinese","SW-C-M-B4","","","","null","","","","","",""
"16310.099999904633","","","survey-text","297","22722031","0.0-17.0-3.16","16769","ListB","man","chinese","SW-C-M-B4","","","","","{""Q0"":""卢克正在看着麦克""}","<img src='gifs/MaleRace2a.gif' style='height:400px;''></img>","看着","正在看着","chinese",""
"null","<div style=""font-size:60px;"">+</div>","","html-keyboard-response","298","22722539","0.0-17.0-0.17","16769","ListB","man","chinese","SW-C-M-B4","","","","null","","","","","",""
"null","<img src='gifs/MaleRace4a.gif' style='height:400px;''></img>","","html-keyboard-response","299","22724552","0.0-17.0-1.17","16769","ListB","man","chinese","SW-C-M-B4","","","","null","","","","","",""
"null","正在走向","","html-keyboard-response","300","22727589","0.0-17.0-2.17","16769","ListB","man","chinese","SW-C-M-B4","","","","null","","","","","",""
"11905.199999809265","","","survey-text","301","22739500","0.0-17.0-3.17","16769","ListB","man","chinese","SW-C-M-B4","","","","","{""Q0"":""麦克正在走向戴夫""}","<img src='gifs/MaleRace4a.gif' style='height:400px;''></img>","走向","正在走向","chinese",""
"41958.89999985695","<p>Thank you for completing that task.</p><p>The final part of this session is a short questionnaire.</p><p>Press Continue.</p>","0","html-button-response","302","22781461","0.0-18.0","16769","ListB","man","chinese","SW-C-M-B4","","","","","","","","","",""
"345526.30000019073","","","survey-text","303","23128010","0.0-19.0","16769","ListB","man","chinese","SW-C-M-B4","","","","","{""Q0"":""20"",""Q1"":""chinese"",""Q2"":""chinese"",""Q3"":""China"",""Q4"":""China"",""Q5"":""SW-C-M-B4"",""Q6"":""man""}","","","","","demographics"
"58483","<p>Have you lived in the UK for the last 5 years or more?</p>","1","html-button-response","304","23186494","0.0-20.0","16769","ListB","man","chinese","SW-C-M-B4","","","","","","","","","","fiveyears"
"129426.70000004768","","","external-html","305","23317832","0.0-21.0","16769","ListB","man","chinese","SW-C-M-B4","debrief.html","","","","","","","","",""
"76316","","","survey-text","306","23394167","0.0-22.0","16769","ListB","man","chinese","SW-C-M-B4","","","","","{""ptpt_id"":""SW-C-M-B4""}","","","","","worker_id"
