"rt","stimulus","button_pressed","trial_type","trial_index","time_elapsed","internal_node_id","subject","list","ppt_gender","ppt_language","ptptID","url","first_guess","correct","key_press","responses","image","verb","phrase","condition","test_part"
"11284.800000190735","Welcome to the experiment. Press Continue to begin.","0","html-button-response","0","11286","0.0-0.0","24789","ListB","woman","chinese","SW_C_F_B8","","","","","","","","","",""
"181964.80000019073","","","external-html","1","193256","0.0-1.0","24789","ListB","woman","chinese","SW_C_F_B8","consent.html","","","","","","","","",""
"23210.199999809265","<p>在下一页中，您将看到8个人物肖像和他们各自的名字。</p><p>请花费几分钟的时间记住这些人物及其所对应的名字。</p><p>之后的实验中需要您对人物的名字做出回忆，</p><p>因此在实验开始前请确保您已 经完全记住这些人物及其所对应的名字。</p><p><strong>然后您将完成一个测试以检验您对人物和名字的记忆。</strong></p><p>完成此记忆测试后，您将正式进入实验。</p><p>准备好了吗？</p>","0","html-button-response","2","216468","0.0-2.0","24789","ListB","woman","chinese","SW_C_F_B8","","","","","","","","","",""
"243034.79999995232","<img src='img/portrait_matrix_listB_chinese.jpg' style='width:900px;height:500px;''></img><p>如果您已经记住了所有的人物和名字，请点击继续。</p><p><strong>请注意：您对先前记忆的面孔将在本实验中被测试5次。</strong></p>","0","html-button-response","3","460517","0.0-3.0-0.0","24789","ListB","woman","chinese","SW_C_F_B8","","","","","","","","","",""
"4174.100000143051","<img src=""portrait/WM1.jpg""style=""height:400px;""></img>","6","html-button-response","4","465694","0.0-3.0-1.0","24789","ListB","woman","chinese","SW_C_F_B8","","true","6","","","","","","",""
"null","正确","","html-keyboard-response","5","467198","0.0-3.0-2.0-0.0","24789","ListB","woman","chinese","SW_C_F_B8","","","","null","","","","","",""
"3428.4000000953674","<img src=""portrait/BM2.jpg""style=""height:400px;""></img>","5","html-button-response","6","470628","0.0-3.0-4.0","24789","ListB","woman","chinese","SW_C_F_B8","","true","5","","","","","","",""
"null","正确","","html-keyboard-response","7","472135","0.0-3.0-5.0-0.0","24789","ListB","woman","chinese","SW_C_F_B8","","","","null","","","","","",""
"6973.400000095367","<img src=""portrait/BM1.jpg""style=""height:400px;""></img>","4","html-button-response","8","479111","0.0-3.0-7.0","24789","ListB","woman","chinese","SW_C_F_B8","","true","4","","","","","","",""
"null","正确","","html-keyboard-response","9","480615","0.0-3.0-8.0-0.0","24789","ListB","woman","chinese","SW_C_F_B8","","","","null","","","","","",""
"3316.2000000476837","<img src=""portrait/WW2.jpg""style=""height:400px;""></img>","3","html-button-response","10","483933","0.0-3.0-10.0","24789","ListB","woman","chinese","SW_C_F_B8","","true","3","","","","","","",""
"null","正确","","html-keyboard-response","11","485450","0.0-3.0-11.0-0.0","24789","ListB","woman","chinese","SW_C_F_B8","","","","null","","","","","",""
"4736","<img src=""portrait/BW2.jpg""style=""height:400px;""></img>","2","html-button-response","12","490188","0.0-3.0-13.0","24789","ListB","woman","chinese","SW_C_F_B8","","true","2","","","","","","",""
"null","正确","","html-keyboard-response","13","491712","0.0-3.0-14.0-0.0","24789","ListB","woman","chinese","SW_C_F_B8","","","","null","","","","","",""
"12214.200000047684","<img src=""portrait/WM2.jpg""style=""height:400px;""></img>","7","html-button-response","14","503928","0.0-3.0-16.0","24789","ListB","woman","chinese","SW_C_F_B8","","true","7","","","","","","",""
"null","正确","","html-keyboard-response","15","505434","0.0-3.0-17.0-0.0","24789","ListB","woman","chinese","SW_C_F_B8","","","","null","","","","","",""
"3270.5999999046326","<img src=""portrait/WW1.jpg""style=""height:400px;""></img>","1","html-button-response","16","508706","0.0-3.0-19.0","24789","ListB","woman","chinese","SW_C_F_B8","","true","1","","","","","","",""
"null","正确","","html-keyboard-response","17","510213","0.0-3.0-20.0-0.0","24789","ListB","woman","chinese","SW_C_F_B8","","","","null","","","","","",""
"6778.599999904633","<img src=""portrait/BW1.jpg""style=""height:400px;""></img>","0","html-button-response","18","516993","0.0-3.0-22.0","24789","ListB","woman","chinese","SW_C_F_B8","","true","0","","","","","","",""
"null","正确","","html-keyboard-response","19","518510","0.0-3.0-23.0-0.0","24789","ListB","woman","chinese","SW_C_F_B8","","","","null","","","","","",""
"1765.2000000476837","<p>您第一次在8题里答对了 8 题。 请点击继续</p>","0","html-button-response","20","520278","0.0-3.0-25.0","24789","ListB","woman","chinese","SW_C_F_B8","","","","","","","","","",""
"77195.20000004768","<p>此次实验您将会看到先前记忆任务里的人物照片。</p><p>人物照片消失后您将看到一个动词短语，请正确回忆人物的名字并用特定的 动词短语组成一句完整的句子。</p><p>请在指定的框内输入您的答案。在进入下一题之前请确保您填写了完整的句子。</p><p>人物照片和动词短语只会在屏幕上出现几秒钟，因此请您答题时尽量集中注意力。</p><p>以下是例子。请您在准备好后按下“继续”。</p><img src='img/chinese_speaking_example.jpg' style='width:800px;height:460px;''></img>","0","html-button-response","21","598487","0.0-4.0","24789","ListB","woman","chinese","SW_C_F_B8","","","","","","","","","",""
"2224.5","<p>在实验开始前，将为您展示两个示例实验。</p>","0","html-button-response","22","601713","0.0-5.0","24789","ListB","woman","chinese","SW_C_F_B8","","","","","","","","","",""
"null","<img src='img/meet.gif' style='height:400px;''></img>","","html-keyboard-response","23","604735","0.0-6.0","24789","ListB","woman","chinese","SW_C_F_B8","","","","null","","","","","",""
"null","<p>正在约见</p>","","html-keyboard-response","24","606738","0.0-7.0","24789","ListB","woman","chinese","SW_C_F_B8","","","","null","","","","","",""
"2675.4000000953674","<p><b>答案：</b> 霍普正在会见露丝</p>","0","html-button-response","25","609415","0.0-8.0","24789","ListB","woman","chinese","SW_C_F_B8","","","","","","","","","",""
"null","<img src='img/spy.gif' style='height:400px;''></img>","","html-keyboard-response","26","612432","0.0-9.0","24789","ListB","woman","chinese","SW_C_F_B8","","","","null","","","","","",""
"null","<p>正在监视</p>","","html-keyboard-response","27","614436","0.0-10.0","24789","ListB","woman","chinese","SW_C_F_B8","","","","null","","","","","",""
"7232.299999952316","<p><b>答案：</b> 弗雷正在监视麦克</p>","0","html-button-response","28","621669","0.0-11.0","24789","ListB","woman","chinese","SW_C_F_B8","","","","","","","","","",""
"24731.400000095367","<p>准备好开始了吗？</p><br><p><strong>请记住，您的答案需是一句完整的句子</strong></p><p><strong>，并用给到的图片人物和动词短语作答。</strong></p><p><strong>只有正确并完整完成实验才可获得报酬。</strong></p><p><strong> 您不需要加入任何标点符号。</strong></p><br><p>请按 ‘继续’ 键开始。</p>","0","html-button-response","29","647419","0.0-12.0","24789","ListB","woman","chinese","SW_C_F_B8","","","","","","","","","",""
"null","<div style=""font-size:60px;"">+</div>","","html-keyboard-response","30","648929","0.0-13.0-0.0","24789","ListB","woman","chinese","SW_C_F_B8","","","","null","","","","","",""
"null","<img src='gifs/MaleRace3a.gif' style='height:400px;''></img>","","html-keyboard-response","31","650934","0.0-13.0-1.0","24789","ListB","woman","chinese","SW_C_F_B8","","","","null","","","","","",""
"null","正在跟随","","html-keyboard-response","32","653935","0.0-13.0-2.0","24789","ListB","woman","chinese","SW_C_F_B8","","","","null","","","","","",""
"28211.799999952316","","","survey-text","33","682150","0.0-13.0-3.0","24789","ListB","woman","chinese","SW_C_F_B8","","","","","{""Q0"":""戴夫正在跟随弗雷""}","<img src='gifs/MaleRace3a.gif' style='height:400px;''></img>","跟随","正在跟随","chinese",""
"null","<div style=""font-size:60px;"">+</div>","","html-keyboard-response","34","682663","0.0-13.0-0.1","24789","ListB","woman","chinese","SW_C_F_B8","","","","null","","","","","",""
"null","<img src='gifs/MaleRace2b.gif' style='height:400px;''></img>","","html-keyboard-response","35","684670","0.0-13.0-1.1","24789","ListB","woman","chinese","SW_C_F_B8","","","","null","","","","","",""
"null","正在面向","","html-keyboard-response","36","687672","0.0-13.0-2.1","24789","ListB","woman","chinese","SW_C_F_B8","","","","null","","","","","",""
"15048.100000143051","","","survey-text","37","702723","0.0-13.0-3.1","24789","ListB","woman","chinese","SW_C_F_B8","","","","","{""Q0"":""卢克正在面向麦克""}","<img src='gifs/MaleRace2b.gif' style='height:400px;''></img>","面向","正在面向","chinese",""
"null","<div style=""font-size:60px;"">+</div>","","html-keyboard-response","38","703229","0.0-13.0-0.2","24789","ListB","woman","chinese","SW_C_F_B8","","","","null","","","","","",""
"null","<img src='gifs/MaleRace1a.gif' style='height:400px;''></img>","","html-keyboard-response","39","705235","0.0-13.0-1.2","24789","ListB","woman","chinese","SW_C_F_B8","","","","null","","","","","",""
"null","正在答应","","html-keyboard-response","40","708252","0.0-13.0-2.2","24789","ListB","woman","chinese","SW_C_F_B8","","","","null","","","","","",""
"30907.799999952316","","","survey-text","41","739164","0.0-13.0-3.2","24789","ListB","woman","chinese","SW_C_F_B8","","","","","{""Q0"":""弗雷正在答应卢克""}","<img src='gifs/MaleRace1a.gif' style='height:400px;''></img>","答应","正在答应","chinese",""
"null","<div style=""font-size:60px;"">+</div>","","html-keyboard-response","42","739673","0.0-13.0-0.3","24789","ListB","woman","chinese","SW_C_F_B8","","","","null","","","","","",""
"null","<img src='gifs/ChineseGender1a.gif' style='height:400px;''></img>","","html-keyboard-response","43","741676","0.0-13.0-1.3","24789","ListB","woman","chinese","SW_C_F_B8","","","","null","","","","","",""
"null","正在介绍","","html-keyboard-response","44","744676","0.0-13.0-2.3","24789","ListB","woman","chinese","SW_C_F_B8","","","","null","","","","","",""
"27179.299999952316","","","survey-text","45","771858","0.0-13.0-3.3","24789","ListB","woman","chinese","SW_C_F_B8","","","","","{""Q0"":""卢克正在介绍霍普""}","<img src='gifs/ChineseGender1a.gif' style='height:400px;''></img>","介绍","正在介绍","chinese",""
"null","<div style=""font-size:60px;"">+</div>","","html-keyboard-response","46","772371","0.0-13.0-0.4","24789","ListB","woman","chinese","SW_C_F_B8","","","","null","","","","","",""
"null","<img src='gifs/MaleRace4a.gif' style='height:400px;''></img>","","html-keyboard-response","47","774377","0.0-13.0-1.4","24789","ListB","woman","chinese","SW_C_F_B8","","","","null","","","","","",""
"null","正在提到","","html-keyboard-response","48","777390","0.0-13.0-2.4","24789","ListB","woman","chinese","SW_C_F_B8","","","","null","","","","","",""
"24066.39999985695","","","survey-text","49","801459","0.0-13.0-3.4","24789","ListB","woman","chinese","SW_C_F_B8","","","","","{""Q0"":""戴夫正在提到麦克""}","<img src='gifs/MaleRace4a.gif' style='height:400px;''></img>","提到","正在提到","chinese",""
"null","<div style=""font-size:60px;"">+</div>","","html-keyboard-response","50","801962","0.0-13.0-0.5","24789","ListB","woman","chinese","SW_C_F_B8","","","","null","","","","","",""
"null","<img src='gifs/FemaleRace1b.gif' style='height:400px;''></img>","","html-keyboard-response","51","803975","0.0-13.0-1.5","24789","ListB","woman","chinese","SW_C_F_B8","","","","null","","","","","",""
"null","正在聘用","","html-keyboard-response","52","806985","0.0-13.0-2.5","24789","ListB","woman","chinese","SW_C_F_B8","","","","null","","","","","",""
"23748.200000047684","","","survey-text","53","830738","0.0-13.0-3.5","24789","ListB","woman","chinese","SW_C_F_B8","","","","","{""Q0"":""霍普正在聘用贝丝""}","<img src='gifs/FemaleRace1b.gif' style='height:400px;''></img>","聘用","正在聘用","chinese",""
"null","<div style=""font-size:60px;"">+</div>","","html-keyboard-response","54","831244","0.0-13.0-0.6","24789","ListB","woman","chinese","SW_C_F_B8","","","","null","","","","","",""
"null","<img src='gifs/MaleRace3a.gif' style='height:400px;''></img>","","html-keyboard-response","55","833250","0.0-13.0-1.6","24789","ListB","woman","chinese","SW_C_F_B8","","","","null","","","","","",""
"null","正在触摸","","html-keyboard-response","56","836261","0.0-13.0-2.6","24789","ListB","woman","chinese","SW_C_F_B8","","","","null","","","","","",""
"13359.900000095367","","","survey-text","57","849625","0.0-13.0-3.6","24789","ListB","woman","chinese","SW_C_F_B8","","","","","{""Q0"":""戴夫正在触摸弗雷""}","<img src='gifs/MaleRace3a.gif' style='height:400px;''></img>","触摸","正在触摸","chinese",""
"null","<div style=""font-size:60px;"">+</div>","","html-keyboard-response","58","850134","0.0-13.0-0.7","24789","ListB","woman","chinese","SW_C_F_B8","","","","null","","","","","",""
"null","<img src='gifs/ChineseGender4b.gif' style='height:400px;''></img>","","html-keyboard-response","59","852151","0.0-13.0-1.7","24789","ListB","woman","chinese","SW_C_F_B8","","","","null","","","","","",""
"null","正在接近","","html-keyboard-response","60","855156","0.0-13.0-2.7","24789","ListB","woman","chinese","SW_C_F_B8","","","","null","","","","","",""
"24425","","","survey-text","61","879582","0.0-13.0-3.7","24789","ListB","woman","chinese","SW_C_F_B8","","","","","{""Q0"":""霍普正在接近戴夫""}","<img src='gifs/ChineseGender4b.gif' style='height:400px;''></img>","接近","正在接近","chinese",""
"null","<div style=""font-size:60px;"">+</div>","","html-keyboard-response","62","880088","0.0-13.0-0.8","24789","ListB","woman","chinese","SW_C_F_B8","","","","null","","","","","",""
"null","<img src='gifs/BlackGender3a.gif' style='height:400px;''></img>","","html-keyboard-response","63","882101","0.0-13.0-1.8","24789","ListB","woman","chinese","SW_C_F_B8","","","","null","","","","","",""
"null","正在联系","","html-keyboard-response","64","885114","0.0-13.0-2.8","24789","ListB","woman","chinese","SW_C_F_B8","","","","null","","","","","",""
"9786.099999904633","","","survey-text","65","894903","0.0-13.0-3.8","24789","ListB","woman","chinese","SW_C_F_B8","","","","","{""Q0"":""凯特正在联系弗雷""}","<img src='gifs/BlackGender3a.gif' style='height:400px;''></img>","联系","正在联系","chinese",""
"null","<div style=""font-size:60px;"">+</div>","","html-keyboard-response","66","895413","0.0-13.0-0.9","24789","ListB","woman","chinese","SW_C_F_B8","","","","null","","","","","",""
"null","<img src='gifs/ChineseGender3b.gif' style='height:400px;''></img>","","html-keyboard-response","67","897425","0.0-13.0-1.9","24789","ListB","woman","chinese","SW_C_F_B8","","","","null","","","","","",""
"null","正在看着","","html-keyboard-response","68","900429","0.0-13.0-2.9","24789","ListB","woman","chinese","SW_C_F_B8","","","","null","","","","","",""
"9383","","","survey-text","69","909815","0.0-13.0-3.9","24789","ListB","woman","chinese","SW_C_F_B8","","","","","{""Q0"":""露丝正在看着戴夫""}","<img src='gifs/ChineseGender3b.gif' style='height:400px;''></img>","看着","正在看着","chinese",""
"null","<div style=""font-size:60px;"">+</div>","","html-keyboard-response","70","910317","0.0-13.0-0.10","24789","ListB","woman","chinese","SW_C_F_B8","","","","null","","","","","",""
"null","<img src='gifs/BlackGender3b.gif' style='height:400px;''></img>","","html-keyboard-response","71","912329","0.0-13.0-1.10","24789","ListB","woman","chinese","SW_C_F_B8","","","","null","","","","","",""
"null","正在聘用","","html-keyboard-response","72","915344","0.0-13.0-2.10","24789","ListB","woman","chinese","SW_C_F_B8","","","","null","","","","","",""
"18023","","","survey-text","73","933372","0.0-13.0-3.10","24789","ListB","woman","chinese","SW_C_F_B8","","","","","{""Q0"":""凯特正在聘用弗雷""}","<img src='gifs/BlackGender3b.gif' style='height:400px;''></img>","聘用","正在聘用","chinese",""
"null","<div style=""font-size:60px;"">+</div>","","html-keyboard-response","74","933877","0.0-13.0-0.11","24789","ListB","woman","chinese","SW_C_F_B8","","","","null","","","","","",""
"null","<img src='gifs/BlackGender1a.gif' style='height:400px;''></img>","","html-keyboard-response","75","935886","0.0-13.0-1.11","24789","ListB","woman","chinese","SW_C_F_B8","","","","null","","","","","",""
"null","正在说服","","html-keyboard-response","76","938902","0.0-13.0-2.11","24789","ListB","woman","chinese","SW_C_F_B8","","","","null","","","","","",""
"9759.300000190735","","","survey-text","77","948664","0.0-13.0-3.11","24789","ListB","woman","chinese","SW_C_F_B8","","","","","{""Q0"":""弗雷正在说服贝丝""}","<img src='gifs/BlackGender1a.gif' style='height:400px;''></img>","说服","正在说服","chinese",""
"null","<div style=""font-size:60px;"">+</div>","","html-keyboard-response","78","949169","0.0-13.0-0.12","24789","ListB","woman","chinese","SW_C_F_B8","","","","null","","","","","",""
"null","<img src='gifs/FemaleRace3b.gif' style='height:400px;''></img>","","html-keyboard-response","79","951174","0.0-13.0-1.12","24789","ListB","woman","chinese","SW_C_F_B8","","","","null","","","","","",""
"null","正在说服","","html-keyboard-response","80","954189","0.0-13.0-2.12","24789","ListB","woman","chinese","SW_C_F_B8","","","","null","","","","","",""
"10201.200000047684","","","survey-text","81","964392","0.0-13.0-3.12","24789","ListB","woman","chinese","SW_C_F_B8","","","","","{""Q0"":""露丝正在说服贝丝""}","<img src='gifs/FemaleRace3b.gif' style='height:400px;''></img>","说服","正在说服","chinese",""
"null","<div style=""font-size:60px;"">+</div>","","html-keyboard-response","82","964903","0.0-13.0-0.13","24789","ListB","woman","chinese","SW_C_F_B8","","","","null","","","","","",""
"null","<img src='gifs/FemaleRace4a.gif' style='height:400px;''></img>","","html-keyboard-response","83","966918","0.0-13.0-1.13","24789","ListB","woman","chinese","SW_C_F_B8","","","","null","","","","","",""
"null","正在触摸","","html-keyboard-response","84","969928","0.0-13.0-2.13","24789","ListB","woman","chinese","SW_C_F_B8","","","","null","","","","","",""
"13367.899999856949","","","survey-text","85","983299","0.0-13.0-3.13","24789","ListB","woman","chinese","SW_C_F_B8","","","","","{""Q0"":""露丝正在触摸凯特""}","<img src='gifs/FemaleRace4a.gif' style='height:400px;''></img>","触摸","正在触摸","chinese",""
"null","<div style=""font-size:60px;"">+</div>","","html-keyboard-response","86","983814","0.0-13.0-0.14","24789","ListB","woman","chinese","SW_C_F_B8","","","","null","","","","","",""
"null","<img src='gifs/MaleRace4a.gif' style='height:400px;''></img>","","html-keyboard-response","87","985825","0.0-13.0-1.14","24789","ListB","woman","chinese","SW_C_F_B8","","","","null","","","","","",""
"null","正在提到","","html-keyboard-response","88","988837","0.0-13.0-2.14","24789","ListB","woman","chinese","SW_C_F_B8","","","","null","","","","","",""
"9483.100000143051","","","survey-text","89","998326","0.0-13.0-3.14","24789","ListB","woman","chinese","SW_C_F_B8","","","","","{""Q0"":""麦克正在提到戴夫""}","<img src='gifs/MaleRace4a.gif' style='height:400px;''></img>","提到","正在提到","chinese",""
"null","<div style=""font-size:60px;"">+</div>","","html-keyboard-response","90","998842","0.0-13.0-0.15","24789","ListB","woman","chinese","SW_C_F_B8","","","","null","","","","","",""
"null","<img src='gifs/BlackGender1b.gif' style='height:400px;''></img>","","html-keyboard-response","91","1000858","0.0-13.0-1.15","24789","ListB","woman","chinese","SW_C_F_B8","","","","null","","","","","",""
"null","正在联系","","html-keyboard-response","92","1003870","0.0-13.0-2.15","24789","ListB","woman","chinese","SW_C_F_B8","","","","null","","","","","",""
"8899","","","survey-text","93","1012774","0.0-13.0-3.15","24789","ListB","woman","chinese","SW_C_F_B8","","","","","{""Q0"":""贝丝正在联系弗雷""}","<img src='gifs/BlackGender1b.gif' style='height:400px;''></img>","联系","正在联系","chinese",""
"null","<div style=""font-size:60px;"">+</div>","","html-keyboard-response","94","1013282","0.0-13.0-0.16","24789","ListB","woman","chinese","SW_C_F_B8","","","","null","","","","","",""
"null","<img src='gifs/FemaleRace3a.gif' style='height:400px;''></img>","","html-keyboard-response","95","1015292","0.0-13.0-1.16","24789","ListB","woman","chinese","SW_C_F_B8","","","","null","","","","","",""
"null","正在加入","","html-keyboard-response","96","1018306","0.0-13.0-2.16","24789","ListB","woman","chinese","SW_C_F_B8","","","","null","","","","","",""
"11041.200000047684","","","survey-text","97","1029350","0.0-13.0-3.16","24789","ListB","woman","chinese","SW_C_F_B8","","","","","{""Q0"":""露丝正在加入贝丝""}","<img src='gifs/FemaleRace3a.gif' style='height:400px;''></img>","加入","正在加入","chinese",""
"null","<div style=""font-size:60px;"">+</div>","","html-keyboard-response","98","1029866","0.0-13.0-0.17","24789","ListB","woman","chinese","SW_C_F_B8","","","","null","","","","","",""
"null","<img src='gifs/FemaleRace1b.gif' style='height:400px;''></img>","","html-keyboard-response","99","1031872","0.0-13.0-1.17","24789","ListB","woman","chinese","SW_C_F_B8","","","","null","","","","","",""
"null","正在触摸","","html-keyboard-response","100","1034890","0.0-13.0-2.17","24789","ListB","woman","chinese","SW_C_F_B8","","","","null","","","","","",""
"8258","","","survey-text","101","1043153","0.0-13.0-3.17","24789","ListB","woman","chinese","SW_C_F_B8","","","","","{""Q0"":""贝丝正在触摸霍普""}","<img src='gifs/FemaleRace1b.gif' style='height:400px;''></img>","触摸","正在触摸","chinese",""
"41605.89999985695","<img src='img/portrait_matrix_listB_chinese.jpg' style='width:900px;height:500px;''></img><p>如果您已经记住了所有的人物和名字，请点击继续。</p><p><strong>请注意：您对先前记忆的面孔将在本实验中被测试5次。</strong></p>","0","html-button-response","102","1084762","0.0-14.0-0.0","24789","ListB","woman","chinese","SW_C_F_B8","","","","","","","","","",""
"2662.9000000953674","<img src=""portrait/BM2.jpg""style=""height:400px;""></img>","5","html-button-response","103","1088434","0.0-14.0-1.0","24789","ListB","woman","chinese","SW_C_F_B8","","true","5","","","","","","",""
"null","正确","","html-keyboard-response","104","1089946","0.0-14.0-2.0-0.0","24789","ListB","woman","chinese","SW_C_F_B8","","","","null","","","","","",""
"3128.399999856949","<img src=""portrait/BW1.jpg""style=""height:400px;""></img>","0","html-button-response","105","1093076","0.0-14.0-4.0","24789","ListB","woman","chinese","SW_C_F_B8","","true","0","","","","","","",""
"null","正确","","html-keyboard-response","106","1094590","0.0-14.0-5.0-0.0","24789","ListB","woman","chinese","SW_C_F_B8","","","","null","","","","","",""
"5902","<img src=""portrait/WW1.jpg""style=""height:400px;""></img>","1","html-button-response","107","1100494","0.0-14.0-7.0","24789","ListB","woman","chinese","SW_C_F_B8","","true","1","","","","","","",""
"null","正确","","html-keyboard-response","108","1101997","0.0-14.0-8.0-0.0","24789","ListB","woman","chinese","SW_C_F_B8","","","","null","","","","","",""
"2725.7999999523163","<img src=""portrait/WM1.jpg""style=""height:400px;""></img>","6","html-button-response","109","1104724","0.0-14.0-10.0","24789","ListB","woman","chinese","SW_C_F_B8","","true","6","","","","","","",""
"null","正确","","html-keyboard-response","110","1106248","0.0-14.0-11.0-0.0","24789","ListB","woman","chinese","SW_C_F_B8","","","","null","","","","","",""
"1954.4000000953674","<img src=""portrait/WM2.jpg""style=""height:400px;""></img>","7","html-button-response","111","1108204","0.0-14.0-13.0","24789","ListB","woman","chinese","SW_C_F_B8","","true","7","","","","","","",""
"null","正确","","html-keyboard-response","112","1109728","0.0-14.0-14.0-0.0","24789","ListB","woman","chinese","SW_C_F_B8","","","","null","","","","","",""
"3387.300000190735","<img src=""portrait/BM1.jpg""style=""height:400px;""></img>","4","html-button-response","113","1113117","0.0-14.0-16.0","24789","ListB","woman","chinese","SW_C_F_B8","","true","4","","","","","","",""
"null","正确","","html-keyboard-response","114","1114623","0.0-14.0-17.0-0.0","24789","ListB","woman","chinese","SW_C_F_B8","","","","null","","","","","",""
"3358.2999999523163","<img src=""portrait/WW2.jpg""style=""height:400px;""></img>","3","html-button-response","115","1117984","0.0-14.0-19.0","24789","ListB","woman","chinese","SW_C_F_B8","","true","3","","","","","","",""
"null","正确","","html-keyboard-response","116","1119506","0.0-14.0-20.0-0.0","24789","ListB","woman","chinese","SW_C_F_B8","","","","null","","","","","",""
"11234.199999809265","<img src=""portrait/BW2.jpg""style=""height:400px;""></img>","2","html-button-response","117","1130741","0.0-14.0-22.0","24789","ListB","woman","chinese","SW_C_F_B8","","true","2","","","","","","",""
"null","正确","","html-keyboard-response","118","1132253","0.0-14.0-23.0-0.0","24789","ListB","woman","chinese","SW_C_F_B8","","","","null","","","","","",""
"1629","<p>您第一次在8题里答对了 8 题。 请点击继续</p>","0","html-button-response","119","1133884","0.0-14.0-25.0","24789","ListB","woman","chinese","SW_C_F_B8","","","","","","","","","",""
"null","<div style=""font-size:60px;"">+</div>","","html-keyboard-response","120","1135410","0.0-15.0-0.0","24789","ListB","woman","chinese","SW_C_F_B8","","","","null","","","","","",""
"null","<img src='gifs/ChineseGender3a.gif' style='height:400px;''></img>","","html-keyboard-response","121","1137421","0.0-15.0-1.0","24789","ListB","woman","chinese","SW_C_F_B8","","","","null","","","","","",""
"null","正在陪伴","","html-keyboard-response","122","1140433","0.0-15.0-2.0","24789","ListB","woman","chinese","SW_C_F_B8","","","","null","","","","","",""
"11726.700000047684","","","survey-text","123","1152168","0.0-15.0-3.0","24789","ListB","woman","chinese","SW_C_F_B8","","","","","{""Q0"":""戴夫正在陪伴露丝""}","<img src='gifs/ChineseGender3a.gif' style='height:400px;''></img>","陪伴","正在陪伴","chinese",""
"null","<div style=""font-size:60px;"">+</div>","","html-keyboard-response","124","1152673","0.0-15.0-0.1","24789","ListB","woman","chinese","SW_C_F_B8","","","","null","","","","","",""
"null","<img src='gifs/BlackGender3b.gif' style='height:400px;''></img>","","html-keyboard-response","125","1154691","0.0-15.0-1.1","24789","ListB","woman","chinese","SW_C_F_B8","","","","null","","","","","",""
"null","正在接近","","html-keyboard-response","126","1157703","0.0-15.0-2.1","24789","ListB","woman","chinese","SW_C_F_B8","","","","null","","","","","",""
"17988","","","survey-text","127","1175694","0.0-15.0-3.1","24789","ListB","woman","chinese","SW_C_F_B8","","","","","{""Q0"":""弗雷正在接近凯特""}","<img src='gifs/BlackGender3b.gif' style='height:400px;''></img>","接近","正在接近","chinese",""
"null","<div style=""font-size:60px;"">+</div>","","html-keyboard-response","128","1176202","0.0-15.0-0.2","24789","ListB","woman","chinese","SW_C_F_B8","","","","null","","","","","",""
"null","<img src='gifs/ChineseGender2b.gif' style='height:400px;''></img>","","html-keyboard-response","129","1178212","0.0-15.0-1.2","24789","ListB","woman","chinese","SW_C_F_B8","","","","null","","","","","",""
"null","正在表扬","","html-keyboard-response","130","1181222","0.0-15.0-2.2","24789","ListB","woman","chinese","SW_C_F_B8","","","","null","","","","","",""
"9374.799999952316","","","survey-text","131","1190600","0.0-15.0-3.2","24789","ListB","woman","chinese","SW_C_F_B8","","","","","{""Q0"":""露丝正在表扬卢克""}","<img src='gifs/ChineseGender2b.gif' style='height:400px;''></img>","表扬","正在表扬","chinese",""
"null","<div style=""font-size:60px;"">+</div>","","html-keyboard-response","132","1191102","0.0-15.0-0.3","24789","ListB","woman","chinese","SW_C_F_B8","","","","null","","","","","",""
"null","<img src='gifs/FemaleRace2a.gif' style='height:400px;''></img>","","html-keyboard-response","133","1193105","0.0-15.0-1.3","24789","ListB","woman","chinese","SW_C_F_B8","","","","null","","","","","",""
"null","正在聘用","","html-keyboard-response","134","1196111","0.0-15.0-2.3","24789","ListB","woman","chinese","SW_C_F_B8","","","","null","","","","","",""
"17602.400000095367","","","survey-text","135","1213719","0.0-15.0-3.3","24789","ListB","woman","chinese","SW_C_F_B8","","","","","{""Q0"":""霍普正在聘用凯特""}","<img src='gifs/FemaleRace2a.gif' style='height:400px;''></img>","聘用","正在聘用","chinese",""
"null","<div style=""font-size:60px;"">+</div>","","html-keyboard-response","136","1214222","0.0-15.0-0.4","24789","ListB","woman","chinese","SW_C_F_B8","","","","null","","","","","",""
"null","<img src='gifs/MaleRace1b.gif' style='height:400px;''></img>","","html-keyboard-response","137","1216240","0.0-15.0-1.4","24789","ListB","woman","chinese","SW_C_F_B8","","","","null","","","","","",""
"null","正在答应","","html-keyboard-response","138","1219244","0.0-15.0-2.4","24789","ListB","woman","chinese","SW_C_F_B8","","","","null","","","","","",""
"14251","","","survey-text","139","1233499","0.0-15.0-3.4","24789","ListB","woman","chinese","SW_C_F_B8","","","","","{""Q0"":""卢克正在答应弗雷""}","<img src='gifs/MaleRace1b.gif' style='height:400px;''></img>","答应","正在答应","chinese",""
"null","<div style=""font-size:60px;"">+</div>","","html-keyboard-response","140","1234011","0.0-15.0-0.5","24789","ListB","woman","chinese","SW_C_F_B8","","","","null","","","","","",""
"null","<img src='gifs/BlackGender2b.gif' style='height:400px;''></img>","","html-keyboard-response","141","1236021","0.0-15.0-1.5","24789","ListB","woman","chinese","SW_C_F_B8","","","","null","","","","","",""
"null","正在陪伴","","html-keyboard-response","142","1239026","0.0-15.0-2.5","24789","ListB","woman","chinese","SW_C_F_B8","","","","null","","","","","",""
"23545.200000047684","","","survey-text","143","1262577","0.0-15.0-3.5","24789","ListB","woman","chinese","SW_C_F_B8","","","","","{""Q0"":""麦克正在陪伴贝斯""}","<img src='gifs/BlackGender2b.gif' style='height:400px;''></img>","陪伴","正在陪伴","chinese",""
"null","<div style=""font-size:60px;"">+</div>","","html-keyboard-response","144","1263092","0.0-15.0-0.6","24789","ListB","woman","chinese","SW_C_F_B8","","","","null","","","","","",""
"null","<img src='gifs/MaleRace2a.gif' style='height:400px;''></img>","","html-keyboard-response","145","1265102","0.0-15.0-1.6","24789","ListB","woman","chinese","SW_C_F_B8","","","","null","","","","","",""
"null","正在接近","","html-keyboard-response","146","1268107","0.0-15.0-2.6","24789","ListB","woman","chinese","SW_C_F_B8","","","","null","","","","","",""
"18008.599999904633","","","survey-text","147","1286118","0.0-15.0-3.6","24789","ListB","woman","chinese","SW_C_F_B8","","","","","{""Q0"":""麦克正在接近卢克""}","<img src='gifs/MaleRace2a.gif' style='height:400px;''></img>","接近","正在接近","chinese",""
"null","<div style=""font-size:60px;"">+</div>","","html-keyboard-response","148","1286621","0.0-15.0-0.7","24789","ListB","woman","chinese","SW_C_F_B8","","","","null","","","","","",""
"null","<img src='gifs/BlackGender2b.gif' style='height:400px;''></img>","","html-keyboard-response","149","1288633","0.0-15.0-1.7","24789","ListB","woman","chinese","SW_C_F_B8","","","","null","","","","","",""
"null","正在聘用","","html-keyboard-response","150","1291646","0.0-15.0-2.7","24789","ListB","woman","chinese","SW_C_F_B8","","","","null","","","","","",""
"9997","","","survey-text","151","1301648","0.0-15.0-3.7","24789","ListB","woman","chinese","SW_C_F_B8","","","","","{""Q0"":""麦克正在聘用贝斯""}","<img src='gifs/BlackGender2b.gif' style='height:400px;''></img>","聘用","正在聘用","chinese",""
"null","<div style=""font-size:60px;"">+</div>","","html-keyboard-response","152","1302155","0.0-15.0-0.8","24789","ListB","woman","chinese","SW_C_F_B8","","","","null","","","","","",""
"null","<img src='gifs/FemaleRace1a.gif' style='height:400px;''></img>","","html-keyboard-response","153","1304166","0.0-15.0-1.8","24789","ListB","woman","chinese","SW_C_F_B8","","","","null","","","","","",""
"null","正在加入","","html-keyboard-response","154","1307177","0.0-15.0-2.8","24789","ListB","woman","chinese","SW_C_F_B8","","","","null","","","","","",""
"13340.200000047684","","","survey-text","155","1320521","0.0-15.0-3.8","24789","ListB","woman","chinese","SW_C_F_B8","","","","","{""Q0"":""贝斯正在加入霍普""}","<img src='gifs/FemaleRace1a.gif' style='height:400px;''></img>","加入","正在加入","chinese",""
"null","<div style=""font-size:60px;"">+</div>","","html-keyboard-response","156","1321037","0.0-15.0-0.9","24789","ListB","woman","chinese","SW_C_F_B8","","","","null","","","","","",""
"null","<img src='gifs/MaleRace4b.gif' style='height:400px;''></img>","","html-keyboard-response","157","1323052","0.0-15.0-1.9","24789","ListB","woman","chinese","SW_C_F_B8","","","","null","","","","","",""
"null","正在面向","","html-keyboard-response","158","1326061","0.0-15.0-2.9","24789","ListB","woman","chinese","SW_C_F_B8","","","","null","","","","","",""
"15310.200000047684","","","survey-text","159","1341378","0.0-15.0-3.9","24789","ListB","woman","chinese","SW_C_F_B8","","","","","{""Q0"":""戴夫正在面向麦克""}","<img src='gifs/MaleRace4b.gif' style='height:400px;''></img>","面向","正在面向","chinese",""
"null","<div style=""font-size:60px;"">+</div>","","html-keyboard-response","160","1341883","0.0-15.0-0.10","24789","ListB","woman","chinese","SW_C_F_B8","","","","null","","","","","",""
"null","<img src='gifs/ChineseGender2b.gif' style='height:400px;''></img>","","html-keyboard-response","161","1343893","0.0-15.0-1.10","24789","ListB","woman","chinese","SW_C_F_B8","","","","null","","","","","",""
"null","正在表扬","","html-keyboard-response","162","1346909","0.0-15.0-2.10","24789","ListB","woman","chinese","SW_C_F_B8","","","","null","","","","","",""
"27733.89999985695","","","survey-text","163","1374648","0.0-15.0-3.10","24789","ListB","woman","chinese","SW_C_F_B8","","","","","{""Q0"":""戴夫正在表扬露丝""}","<img src='gifs/ChineseGender2b.gif' style='height:400px;''></img>","表扬","正在表扬","chinese",""
"null","<div style=""font-size:60px;"">+</div>","","html-keyboard-response","164","1375153","0.0-15.0-0.11","24789","ListB","woman","chinese","SW_C_F_B8","","","","null","","","","","",""
"null","<img src='gifs/ChineseGender1b.gif' style='height:400px;''></img>","","html-keyboard-response","165","1377164","0.0-15.0-1.11","24789","ListB","woman","chinese","SW_C_F_B8","","","","null","","","","","",""
"null","正在面向","","html-keyboard-response","166","1380178","0.0-15.0-2.11","24789","ListB","woman","chinese","SW_C_F_B8","","","","null","","","","","",""
"8038.799999952316","","","survey-text","167","1388220","0.0-15.0-3.11","24789","ListB","woman","chinese","SW_C_F_B8","","","","","{""Q0"":""霍普正在面向卢克""}","<img src='gifs/ChineseGender1b.gif' style='height:400px;''></img>","面向","正在面向","chinese",""
"null","<div style=""font-size:60px;"">+</div>","","html-keyboard-response","168","1388732","0.0-15.0-0.12","24789","ListB","woman","chinese","SW_C_F_B8","","","","null","","","","","",""
"null","<img src='gifs/FemaleRace4b.gif' style='height:400px;''></img>","","html-keyboard-response","169","1390740","0.0-15.0-1.12","24789","ListB","woman","chinese","SW_C_F_B8","","","","null","","","","","",""
"null","正在联系","","html-keyboard-response","170","1393745","0.0-15.0-2.12","24789","ListB","woman","chinese","SW_C_F_B8","","","","null","","","","","",""
"6778.099999904633","","","survey-text","171","1400530","0.0-15.0-3.12","24789","ListB","woman","chinese","SW_C_F_B8","","","","","{""Q0"":""露丝正在联系凯特""}","<img src='gifs/FemaleRace4b.gif' style='height:400px;''></img>","联系","正在联系","chinese",""
"null","<div style=""font-size:60px;"">+</div>","","html-keyboard-response","172","1401043","0.0-15.0-0.13","24789","ListB","woman","chinese","SW_C_F_B8","","","","null","","","","","",""
"null","<img src='gifs/ChineseGender1a.gif' style='height:400px;''></img>","","html-keyboard-response","173","1403056","0.0-15.0-1.13","24789","ListB","woman","chinese","SW_C_F_B8","","","","null","","","","","",""
"null","正在接近","","html-keyboard-response","174","1406067","0.0-15.0-2.13","24789","ListB","woman","chinese","SW_C_F_B8","","","","null","","","","","",""
"9618.800000190735","","","survey-text","175","1415689","0.0-15.0-3.13","24789","ListB","woman","chinese","SW_C_F_B8","","","","","{""Q0"":""霍普正在接近卢克""}","<img src='gifs/ChineseGender1a.gif' style='height:400px;''></img>","接近","正在接近","chinese",""
"null","<div style=""font-size:60px;"">+</div>","","html-keyboard-response","176","1416197","0.0-15.0-0.14","24789","ListB","woman","chinese","SW_C_F_B8","","","","null","","","","","",""
"null","<img src='gifs/FemaleRace4a.gif' style='height:400px;''></img>","","html-keyboard-response","177","1418207","0.0-15.0-1.14","24789","ListB","woman","chinese","SW_C_F_B8","","","","null","","","","","",""
"null","正在提到","","html-keyboard-response","178","1421224","0.0-15.0-2.14","24789","ListB","woman","chinese","SW_C_F_B8","","","","null","","","","","",""
"9542.100000143051","","","survey-text","179","1430769","0.0-15.0-3.14","24789","ListB","woman","chinese","SW_C_F_B8","","","","","{""Q0"":""露丝正在提到凯特""}","<img src='gifs/FemaleRace4a.gif' style='height:400px;''></img>","提到","正在提到","chinese",""
"null","<div style=""font-size:60px;"">+</div>","","html-keyboard-response","180","1431271","0.0-15.0-0.15","24789","ListB","woman","chinese","SW_C_F_B8","","","","null","","","","","",""
"null","<img src='gifs/BlackGender1b.gif' style='height:400px;''></img>","","html-keyboard-response","181","1433288","0.0-15.0-1.15","24789","ListB","woman","chinese","SW_C_F_B8","","","","null","","","","","",""
"null","正在加入","","html-keyboard-response","182","1436301","0.0-15.0-2.15","24789","ListB","woman","chinese","SW_C_F_B8","","","","null","","","","","",""
"8213.400000095367","","","survey-text","183","1444521","0.0-15.0-3.15","24789","ListB","woman","chinese","SW_C_F_B8","","","","","{""Q0"":""贝丝正在加入弗雷""}","<img src='gifs/BlackGender1b.gif' style='height:400px;''></img>","加入","正在加入","chinese",""
"null","<div style=""font-size:60px;"">+</div>","","html-keyboard-response","184","1445036","0.0-15.0-0.16","24789","ListB","woman","chinese","SW_C_F_B8","","","","null","","","","","",""
"null","<img src='gifs/BlackGender4b.gif' style='height:400px;''></img>","","html-keyboard-response","185","1447040","0.0-15.0-1.16","24789","ListB","woman","chinese","SW_C_F_B8","","","","null","","","","","",""
"null","正在聆听","","html-keyboard-response","186","1450049","0.0-15.0-2.16","24789","ListB","woman","chinese","SW_C_F_B8","","","","null","","","","","",""
"9844","","","survey-text","187","1459898","0.0-15.0-3.16","24789","ListB","woman","chinese","SW_C_F_B8","","","","","{""Q0"":""麦克正在聆听凯特""}","<img src='gifs/BlackGender4b.gif' style='height:400px;''></img>","聆听","正在聆听","chinese",""
"null","<div style=""font-size:60px;"">+</div>","","html-keyboard-response","188","1460401","0.0-15.0-0.17","24789","ListB","woman","chinese","SW_C_F_B8","","","","null","","","","","",""
"null","<img src='gifs/BlackGender2a.gif' style='height:400px;''></img>","","html-keyboard-response","189","1462409","0.0-15.0-1.17","24789","ListB","woman","chinese","SW_C_F_B8","","","","null","","","","","",""
"null","正在表扬","","html-keyboard-response","190","1465412","0.0-15.0-2.17","24789","ListB","woman","chinese","SW_C_F_B8","","","","null","","","","","",""
"31086.10000014305","","","survey-text","191","1496503","0.0-15.0-3.17","24789","ListB","woman","chinese","SW_C_F_B8","","","","","{""Q0"":""贝斯正在表扬麦克""}","<img src='gifs/BlackGender2a.gif' style='height:400px;''></img>","表扬","正在表扬","chinese",""
"4624.200000047684","<img src='img/portrait_matrix_listB_chinese.jpg' style='width:900px;height:500px;''></img><p>如果您已经记住了所有的人物和名字，请点击继续。</p><p><strong>请注意：您对先前记忆的面孔将在本实验中被测试5次。</strong></p>","0","html-button-response","192","1501130","0.0-16.0-0.0","24789","ListB","woman","chinese","SW_C_F_B8","","","","","","","","","",""
"2825.9000000953674","<img src=""portrait/WW2.jpg""style=""height:400px;""></img>","3","html-button-response","193","1504964","0.0-16.0-1.0","24789","ListB","woman","chinese","SW_C_F_B8","","true","3","","","","","","",""
"null","正确","","html-keyboard-response","194","1506476","0.0-16.0-2.0-0.0","24789","ListB","woman","chinese","SW_C_F_B8","","","","null","","","","","",""
"2580.9000000953674","<img src=""portrait/WM1.jpg""style=""height:400px;""></img>","7","html-button-response","195","1509059","0.0-16.0-4.0","24789","ListB","woman","chinese","SW_C_F_B8","","true","6","","","","","","",""
"1583.2000000476837","<img src=""portrait/WM1.jpg""style=""height:400px;""></img>","6","html-button-response","196","1511646","0.0-16.0-6.0-0.0","24789","ListB","woman","chinese","SW_C_F_B8","","false","6","","","","","","",""
"null","正确","","html-keyboard-response","197","1513159","0.0-16.0-6.0-1.0-0.0","24789","ListB","woman","chinese","SW_C_F_B8","","","","null","","","","","",""
"5108.299999952316","<img src=""portrait/BM2.jpg""style=""height:400px;""></img>","5","html-button-response","198","1518269","0.0-16.0-7.0","24789","ListB","woman","chinese","SW_C_F_B8","","true","5","","","","","","",""
"null","正确","","html-keyboard-response","199","1519784","0.0-16.0-8.0-0.0","24789","ListB","woman","chinese","SW_C_F_B8","","","","null","","","","","",""
"2134.2999999523163","<img src=""portrait/BW1.jpg""style=""height:400px;""></img>","1","html-button-response","200","1521920","0.0-16.0-10.0","24789","ListB","woman","chinese","SW_C_F_B8","","true","0","","","","","","",""
"1283.6000001430511","<img src=""portrait/BW1.jpg""style=""height:400px;""></img>","0","html-button-response","201","1524208","0.0-16.0-12.0-0.0","24789","ListB","woman","chinese","SW_C_F_B8","","false","0","","","","","","",""
"null","正确","","html-keyboard-response","202","1525710","0.0-16.0-12.0-1.0-0.0","24789","ListB","woman","chinese","SW_C_F_B8","","","","null","","","","","",""
"5149.600000143051","<img src=""portrait/BM1.jpg""style=""height:400px;""></img>","4","html-button-response","203","1530861","0.0-16.0-13.0","24789","ListB","woman","chinese","SW_C_F_B8","","true","4","","","","","","",""
"null","正确","","html-keyboard-response","204","1532368","0.0-16.0-14.0-0.0","24789","ListB","woman","chinese","SW_C_F_B8","","","","null","","","","","",""
"2915.899999856949","<img src=""portrait/WW1.jpg""style=""height:400px;""></img>","1","html-button-response","205","1535286","0.0-16.0-16.0","24789","ListB","woman","chinese","SW_C_F_B8","","true","1","","","","","","",""
"null","正确","","html-keyboard-response","206","1536799","0.0-16.0-17.0-0.0","24789","ListB","woman","chinese","SW_C_F_B8","","","","null","","","","","",""
"4297.5","<img src=""portrait/BW2.jpg""style=""height:400px;""></img>","2","html-button-response","207","1541098","0.0-16.0-19.0","24789","ListB","woman","chinese","SW_C_F_B8","","true","2","","","","","","",""
"null","正确","","html-keyboard-response","208","1542601","0.0-16.0-20.0-0.0","24789","ListB","woman","chinese","SW_C_F_B8","","","","null","","","","","",""
"3670.699999809265","<img src=""portrait/WM2.jpg""style=""height:400px;""></img>","7","html-button-response","209","1546273","0.0-16.0-22.0","24789","ListB","woman","chinese","SW_C_F_B8","","true","7","","","","","","",""
"null","正确","","html-keyboard-response","210","1547779","0.0-16.0-23.0-0.0","24789","ListB","woman","chinese","SW_C_F_B8","","","","null","","","","","",""
"1732.7999999523163","<p>您第一次在8题里答对了 6 题。 请点击继续</p>","0","html-button-response","211","1549513","0.0-16.0-25.0","24789","ListB","woman","chinese","SW_C_F_B8","","","","","","","","","",""
"3410.9000000953674","因为您没有全部答对，记忆游戏将重新开始。请点击继续。","0","html-button-response","212","1553939","0.0-16.0-26.0-0.0","24789","ListB","woman","chinese","SW_C_F_B8","","","","","","","","","",""
"7781.200000047684","<img src='img/portrait_matrix_listB_chinese.jpg' style='width:900px;height:500px;''></img><p>如果您已经记住了所有的人物和名字，请点击继续。</p><p><strong>请注意：您对先前记忆的面孔将在本实验中被测试5次。</strong></p>","0","html-button-response","213","1562737","0.0-16.1-0.1","24789","ListB","woman","chinese","SW_C_F_B8","","","","","","","","","",""
"4899.399999856949","<img src=""portrait/WW2.jpg""style=""height:400px;""></img>","3","html-button-response","214","1568639","0.0-16.1-1.1","24789","ListB","woman","chinese","SW_C_F_B8","","true","3","","","","","","",""
"null","正确","","html-keyboard-response","215","1570166","0.0-16.1-2.1-0.1","24789","ListB","woman","chinese","SW_C_F_B8","","","","null","","","","","",""
"5228.600000143051","<img src=""portrait/WM1.jpg""style=""height:400px;""></img>","6","html-button-response","216","1575397","0.0-16.1-4.1","24789","ListB","woman","chinese","SW_C_F_B8","","true","6","","","","","","",""
"null","正确","","html-keyboard-response","217","1576920","0.0-16.1-5.1-0.1","24789","ListB","woman","chinese","SW_C_F_B8","","","","null","","","","","",""
"1692.4000000953674","<img src=""portrait/BM2.jpg""style=""height:400px;""></img>","5","html-button-response","218","1578614","0.0-16.1-7.1","24789","ListB","woman","chinese","SW_C_F_B8","","true","5","","","","","","",""
"null","正确","","html-keyboard-response","219","1580126","0.0-16.1-8.1-0.1","24789","ListB","woman","chinese","SW_C_F_B8","","","","null","","","","","",""
"13127.299999952316","<img src=""portrait/BW1.jpg""style=""height:400px;""></img>","0","html-button-response","220","1593254","0.0-16.1-10.1","24789","ListB","woman","chinese","SW_C_F_B8","","true","0","","","","","","",""
"null","正确","","html-keyboard-response","221","1594757","0.0-16.1-11.1-0.1","24789","ListB","woman","chinese","SW_C_F_B8","","","","null","","","","","",""
"3400.2000000476837","<img src=""portrait/BM1.jpg""style=""height:400px;""></img>","4","html-button-response","222","1598159","0.0-16.1-13.1","24789","ListB","woman","chinese","SW_C_F_B8","","true","4","","","","","","",""
"null","正确","","html-keyboard-response","223","1599660","0.0-16.1-14.1-0.1","24789","ListB","woman","chinese","SW_C_F_B8","","","","null","","","","","",""
"4594.5","<img src=""portrait/WW1.jpg""style=""height:400px;""></img>","1","html-button-response","224","1604256","0.0-16.1-16.1","24789","ListB","woman","chinese","SW_C_F_B8","","true","1","","","","","","",""
"null","正确","","html-keyboard-response","225","1605773","0.0-16.1-17.1-0.1","24789","ListB","woman","chinese","SW_C_F_B8","","","","null","","","","","",""
"2592.2999999523163","<img src=""portrait/BW2.jpg""style=""height:400px;""></img>","2","html-button-response","226","1608367","0.0-16.1-19.1","24789","ListB","woman","chinese","SW_C_F_B8","","true","2","","","","","","",""
"null","正确","","html-keyboard-response","227","1609882","0.0-16.1-20.1-0.1","24789","ListB","woman","chinese","SW_C_F_B8","","","","null","","","","","",""
"1453","<img src=""portrait/WM2.jpg""style=""height:400px;""></img>","7","html-button-response","228","1611337","0.0-16.1-22.1","24789","ListB","woman","chinese","SW_C_F_B8","","true","7","","","","","","",""
"null","正确","","html-keyboard-response","229","1612842","0.0-16.1-23.1-0.1","24789","ListB","woman","chinese","SW_C_F_B8","","","","null","","","","","",""
"1372","<p>您第一次在8题里答对了 8 题。 请点击继续</p>","0","html-button-response","230","1614216","0.0-16.1-25.1","24789","ListB","woman","chinese","SW_C_F_B8","","","","","","","","","",""
"null","<div style=""font-size:60px;"">+</div>","","html-keyboard-response","231","1615737","0.0-17.0-0.0","24789","ListB","woman","chinese","SW_C_F_B8","","","","null","","","","","",""
"null","<img src='gifs/ChineseGender4a.gif' style='height:400px;''></img>","","html-keyboard-response","232","1617752","0.0-17.0-1.0","24789","ListB","woman","chinese","SW_C_F_B8","","","","null","","","","","",""
"null","正在走向","","html-keyboard-response","233","1620764","0.0-17.0-2.0","24789","ListB","woman","chinese","SW_C_F_B8","","","","null","","","","","",""
"7543.300000190735","","","survey-text","234","1628309","0.0-17.0-3.0","24789","ListB","woman","chinese","SW_C_F_B8","","","","","{""Q0"":""戴夫正在走向霍普""}","<img src='gifs/ChineseGender4a.gif' style='height:400px;''></img>","走向","正在走向","chinese",""
"null","<div style=""font-size:60px;"">+</div>","","html-keyboard-response","235","1628824","0.0-17.0-0.1","24789","ListB","woman","chinese","SW_C_F_B8","","","","null","","","","","",""
"null","<img src='gifs/FemaleRace1a.gif' style='height:400px;''></img>","","html-keyboard-response","236","1630841","0.0-17.0-1.1","24789","ListB","woman","chinese","SW_C_F_B8","","","","null","","","","","",""
"null","正在答应","","html-keyboard-response","237","1633849","0.0-17.0-2.1","24789","ListB","woman","chinese","SW_C_F_B8","","","","null","","","","","",""
"10700.5","","","survey-text","238","1644555","0.0-17.0-3.1","24789","ListB","woman","chinese","SW_C_F_B8","","","","","{""Q0"":""霍普正在答应贝斯""}","<img src='gifs/FemaleRace1a.gif' style='height:400px;''></img>","答应","正在答应","chinese",""
"null","<div style=""font-size:60px;"">+</div>","","html-keyboard-response","239","1645066","0.0-17.0-0.2","24789","ListB","woman","chinese","SW_C_F_B8","","","","null","","","","","",""
"null","<img src='gifs/BlackGender3a.gif' style='height:400px;''></img>","","html-keyboard-response","240","1647076","0.0-17.0-1.2","24789","ListB","woman","chinese","SW_C_F_B8","","","","null","","","","","",""
"null","正在看着","","html-keyboard-response","241","1650079","0.0-17.0-2.2","24789","ListB","woman","chinese","SW_C_F_B8","","","","null","","","","","",""
"11351.300000190735","","","survey-text","242","1661433","0.0-17.0-3.2","24789","ListB","woman","chinese","SW_C_F_B8","","","","","{""Q0"":""弗雷正在看着凯特""}","<img src='gifs/BlackGender3a.gif' style='height:400px;''></img>","看着","正在看着","chinese",""
"null","<div style=""font-size:60px;"">+</div>","","html-keyboard-response","243","1661944","0.0-17.0-0.3","24789","ListB","woman","chinese","SW_C_F_B8","","","","null","","","","","",""
"null","<img src='gifs/MaleRace1b.gif' style='height:400px;''></img>","","html-keyboard-response","244","1663950","0.0-17.0-1.3","24789","ListB","woman","chinese","SW_C_F_B8","","","","null","","","","","",""
"null","正在面向","","html-keyboard-response","245","1666965","0.0-17.0-2.3","24789","ListB","woman","chinese","SW_C_F_B8","","","","null","","","","","",""
"13127.899999856949","","","survey-text","246","1680095","0.0-17.0-3.3","24789","ListB","woman","chinese","SW_C_F_B8","","","","","{""Q0"":""卢克正在面向弗雷""}","<img src='gifs/MaleRace1b.gif' style='height:400px;''></img>","面向","正在面向","chinese",""
"null","<div style=""font-size:60px;"">+</div>","","html-keyboard-response","247","1680610","0.0-17.0-0.4","24789","ListB","woman","chinese","SW_C_F_B8","","","","null","","","","","",""
"null","<img src='gifs/ChineseGender2a.gif' style='height:400px;''></img>","","html-keyboard-response","248","1682627","0.0-17.0-1.4","24789","ListB","woman","chinese","SW_C_F_B8","","","","null","","","","","",""
"null","正在跟随","","html-keyboard-response","249","1685634","0.0-17.0-2.4","24789","ListB","woman","chinese","SW_C_F_B8","","","","null","","","","","",""
"9518.399999856949","","","survey-text","250","1695156","0.0-17.0-3.4","24789","ListB","woman","chinese","SW_C_F_B8","","","","","{""Q0"":""卢克正在跟随露丝""}","<img src='gifs/ChineseGender2a.gif' style='height:400px;''></img>","跟随","正在跟随","chinese",""
"null","<div style=""font-size:60px;"">+</div>","","html-keyboard-response","251","1695671","0.0-17.0-0.5","24789","ListB","woman","chinese","SW_C_F_B8","","","","null","","","","","",""
"null","<img src='gifs/ChineseGender1b.gif' style='height:400px;''></img>","","html-keyboard-response","252","1697676","0.0-17.0-1.5","24789","ListB","woman","chinese","SW_C_F_B8","","","","null","","","","","",""
"null","正在加入","","html-keyboard-response","253","1700682","0.0-17.0-2.5","24789","ListB","woman","chinese","SW_C_F_B8","","","","null","","","","","",""
"21303","","","survey-text","254","1721991","0.0-17.0-3.5","24789","ListB","woman","chinese","SW_C_F_B8","","","","","{""Q0"":""卢克正在加入霍普""}","<img src='gifs/ChineseGender1b.gif' style='height:400px;''></img>","加入","正在加入","chinese",""
"null","<div style=""font-size:60px;"">+</div>","","html-keyboard-response","255","1722497","0.0-17.0-0.6","24789","ListB","woman","chinese","SW_C_F_B8","","","","null","","","","","",""
"null","<img src='gifs/BlackGender4b.gif' style='height:400px;''></img>","","html-keyboard-response","256","1724509","0.0-17.0-1.6","24789","ListB","woman","chinese","SW_C_F_B8","","","","null","","","","","",""
"null","正在提到","","html-keyboard-response","257","1727515","0.0-17.0-2.6","24789","ListB","woman","chinese","SW_C_F_B8","","","","null","","","","","",""
"7045.099999904633","","","survey-text","258","1734564","0.0-17.0-3.6","24789","ListB","woman","chinese","SW_C_F_B8","","","","","{""Q0"":""凯特正在提到麦克""}","<img src='gifs/BlackGender4b.gif' style='height:400px;''></img>","提到","正在提到","chinese",""
"null","<div style=""font-size:60px;"">+</div>","","html-keyboard-response","259","1735074","0.0-17.0-0.7","24789","ListB","woman","chinese","SW_C_F_B8","","","","null","","","","","",""
"null","<img src='gifs/ChineseGender3b.gif' style='height:400px;''></img>","","html-keyboard-response","260","1737084","0.0-17.0-1.7","24789","ListB","woman","chinese","SW_C_F_B8","","","","null","","","","","",""
"null","正在聆听","","html-keyboard-response","261","1740097","0.0-17.0-2.7","24789","ListB","woman","chinese","SW_C_F_B8","","","","null","","","","","",""
"10442.299999952316","","","survey-text","262","1750544","0.0-17.0-3.7","24789","ListB","woman","chinese","SW_C_F_B8","","","","","{""Q0"":""戴夫正在聆听露丝""}","<img src='gifs/ChineseGender3b.gif' style='height:400px;''></img>","聆听","正在聆听","chinese",""
"null","<div style=""font-size:60px;"">+</div>","","html-keyboard-response","263","1751047","0.0-17.0-0.8","24789","ListB","woman","chinese","SW_C_F_B8","","","","null","","","","","",""
"null","<img src='gifs/MaleRace1a.gif' style='height:400px;''></img>","","html-keyboard-response","264","1753059","0.0-17.0-1.8","24789","ListB","woman","chinese","SW_C_F_B8","","","","null","","","","","",""
"null","正在说服","","html-keyboard-response","265","1756067","0.0-17.0-2.8","24789","ListB","woman","chinese","SW_C_F_B8","","","","null","","","","","",""
"9760.600000143051","","","survey-text","266","1765832","0.0-17.0-3.8","24789","ListB","woman","chinese","SW_C_F_B8","","","","","{""Q0"":""弗雷正在说服卢克""}","<img src='gifs/MaleRace1a.gif' style='height:400px;''></img>","说服","正在说服","chinese",""
"null","<div style=""font-size:60px;"">+</div>","","html-keyboard-response","267","1766344","0.0-17.0-0.9","24789","ListB","woman","chinese","SW_C_F_B8","","","","null","","","","","",""
"null","<img src='gifs/ChineseGender3a.gif' style='height:400px;''></img>","","html-keyboard-response","268","1768357","0.0-17.0-1.9","24789","ListB","woman","chinese","SW_C_F_B8","","","","null","","","","","",""
"null","正在介绍","","html-keyboard-response","269","1771369","0.0-17.0-2.9","24789","ListB","woman","chinese","SW_C_F_B8","","","","null","","","","","",""
"8996.100000143051","","","survey-text","270","1780368","0.0-17.0-3.9","24789","ListB","woman","chinese","SW_C_F_B8","","","","","{""Q0"":""露丝正在介绍戴夫""}","<img src='gifs/ChineseGender3a.gif' style='height:400px;''></img>","介绍","正在介绍","chinese",""
"null","<div style=""font-size:60px;"">+</div>","","html-keyboard-response","271","1780872","0.0-17.0-0.10","24789","ListB","woman","chinese","SW_C_F_B8","","","","null","","","","","",""
"null","<img src='gifs/BlackGender2a.gif' style='height:400px;''></img>","","html-keyboard-response","272","1782879","0.0-17.0-1.10","24789","ListB","woman","chinese","SW_C_F_B8","","","","null","","","","","",""
"null","正在陪伴","","html-keyboard-response","273","1785894","0.0-17.0-2.10","24789","ListB","woman","chinese","SW_C_F_B8","","","","null","","","","","",""
"7406.799999952316","","","survey-text","274","1793305","0.0-17.0-3.10","24789","ListB","woman","chinese","SW_C_F_B8","","","","","{""Q0"":""麦克正在陪伴贝斯""}","<img src='gifs/BlackGender2a.gif' style='height:400px;''></img>","陪伴","正在陪伴","chinese",""
"null","<div style=""font-size:60px;"">+</div>","","html-keyboard-response","275","1793822","0.0-17.0-0.11","24789","ListB","woman","chinese","SW_C_F_B8","","","","null","","","","","",""
"null","<img src='gifs/MaleRace4b.gif' style='height:400px;''></img>","","html-keyboard-response","276","1795833","0.0-17.0-1.11","24789","ListB","woman","chinese","SW_C_F_B8","","","","null","","","","","",""
"null","正在介绍","","html-keyboard-response","277","1798836","0.0-17.0-2.11","24789","ListB","woman","chinese","SW_C_F_B8","","","","null","","","","","",""
"12388.600000143051","","","survey-text","278","1811230","0.0-17.0-3.11","24789","ListB","woman","chinese","SW_C_F_B8","","","","","{""Q0"":""戴夫正在介绍麦克""}","<img src='gifs/MaleRace4b.gif' style='height:400px;''></img>","介绍","正在介绍","chinese",""
"null","<div style=""font-size:60px;"">+</div>","","html-keyboard-response","279","1811741","0.0-17.0-0.12","24789","ListB","woman","chinese","SW_C_F_B8","","","","null","","","","","",""
"null","<img src='gifs/FemaleRace2a.gif' style='height:400px;''></img>","","html-keyboard-response","280","1813759","0.0-17.0-1.12","24789","ListB","woman","chinese","SW_C_F_B8","","","","null","","","","","",""
"null","正在触摸","","html-keyboard-response","281","1816776","0.0-17.0-2.12","24789","ListB","woman","chinese","SW_C_F_B8","","","","null","","","","","",""
"8998.5","","","survey-text","282","1825780","0.0-17.0-3.12","24789","ListB","woman","chinese","SW_C_F_B8","","","","","{""Q0"":""霍普正在触摸凯特""}","<img src='gifs/FemaleRace2a.gif' style='height:400px;''></img>","触摸","正在触摸","chinese",""
"null","<div style=""font-size:60px;"">+</div>","","html-keyboard-response","283","1826295","0.0-17.0-0.13","24789","ListB","woman","chinese","SW_C_F_B8","","","","null","","","","","",""
"null","<img src='gifs/FemaleRace2b.gif' style='height:400px;''></img>","","html-keyboard-response","284","1828303","0.0-17.0-1.13","24789","ListB","woman","chinese","SW_C_F_B8","","","","null","","","","","",""
"null","正在跟随","","html-keyboard-response","285","1831318","0.0-17.0-2.13","24789","ListB","woman","chinese","SW_C_F_B8","","","","null","","","","","",""
"9438.799999952316","","","survey-text","286","1840760","0.0-17.0-3.13","24789","ListB","woman","chinese","SW_C_F_B8","","","","","{""Q0"":""霍普正在跟随凯特""}","<img src='gifs/FemaleRace2b.gif' style='height:400px;''></img>","跟随","正在跟随","chinese",""
"null","<div style=""font-size:60px;"">+</div>","","html-keyboard-response","287","1841267","0.0-17.0-0.14","24789","ListB","woman","chinese","SW_C_F_B8","","","","null","","","","","",""
"null","<img src='gifs/MaleRace2b.gif' style='height:400px;''></img>","","html-keyboard-response","288","1843275","0.0-17.0-1.14","24789","ListB","woman","chinese","SW_C_F_B8","","","","null","","","","","",""
"null","正在走向","","html-keyboard-response","289","1846280","0.0-17.0-2.14","24789","ListB","woman","chinese","SW_C_F_B8","","","","null","","","","","",""
"7952.700000047684","","","survey-text","290","1854236","0.0-17.0-3.14","24789","ListB","woman","chinese","SW_C_F_B8","","","","","{""Q0"":""卢克正在走向麦克""}","<img src='gifs/MaleRace2b.gif' style='height:400px;''></img>","走向","正在走向","chinese",""
"null","<div style=""font-size:60px;"">+</div>","","html-keyboard-response","291","1854739","0.0-17.0-0.15","24789","ListB","woman","chinese","SW_C_F_B8","","","","null","","","","","",""
"null","<img src='gifs/MaleRace3b.gif' style='height:400px;''></img>","","html-keyboard-response","292","1856751","0.0-17.0-1.15","24789","ListB","woman","chinese","SW_C_F_B8","","","","null","","","","","",""
"null","正在表扬","","html-keyboard-response","293","1859766","0.0-17.0-2.15","24789","ListB","woman","chinese","SW_C_F_B8","","","","null","","","","","",""
"5023.800000190735","","","survey-text","294","1864793","0.0-17.0-3.15","24789","ListB","woman","chinese","SW_C_F_B8","","","","","{""Q0"":""戴夫正在表扬弗雷""}","<img src='gifs/MaleRace3b.gif' style='height:400px;''></img>","表扬","正在表扬","chinese",""
"null","<div style=""font-size:60px;"">+</div>","","html-keyboard-response","295","1865296","0.0-17.0-0.16","24789","ListB","woman","chinese","SW_C_F_B8","","","","null","","","","","",""
"null","<img src='gifs/ChineseGender4a.gif' style='height:400px;''></img>","","html-keyboard-response","296","1867308","0.0-17.0-1.16","24789","ListB","woman","chinese","SW_C_F_B8","","","","null","","","","","",""
"null","正在说服","","html-keyboard-response","297","1870317","0.0-17.0-2.16","24789","ListB","woman","chinese","SW_C_F_B8","","","","null","","","","","",""
"8211","","","survey-text","298","1878532","0.0-17.0-3.16","24789","ListB","woman","chinese","SW_C_F_B8","","","","","{""Q0"":""霍普正在说服戴夫""}","<img src='gifs/ChineseGender4a.gif' style='height:400px;''></img>","说服","正在说服","chinese",""
"null","<div style=""font-size:60px;"">+</div>","","html-keyboard-response","299","1879044","0.0-17.0-0.17","24789","ListB","woman","chinese","SW_C_F_B8","","","","null","","","","","",""
"null","<img src='gifs/BlackGender1a.gif' style='height:400px;''></img>","","html-keyboard-response","300","1881056","0.0-17.0-1.17","24789","ListB","woman","chinese","SW_C_F_B8","","","","null","","","","","",""
"null","正在跟随","","html-keyboard-response","301","1884064","0.0-17.0-2.17","24789","ListB","woman","chinese","SW_C_F_B8","","","","null","","","","","",""
"6604.400000095367","","","survey-text","302","1890673","0.0-17.0-3.17","24789","ListB","woman","chinese","SW_C_F_B8","","","","","{""Q0"":""弗雷正在跟随贝斯""}","<img src='gifs/BlackGender1a.gif' style='height:400px;''></img>","跟随","正在跟随","chinese",""
"5437.399999856949","<p>Thank you for completing that task.</p><p>The final part of this session is a short questionnaire.</p><p>Press Continue.</p>","0","html-button-response","303","1896113","0.0-18.0","24789","ListB","woman","chinese","SW_C_F_B8","","","","","","","","","",""
"25182.299999952316","","","survey-text","304","1922301","0.0-19.0","24789","ListB","woman","chinese","SW_C_F_B8","","","","","{""Q0"":""27"",""Q1"":""Chinese "",""Q2"":"""",""Q3"":"""",""Q4"":"""",""Q5"":"""",""Q6"":""""}","","","","","demographics"
"6915.300000190735","<p>Have you lived in the UK for the last 5 years or more?</p>","1","html-button-response","305","1929218","0.0-20.0","24789","ListB","woman","chinese","SW_C_F_B8","","","","","","","","","","fiveyears"
"116170.5","","","external-html","306","2046609","0.0-21.0","24789","ListB","woman","chinese","SW_C_F_B8","debrief.html","","","","","","","","",""
"20105.200000047684","","","survey-text","307","2066716","0.0-22.0","24789","ListB","woman","chinese","SW_C_F_B8","","","","","{""ptpt_id"":""SW_C_F_B8""}","","","","","worker_id"
