"rt","stimulus","button_pressed","trial_type","trial_index","time_elapsed","internal_node_id","subject","list","ppt_gender","ppt_language","ptptID","url","first_guess","correct","key_press","responses","image","verb","phrase","condition","test_part"
"1979","Welcome to the experiment. Press Continue to begin.","0","html-button-response","0","1981","0.0-0.0","29802","ListB","woman","chinese","CFB8","","","","","","","","","",""
"33229.10000000149","","","external-html","1","36254","0.0-1.0","29802","ListB","woman","chinese","CFB8","consent.html","","","","","","","","",""
"11601.20000000298","<p>在下一页中，您将看到8个人物肖像和他们各自的名字。</p><p>请花费几分钟的时间记住这些人物及其所对应的名字。</p><p>之后的实验中需要您对人物的名字做出回忆，</p><p>因此在实验开始前请确保您已 经完全记住这些人物及其所对应的名字。</p><p><strong>然后您将完成一个测试以检验您对人物和名字的记忆。</strong></p><p>完成此记忆测试后，您将正式进入实验。</p><p>准备好了吗？</p>","0","html-button-response","2","47856","0.0-2.0","29802","ListB","woman","chinese","CFB8","","","","","","","","","",""
"92309.60000000149","<img src='img/portrait_matrix_listB_chinese.jpg' style='width:900px;height:500px;''></img><p>如果您已经记住了所有的人物和名字，请点击继续。</p><p><strong>请注意：您对先前记忆的面孔将在本实验中被测试5次。</strong></p>","0","html-button-response","3","141171","0.0-3.0-0.0","29802","ListB","woman","chinese","CFB8","","","","","","","","","",""
"2320.5","<img src=""portrait/BM1.jpg""style=""height:400px;""></img>","4","html-button-response","4","144493","0.0-3.0-1.0","29802","ListB","woman","chinese","CFB8","","true","4","","","","","","",""
"null","正确","","html-keyboard-response","5","146017","0.0-3.0-2.0-0.0","29802","ListB","woman","chinese","CFB8","","","","null","","","","","",""
"1295.800000000745","<img src=""portrait/WW2.jpg""style=""height:400px;""></img>","3","html-button-response","6","147314","0.0-3.0-4.0","29802","ListB","woman","chinese","CFB8","","true","3","","","","","","",""
"null","正确","","html-keyboard-response","7","148839","0.0-3.0-5.0-0.0","29802","ListB","woman","chinese","CFB8","","","","null","","","","","",""
"3677.800000000745","<img src=""portrait/WM2.jpg""style=""height:400px;""></img>","7","html-button-response","8","152517","0.0-3.0-7.0","29802","ListB","woman","chinese","CFB8","","true","7","","","","","","",""
"null","正确","","html-keyboard-response","9","154020","0.0-3.0-8.0-0.0","29802","ListB","woman","chinese","CFB8","","","","null","","","","","",""
"8128.5","<img src=""portrait/WM1.jpg""style=""height:400px;""></img>","6","html-button-response","10","162149","0.0-3.0-10.0","29802","ListB","woman","chinese","CFB8","","true","6","","","","","","",""
"null","正确","","html-keyboard-response","11","163660","0.0-3.0-11.0-0.0","29802","ListB","woman","chinese","CFB8","","","","null","","","","","",""
"1990.2000000029802","<img src=""portrait/BW2.jpg""style=""height:400px;""></img>","2","html-button-response","12","165651","0.0-3.0-13.0","29802","ListB","woman","chinese","CFB8","","true","2","","","","","","",""
"null","正确","","html-keyboard-response","13","167153","0.0-3.0-14.0-0.0","29802","ListB","woman","chinese","CFB8","","","","null","","","","","",""
"5669.20000000298","<img src=""portrait/WW1.jpg""style=""height:400px;""></img>","1","html-button-response","14","172823","0.0-3.0-16.0","29802","ListB","woman","chinese","CFB8","","true","1","","","","","","",""
"null","正确","","html-keyboard-response","15","174334","0.0-3.0-17.0-0.0","29802","ListB","woman","chinese","CFB8","","","","null","","","","","",""
"3263.400000002235","<img src=""portrait/BM2.jpg""style=""height:400px;""></img>","5","html-button-response","16","177598","0.0-3.0-19.0","29802","ListB","woman","chinese","CFB8","","true","5","","","","","","",""
"null","正确","","html-keyboard-response","17","179106","0.0-3.0-20.0-0.0","29802","ListB","woman","chinese","CFB8","","","","null","","","","","",""
"5539.099999997765","<img src=""portrait/BW1.jpg""style=""height:400px;""></img>","0","html-button-response","18","184646","0.0-3.0-22.0","29802","ListB","woman","chinese","CFB8","","true","0","","","","","","",""
"null","正确","","html-keyboard-response","19","186158","0.0-3.0-23.0-0.0","29802","ListB","woman","chinese","CFB8","","","","null","","","","","",""
"1674","<p>您第一次在8题里答对了 8 题。 请点击继续</p>","0","html-button-response","20","187833","0.0-3.0-25.0","29802","ListB","woman","chinese","CFB8","","","","","","","","","",""
"30425.29999999702","<p>此次实验您将会看到先前记忆任务里的人物照片。</p><p>人物照片消失后您将看到一个动词短语，请正确回忆人物的名字并用特定的 动词短语组成一句完整的句子。</p><p>请在指定的框内输入您的答案。在进入下一题之前请确保您填写了完整的句子。</p><p>人物照片和动词短语只会在屏幕上出现几秒钟，因此请您答题时尽量集中注意力。</p><p>以下是例子。请您在准备好后按下“继续”。</p><img src='img/chinese_speaking_example.jpg' style='width:800px;height:460px;''></img>","0","html-button-response","21","219273","0.0-4.0","29802","ListB","woman","chinese","CFB8","","","","","","","","","",""
"1169.699999999255","<p>在实验开始前，将为您展示两个示例实验。</p>","0","html-button-response","22","221445","0.0-5.0","29802","ListB","woman","chinese","CFB8","","","","","","","","","",""
"null","<img src='img/meet.gif' style='height:400px;''></img>","","html-keyboard-response","23","224449","0.0-6.0","29802","ListB","woman","chinese","CFB8","","","","null","","","","","",""
"null","<p>正在约见</p>","","html-keyboard-response","24","226455","0.0-7.0","29802","ListB","woman","chinese","CFB8","","","","null","","","","","",""
"4365.900000002235","<p><b>答案：</b> 霍普正在会见露丝</p>","0","html-button-response","25","230821","0.0-8.0","29802","ListB","woman","chinese","CFB8","","","","","","","","","",""
"null","<img src='img/spy.gif' style='height:400px;''></img>","","html-keyboard-response","26","233851","0.0-9.0","29802","ListB","woman","chinese","CFB8","","","","null","","","","","",""
"null","<p>正在监视</p>","","html-keyboard-response","27","235853","0.0-10.0","29802","ListB","woman","chinese","CFB8","","","","null","","","","","",""
"9530.300000000745","<p><b>答案：</b> 弗雷正在监视麦克</p>","0","html-button-response","28","245384","0.0-11.0","29802","ListB","woman","chinese","CFB8","","","","","","","","","",""
"3456.10000000149","<p>准备好开始了吗？</p><br><p><strong>请记住，您的答案需是一句完整的句子</strong></p><p><strong>，并用给到的图片人物和动词短语作答。</strong></p><p><strong>只有正确并完整完成实验才可获得报酬。</strong></p><p><strong> 您不需要加入任何标点符号。</strong></p><br><p>请按 ‘继续’ 键开始。</p>","0","html-button-response","29","249853","0.0-12.0","29802","ListB","woman","chinese","CFB8","","","","","","","","","",""
"null","<div style=""font-size:60px;"">+</div>","","html-keyboard-response","30","251361","0.0-13.0-0.0","29802","ListB","woman","chinese","CFB8","","","","null","","","","","",""
"null","<img src='gifs/ChineseGender2b.gif' style='height:400px;''></img>","","html-keyboard-response","31","253363","0.0-13.0-1.0","29802","ListB","woman","chinese","CFB8","","","","null","","","","","",""
"null","正在面向","","html-keyboard-response","32","256364","0.0-13.0-2.0","29802","ListB","woman","chinese","CFB8","","","","null","","","","","",""
"14235.699999999255","","","survey-text","33","270603","0.0-13.0-3.0","29802","ListB","woman","chinese","CFB8","","","","","{""Q0"":""卢克正在面向露丝""}","<img src='gifs/ChineseGender2b.gif' style='height:400px;''></img>","面向","正在面向","chinese",""
"null","<div style=""font-size:60px;"">+</div>","","html-keyboard-response","34","271110","0.0-13.0-0.1","29802","ListB","woman","chinese","CFB8","","","","null","","","","","",""
"null","<img src='gifs/BlackGender3b.gif' style='height:400px;''></img>","","html-keyboard-response","35","273114","0.0-13.0-1.1","29802","ListB","woman","chinese","CFB8","","","","null","","","","","",""
"null","正在介绍","","html-keyboard-response","36","276115","0.0-13.0-2.1","29802","ListB","woman","chinese","CFB8","","","","null","","","","","",""
"5487.199999999255","","","survey-text","37","281604","0.0-13.0-3.1","29802","ListB","woman","chinese","CFB8","","","","","{""Q0"":""凯特正在介绍弗雷""}","<img src='gifs/BlackGender3b.gif' style='height:400px;''></img>","介绍","正在介绍","chinese",""
"null","<div style=""font-size:60px;"">+</div>","","html-keyboard-response","38","282118","0.0-13.0-0.2","29802","ListB","woman","chinese","CFB8","","","","null","","","","","",""
"null","<img src='gifs/MaleRace2a.gif' style='height:400px;''></img>","","html-keyboard-response","39","284133","0.0-13.0-1.2","29802","ListB","woman","chinese","CFB8","","","","null","","","","","",""
"null","正在表扬","","html-keyboard-response","40","287135","0.0-13.0-2.2","29802","ListB","woman","chinese","CFB8","","","","null","","","","","",""
"9332.800000000745","","","survey-text","41","296470","0.0-13.0-3.2","29802","ListB","woman","chinese","CFB8","","","","","{""Q0"":""卢克正在表扬麦克""}","<img src='gifs/MaleRace2a.gif' style='height:400px;''></img>","表扬","正在表扬","chinese",""
"null","<div style=""font-size:60px;"">+</div>","","html-keyboard-response","42","296976","0.0-13.0-0.3","29802","ListB","woman","chinese","CFB8","","","","null","","","","","",""
"null","<img src='gifs/ChineseGender1a.gif' style='height:400px;''></img>","","html-keyboard-response","43","298981","0.0-13.0-1.3","29802","ListB","woman","chinese","CFB8","","","","null","","","","","",""
"null","正在触摸","","html-keyboard-response","44","301982","0.0-13.0-2.3","29802","ListB","woman","chinese","CFB8","","","","null","","","","","",""
"21463.10000000149","","","survey-text","45","323445","0.0-13.0-3.3","29802","ListB","woman","chinese","CFB8","","","","","{""Q0"":""卢克正在触碰霍普""}","<img src='gifs/ChineseGender1a.gif' style='height:400px;''></img>","触摸","正在触摸","chinese",""
"null","<div style=""font-size:60px;"">+</div>","","html-keyboard-response","46","323959","0.0-13.0-0.4","29802","ListB","woman","chinese","CFB8","","","","null","","","","","",""
"null","<img src='gifs/FemaleRace1b.gif' style='height:400px;''></img>","","html-keyboard-response","47","325962","0.0-13.0-1.4","29802","ListB","woman","chinese","CFB8","","","","null","","","","","",""
"null","正在接近","","html-keyboard-response","48","328963","0.0-13.0-2.4","29802","ListB","woman","chinese","CFB8","","","","null","","","","","",""
"9203.10000000149","","","survey-text","49","338167","0.0-13.0-3.4","29802","ListB","woman","chinese","CFB8","","","","","{""Q0"":""霍普正在接近贝丝""}","<img src='gifs/FemaleRace1b.gif' style='height:400px;''></img>","接近","正在接近","chinese",""
"null","<div style=""font-size:60px;"">+</div>","","html-keyboard-response","50","338671","0.0-13.0-0.5","29802","ListB","woman","chinese","CFB8","","","","null","","","","","",""
"null","<img src='gifs/MaleRace3a.gif' style='height:400px;''></img>","","html-keyboard-response","51","340682","0.0-13.0-1.5","29802","ListB","woman","chinese","CFB8","","","","null","","","","","",""
"null","正在表扬","","html-keyboard-response","52","343693","0.0-13.0-2.5","29802","ListB","woman","chinese","CFB8","","","","null","","","","","",""
"7181","","","survey-text","53","350876","0.0-13.0-3.5","29802","ListB","woman","chinese","CFB8","","","","","{""Q0"":""卢克正在表扬弗雷""}","<img src='gifs/MaleRace3a.gif' style='height:400px;''></img>","表扬","正在表扬","chinese",""
"null","<div style=""font-size:60px;"">+</div>","","html-keyboard-response","54","351379","0.0-13.0-0.6","29802","ListB","woman","chinese","CFB8","","","","null","","","","","",""
"null","<img src='gifs/ChineseGender1b.gif' style='height:400px;''></img>","","html-keyboard-response","55","353394","0.0-13.0-1.6","29802","ListB","woman","chinese","CFB8","","","","null","","","","","",""
"null","正在加入","","html-keyboard-response","56","356395","0.0-13.0-2.6","29802","ListB","woman","chinese","CFB8","","","","null","","","","","",""
"13406.699999999255","","","survey-text","57","369803","0.0-13.0-3.6","29802","ListB","woman","chinese","CFB8","","","","","{""Q0"":""卢克正在加入霍普""}","<img src='gifs/ChineseGender1b.gif' style='height:400px;''></img>","加入","正在加入","chinese",""
"null","<div style=""font-size:60px;"">+</div>","","html-keyboard-response","58","370311","0.0-13.0-0.7","29802","ListB","woman","chinese","CFB8","","","","null","","","","","",""
"null","<img src='gifs/FemaleRace4b.gif' style='height:400px;''></img>","","html-keyboard-response","59","372312","0.0-13.0-1.7","29802","ListB","woman","chinese","CFB8","","","","null","","","","","",""
"null","正在介绍","","html-keyboard-response","60","375326","0.0-13.0-2.7","29802","ListB","woman","chinese","CFB8","","","","null","","","","","",""
"5574.39999999851","","","survey-text","61","380903","0.0-13.0-3.7","29802","ListB","woman","chinese","CFB8","","","","","{""Q0"":""露丝正在介绍凯特""}","<img src='gifs/FemaleRace4b.gif' style='height:400px;''></img>","介绍","正在介绍","chinese",""
"null","<div style=""font-size:60px;"">+</div>","","html-keyboard-response","62","381412","0.0-13.0-0.8","29802","ListB","woman","chinese","CFB8","","","","null","","","","","",""
"null","<img src='gifs/MaleRace2a.gif' style='height:400px;''></img>","","html-keyboard-response","63","383418","0.0-13.0-1.8","29802","ListB","woman","chinese","CFB8","","","","null","","","","","",""
"null","正在陪伴","","html-keyboard-response","64","386430","0.0-13.0-2.8","29802","ListB","woman","chinese","CFB8","","","","null","","","","","",""
"5018.5","","","survey-text","65","391450","0.0-13.0-3.8","29802","ListB","woman","chinese","CFB8","","","","","{""Q0"":""卢克正在陪伴麦克""}","<img src='gifs/MaleRace2a.gif' style='height:400px;''></img>","陪伴","正在陪伴","chinese",""
"null","<div style=""font-size:60px;"">+</div>","","html-keyboard-response","66","391962","0.0-13.0-0.9","29802","ListB","woman","chinese","CFB8","","","","null","","","","","",""
"null","<img src='gifs/ChineseGender4a.gif' style='height:400px;''></img>","","html-keyboard-response","67","393971","0.0-13.0-1.9","29802","ListB","woman","chinese","CFB8","","","","null","","","","","",""
"null","正在介绍","","html-keyboard-response","68","396984","0.0-13.0-2.9","29802","ListB","woman","chinese","CFB8","","","","null","","","","","",""
"4183.300000000745","","","survey-text","69","401169","0.0-13.0-3.9","29802","ListB","woman","chinese","CFB8","","","","","{""Q0"":""卢克正在介绍霍普""}","<img src='gifs/ChineseGender4a.gif' style='height:400px;''></img>","介绍","正在介绍","chinese",""
"null","<div style=""font-size:60px;"">+</div>","","html-keyboard-response","70","401677","0.0-13.0-0.10","29802","ListB","woman","chinese","CFB8","","","","null","","","","","",""
"null","<img src='gifs/BlackGender1b.gif' style='height:400px;''></img>","","html-keyboard-response","71","403683","0.0-13.0-1.10","29802","ListB","woman","chinese","CFB8","","","","null","","","","","",""
"null","正在面向","","html-keyboard-response","72","406694","0.0-13.0-2.10","29802","ListB","woman","chinese","CFB8","","","","null","","","","","",""
"10444","","","survey-text","73","417140","0.0-13.0-3.10","29802","ListB","woman","chinese","CFB8","","","","","{""Q0"":""弗雷正在面向露丝""}","<img src='gifs/BlackGender1b.gif' style='height:400px;''></img>","面向","正在面向","chinese",""
"null","<div style=""font-size:60px;"">+</div>","","html-keyboard-response","74","417649","0.0-13.0-0.11","29802","ListB","woman","chinese","CFB8","","","","null","","","","","",""
"null","<img src='gifs/MaleRace4a.gif' style='height:400px;''></img>","","html-keyboard-response","75","419650","0.0-13.0-1.11","29802","ListB","woman","chinese","CFB8","","","","null","","","","","",""
"null","正在接近","","html-keyboard-response","76","422655","0.0-13.0-2.11","29802","ListB","woman","chinese","CFB8","","","","null","","","","","",""
"3746.699999999255","","","survey-text","77","426403","0.0-13.0-3.11","29802","ListB","woman","chinese","CFB8","","","","","{""Q0"":""卢克正在接近麦克""}","<img src='gifs/MaleRace4a.gif' style='height:400px;''></img>","接近","正在接近","chinese",""
"null","<div style=""font-size:60px;"">+</div>","","html-keyboard-response","78","426912","0.0-13.0-0.12","29802","ListB","woman","chinese","CFB8","","","","null","","","","","",""
"null","<img src='gifs/FemaleRace3b.gif' style='height:400px;''></img>","","html-keyboard-response","79","428921","0.0-13.0-1.12","29802","ListB","woman","chinese","CFB8","","","","null","","","","","",""
"null","正在提到","","html-keyboard-response","80","431924","0.0-13.0-2.12","29802","ListB","woman","chinese","CFB8","","","","null","","","","","",""
"6303.199999999255","","","survey-text","81","438229","0.0-13.0-3.12","29802","ListB","woman","chinese","CFB8","","","","","{""Q0"":""贝丝正在提到露丝""}","<img src='gifs/FemaleRace3b.gif' style='height:400px;''></img>","提到","正在提到","chinese",""
"null","<div style=""font-size:60px;"">+</div>","","html-keyboard-response","82","438740","0.0-13.0-0.13","29802","ListB","woman","chinese","CFB8","","","","null","","","","","",""
"null","<img src='gifs/ChineseGender2a.gif' style='height:400px;''></img>","","html-keyboard-response","83","440746","0.0-13.0-1.13","29802","ListB","woman","chinese","CFB8","","","","null","","","","","",""
"null","正在触摸","","html-keyboard-response","84","443753","0.0-13.0-2.13","29802","ListB","woman","chinese","CFB8","","","","null","","","","","",""
"8767.199999999255","","","survey-text","85","452522","0.0-13.0-3.13","29802","ListB","woman","chinese","CFB8","","","","","{""Q0"":""卢克正在触摸露丝""}","<img src='gifs/ChineseGender2a.gif' style='height:400px;''></img>","触摸","正在触摸","chinese",""
"null","<div style=""font-size:60px;"">+</div>","","html-keyboard-response","86","453033","0.0-13.0-0.14","29802","ListB","woman","chinese","CFB8","","","","null","","","","","",""
"null","<img src='gifs/FemaleRace1a.gif' style='height:400px;''></img>","","html-keyboard-response","87","455036","0.0-13.0-1.14","29802","ListB","woman","chinese","CFB8","","","","null","","","","","",""
"null","正在跟随","","html-keyboard-response","88","458041","0.0-13.0-2.14","29802","ListB","woman","chinese","CFB8","","","","null","","","","","",""
"5064.39999999851","","","survey-text","89","463107","0.0-13.0-3.14","29802","ListB","woman","chinese","CFB8","","","","","{""Q0"":""贝丝正在跟随霍普""}","<img src='gifs/FemaleRace1a.gif' style='height:400px;''></img>","跟随","正在跟随","chinese",""
"null","<div style=""font-size:60px;"">+</div>","","html-keyboard-response","90","463616","0.0-13.0-0.15","29802","ListB","woman","chinese","CFB8","","","","null","","","","","",""
"null","<img src='gifs/FemaleRace3b.gif' style='height:400px;''></img>","","html-keyboard-response","91","465628","0.0-13.0-1.15","29802","ListB","woman","chinese","CFB8","","","","null","","","","","",""
"null","正在走向","","html-keyboard-response","92","468636","0.0-13.0-2.15","29802","ListB","woman","chinese","CFB8","","","","null","","","","","",""
"20241.60000000149","","","survey-text","93","488880","0.0-13.0-3.15","29802","ListB","woman","chinese","CFB8","","","","","{""Q0"":""贝丝正在走向霍普""}","<img src='gifs/FemaleRace3b.gif' style='height:400px;''></img>","走向","正在走向","chinese",""
"null","<div style=""font-size:60px;"">+</div>","","html-keyboard-response","94","489382","0.0-13.0-0.16","29802","ListB","woman","chinese","CFB8","","","","null","","","","","",""
"null","<img src='gifs/BlackGender4b.gif' style='height:400px;''></img>","","html-keyboard-response","95","491384","0.0-13.0-1.16","29802","ListB","woman","chinese","CFB8","","","","null","","","","","",""
"null","正在走向","","html-keyboard-response","96","494399","0.0-13.0-2.16","29802","ListB","woman","chinese","CFB8","","","","null","","","","","",""
"4470.199999999255","","","survey-text","97","498871","0.0-13.0-3.16","29802","ListB","woman","chinese","CFB8","","","","","{""Q0"":""麦克正在走向凯特""}","<img src='gifs/BlackGender4b.gif' style='height:400px;''></img>","走向","正在走向","chinese",""
"null","<div style=""font-size:60px;"">+</div>","","html-keyboard-response","98","499377","0.0-13.0-0.17","29802","ListB","woman","chinese","CFB8","","","","null","","","","","",""
"null","<img src='gifs/BlackGender2a.gif' style='height:400px;''></img>","","html-keyboard-response","99","501379","0.0-13.0-1.17","29802","ListB","woman","chinese","CFB8","","","","null","","","","","",""
"null","正在看着","","html-keyboard-response","100","504380","0.0-13.0-2.17","29802","ListB","woman","chinese","CFB8","","","","null","","","","","",""
"7175.099999997765","","","survey-text","101","511557","0.0-13.0-3.17","29802","ListB","woman","chinese","CFB8","","","","","{""Q0"":""贝丝正在看着麦克""}","<img src='gifs/BlackGender2a.gif' style='height:400px;''></img>","看着","正在看着","chinese",""
"9725.800000000745","<img src='img/portrait_matrix_listB_chinese.jpg' style='width:900px;height:500px;''></img><p>如果您已经记住了所有的人物和名字，请点击继续。</p><p><strong>请注意：您对先前记忆的面孔将在本实验中被测试5次。</strong></p>","0","html-button-response","102","521284","0.0-14.0-0.0","29802","ListB","woman","chinese","CFB8","","","","","","","","","",""
"10765.599999997765","<img src=""portrait/BM1.jpg""style=""height:400px;""></img>","4","html-button-response","103","533051","0.0-14.0-1.0","29802","ListB","woman","chinese","CFB8","","true","4","","","","","","",""
"null","正确","","html-keyboard-response","104","534554","0.0-14.0-2.0-0.0","29802","ListB","woman","chinese","CFB8","","","","null","","","","","",""
"2970.89999999851","<img src=""portrait/WW2.jpg""style=""height:400px;""></img>","3","html-button-response","105","537526","0.0-14.0-4.0","29802","ListB","woman","chinese","CFB8","","true","3","","","","","","",""
"null","正确","","html-keyboard-response","106","539047","0.0-14.0-5.0-0.0","29802","ListB","woman","chinese","CFB8","","","","null","","","","","",""
"2665.699999999255","<img src=""portrait/BM2.jpg""style=""height:400px;""></img>","5","html-button-response","107","541714","0.0-14.0-7.0","29802","ListB","woman","chinese","CFB8","","true","5","","","","","","",""
"null","正确","","html-keyboard-response","108","543221","0.0-14.0-8.0-0.0","29802","ListB","woman","chinese","CFB8","","","","null","","","","","",""
"3637.800000000745","<img src=""portrait/BW1.jpg""style=""height:400px;""></img>","0","html-button-response","109","546859","0.0-14.0-10.0","29802","ListB","woman","chinese","CFB8","","true","0","","","","","","",""
"null","正确","","html-keyboard-response","110","548362","0.0-14.0-11.0-0.0","29802","ListB","woman","chinese","CFB8","","","","null","","","","","",""
"1830.5999999977648","<img src=""portrait/WW1.jpg""style=""height:400px;""></img>","1","html-button-response","111","550193","0.0-14.0-13.0","29802","ListB","woman","chinese","CFB8","","true","1","","","","","","",""
"null","正确","","html-keyboard-response","112","551710","0.0-14.0-14.0-0.0","29802","ListB","woman","chinese","CFB8","","","","null","","","","","",""
"2036.6000000014901","<img src=""portrait/WM2.jpg""style=""height:400px;""></img>","6","html-button-response","113","553747","0.0-14.0-16.0","29802","ListB","woman","chinese","CFB8","","true","7","","","","","","",""
"4795.199999999255","<img src=""portrait/WM2.jpg""style=""height:400px;""></img>","7","html-button-response","114","559549","0.0-14.0-18.0-0.0","29802","ListB","woman","chinese","CFB8","","false","7","","","","","","",""
"null","正确","","html-keyboard-response","115","561051","0.0-14.0-18.0-1.0-0.0","29802","ListB","woman","chinese","CFB8","","","","null","","","","","",""
"4010.39999999851","<img src=""portrait/WM1.jpg""style=""height:400px;""></img>","6","html-button-response","116","565062","0.0-14.0-19.0","29802","ListB","woman","chinese","CFB8","","true","6","","","","","","",""
"null","正确","","html-keyboard-response","117","566578","0.0-14.0-20.0-0.0","29802","ListB","woman","chinese","CFB8","","","","null","","","","","",""
"1498.5","<img src=""portrait/BW2.jpg""style=""height:400px;""></img>","2","html-button-response","118","568077","0.0-14.0-22.0","29802","ListB","woman","chinese","CFB8","","true","2","","","","","","",""
"null","正确","","html-keyboard-response","119","569591","0.0-14.0-23.0-0.0","29802","ListB","woman","chinese","CFB8","","","","null","","","","","",""
"1115.7000000029802","<p>您第一次在8题里答对了 7 题。 请点击继续</p>","0","html-button-response","120","570707","0.0-14.0-25.0","29802","ListB","woman","chinese","CFB8","","","","","","","","","",""
"1639.3999999985099","因为您没有全部答对，记忆游戏将重新开始。请点击继续。","0","html-button-response","121","573363","0.0-14.0-26.0-0.0","29802","ListB","woman","chinese","CFB8","","","","","","","","","",""
"1247.800000000745","<img src='img/portrait_matrix_listB_chinese.jpg' style='width:900px;height:500px;''></img><p>如果您已经记住了所有的人物和名字，请点击继续。</p><p><strong>请注意：您对先前记忆的面孔将在本实验中被测试5次。</strong></p>","0","html-button-response","122","575627","0.0-14.1-0.1","29802","ListB","woman","chinese","CFB8","","","","","","","","","",""
"14712.199999999255","<img src=""portrait/BM1.jpg""style=""height:400px;""></img>","4","html-button-response","123","591341","0.0-14.1-1.1","29802","ListB","woman","chinese","CFB8","","true","4","","","","","","",""
"null","正确","","html-keyboard-response","124","592862","0.0-14.1-2.1-0.1","29802","ListB","woman","chinese","CFB8","","","","null","","","","","",""
"6186.599999997765","<img src=""portrait/WW2.jpg""style=""height:400px;""></img>","3","html-button-response","125","599049","0.0-14.1-4.1","29802","ListB","woman","chinese","CFB8","","true","3","","","","","","",""
"null","正确","","html-keyboard-response","126","600563","0.0-14.1-5.1-0.1","29802","ListB","woman","chinese","CFB8","","","","null","","","","","",""
"1366.8999999985099","<img src=""portrait/BM2.jpg""style=""height:400px;""></img>","5","html-button-response","127","601930","0.0-14.1-7.1","29802","ListB","woman","chinese","CFB8","","true","5","","","","","","",""
"null","正确","","html-keyboard-response","128","603436","0.0-14.1-8.1-0.1","29802","ListB","woman","chinese","CFB8","","","","null","","","","","",""
"5342.900000002235","<img src=""portrait/BW1.jpg""style=""height:400px;""></img>","0","html-button-response","129","608780","0.0-14.1-10.1","29802","ListB","woman","chinese","CFB8","","true","0","","","","","","",""
"null","正确","","html-keyboard-response","130","610283","0.0-14.1-11.1-0.1","29802","ListB","woman","chinese","CFB8","","","","null","","","","","",""
"7267.199999999255","<img src=""portrait/WW1.jpg""style=""height:400px;""></img>","1","html-button-response","131","617551","0.0-14.1-13.1","29802","ListB","woman","chinese","CFB8","","true","1","","","","","","",""
"null","正确","","html-keyboard-response","132","619052","0.0-14.1-14.1-0.1","29802","ListB","woman","chinese","CFB8","","","","null","","","","","",""
"4090.300000000745","<img src=""portrait/WM2.jpg""style=""height:400px;""></img>","7","html-button-response","133","623143","0.0-14.1-16.1","29802","ListB","woman","chinese","CFB8","","true","7","","","","","","",""
"null","正确","","html-keyboard-response","134","624657","0.0-14.1-17.1-0.1","29802","ListB","woman","chinese","CFB8","","","","null","","","","","",""
"2055.699999999255","<img src=""portrait/WM1.jpg""style=""height:400px;""></img>","6","html-button-response","135","626713","0.0-14.1-19.1","29802","ListB","woman","chinese","CFB8","","true","6","","","","","","",""
"null","正确","","html-keyboard-response","136","628229","0.0-14.1-20.1-0.1","29802","ListB","woman","chinese","CFB8","","","","null","","","","","",""
"1481.5999999977648","<img src=""portrait/BW2.jpg""style=""height:400px;""></img>","2","html-button-response","137","629712","0.0-14.1-22.1","29802","ListB","woman","chinese","CFB8","","true","2","","","","","","",""
"null","正确","","html-keyboard-response","138","631227","0.0-14.1-23.1-0.1","29802","ListB","woman","chinese","CFB8","","","","null","","","","","",""
"1106.3999999985099","<p>您第一次在8题里答对了 8 题。 请点击继续</p>","0","html-button-response","139","632335","0.0-14.1-25.1","29802","ListB","woman","chinese","CFB8","","","","","","","","","",""
"null","<div style=""font-size:60px;"">+</div>","","html-keyboard-response","140","633836","0.0-15.0-0.0","29802","ListB","woman","chinese","CFB8","","","","null","","","","","",""
"null","<img src='gifs/BlackGender1a.gif' style='height:400px;''></img>","","html-keyboard-response","141","635837","0.0-15.0-1.0","29802","ListB","woman","chinese","CFB8","","","","null","","","","","",""
"null","正在走向","","html-keyboard-response","142","638851","0.0-15.0-2.0","29802","ListB","woman","chinese","CFB8","","","","null","","","","","",""
"10220.800000000745","","","survey-text","143","649074","0.0-15.0-3.0","29802","ListB","woman","chinese","CFB8","","","","","{""Q0"":""贝丝正在走向弗雷""}","<img src='gifs/BlackGender1a.gif' style='height:400px;''></img>","走向","正在走向","chinese",""
"null","<div style=""font-size:60px;"">+</div>","","html-keyboard-response","144","649580","0.0-15.0-0.1","29802","ListB","woman","chinese","CFB8","","","","null","","","","","",""
"null","<img src='gifs/MaleRace4b.gif' style='height:400px;''></img>","","html-keyboard-response","145","651581","0.0-15.0-1.1","29802","ListB","woman","chinese","CFB8","","","","null","","","","","",""
"null","正在聆听","","html-keyboard-response","146","654589","0.0-15.0-2.1","29802","ListB","woman","chinese","CFB8","","","","null","","","","","",""
"9311.599999997765","","","survey-text","147","663903","0.0-15.0-3.1","29802","ListB","woman","chinese","CFB8","","","","","{""Q0"":""戴夫正在聆听麦克""}","<img src='gifs/MaleRace4b.gif' style='height:400px;''></img>","聆听","正在聆听","chinese",""
"null","<div style=""font-size:60px;"">+</div>","","html-keyboard-response","148","664413","0.0-15.0-0.2","29802","ListB","woman","chinese","CFB8","","","","null","","","","","",""
"null","<img src='gifs/ChineseGender1a.gif' style='height:400px;''></img>","","html-keyboard-response","149","666428","0.0-15.0-1.2","29802","ListB","woman","chinese","CFB8","","","","null","","","","","",""
"null","正在聘用","","html-keyboard-response","150","669437","0.0-15.0-2.2","29802","ListB","woman","chinese","CFB8","","","","null","","","","","",""
"12508.800000000745","","","survey-text","151","681948","0.0-15.0-3.2","29802","ListB","woman","chinese","CFB8","","","","","{""Q0"":""卢克正在聘用霍普""}","<img src='gifs/ChineseGender1a.gif' style='height:400px;''></img>","聘用","正在聘用","chinese",""
"null","<div style=""font-size:60px;"">+</div>","","html-keyboard-response","152","682452","0.0-15.0-0.3","29802","ListB","woman","chinese","CFB8","","","","null","","","","","",""
"null","<img src='gifs/ChineseGender1b.gif' style='height:400px;''></img>","","html-keyboard-response","153","684457","0.0-15.0-1.3","29802","ListB","woman","chinese","CFB8","","","","null","","","","","",""
"null","正在跟随","","html-keyboard-response","154","687459","0.0-15.0-2.3","29802","ListB","woman","chinese","CFB8","","","","null","","","","","",""
"4796","","","survey-text","155","692257","0.0-15.0-3.3","29802","ListB","woman","chinese","CFB8","","","","","{""Q0"":""卢克正在跟随霍普""}","<img src='gifs/ChineseGender1b.gif' style='height:400px;''></img>","跟随","正在跟随","chinese",""
"null","<div style=""font-size:60px;"">+</div>","","html-keyboard-response","156","692766","0.0-15.0-0.4","29802","ListB","woman","chinese","CFB8","","","","null","","","","","",""
"null","<img src='gifs/BlackGender2b.gif' style='height:400px;''></img>","","html-keyboard-response","157","694768","0.0-15.0-1.4","29802","ListB","woman","chinese","CFB8","","","","null","","","","","",""
"null","正在聆听","","html-keyboard-response","158","697773","0.0-15.0-2.4","29802","ListB","woman","chinese","CFB8","","","","null","","","","","",""
"18075.79999999702","","","survey-text","159","715850","0.0-15.0-3.4","29802","ListB","woman","chinese","CFB8","","","","","{""Q0"":""麦克正在聆听贝斯""}","<img src='gifs/BlackGender2b.gif' style='height:400px;''></img>","聆听","正在聆听","chinese",""
"null","<div style=""font-size:60px;"">+</div>","","html-keyboard-response","160","716357","0.0-15.0-0.5","29802","ListB","woman","chinese","CFB8","","","","null","","","","","",""
"null","<img src='gifs/MaleRace2b.gif' style='height:400px;''></img>","","html-keyboard-response","161","718359","0.0-15.0-1.5","29802","ListB","woman","chinese","CFB8","","","","null","","","","","",""
"null","正在跟随","","html-keyboard-response","162","721363","0.0-15.0-2.5","29802","ListB","woman","chinese","CFB8","","","","null","","","","","",""
"6995.300000000745","","","survey-text","163","728360","0.0-15.0-3.5","29802","ListB","woman","chinese","CFB8","","","","","{""Q0"":""麦克正在跟随卢克""}","<img src='gifs/MaleRace2b.gif' style='height:400px;''></img>","跟随","正在跟随","chinese",""
"null","<div style=""font-size:60px;"">+</div>","","html-keyboard-response","164","728870","0.0-15.0-0.6","29802","ListB","woman","chinese","CFB8","","","","null","","","","","",""
"null","<img src='gifs/BlackGender3a.gif' style='height:400px;''></img>","","html-keyboard-response","165","730875","0.0-15.0-1.6","29802","ListB","woman","chinese","CFB8","","","","null","","","","","",""
"null","正在答应","","html-keyboard-response","166","733885","0.0-15.0-2.6","29802","ListB","woman","chinese","CFB8","","","","null","","","","","",""
"5708.5","","","survey-text","167","739595","0.0-15.0-3.6","29802","ListB","woman","chinese","CFB8","","","","","{""Q0"":""凯特正在答应弗雷""}","<img src='gifs/BlackGender3a.gif' style='height:400px;''></img>","答应","正在答应","chinese",""
"null","<div style=""font-size:60px;"">+</div>","","html-keyboard-response","168","740106","0.0-15.0-0.7","29802","ListB","woman","chinese","CFB8","","","","null","","","","","",""
"null","<img src='gifs/FemaleRace2a.gif' style='height:400px;''></img>","","html-keyboard-response","169","742118","0.0-15.0-1.7","29802","ListB","woman","chinese","CFB8","","","","null","","","","","",""
"null","正在加入","","html-keyboard-response","170","745127","0.0-15.0-2.7","29802","ListB","woman","chinese","CFB8","","","","null","","","","","",""
"4930.300000000745","","","survey-text","171","750059","0.0-15.0-3.7","29802","ListB","woman","chinese","CFB8","","","","","{""Q0"":""霍普正在加入凯特""}","<img src='gifs/FemaleRace2a.gif' style='height:400px;''></img>","加入","正在加入","chinese",""
"null","<div style=""font-size:60px;"">+</div>","","html-keyboard-response","172","750561","0.0-15.0-0.8","29802","ListB","woman","chinese","CFB8","","","","null","","","","","",""
"null","<img src='gifs/FemaleRace2b.gif' style='height:400px;''></img>","","html-keyboard-response","173","752564","0.0-15.0-1.8","29802","ListB","woman","chinese","CFB8","","","","null","","","","","",""
"null","正在联系","","html-keyboard-response","174","755568","0.0-15.0-2.8","29802","ListB","woman","chinese","CFB8","","","","null","","","","","",""
"7517.800000000745","","","survey-text","175","763087","0.0-15.0-3.8","29802","ListB","woman","chinese","CFB8","","","","","{""Q0"":""霍普正在联系凯特""}","<img src='gifs/FemaleRace2b.gif' style='height:400px;''></img>","联系","正在联系","chinese",""
"null","<div style=""font-size:60px;"">+</div>","","html-keyboard-response","176","763589","0.0-15.0-0.9","29802","ListB","woman","chinese","CFB8","","","","null","","","","","",""
"null","<img src='gifs/BlackGender3b.gif' style='height:400px;''></img>","","html-keyboard-response","177","765590","0.0-15.0-1.9","29802","ListB","woman","chinese","CFB8","","","","null","","","","","",""
"null","正在看着","","html-keyboard-response","178","768598","0.0-15.0-2.9","29802","ListB","woman","chinese","CFB8","","","","null","","","","","",""
"6723.79999999702","","","survey-text","179","775324","0.0-15.0-3.9","29802","ListB","woman","chinese","CFB8","","","","","{""Q0"":""凯特正在看着弗雷""}","<img src='gifs/BlackGender3b.gif' style='height:400px;''></img>","看着","正在看着","chinese",""
"null","<div style=""font-size:60px;"">+</div>","","html-keyboard-response","180","775825","0.0-15.0-0.10","29802","ListB","woman","chinese","CFB8","","","","null","","","","","",""
"null","<img src='gifs/MaleRace4b.gif' style='height:400px;''></img>","","html-keyboard-response","181","777839","0.0-15.0-1.10","29802","ListB","woman","chinese","CFB8","","","","null","","","","","",""
"null","正在触摸","","html-keyboard-response","182","780852","0.0-15.0-2.10","29802","ListB","woman","chinese","CFB8","","","","null","","","","","",""
"10936.599999997765","","","survey-text","183","791790","0.0-15.0-3.10","29802","ListB","woman","chinese","CFB8","","","","","{""Q0"":""戴夫正在触摸麦克""}","<img src='gifs/MaleRace4b.gif' style='height:400px;''></img>","触摸","正在触摸","chinese",""
"null","<div style=""font-size:60px;"">+</div>","","html-keyboard-response","184","792307","0.0-15.0-0.11","29802","ListB","woman","chinese","CFB8","","","","null","","","","","",""
"null","<img src='gifs/BlackGender1a.gif' style='height:400px;''></img>","","html-keyboard-response","185","794308","0.0-15.0-1.11","29802","ListB","woman","chinese","CFB8","","","","null","","","","","",""
"null","正在看着","","html-keyboard-response","186","797318","0.0-15.0-2.11","29802","ListB","woman","chinese","CFB8","","","","null","","","","","",""
"9051.39999999851","","","survey-text","187","806372","0.0-15.0-3.11","29802","ListB","woman","chinese","CFB8","","","","","{""Q0"":""弗雷正在看着贝斯""}","<img src='gifs/BlackGender1a.gif' style='height:400px;''></img>","看着","正在看着","chinese",""
"null","<div style=""font-size:60px;"">+</div>","","html-keyboard-response","188","806878","0.0-15.0-0.12","29802","ListB","woman","chinese","CFB8","","","","null","","","","","",""
"null","<img src='gifs/MaleRace2b.gif' style='height:400px;''></img>","","html-keyboard-response","189","808889","0.0-15.0-1.12","29802","ListB","woman","chinese","CFB8","","","","null","","","","","",""
"null","正在面向","","html-keyboard-response","190","811900","0.0-15.0-2.12","29802","ListB","woman","chinese","CFB8","","","","null","","","","","",""
"7721.099999997765","","","survey-text","191","819623","0.0-15.0-3.12","29802","ListB","woman","chinese","CFB8","","","","","{""Q0"":""麦克正在面向戴夫""}","<img src='gifs/MaleRace2b.gif' style='height:400px;''></img>","面向","正在面向","chinese",""
"null","<div style=""font-size:60px;"">+</div>","","html-keyboard-response","192","820127","0.0-15.0-0.13","29802","ListB","woman","chinese","CFB8","","","","null","","","","","",""
"null","<img src='gifs/ChineseGender2b.gif' style='height:400px;''></img>","","html-keyboard-response","193","822136","0.0-15.0-1.13","29802","ListB","woman","chinese","CFB8","","","","null","","","","","",""
"null","正在说服","","html-keyboard-response","194","825147","0.0-15.0-2.13","29802","ListB","woman","chinese","CFB8","","","","null","","","","","",""
"8931.099999997765","","","survey-text","195","834080","0.0-15.0-3.13","29802","ListB","woman","chinese","CFB8","","","","","{""Q0"":""戴夫正在说服露丝""}","<img src='gifs/ChineseGender2b.gif' style='height:400px;''></img>","说服","正在说服","chinese",""
"null","<div style=""font-size:60px;"">+</div>","","html-keyboard-response","196","834581","0.0-15.0-0.14","29802","ListB","woman","chinese","CFB8","","","","null","","","","","",""
"null","<img src='gifs/ChineseGender3a.gif' style='height:400px;''></img>","","html-keyboard-response","197","836597","0.0-15.0-1.14","29802","ListB","woman","chinese","CFB8","","","","null","","","","","",""
"null","正在陪伴","","html-keyboard-response","198","839608","0.0-15.0-2.14","29802","ListB","woman","chinese","CFB8","","","","null","","","","","",""
"5289.900000002235","","","survey-text","199","844900","0.0-15.0-3.14","29802","ListB","woman","chinese","CFB8","","","","","{""Q0"":""卢克正在陪伴露丝""}","<img src='gifs/ChineseGender3a.gif' style='height:400px;''></img>","陪伴","正在陪伴","chinese",""
"null","<div style=""font-size:60px;"">+</div>","","html-keyboard-response","200","845408","0.0-15.0-0.15","29802","ListB","woman","chinese","CFB8","","","","null","","","","","",""
"null","<img src='gifs/FemaleRace2a.gif' style='height:400px;''></img>","","html-keyboard-response","201","847414","0.0-15.0-1.15","29802","ListB","woman","chinese","CFB8","","","","null","","","","","",""
"null","正在联系","","html-keyboard-response","202","850430","0.0-15.0-2.15","29802","ListB","woman","chinese","CFB8","","","","null","","","","","",""
"4431.900000002235","","","survey-text","203","854864","0.0-15.0-3.15","29802","ListB","woman","chinese","CFB8","","","","","{""Q0"":""凯特正在联系霍普""}","<img src='gifs/FemaleRace2a.gif' style='height:400px;''></img>","联系","正在联系","chinese",""
"null","<div style=""font-size:60px;"">+</div>","","html-keyboard-response","204","855380","0.0-15.0-0.16","29802","ListB","woman","chinese","CFB8","","","","null","","","","","",""
"null","<img src='gifs/BlackGender3a.gif' style='height:400px;''></img>","","html-keyboard-response","205","857383","0.0-15.0-1.16","29802","ListB","woman","chinese","CFB8","","","","null","","","","","",""
"null","正在联系","","html-keyboard-response","206","860391","0.0-15.0-2.16","29802","ListB","woman","chinese","CFB8","","","","null","","","","","",""
"5101.199999999255","","","survey-text","207","865494","0.0-15.0-3.16","29802","ListB","woman","chinese","CFB8","","","","","{""Q0"":""凯特正在联系弗雷""}","<img src='gifs/BlackGender3a.gif' style='height:400px;''></img>","联系","正在联系","chinese",""
"null","<div style=""font-size:60px;"">+</div>","","html-keyboard-response","208","866008","0.0-15.0-0.17","29802","ListB","woman","chinese","CFB8","","","","null","","","","","",""
"null","<img src='gifs/MaleRace1b.gif' style='height:400px;''></img>","","html-keyboard-response","209","868015","0.0-15.0-1.17","29802","ListB","woman","chinese","CFB8","","","","null","","","","","",""
"null","正在加入","","html-keyboard-response","210","871020","0.0-15.0-2.17","29802","ListB","woman","chinese","CFB8","","","","null","","","","","",""
"6264.89999999851","","","survey-text","211","877287","0.0-15.0-3.17","29802","ListB","woman","chinese","CFB8","","","","","{""Q0"":""弗雷正在加入戴夫""}","<img src='gifs/MaleRace1b.gif' style='height:400px;''></img>","加入","正在加入","chinese",""
"6440.599999997765","<img src='img/portrait_matrix_listB_chinese.jpg' style='width:900px;height:500px;''></img><p>如果您已经记住了所有的人物和名字，请点击继续。</p><p><strong>请注意：您对先前记忆的面孔将在本实验中被测试5次。</strong></p>","0","html-button-response","212","883729","0.0-16.0-0.0","29802","ListB","woman","chinese","CFB8","","","","","","","","","",""
"1701","<img src=""portrait/BW1.jpg""style=""height:400px;""></img>","0","html-button-response","213","886432","0.0-16.0-1.0","29802","ListB","woman","chinese","CFB8","","true","0","","","","","","",""
"null","正确","","html-keyboard-response","214","887949","0.0-16.0-2.0-0.0","29802","ListB","woman","chinese","CFB8","","","","null","","","","","",""
"2058.699999999255","<img src=""portrait/BM1.jpg""style=""height:400px;""></img>","4","html-button-response","215","890008","0.0-16.0-4.0","29802","ListB","woman","chinese","CFB8","","true","4","","","","","","",""
"null","正确","","html-keyboard-response","216","891511","0.0-16.0-5.0-0.0","29802","ListB","woman","chinese","CFB8","","","","null","","","","","",""
"4668.199999999255","<img src=""portrait/WW1.jpg""style=""height:400px;""></img>","1","html-button-response","217","896180","0.0-16.0-7.0","29802","ListB","woman","chinese","CFB8","","true","1","","","","","","",""
"null","正确","","html-keyboard-response","218","897705","0.0-16.0-8.0-0.0","29802","ListB","woman","chinese","CFB8","","","","null","","","","","",""
"2134.39999999851","<img src=""portrait/WW2.jpg""style=""height:400px;""></img>","3","html-button-response","219","899841","0.0-16.0-10.0","29802","ListB","woman","chinese","CFB8","","true","3","","","","","","",""
"null","正确","","html-keyboard-response","220","901371","0.0-16.0-11.0-0.0","29802","ListB","woman","chinese","CFB8","","","","null","","","","","",""
"4584.60000000149","<img src=""portrait/WM1.jpg""style=""height:400px;""></img>","6","html-button-response","221","905957","0.0-16.0-13.0","29802","ListB","woman","chinese","CFB8","","true","6","","","","","","",""
"null","正确","","html-keyboard-response","222","907461","0.0-16.0-14.0-0.0","29802","ListB","woman","chinese","CFB8","","","","null","","","","","",""
"3117.099999997765","<img src=""portrait/BM2.jpg""style=""height:400px;""></img>","5","html-button-response","223","910579","0.0-16.0-16.0","29802","ListB","woman","chinese","CFB8","","true","5","","","","","","",""
"null","正确","","html-keyboard-response","224","912083","0.0-16.0-17.0-0.0","29802","ListB","woman","chinese","CFB8","","","","null","","","","","",""
"13356","<img src=""portrait/WM2.jpg""style=""height:400px;""></img>","7","html-button-response","225","925441","0.0-16.0-19.0","29802","ListB","woman","chinese","CFB8","","true","7","","","","","","",""
"null","正确","","html-keyboard-response","226","926959","0.0-16.0-20.0-0.0","29802","ListB","woman","chinese","CFB8","","","","null","","","","","",""
"1791.4000000022352","<img src=""portrait/BW2.jpg""style=""height:400px;""></img>","2","html-button-response","227","928751","0.0-16.0-22.0","29802","ListB","woman","chinese","CFB8","","true","2","","","","","","",""
"null","正确","","html-keyboard-response","228","930269","0.0-16.0-23.0-0.0","29802","ListB","woman","chinese","CFB8","","","","null","","","","","",""
"1113.199999999255","<p>您第一次在8题里答对了 8 题。 请点击继续</p>","0","html-button-response","229","931383","0.0-16.0-25.0","29802","ListB","woman","chinese","CFB8","","","","","","","","","",""
"null","<div style=""font-size:60px;"">+</div>","","html-keyboard-response","230","932895","0.0-17.0-0.0","29802","ListB","woman","chinese","CFB8","","","","null","","","","","",""
"null","<img src='gifs/BlackGender2a.gif' style='height:400px;''></img>","","html-keyboard-response","231","934905","0.0-17.0-1.0","29802","ListB","woman","chinese","CFB8","","","","null","","","","","",""
"null","正在接近","","html-keyboard-response","232","937918","0.0-17.0-2.0","29802","ListB","woman","chinese","CFB8","","","","null","","","","","",""
"11443.699999999255","","","survey-text","233","949364","0.0-17.0-3.0","29802","ListB","woman","chinese","CFB8","","","","","{""Q0"":""麦克正在接近贝丝""}","<img src='gifs/BlackGender2a.gif' style='height:400px;''></img>","接近","正在接近","chinese",""
"null","<div style=""font-size:60px;"">+</div>","","html-keyboard-response","234","949876","0.0-17.0-0.1","29802","ListB","woman","chinese","CFB8","","","","null","","","","","",""
"null","<img src='gifs/BlackGender4a.gif' style='height:400px;''></img>","","html-keyboard-response","235","951879","0.0-17.0-1.1","29802","ListB","woman","chinese","CFB8","","","","null","","","","","",""
"null","正在走向","","html-keyboard-response","236","954896","0.0-17.0-2.1","29802","ListB","woman","chinese","CFB8","","","","null","","","","","",""
"4095.099999997765","","","survey-text","237","958993","0.0-17.0-3.1","29802","ListB","woman","chinese","CFB8","","","","","{""Q0"":""凯特正在走向麦克""}","<img src='gifs/BlackGender4a.gif' style='height:400px;''></img>","走向","正在走向","chinese",""
"null","<div style=""font-size:60px;"">+</div>","","html-keyboard-response","238","959506","0.0-17.0-0.2","29802","ListB","woman","chinese","CFB8","","","","null","","","","","",""
"null","<img src='gifs/MaleRace3a.gif' style='height:400px;''></img>","","html-keyboard-response","239","961508","0.0-17.0-1.2","29802","ListB","woman","chinese","CFB8","","","","null","","","","","",""
"null","正在加入","","html-keyboard-response","240","964514","0.0-17.0-2.2","29802","ListB","woman","chinese","CFB8","","","","null","","","","","",""
"6633.89999999851","","","survey-text","241","971150","0.0-17.0-3.2","29802","ListB","woman","chinese","CFB8","","","","","{""Q0"":""麦克正在加入戴夫""}","<img src='gifs/MaleRace3a.gif' style='height:400px;''></img>","加入","正在加入","chinese",""
"null","<div style=""font-size:60px;"">+</div>","","html-keyboard-response","242","971660","0.0-17.0-0.3","29802","ListB","woman","chinese","CFB8","","","","null","","","","","",""
"null","<img src='gifs/FemaleRace4a.gif' style='height:400px;''></img>","","html-keyboard-response","243","973675","0.0-17.0-1.3","29802","ListB","woman","chinese","CFB8","","","","null","","","","","",""
"null","正在面向","","html-keyboard-response","244","976684","0.0-17.0-2.3","29802","ListB","woman","chinese","CFB8","","","","null","","","","","",""
"8544.199999999255","","","survey-text","245","985230","0.0-17.0-3.3","29802","ListB","woman","chinese","CFB8","","","","","{""Q0"":""露丝正在面向凯特""}","<img src='gifs/FemaleRace4a.gif' style='height:400px;''></img>","面向","正在面向","chinese",""
"null","<div style=""font-size:60px;"">+</div>","","html-keyboard-response","246","985740","0.0-17.0-0.4","29802","ListB","woman","chinese","CFB8","","","","null","","","","","",""
"null","<img src='gifs/BlackGender4b.gif' style='height:400px;''></img>","","html-keyboard-response","247","987750","0.0-17.0-1.4","29802","ListB","woman","chinese","CFB8","","","","null","","","","","",""
"null","正在表扬","","html-keyboard-response","248","990765","0.0-17.0-2.4","29802","ListB","woman","chinese","CFB8","","","","null","","","","","",""
"3793.10000000149","","","survey-text","249","994560","0.0-17.0-3.4","29802","ListB","woman","chinese","CFB8","","","","","{""Q0"":""麦克正在表扬凯特""}","<img src='gifs/BlackGender4b.gif' style='height:400px;''></img>","表扬","正在表扬","chinese",""
"null","<div style=""font-size:60px;"">+</div>","","html-keyboard-response","250","995073","0.0-17.0-0.5","29802","ListB","woman","chinese","CFB8","","","","null","","","","","",""
"null","<img src='gifs/MaleRace1a.gif' style='height:400px;''></img>","","html-keyboard-response","251","997077","0.0-17.0-1.5","29802","ListB","woman","chinese","CFB8","","","","null","","","","","",""
"null","正在接近","","html-keyboard-response","252","1000086","0.0-17.0-2.5","29802","ListB","woman","chinese","CFB8","","","","null","","","","","",""
"4970.5","","","survey-text","253","1005058","0.0-17.0-3.5","29802","ListB","woman","chinese","CFB8","","","","","{""Q0"":""卢克正在接近弗雷""}","<img src='gifs/MaleRace1a.gif' style='height:400px;''></img>","接近","正在接近","chinese",""
"null","<div style=""font-size:60px;"">+</div>","","html-keyboard-response","254","1005573","0.0-17.0-0.6","29802","ListB","woman","chinese","CFB8","","","","null","","","","","",""
"null","<img src='gifs/BlackGender4a.gif' style='height:400px;''></img>","","html-keyboard-response","255","1007590","0.0-17.0-1.6","29802","ListB","woman","chinese","CFB8","","","","null","","","","","",""
"null","正在说服","","html-keyboard-response","256","1010596","0.0-17.0-2.6","29802","ListB","woman","chinese","CFB8","","","","null","","","","","",""
"9939.60000000149","","","survey-text","257","1020537","0.0-17.0-3.6","29802","ListB","woman","chinese","CFB8","","","","","{""Q0"":""麦克正在说服凯特""}","<img src='gifs/BlackGender4a.gif' style='height:400px;''></img>","说服","正在说服","chinese",""
"null","<div style=""font-size:60px;"">+</div>","","html-keyboard-response","258","1021052","0.0-17.0-0.7","29802","ListB","woman","chinese","CFB8","","","","null","","","","","",""
"null","<img src='gifs/ChineseGender2a.gif' style='height:400px;''></img>","","html-keyboard-response","259","1023057","0.0-17.0-1.7","29802","ListB","woman","chinese","CFB8","","","","null","","","","","",""
"null","正在提到","","html-keyboard-response","260","1026063","0.0-17.0-2.7","29802","ListB","woman","chinese","CFB8","","","","null","","","","","",""
"3461.400000002235","","","survey-text","261","1029526","0.0-17.0-3.7","29802","ListB","woman","chinese","CFB8","","","","","{""Q0"":""卢克正在提到露丝""}","<img src='gifs/ChineseGender2a.gif' style='height:400px;''></img>","提到","正在提到","chinese",""
"null","<div style=""font-size:60px;"">+</div>","","html-keyboard-response","262","1030036","0.0-17.0-0.8","29802","ListB","woman","chinese","CFB8","","","","null","","","","","",""
"null","<img src='gifs/MaleRace4a.gif' style='height:400px;''></img>","","html-keyboard-response","263","1032041","0.0-17.0-1.8","29802","ListB","woman","chinese","CFB8","","","","null","","","","","",""
"null","正在答应","","html-keyboard-response","264","1035045","0.0-17.0-2.8","29802","ListB","woman","chinese","CFB8","","","","null","","","","","",""
"14142","","","survey-text","265","1049189","0.0-17.0-3.8","29802","ListB","woman","chinese","CFB8","","","","","{""Q0"":""戴夫正在答应凯特""}","<img src='gifs/MaleRace4a.gif' style='height:400px;''></img>","答应","正在答应","chinese",""
"null","<div style=""font-size:60px;"">+</div>","","html-keyboard-response","266","1049693","0.0-17.0-0.9","29802","ListB","woman","chinese","CFB8","","","","null","","","","","",""
"null","<img src='gifs/ChineseGender4a.gif' style='height:400px;''></img>","","html-keyboard-response","267","1051707","0.0-17.0-1.9","29802","ListB","woman","chinese","CFB8","","","","null","","","","","",""
"null","正在聆听","","html-keyboard-response","268","1054711","0.0-17.0-2.9","29802","ListB","woman","chinese","CFB8","","","","null","","","","","",""
"19655.39999999851","","","survey-text","269","1074369","0.0-17.0-3.9","29802","ListB","woman","chinese","CFB8","","","","","{""Q0"":""霍普正在聆听戴夫""}","<img src='gifs/ChineseGender4a.gif' style='height:400px;''></img>","聆听","正在聆听","chinese",""
"null","<div style=""font-size:60px;"">+</div>","","html-keyboard-response","270","1074872","0.0-17.0-0.10","29802","ListB","woman","chinese","CFB8","","","","null","","","","","",""
"null","<img src='gifs/ChineseGender4b.gif' style='height:400px;''></img>","","html-keyboard-response","271","1076880","0.0-17.0-1.10","29802","ListB","woman","chinese","CFB8","","","","null","","","","","",""
"null","正在答应","","html-keyboard-response","272","1079896","0.0-17.0-2.10","29802","ListB","woman","chinese","CFB8","","","","null","","","","","",""
"5282.5","","","survey-text","273","1085181","0.0-17.0-3.10","29802","ListB","woman","chinese","CFB8","","","","","{""Q0"":""戴夫正在答应霍普""}","<img src='gifs/ChineseGender4b.gif' style='height:400px;''></img>","答应","正在答应","chinese",""
"null","<div style=""font-size:60px;"">+</div>","","html-keyboard-response","274","1085697","0.0-17.0-0.11","29802","ListB","woman","chinese","CFB8","","","","null","","","","","",""
"null","<img src='gifs/FemaleRace3a.gif' style='height:400px;''></img>","","html-keyboard-response","275","1087711","0.0-17.0-1.11","29802","ListB","woman","chinese","CFB8","","","","null","","","","","",""
"null","正在看着","","html-keyboard-response","276","1090715","0.0-17.0-2.11","29802","ListB","woman","chinese","CFB8","","","","null","","","","","",""
"10526.89999999851","","","survey-text","277","1101243","0.0-17.0-3.11","29802","ListB","woman","chinese","CFB8","","","","","{""Q0"":""露丝正在看着贝斯""}","<img src='gifs/FemaleRace3a.gif' style='height:400px;''></img>","看着","正在看着","chinese",""
"null","<div style=""font-size:60px;"">+</div>","","html-keyboard-response","278","1101754","0.0-17.0-0.12","29802","ListB","woman","chinese","CFB8","","","","null","","","","","",""
"null","<img src='gifs/FemaleRace1a.gif' style='height:400px;''></img>","","html-keyboard-response","279","1103760","0.0-17.0-1.12","29802","ListB","woman","chinese","CFB8","","","","null","","","","","",""
"null","正在提到","","html-keyboard-response","280","1106765","0.0-17.0-2.12","29802","ListB","woman","chinese","CFB8","","","","null","","","","","",""
"6348.599999997765","","","survey-text","281","1113115","0.0-17.0-3.12","29802","ListB","woman","chinese","CFB8","","","","","{""Q0"":""霍普正在提到贝斯""}","<img src='gifs/FemaleRace1a.gif' style='height:400px;''></img>","提到","正在提到","chinese",""
"null","<div style=""font-size:60px;"">+</div>","","html-keyboard-response","282","1113622","0.0-17.0-0.13","29802","ListB","woman","chinese","CFB8","","","","null","","","","","",""
"null","<img src='gifs/FemaleRace1b.gif' style='height:400px;''></img>","","html-keyboard-response","283","1115625","0.0-17.0-1.13","29802","ListB","woman","chinese","CFB8","","","","null","","","","","",""
"null","正在陪伴","","html-keyboard-response","284","1118628","0.0-17.0-2.13","29802","ListB","woman","chinese","CFB8","","","","null","","","","","",""
"10614.300000000745","","","survey-text","285","1129245","0.0-17.0-3.13","29802","ListB","woman","chinese","CFB8","","","","","{""Q0"":""霍普正在陪伴贝斯""}","<img src='gifs/FemaleRace1b.gif' style='height:400px;''></img>","陪伴","正在陪伴","chinese",""
"null","<div style=""font-size:60px;"">+</div>","","html-keyboard-response","286","1129748","0.0-17.0-0.14","29802","ListB","woman","chinese","CFB8","","","","null","","","","","",""
"null","<img src='gifs/MaleRace1a.gif' style='height:400px;''></img>","","html-keyboard-response","287","1131758","0.0-17.0-1.14","29802","ListB","woman","chinese","CFB8","","","","null","","","","","",""
"null","正在跟随","","html-keyboard-response","288","1134773","0.0-17.0-2.14","29802","ListB","woman","chinese","CFB8","","","","null","","","","","",""
"4813.800000000745","","","survey-text","289","1139589","0.0-17.0-3.14","29802","ListB","woman","chinese","CFB8","","","","","{""Q0"":""卢克正在跟随弗雷""}","<img src='gifs/MaleRace1a.gif' style='height:400px;''></img>","跟随","正在跟随","chinese",""
"null","<div style=""font-size:60px;"">+</div>","","html-keyboard-response","290","1140098","0.0-17.0-0.15","29802","ListB","woman","chinese","CFB8","","","","null","","","","","",""
"null","<img src='gifs/MaleRace3b.gif' style='height:400px;''></img>","","html-keyboard-response","291","1142104","0.0-17.0-1.15","29802","ListB","woman","chinese","CFB8","","","","null","","","","","",""
"null","正在聘用","","html-keyboard-response","292","1145110","0.0-17.0-2.15","29802","ListB","woman","chinese","CFB8","","","","null","","","","","",""
"5329.39999999851","","","survey-text","293","1150442","0.0-17.0-3.15","29802","ListB","woman","chinese","CFB8","","","","","{""Q0"":""卢克正在聘用弗雷""}","<img src='gifs/MaleRace3b.gif' style='height:400px;''></img>","聘用","正在聘用","chinese",""
"null","<div style=""font-size:60px;"">+</div>","","html-keyboard-response","294","1150948","0.0-17.0-0.16","29802","ListB","woman","chinese","CFB8","","","","null","","","","","",""
"null","<img src='gifs/MaleRace3b.gif' style='height:400px;''></img>","","html-keyboard-response","295","1152961","0.0-17.0-1.16","29802","ListB","woman","chinese","CFB8","","","","null","","","","","",""
"null","正在联系","","html-keyboard-response","296","1155969","0.0-17.0-2.16","29802","ListB","woman","chinese","CFB8","","","","null","","","","","",""
"7788","","","survey-text","297","1163760","0.0-17.0-3.16","29802","ListB","woman","chinese","CFB8","","","","","{""Q0"":""戴夫正在联系弗雷""}","<img src='gifs/MaleRace3b.gif' style='height:400px;''></img>","联系","正在联系","chinese",""
"null","<div style=""font-size:60px;"">+</div>","","html-keyboard-response","298","1164262","0.0-17.0-0.17","29802","ListB","woman","chinese","CFB8","","","","null","","","","","",""
"null","<img src='gifs/FemaleRace4a.gif' style='height:400px;''></img>","","html-keyboard-response","299","1166269","0.0-17.0-1.17","29802","ListB","woman","chinese","CFB8","","","","null","","","","","",""
"null","正在说服","","html-keyboard-response","300","1169282","0.0-17.0-2.17","29802","ListB","woman","chinese","CFB8","","","","null","","","","","",""
"8458.60000000149","","","survey-text","301","1177743","0.0-17.0-3.17","29802","ListB","woman","chinese","CFB8","","","","","{""Q0"":""凯特正在说服露丝""}","<img src='gifs/FemaleRace4a.gif' style='height:400px;''></img>","说服","正在说服","chinese",""
"2618","<p>Thank you for completing that task.</p><p>The final part of this session is a short questionnaire.</p><p>Press Continue.</p>","0","html-button-response","302","1180363","0.0-18.0","29802","ListB","woman","chinese","CFB8","","","","","","","","","",""
"37810","","","survey-text","303","1219177","0.0-19.0","29802","ListB","woman","chinese","CFB8","","","","","{""Q0"":""21"",""Q1"":""Chinese"",""Q2"":""Chinese"",""Q3"":""UK"",""Q4"":""Chinese"",""Q5"":""Asian"",""Q6"":""Female""}","","","","","demographics"
"2583.10000000149","<p>Have you lived in the UK for the last 5 years or more?</p>","1","html-button-response","304","1221762","0.0-20.0","29802","ListB","woman","chinese","CFB8","","","","","","","","","","fiveyears"
"48066.5","","","external-html","305","1270930","0.0-21.0","29802","ListB","woman","chinese","CFB8","debrief.html","","","","","","","","",""
"13104","","","survey-text","306","1284037","0.0-22.0","29802","ListB","woman","chinese","CFB8","","","","","{""ptpt_id"":""CFB8""}","","","","","worker_id"
