"rt","stimulus","button_pressed","trial_type","trial_index","time_elapsed","internal_node_id","subject","list","ppt_gender","ppt_language","ptptID","url","first_guess","correct","key_press","responses","image","verb","phrase","condition","test_part"
"2139.100000000559","Welcome to the experiment. Press Continue to begin.","0","html-button-response","0","2142","0.0-0.0","31460","ListA","woman","chinese","SW_C_F_A3","","","","","","","","","",""
"21650.900000000373","","","external-html","1","24852","0.0-1.0","31460","ListA","woman","chinese","SW_C_F_A3","consent.html","","","","","","","","",""
"14937.5","<p>在下一页中，您将看到8个人物肖像和他们各自的名字。</p><p>请花费几分钟的时间记住这些人物及其所对应的名字。</p><p>之后的实验中需要您对人物的名字做出回忆，</p><p>因此在实验开始前请确保您已 经完全记住这些人物及其所对应的名字。</p><p><strong>然后您将完成一个测试以检验您对人物和名字的记忆。</strong></p><p>完成此记忆测试后，您将正式进入实验。</p><p>准备好了吗？</p>","0","html-button-response","2","39792","0.0-2.0","31460","ListA","woman","chinese","SW_C_F_A3","","","","","","","","","",""
"37649.40000000037","<img src='img/portrait_matrix_listA_chinese.jpg' style='width:900px;height:500px;''></img><p>如果您已经记住了所有的人物和名字，请点击继续。</p><p><strong>请注意：您对先前记忆的面孔将在本实验中被测试5次。</strong></p>","0","html-button-response","3","78447","0.0-3.0-0.0","31460","ListA","woman","chinese","SW_C_F_A3","","","","","","","","","",""
"4111.199999999255","<img src=""portrait/WW2.jpg""style=""height:400px;""></img>","3","html-button-response","4","83566","0.0-3.0-1.0","31460","ListA","woman","chinese","SW_C_F_A3","","true","3","","","","","","",""
"null","正确","","html-keyboard-response","5","85082","0.0-3.0-2.0-0.0","31460","ListA","woman","chinese","SW_C_F_A3","","","","null","","","","","",""
"2187.699999999255","<img src=""portrait/WW1.jpg""style=""height:400px;""></img>","3","html-button-response","6","87272","0.0-3.0-4.0","31460","ListA","woman","chinese","SW_C_F_A3","","true","1","","","","","","",""
"1895.3999999994412","<img src=""portrait/WW1.jpg""style=""height:400px;""></img>","1","html-button-response","7","90180","0.0-3.0-6.0-0.0","31460","ListA","woman","chinese","SW_C_F_A3","","false","1","","","","","","",""
"null","正确","","html-keyboard-response","8","91701","0.0-3.0-6.0-1.0-0.0","31460","ListA","woman","chinese","SW_C_F_A3","","","","null","","","","","",""
"5052.9000000003725","<img src=""portrait/BW1.jpg""style=""height:400px;""></img>","3","html-button-response","9","96756","0.0-3.0-7.0","31460","ListA","woman","chinese","SW_C_F_A3","","true","0","","","","","","",""
"1853.7999999998137","<img src=""portrait/BW1.jpg""style=""height:400px;""></img>","4","html-button-response","10","99616","0.0-3.0-9.0-0.0","31460","ListA","woman","chinese","SW_C_F_A3","","false","0","","","","","","",""
"null","不正确","","html-keyboard-response","11","101142","0.0-3.0-9.0-2.0-0.0","31460","ListA","woman","chinese","SW_C_F_A3","","","","null","","","","","",""
"1110.699999999255","<img src=""portrait/BM1.jpg""style=""height:400px;""></img>","0","html-button-response","12","102254","0.0-3.0-10.0","31460","ListA","woman","chinese","SW_C_F_A3","","true","4","","","","","","",""
"2351.2000000001863","<img src=""portrait/BM1.jpg""style=""height:400px;""></img>","4","html-button-response","13","105612","0.0-3.0-12.0-0.0","31460","ListA","woman","chinese","SW_C_F_A3","","false","4","","","","","","",""
"null","正确","","html-keyboard-response","14","107133","0.0-3.0-12.0-1.0-0.0","31460","ListA","woman","chinese","SW_C_F_A3","","","","null","","","","","",""
"2340.5999999996275","<img src=""portrait/BM2.jpg""style=""height:400px;""></img>","5","html-button-response","15","109475","0.0-3.0-13.0","31460","ListA","woman","chinese","SW_C_F_A3","","true","5","","","","","","",""
"null","正确","","html-keyboard-response","16","110997","0.0-3.0-14.0-0.0","31460","ListA","woman","chinese","SW_C_F_A3","","","","null","","","","","",""
"1298.5999999996275","<img src=""portrait/WM2.jpg""style=""height:400px;""></img>","7","html-button-response","17","112297","0.0-3.0-16.0","31460","ListA","woman","chinese","SW_C_F_A3","","true","7","","","","","","",""
"null","正确","","html-keyboard-response","18","113809","0.0-3.0-17.0-0.0","31460","ListA","woman","chinese","SW_C_F_A3","","","","null","","","","","",""
"2863","<img src=""portrait/BW2.jpg""style=""height:400px;""></img>","2","html-button-response","19","116674","0.0-3.0-19.0","31460","ListA","woman","chinese","SW_C_F_A3","","true","2","","","","","","",""
"null","正确","","html-keyboard-response","20","118197","0.0-3.0-20.0-0.0","31460","ListA","woman","chinese","SW_C_F_A3","","","","null","","","","","",""
"2957","<img src=""portrait/WM1.jpg""style=""height:400px;""></img>","6","html-button-response","21","121155","0.0-3.0-22.0","31460","ListA","woman","chinese","SW_C_F_A3","","true","6","","","","","","",""
"null","正确","","html-keyboard-response","22","122667","0.0-3.0-23.0-0.0","31460","ListA","woman","chinese","SW_C_F_A3","","","","null","","","","","",""
"1618.7000000001863","<p>您第一次在8题里答对了 5 题。 请点击继续</p>","0","html-button-response","23","124287","0.0-3.0-25.0","31460","ListA","woman","chinese","SW_C_F_A3","","","","","","","","","",""
"3198.2999999998137","因为您没有全部答对，记忆游戏将重新开始。请点击继续。","0","html-button-response","24","128491","0.0-3.0-26.0-0.0","31460","ListA","woman","chinese","SW_C_F_A3","","","","","","","","","",""
"2126.2000000001863","<img src='img/portrait_matrix_listA_chinese.jpg' style='width:900px;height:500px;''></img><p>如果您已经记住了所有的人物和名字，请点击继续。</p><p><strong>请注意：您对先前记忆的面孔将在本实验中被测试5次。</strong></p>","0","html-button-response","25","131627","0.0-3.1-0.1","31460","ListA","woman","chinese","SW_C_F_A3","","","","","","","","","",""
"5152.4000000003725","<img src=""portrait/WW2.jpg""style=""height:400px;""></img>","3","html-button-response","26","137789","0.0-3.1-1.1","31460","ListA","woman","chinese","SW_C_F_A3","","true","3","","","","","","",""
"null","正确","","html-keyboard-response","27","139302","0.0-3.1-2.1-0.1","31460","ListA","woman","chinese","SW_C_F_A3","","","","null","","","","","",""
"4922.4000000003725","<img src=""portrait/WW1.jpg""style=""height:400px;""></img>","1","html-button-response","28","144226","0.0-3.1-4.1","31460","ListA","woman","chinese","SW_C_F_A3","","true","1","","","","","","",""
"null","正确","","html-keyboard-response","29","145731","0.0-3.1-5.1-0.1","31460","ListA","woman","chinese","SW_C_F_A3","","","","null","","","","","",""
"5931","<img src=""portrait/BW1.jpg""style=""height:400px;""></img>","0","html-button-response","30","151664","0.0-3.1-7.1","31460","ListA","woman","chinese","SW_C_F_A3","","true","0","","","","","","",""
"null","正确","","html-keyboard-response","31","153172","0.0-3.1-8.1-0.1","31460","ListA","woman","chinese","SW_C_F_A3","","","","null","","","","","",""
"1359","<img src=""portrait/BM1.jpg""style=""height:400px;""></img>","4","html-button-response","32","154532","0.0-3.1-10.1","31460","ListA","woman","chinese","SW_C_F_A3","","true","4","","","","","","",""
"null","正确","","html-keyboard-response","33","156043","0.0-3.1-11.1-0.1","31460","ListA","woman","chinese","SW_C_F_A3","","","","null","","","","","",""
"2543.800000000745","<img src=""portrait/BM2.jpg""style=""height:400px;""></img>","5","html-button-response","34","158589","0.0-3.1-13.1","31460","ListA","woman","chinese","SW_C_F_A3","","true","5","","","","","","",""
"null","正确","","html-keyboard-response","35","160107","0.0-3.1-14.1-0.1","31460","ListA","woman","chinese","SW_C_F_A3","","","","null","","","","","",""
"750.4000000003725","<img src=""portrait/WM2.jpg""style=""height:400px;""></img>","7","html-button-response","36","160859","0.0-3.1-16.1","31460","ListA","woman","chinese","SW_C_F_A3","","true","7","","","","","","",""
"null","正确","","html-keyboard-response","37","162372","0.0-3.1-17.1-0.1","31460","ListA","woman","chinese","SW_C_F_A3","","","","null","","","","","",""
"5181.700000000186","<img src=""portrait/BW2.jpg""style=""height:400px;""></img>","2","html-button-response","38","167555","0.0-3.1-19.1","31460","ListA","woman","chinese","SW_C_F_A3","","true","2","","","","","","",""
"null","正确","","html-keyboard-response","39","169067","0.0-3.1-20.1-0.1","31460","ListA","woman","chinese","SW_C_F_A3","","","","null","","","","","",""
"4518.5","<img src=""portrait/WM1.jpg""style=""height:400px;""></img>","6","html-button-response","40","173587","0.0-3.1-22.1","31460","ListA","woman","chinese","SW_C_F_A3","","true","6","","","","","","",""
"null","正确","","html-keyboard-response","41","175098","0.0-3.1-23.1-0.1","31460","ListA","woman","chinese","SW_C_F_A3","","","","null","","","","","",""
"900.5999999996275","<p>您第一次在8题里答对了 8 题。 请点击继续</p>","0","html-button-response","42","176000","0.0-3.1-25.1","31460","ListA","woman","chinese","SW_C_F_A3","","","","","","","","","",""
"54877.299999999814","<p>此次实验您将会看到先前记忆任务里的人物照片。</p><p>人物照片消失后您将看到一个动词短语，请正确回忆人物的名字并用特定的 动词短语组成一句完整的句子。</p><p>请在指定的框内输入您的答案。在进入下一题之前请确保您填写了完整的句子。</p><p>人物照片和动词短语只会在屏幕上出现几秒钟，因此请您答题时尽量集中注意力。</p><p>以下是例子。请您在准备好后按下“继续”。</p><img src='img/chinese_speaking_example.jpg' style='width:800px;height:460px;''></img>","0","html-button-response","43","231891","0.0-4.0","31460","ListA","woman","chinese","SW_C_F_A3","","","","","","","","","",""
"1819.2999999998137","<p>在实验开始前，将为您展示两个示例实验。</p>","0","html-button-response","44","234716","0.0-5.0","31460","ListA","woman","chinese","SW_C_F_A3","","","","","","","","","",""
"null","<img src='img/meet.gif' style='height:400px;''></img>","","html-keyboard-response","45","237730","0.0-6.0","31460","ListA","woman","chinese","SW_C_F_A3","","","","null","","","","","",""
"null","<p>正在约见</p>","","html-keyboard-response","46","239739","0.0-7.0","31460","ListA","woman","chinese","SW_C_F_A3","","","","null","","","","","",""
"5618.399999999441","<p><b>答案:</b> 凯特正在约见贝斯</p>","0","html-button-response","47","245358","0.0-8.0","31460","ListA","woman","chinese","SW_C_F_A3","","","","","","","","","",""
"null","<img src='img/spy.gif' style='height:400px;''></img>","","html-keyboard-response","48","248371","0.0-9.0","31460","ListA","woman","chinese","SW_C_F_A3","","","","null","","","","","",""
"null","<p>正在监视</p>","","html-keyboard-response","49","250379","0.0-10.0","31460","ListA","woman","chinese","SW_C_F_A3","","","","null","","","","","",""
"5297.200000000186","<p><b>答案:</b> 卢克正在监视戴夫</p>","0","html-button-response","50","255677","0.0-11.0","31460","ListA","woman","chinese","SW_C_F_A3","","","","","","","","","",""
"8797.5","<p>准备好开始了吗？</p><br><p><strong>请记住，您的答案需是一句完整的句子</strong></p><p><strong>，并用给到的图片人物和动词短语作答。</strong></p><p><strong>只有正确并完整完成实验才可获得报酬。</strong></p><p><strong> 您不需要加入任何标点符号。</strong></p><br><p>请按 ‘继续’ 键开始。</p>","0","html-button-response","51","265483","0.0-12.0","31460","ListA","woman","chinese","SW_C_F_A3","","","","","","","","","",""
"null","<div style=""font-size:60px;"">+</div>","","html-keyboard-response","52","266997","0.0-13.0-0.0","31460","ListA","woman","chinese","SW_C_F_A3","","","","null","","","","","",""
"null","<img src='gifs/BlackGender1b.gif' style='height:400px;''></img>","","html-keyboard-response","53","269004","0.0-13.0-1.0","31460","ListA","woman","chinese","SW_C_F_A3","","","","null","","","","","",""
"null","正在走向","","html-keyboard-response","54","272012","0.0-13.0-2.0","31460","ListA","woman","chinese","SW_C_F_A3","","","","null","","","","","",""
"7742.4000000003725","","","survey-text","55","279759","0.0-13.0-3.0","31460","ListA","woman","chinese","SW_C_F_A3","","","","","{""Q0"":""露丝正在走向卢克""}","<img src='gifs/BlackGender1b.gif' style='height:400px;''></img>","走向","正在走向","chinese",""
"null","<div style=""font-size:60px;"">+</div>","","html-keyboard-response","56","280265","0.0-13.0-0.1","31460","ListA","woman","chinese","SW_C_F_A3","","","","null","","","","","",""
"null","<img src='gifs/BlackGender2a.gif' style='height:400px;''></img>","","html-keyboard-response","57","282274","0.0-13.0-1.1","31460","ListA","woman","chinese","SW_C_F_A3","","","","null","","","","","",""
"null","正在答应","","html-keyboard-response","58","285286","0.0-13.0-2.1","31460","ListA","woman","chinese","SW_C_F_A3","","","","null","","","","","",""
"7544.299999999814","","","survey-text","59","292834","0.0-13.0-3.1","31460","ListA","woman","chinese","SW_C_F_A3","","","","","{""Q0"":""露丝正在答应戴夫""}","<img src='gifs/BlackGender2a.gif' style='height:400px;''></img>","答应","正在答应","chinese",""
"null","<div style=""font-size:60px;"">+</div>","","html-keyboard-response","60","293339","0.0-13.0-0.2","31460","ListA","woman","chinese","SW_C_F_A3","","","","null","","","","","",""
"null","<img src='gifs/MaleRace1b.gif' style='height:400px;''></img>","","html-keyboard-response","61","295349","0.0-13.0-1.2","31460","ListA","woman","chinese","SW_C_F_A3","","","","null","","","","","",""
"null","正在答应","","html-keyboard-response","62","298355","0.0-13.0-2.2","31460","ListA","woman","chinese","SW_C_F_A3","","","","null","","","","","",""
"10762.099999999627","","","survey-text","63","309120","0.0-13.0-3.2","31460","ListA","woman","chinese","SW_C_F_A3","","","","","{""Q0"":""卢克正在答应麦克""}","<img src='gifs/MaleRace1b.gif' style='height:400px;''></img>","答应","正在答应","chinese",""
"null","<div style=""font-size:60px;"">+</div>","","html-keyboard-response","64","309627","0.0-13.0-0.3","31460","ListA","woman","chinese","SW_C_F_A3","","","","null","","","","","",""
"null","<img src='gifs/ChineseGender3a.gif' style='height:400px;''></img>","","html-keyboard-response","65","311637","0.0-13.0-1.3","31460","ListA","woman","chinese","SW_C_F_A3","","","","null","","","","","",""
"null","正在加入","","html-keyboard-response","66","314644","0.0-13.0-2.3","31460","ListA","woman","chinese","SW_C_F_A3","","","","null","","","","","",""
"9642","","","survey-text","67","324289","0.0-13.0-3.3","31460","ListA","woman","chinese","SW_C_F_A3","","","","","{""Q0"":""麦克正在加入贝斯""}","<img src='gifs/ChineseGender3a.gif' style='height:400px;''></img>","加入","正在加入","chinese",""
"null","<div style=""font-size:60px;"">+</div>","","html-keyboard-response","68","324795","0.0-13.0-0.4","31460","ListA","woman","chinese","SW_C_F_A3","","","","null","","","","","",""
"null","<img src='gifs/MaleRace3a.gif' style='height:400px;''></img>","","html-keyboard-response","69","326804","0.0-13.0-1.4","31460","ListA","woman","chinese","SW_C_F_A3","","","","null","","","","","",""
"null","正在看着","","html-keyboard-response","70","329813","0.0-13.0-2.4","31460","ListA","woman","chinese","SW_C_F_A3","","","","null","","","","","",""
"3958.2000000001863","","","survey-text","71","333775","0.0-13.0-3.4","31460","ListA","woman","chinese","SW_C_F_A3","","","","","{""Q0"":""麦克正在看着卢克""}","<img src='gifs/MaleRace3a.gif' style='height:400px;''></img>","看着","正在看着","chinese",""
"null","<div style=""font-size:60px;"">+</div>","","html-keyboard-response","72","334283","0.0-13.0-0.5","31460","ListA","woman","chinese","SW_C_F_A3","","","","null","","","","","",""
"null","<img src='gifs/BlackGender1a.gif' style='height:400px;''></img>","","html-keyboard-response","73","336291","0.0-13.0-1.5","31460","ListA","woman","chinese","SW_C_F_A3","","","","null","","","","","",""
"null","正在说服","","html-keyboard-response","74","339296","0.0-13.0-2.5","31460","ListA","woman","chinese","SW_C_F_A3","","","","null","","","","","",""
"7744.399999999441","","","survey-text","75","347043","0.0-13.0-3.5","31460","ListA","woman","chinese","SW_C_F_A3","","","","","{""Q0"":""露丝正在说服卢克""}","<img src='gifs/BlackGender1a.gif' style='height:400px;''></img>","说服","正在说服","chinese",""
"null","<div style=""font-size:60px;"">+</div>","","html-keyboard-response","76","347547","0.0-13.0-0.6","31460","ListA","woman","chinese","SW_C_F_A3","","","","null","","","","","",""
"null","<img src='gifs/FemaleRace2b.gif' style='height:400px;''></img>","","html-keyboard-response","77","349553","0.0-13.0-1.6","31460","ListA","woman","chinese","SW_C_F_A3","","","","null","","","","","",""
"null","正在触摸","","html-keyboard-response","78","352565","0.0-13.0-2.6","31460","ListA","woman","chinese","SW_C_F_A3","","","","null","","","","","",""
"6508.899999999441","","","survey-text","79","359076","0.0-13.0-3.6","31460","ListA","woman","chinese","SW_C_F_A3","","","","","{""Q0"":""凯特正在触摸霍普""}","<img src='gifs/FemaleRace2b.gif' style='height:400px;''></img>","触摸","正在触摸","chinese",""
"null","<div style=""font-size:60px;"">+</div>","","html-keyboard-response","80","359579","0.0-13.0-0.7","31460","ListA","woman","chinese","SW_C_F_A3","","","","null","","","","","",""
"null","<img src='gifs/FemaleRace1b.gif' style='height:400px;''></img>","","html-keyboard-response","81","361585","0.0-13.0-1.7","31460","ListA","woman","chinese","SW_C_F_A3","","","","null","","","","","",""
"null","正在触摸","","html-keyboard-response","82","364597","0.0-13.0-2.7","31460","ListA","woman","chinese","SW_C_F_A3","","","","null","","","","","",""
"7900.4000000003725","","","survey-text","83","372500","0.0-13.0-3.7","31460","ListA","woman","chinese","SW_C_F_A3","","","","","{""Q0"":""露丝正在触摸凯特""}","<img src='gifs/FemaleRace1b.gif' style='height:400px;''></img>","触摸","正在触摸","chinese",""
"null","<div style=""font-size:60px;"">+</div>","","html-keyboard-response","84","373003","0.0-13.0-0.8","31460","ListA","woman","chinese","SW_C_F_A3","","","","null","","","","","",""
"null","<img src='gifs/ChineseGender4a.gif' style='height:400px;''></img>","","html-keyboard-response","85","375013","0.0-13.0-1.8","31460","ListA","woman","chinese","SW_C_F_A3","","","","null","","","","","",""
"null","正在走向","","html-keyboard-response","86","378020","0.0-13.0-2.8","31460","ListA","woman","chinese","SW_C_F_A3","","","","null","","","","","",""
"6145.4000000003725","","","survey-text","87","384169","0.0-13.0-3.8","31460","ListA","woman","chinese","SW_C_F_A3","","","","","{""Q0"":""麦克正在走向凯特""}","<img src='gifs/ChineseGender4a.gif' style='height:400px;''></img>","走向","正在走向","chinese",""
"null","<div style=""font-size:60px;"">+</div>","","html-keyboard-response","88","384675","0.0-13.0-0.9","31460","ListA","woman","chinese","SW_C_F_A3","","","","null","","","","","",""
"null","<img src='gifs/MaleRace3a.gif' style='height:400px;''></img>","","html-keyboard-response","89","386682","0.0-13.0-1.9","31460","ListA","woman","chinese","SW_C_F_A3","","","","null","","","","","",""
"null","正在联系","","html-keyboard-response","90","389692","0.0-13.0-2.9","31460","ListA","woman","chinese","SW_C_F_A3","","","","null","","","","","",""
"3984.7000000001863","","","survey-text","91","393682","0.0-13.0-3.9","31460","ListA","woman","chinese","SW_C_F_A3","","","","","{""Q0"":""麦克正在联系卢克""}","<img src='gifs/MaleRace3a.gif' style='height:400px;''></img>","联系","正在联系","chinese",""
"null","<div style=""font-size:60px;"">+</div>","","html-keyboard-response","92","394187","0.0-13.0-0.10","31460","ListA","woman","chinese","SW_C_F_A3","","","","null","","","","","",""
"null","<img src='gifs/FemaleRace1b.gif' style='height:400px;''></img>","","html-keyboard-response","93","396196","0.0-13.0-1.10","31460","ListA","woman","chinese","SW_C_F_A3","","","","null","","","","","",""
"null","正在聆听","","html-keyboard-response","94","399205","0.0-13.0-2.10","31460","ListA","woman","chinese","SW_C_F_A3","","","","null","","","","","",""
"5093.700000000186","","","survey-text","95","404302","0.0-13.0-3.10","31460","ListA","woman","chinese","SW_C_F_A3","","","","","{""Q0"":""露丝正在聆听凯特""}","<img src='gifs/FemaleRace1b.gif' style='height:400px;''></img>","聆听","正在聆听","chinese",""
"null","<div style=""font-size:60px;"">+</div>","","html-keyboard-response","96","404813","0.0-13.0-0.11","31460","ListA","woman","chinese","SW_C_F_A3","","","","null","","","","","",""
"null","<img src='gifs/FemaleRace2b.gif' style='height:400px;''></img>","","html-keyboard-response","97","406820","0.0-13.0-1.11","31460","ListA","woman","chinese","SW_C_F_A3","","","","null","","","","","",""
"null","正在表扬","","html-keyboard-response","98","409830","0.0-13.0-2.11","31460","ListA","woman","chinese","SW_C_F_A3","","","","null","","","","","",""
"6316.4000000003725","","","survey-text","99","416150","0.0-13.0-3.11","31460","ListA","woman","chinese","SW_C_F_A3","","","","","{""Q0"":""霍普正在表扬凯特""}","<img src='gifs/FemaleRace2b.gif' style='height:400px;''></img>","表扬","正在表扬","chinese",""
"null","<div style=""font-size:60px;"">+</div>","","html-keyboard-response","100","416659","0.0-13.0-0.12","31460","ListA","woman","chinese","SW_C_F_A3","","","","null","","","","","",""
"null","<img src='gifs/ChineseGender1b.gif' style='height:400px;''></img>","","html-keyboard-response","101","418670","0.0-13.0-1.12","31460","ListA","woman","chinese","SW_C_F_A3","","","","null","","","","","",""
"null","正在说服","","html-keyboard-response","102","421676","0.0-13.0-2.12","31460","ListA","woman","chinese","SW_C_F_A3","","","","null","","","","","",""
"10824.099999999627","","","survey-text","103","432502","0.0-13.0-3.12","31460","ListA","woman","chinese","SW_C_F_A3","","","","","{""Q0"":""弗雷正在说服凯特""}","<img src='gifs/ChineseGender1b.gif' style='height:400px;''></img>","说服","正在说服","chinese",""
"null","<div style=""font-size:60px;"">+</div>","","html-keyboard-response","104","433012","0.0-13.0-0.13","31460","ListA","woman","chinese","SW_C_F_A3","","","","null","","","","","",""
"null","<img src='gifs/FemaleRace4a.gif' style='height:400px;''></img>","","html-keyboard-response","105","435021","0.0-13.0-1.13","31460","ListA","woman","chinese","SW_C_F_A3","","","","null","","","","","",""
"null","正在接近","","html-keyboard-response","106","438027","0.0-13.0-2.13","31460","ListA","woman","chinese","SW_C_F_A3","","","","null","","","","","",""
"4960.299999999814","","","survey-text","107","442991","0.0-13.0-3.13","31460","ListA","woman","chinese","SW_C_F_A3","","","","","{""Q0"":""霍普正在接近贝斯""}","<img src='gifs/FemaleRace4a.gif' style='height:400px;''></img>","接近","正在接近","chinese",""
"null","<div style=""font-size:60px;"">+</div>","","html-keyboard-response","108","443499","0.0-13.0-0.14","31460","ListA","woman","chinese","SW_C_F_A3","","","","null","","","","","",""
"null","<img src='gifs/FemaleRace1a.gif' style='height:400px;''></img>","","html-keyboard-response","109","445506","0.0-13.0-1.14","31460","ListA","woman","chinese","SW_C_F_A3","","","","null","","","","","",""
"null","正在看着","","html-keyboard-response","110","448513","0.0-13.0-2.14","31460","ListA","woman","chinese","SW_C_F_A3","","","","null","","","","","",""
"4206.399999999441","","","survey-text","111","452722","0.0-13.0-3.14","31460","ListA","woman","chinese","SW_C_F_A3","","","","","{""Q0"":""露丝正在看着凯特""}","<img src='gifs/FemaleRace1a.gif' style='height:400px;''></img>","看着","正在看着","chinese",""
"null","<div style=""font-size:60px;"">+</div>","","html-keyboard-response","112","453227","0.0-13.0-0.15","31460","ListA","woman","chinese","SW_C_F_A3","","","","null","","","","","",""
"null","<img src='gifs/FemaleRace2a.gif' style='height:400px;''></img>","","html-keyboard-response","113","455233","0.0-13.0-1.15","31460","ListA","woman","chinese","SW_C_F_A3","","","","null","","","","","",""
"null","正在表扬","","html-keyboard-response","114","458246","0.0-13.0-2.15","31460","ListA","woman","chinese","SW_C_F_A3","","","","null","","","","","",""
"3353.2000000001863","","","survey-text","115","461602","0.0-13.0-3.15","31460","ListA","woman","chinese","SW_C_F_A3","","","","","{""Q0"":""霍普正在表扬凯特""}","<img src='gifs/FemaleRace2a.gif' style='height:400px;''></img>","表扬","正在表扬","chinese",""
"null","<div style=""font-size:60px;"">+</div>","","html-keyboard-response","116","462107","0.0-13.0-0.16","31460","ListA","woman","chinese","SW_C_F_A3","","","","null","","","","","",""
"null","<img src='gifs/ChineseGender4a.gif' style='height:400px;''></img>","","html-keyboard-response","117","464115","0.0-13.0-1.16","31460","ListA","woman","chinese","SW_C_F_A3","","","","null","","","","","",""
"null","正在看着","","html-keyboard-response","118","467122","0.0-13.0-2.16","31460","ListA","woman","chinese","SW_C_F_A3","","","","null","","","","","",""
"4363.5","","","survey-text","119","471488","0.0-13.0-3.16","31460","ListA","woman","chinese","SW_C_F_A3","","","","","{""Q0"":""麦克正在看着凯特""}","<img src='gifs/ChineseGender4a.gif' style='height:400px;''></img>","看着","正在看着","chinese",""
"null","<div style=""font-size:60px;"">+</div>","","html-keyboard-response","120","471996","0.0-13.0-0.17","31460","ListA","woman","chinese","SW_C_F_A3","","","","null","","","","","",""
"null","<img src='gifs/ChineseGender2a.gif' style='height:400px;''></img>","","html-keyboard-response","121","474005","0.0-13.0-1.17","31460","ListA","woman","chinese","SW_C_F_A3","","","","null","","","","","",""
"null","正在联系","","html-keyboard-response","122","477012","0.0-13.0-2.17","31460","ListA","woman","chinese","SW_C_F_A3","","","","null","","","","","",""
"3366.2999999998137","","","survey-text","123","480381","0.0-13.0-3.17","31460","ListA","woman","chinese","SW_C_F_A3","","","","","{""Q0"":""霍普正在联系贝斯""}","<img src='gifs/ChineseGender2a.gif' style='height:400px;''></img>","联系","正在联系","chinese",""
"8967.5","<img src='img/portrait_matrix_listA_chinese.jpg' style='width:900px;height:500px;''></img><p>如果您已经记住了所有的人物和名字，请点击继续。</p><p><strong>请注意：您对先前记忆的面孔将在本实验中被测试5次。</strong></p>","0","html-button-response","124","489351","0.0-14.0-0.0","31460","ListA","woman","chinese","SW_C_F_A3","","","","","","","","","",""
"4545.299999999814","<img src=""portrait/BM1.jpg""style=""height:400px;""></img>","4","html-button-response","125","494902","0.0-14.0-1.0","31460","ListA","woman","chinese","SW_C_F_A3","","true","4","","","","","","",""
"null","正确","","html-keyboard-response","126","496413","0.0-14.0-2.0-0.0","31460","ListA","woman","chinese","SW_C_F_A3","","","","null","","","","","",""
"2662.2000000001863","<img src=""portrait/WM2.jpg""style=""height:400px;""></img>","7","html-button-response","127","499076","0.0-14.0-4.0","31460","ListA","woman","chinese","SW_C_F_A3","","true","7","","","","","","",""
"null","正确","","html-keyboard-response","128","500589","0.0-14.0-5.0-0.0","31460","ListA","woman","chinese","SW_C_F_A3","","","","null","","","","","",""
"3579.7000000001863","<img src=""portrait/BM2.jpg""style=""height:400px;""></img>","5","html-button-response","129","504171","0.0-14.0-7.0","31460","ListA","woman","chinese","SW_C_F_A3","","true","5","","","","","","",""
"null","正确","","html-keyboard-response","130","505691","0.0-14.0-8.0-0.0","31460","ListA","woman","chinese","SW_C_F_A3","","","","null","","","","","",""
"2738.600000000559","<img src=""portrait/WM1.jpg""style=""height:400px;""></img>","6","html-button-response","131","508431","0.0-14.0-10.0","31460","ListA","woman","chinese","SW_C_F_A3","","true","6","","","","","","",""
"null","正确","","html-keyboard-response","132","509938","0.0-14.0-11.0-0.0","31460","ListA","woman","chinese","SW_C_F_A3","","","","null","","","","","",""
"2058.2000000001863","<img src=""portrait/WW2.jpg""style=""height:400px;""></img>","3","html-button-response","133","511998","0.0-14.0-13.0","31460","ListA","woman","chinese","SW_C_F_A3","","true","3","","","","","","",""
"null","正确","","html-keyboard-response","134","513515","0.0-14.0-14.0-0.0","31460","ListA","woman","chinese","SW_C_F_A3","","","","null","","","","","",""
"2083.399999999441","<img src=""portrait/BW2.jpg""style=""height:400px;""></img>","2","html-button-response","135","515600","0.0-14.0-16.0","31460","ListA","woman","chinese","SW_C_F_A3","","true","2","","","","","","",""
"null","正确","","html-keyboard-response","136","517115","0.0-14.0-17.0-0.0","31460","ListA","woman","chinese","SW_C_F_A3","","","","null","","","","","",""
"4001","<img src=""portrait/WW1.jpg""style=""height:400px;""></img>","1","html-button-response","137","521118","0.0-14.0-19.0","31460","ListA","woman","chinese","SW_C_F_A3","","true","1","","","","","","",""
"null","正确","","html-keyboard-response","138","522634","0.0-14.0-20.0-0.0","31460","ListA","woman","chinese","SW_C_F_A3","","","","null","","","","","",""
"1764.8999999994412","<img src=""portrait/BW1.jpg""style=""height:400px;""></img>","0","html-button-response","139","524401","0.0-14.0-22.0","31460","ListA","woman","chinese","SW_C_F_A3","","true","0","","","","","","",""
"null","正确","","html-keyboard-response","140","525915","0.0-14.0-23.0-0.0","31460","ListA","woman","chinese","SW_C_F_A3","","","","null","","","","","",""
"799.2999999998137","<p>您第一次在8题里答对了 8 题。 请点击继续</p>","0","html-button-response","141","526715","0.0-14.0-25.0","31460","ListA","woman","chinese","SW_C_F_A3","","","","","","","","","",""
"null","<div style=""font-size:60px;"">+</div>","","html-keyboard-response","142","528230","0.0-15.0-0.0","31460","ListA","woman","chinese","SW_C_F_A3","","","","null","","","","","",""
"null","<img src='gifs/ChineseGender2a.gif' style='height:400px;''></img>","","html-keyboard-response","143","530236","0.0-15.0-1.0","31460","ListA","woman","chinese","SW_C_F_A3","","","","null","","","","","",""
"null","正在联系","","html-keyboard-response","144","533243","0.0-15.0-2.0","31460","ListA","woman","chinese","SW_C_F_A3","","","","null","","","","","",""
"4375.4000000003725","","","survey-text","145","537621","0.0-15.0-3.0","31460","ListA","woman","chinese","SW_C_F_A3","","","","","{""Q0"":""贝斯正在联系弗雷""}","<img src='gifs/ChineseGender2a.gif' style='height:400px;''></img>","联系","正在联系","chinese",""
"null","<div style=""font-size:60px;"">+</div>","","html-keyboard-response","146","538130","0.0-15.0-0.1","31460","ListA","woman","chinese","SW_C_F_A3","","","","null","","","","","",""
"null","<img src='gifs/MaleRace4a.gif' style='height:400px;''></img>","","html-keyboard-response","147","540141","0.0-15.0-1.1","31460","ListA","woman","chinese","SW_C_F_A3","","","","null","","","","","",""
"null","正在聘用","","html-keyboard-response","148","543147","0.0-15.0-2.1","31460","ListA","woman","chinese","SW_C_F_A3","","","","null","","","","","",""
"5511.600000000559","","","survey-text","149","548663","0.0-15.0-3.1","31460","ListA","woman","chinese","SW_C_F_A3","","","","","{""Q0"":""凯特正在聘用戴夫""}","<img src='gifs/MaleRace4a.gif' style='height:400px;''></img>","聘用","正在聘用","chinese",""
"null","<div style=""font-size:60px;"">+</div>","","html-keyboard-response","150","549170","0.0-15.0-0.2","31460","ListA","woman","chinese","SW_C_F_A3","","","","null","","","","","",""
"null","<img src='gifs/FemaleRace4b.gif' style='height:400px;''></img>","","html-keyboard-response","151","551179","0.0-15.0-1.2","31460","ListA","woman","chinese","SW_C_F_A3","","","","null","","","","","",""
"null","正在介绍","","html-keyboard-response","152","554187","0.0-15.0-2.2","31460","ListA","woman","chinese","SW_C_F_A3","","","","null","","","","","",""
"6096","","","survey-text","153","560287","0.0-15.0-3.2","31460","ListA","woman","chinese","SW_C_F_A3","","","","","{""Q0"":""霍普正在介绍贝斯""}","<img src='gifs/FemaleRace4b.gif' style='height:400px;''></img>","介绍","正在介绍","chinese",""
"null","<div style=""font-size:60px;"">+</div>","","html-keyboard-response","154","560795","0.0-15.0-0.3","31460","ListA","woman","chinese","SW_C_F_A3","","","","null","","","","","",""
"null","<img src='gifs/ChineseGender4b.gif' style='height:400px;''></img>","","html-keyboard-response","155","562806","0.0-15.0-1.3","31460","ListA","woman","chinese","SW_C_F_A3","","","","null","","","","","",""
"null","正在接近","","html-keyboard-response","156","565811","0.0-15.0-2.3","31460","ListA","woman","chinese","SW_C_F_A3","","","","null","","","","","",""
"6112.799999999814","","","survey-text","157","571926","0.0-15.0-3.3","31460","ListA","woman","chinese","SW_C_F_A3","","","","","{""Q0"":""麦克正在接近凯特""}","<img src='gifs/ChineseGender4b.gif' style='height:400px;''></img>","接近","正在接近","chinese",""
"null","<div style=""font-size:60px;"">+</div>","","html-keyboard-response","158","572435","0.0-15.0-0.4","31460","ListA","woman","chinese","SW_C_F_A3","","","","null","","","","","",""
"null","<img src='gifs/BlackGender4b.gif' style='height:400px;''></img>","","html-keyboard-response","159","574445","0.0-15.0-1.4","31460","ListA","woman","chinese","SW_C_F_A3","","","","null","","","","","",""
"null","正在介绍","","html-keyboard-response","160","577452","0.0-15.0-2.4","31460","ListA","woman","chinese","SW_C_F_A3","","","","null","","","","","",""
"3576.7000000001863","","","survey-text","161","581032","0.0-15.0-3.4","31460","ListA","woman","chinese","SW_C_F_A3","","","","","{""Q0"":""戴夫正在介绍霍普""}","<img src='gifs/BlackGender4b.gif' style='height:400px;''></img>","介绍","正在介绍","chinese",""
"null","<div style=""font-size:60px;"">+</div>","","html-keyboard-response","162","581540","0.0-15.0-0.5","31460","ListA","woman","chinese","SW_C_F_A3","","","","null","","","","","",""
"null","<img src='gifs/MaleRace2b.gif' style='height:400px;''></img>","","html-keyboard-response","163","583548","0.0-15.0-1.5","31460","ListA","woman","chinese","SW_C_F_A3","","","","null","","","","","",""
"null","正在接近","","html-keyboard-response","164","586555","0.0-15.0-2.5","31460","ListA","woman","chinese","SW_C_F_A3","","","","null","","","","","",""
"3789.4000000003725","","","survey-text","165","590348","0.0-15.0-3.5","31460","ListA","woman","chinese","SW_C_F_A3","","","","","{""Q0"":""弗雷正在接近戴夫""}","<img src='gifs/MaleRace2b.gif' style='height:400px;''></img>","接近","正在接近","chinese",""
"null","<div style=""font-size:60px;"">+</div>","","html-keyboard-response","166","590851","0.0-15.0-0.6","31460","ListA","woman","chinese","SW_C_F_A3","","","","null","","","","","",""
"null","<img src='gifs/BlackGender4a.gif' style='height:400px;''></img>","","html-keyboard-response","167","592861","0.0-15.0-1.6","31460","ListA","woman","chinese","SW_C_F_A3","","","","null","","","","","",""
"null","正在加入","","html-keyboard-response","168","595866","0.0-15.0-2.6","31460","ListA","woman","chinese","SW_C_F_A3","","","","null","","","","","",""
"6659.4000000003725","","","survey-text","169","602528","0.0-15.0-3.6","31460","ListA","woman","chinese","SW_C_F_A3","","","","","{""Q0"":""戴夫正在加入霍普""}","<img src='gifs/BlackGender4a.gif' style='height:400px;''></img>","加入","正在加入","chinese",""
"null","<div style=""font-size:60px;"">+</div>","","html-keyboard-response","170","603036","0.0-15.0-0.7","31460","ListA","woman","chinese","SW_C_F_A3","","","","null","","","","","",""
"null","<img src='gifs/ChineseGender1b.gif' style='height:400px;''></img>","","html-keyboard-response","171","605045","0.0-15.0-1.7","31460","ListA","woman","chinese","SW_C_F_A3","","","","null","","","","","",""
"null","正在聆听","","html-keyboard-response","172","608051","0.0-15.0-2.7","31460","ListA","woman","chinese","SW_C_F_A3","","","","null","","","","","",""
"4631.100000000559","","","survey-text","173","612684","0.0-15.0-3.7","31460","ListA","woman","chinese","SW_C_F_A3","","","","","{""Q0"":""弗雷正在聆听凯特""}","<img src='gifs/ChineseGender1b.gif' style='height:400px;''></img>","聆听","正在聆听","chinese",""
"null","<div style=""font-size:60px;"">+</div>","","html-keyboard-response","174","613189","0.0-15.0-0.8","31460","ListA","woman","chinese","SW_C_F_A3","","","","null","","","","","",""
"null","<img src='gifs/BlackGender2b.gif' style='height:400px;''></img>","","html-keyboard-response","175","615197","0.0-15.0-1.8","31460","ListA","woman","chinese","SW_C_F_A3","","","","null","","","","","",""
"null","正在触摸","","html-keyboard-response","176","618203","0.0-15.0-2.8","31460","ListA","woman","chinese","SW_C_F_A3","","","","null","","","","","",""
"6268.800000000745","","","survey-text","177","624474","0.0-15.0-3.8","31460","ListA","woman","chinese","SW_C_F_A3","","","","","{""Q0"":""戴夫正在触摸露丝""}","<img src='gifs/BlackGender2b.gif' style='height:400px;''></img>","触摸","正在触摸","chinese",""
"null","<div style=""font-size:60px;"">+</div>","","html-keyboard-response","178","624981","0.0-15.0-0.9","31460","ListA","woman","chinese","SW_C_F_A3","","","","null","","","","","",""
"null","<img src='gifs/ChineseGender3b.gif' style='height:400px;''></img>","","html-keyboard-response","179","626989","0.0-15.0-1.9","31460","ListA","woman","chinese","SW_C_F_A3","","","","null","","","","","",""
"null","正在说服","","html-keyboard-response","180","629994","0.0-15.0-2.9","31460","ListA","woman","chinese","SW_C_F_A3","","","","null","","","","","",""
"4228.5","","","survey-text","181","634226","0.0-15.0-3.9","31460","ListA","woman","chinese","SW_C_F_A3","","","","","{""Q0"":""麦克正在说服贝斯""}","<img src='gifs/ChineseGender3b.gif' style='height:400px;''></img>","说服","正在说服","chinese",""
"null","<div style=""font-size:60px;"">+</div>","","html-keyboard-response","182","634732","0.0-15.0-0.10","31460","ListA","woman","chinese","SW_C_F_A3","","","","null","","","","","",""
"null","<img src='gifs/MaleRace3b.gif' style='height:400px;''></img>","","html-keyboard-response","183","636740","0.0-15.0-1.10","31460","ListA","woman","chinese","SW_C_F_A3","","","","null","","","","","",""
"null","正在看着","","html-keyboard-response","184","639747","0.0-15.0-2.10","31460","ListA","woman","chinese","SW_C_F_A3","","","","null","","","","","",""
"3953.399999999441","","","survey-text","185","643704","0.0-15.0-3.10","31460","ListA","woman","chinese","SW_C_F_A3","","","","","{""Q0"":""麦克正在看着卢克""}","<img src='gifs/MaleRace3b.gif' style='height:400px;''></img>","看着","正在看着","chinese",""
"null","<div style=""font-size:60px;"">+</div>","","html-keyboard-response","186","644211","0.0-15.0-0.11","31460","ListA","woman","chinese","SW_C_F_A3","","","","null","","","","","",""
"null","<img src='gifs/BlackGender2b.gif' style='height:400px;''></img>","","html-keyboard-response","187","646221","0.0-15.0-1.11","31460","ListA","woman","chinese","SW_C_F_A3","","","","null","","","","","",""
"null","正在联系","","html-keyboard-response","188","649227","0.0-15.0-2.11","31460","ListA","woman","chinese","SW_C_F_A3","","","","null","","","","","",""
"3880.2999999998137","","","survey-text","189","653111","0.0-15.0-3.11","31460","ListA","woman","chinese","SW_C_F_A3","","","","","{""Q0"":""戴夫正在联系露丝""}","<img src='gifs/BlackGender2b.gif' style='height:400px;''></img>","联系","正在联系","chinese",""
"null","<div style=""font-size:60px;"">+</div>","","html-keyboard-response","190","653621","0.0-15.0-0.12","31460","ListA","woman","chinese","SW_C_F_A3","","","","null","","","","","",""
"null","<img src='gifs/FemaleRace1a.gif' style='height:400px;''></img>","","html-keyboard-response","191","655628","0.0-15.0-1.12","31460","ListA","woman","chinese","SW_C_F_A3","","","","null","","","","","",""
"null","正在提到","","html-keyboard-response","192","658635","0.0-15.0-2.12","31460","ListA","woman","chinese","SW_C_F_A3","","","","null","","","","","",""
"4539.200000000186","","","survey-text","193","663178","0.0-15.0-3.12","31460","ListA","woman","chinese","SW_C_F_A3","","","","","{""Q0"":""凯特正在提到露丝""}","<img src='gifs/FemaleRace1a.gif' style='height:400px;''></img>","提到","正在提到","chinese",""
"null","<div style=""font-size:60px;"">+</div>","","html-keyboard-response","194","663684","0.0-15.0-0.13","31460","ListA","woman","chinese","SW_C_F_A3","","","","null","","","","","",""
"null","<img src='gifs/MaleRace1a.gif' style='height:400px;''></img>","","html-keyboard-response","195","665691","0.0-15.0-1.13","31460","ListA","woman","chinese","SW_C_F_A3","","","","null","","","","","",""
"null","正在加入","","html-keyboard-response","196","668699","0.0-15.0-2.13","31460","ListA","woman","chinese","SW_C_F_A3","","","","null","","","","","",""
"5363.4000000003725","","","survey-text","197","674065","0.0-15.0-3.13","31460","ListA","woman","chinese","SW_C_F_A3","","","","","{""Q0"":""卢克正在加入弗雷""}","<img src='gifs/MaleRace1a.gif' style='height:400px;''></img>","加入","正在加入","chinese",""
"null","<div style=""font-size:60px;"">+</div>","","html-keyboard-response","198","674572","0.0-15.0-0.14","31460","ListA","woman","chinese","SW_C_F_A3","","","","null","","","","","",""
"null","<img src='gifs/MaleRace2a.gif' style='height:400px;''></img>","","html-keyboard-response","199","676581","0.0-15.0-1.14","31460","ListA","woman","chinese","SW_C_F_A3","","","","null","","","","","",""
"null","正在介绍","","html-keyboard-response","200","679590","0.0-15.0-2.14","31460","ListA","woman","chinese","SW_C_F_A3","","","","null","","","","","",""
"7506.4000000003725","","","survey-text","201","687098","0.0-15.0-3.14","31460","ListA","woman","chinese","SW_C_F_A3","","","","","{""Q0"":""弗雷正在介绍戴夫""}","<img src='gifs/MaleRace2a.gif' style='height:400px;''></img>","介绍","正在介绍","chinese",""
"null","<div style=""font-size:60px;"">+</div>","","html-keyboard-response","202","687606","0.0-15.0-0.15","31460","ListA","woman","chinese","SW_C_F_A3","","","","null","","","","","",""
"null","<img src='gifs/MaleRace2b.gif' style='height:400px;''></img>","","html-keyboard-response","203","689611","0.0-15.0-1.15","31460","ListA","woman","chinese","SW_C_F_A3","","","","null","","","","","",""
"null","正在说服","","html-keyboard-response","204","692619","0.0-15.0-2.15","31460","ListA","woman","chinese","SW_C_F_A3","","","","null","","","","","",""
"5453.9000000003725","","","survey-text","205","698077","0.0-15.0-3.15","31460","ListA","woman","chinese","SW_C_F_A3","","","","","{""Q0"":""弗雷正在说服戴夫""}","<img src='gifs/MaleRace2b.gif' style='height:400px;''></img>","说服","正在说服","chinese",""
"null","<div style=""font-size:60px;"">+</div>","","html-keyboard-response","206","698579","0.0-15.0-0.16","31460","ListA","woman","chinese","SW_C_F_A3","","","","null","","","","","",""
"null","<img src='gifs/FemaleRace2a.gif' style='height:400px;''></img>","","html-keyboard-response","207","700586","0.0-15.0-1.16","31460","ListA","woman","chinese","SW_C_F_A3","","","","null","","","","","",""
"null","正在陪伴","","html-keyboard-response","208","703596","0.0-15.0-2.16","31460","ListA","woman","chinese","SW_C_F_A3","","","","null","","","","","",""
"9841.200000000186","","","survey-text","209","713441","0.0-15.0-3.16","31460","ListA","woman","chinese","SW_C_F_A3","","","","","{""Q0"":""凯特正在陪伴霍普""}","<img src='gifs/FemaleRace2a.gif' style='height:400px;''></img>","陪伴","正在陪伴","chinese",""
"null","<div style=""font-size:60px;"">+</div>","","html-keyboard-response","210","713947","0.0-15.0-0.17","31460","ListA","woman","chinese","SW_C_F_A3","","","","null","","","","","",""
"null","<img src='gifs/BlackGender3a.gif' style='height:400px;''></img>","","html-keyboard-response","211","715957","0.0-15.0-1.17","31460","ListA","woman","chinese","SW_C_F_A3","","","","null","","","","","",""
"null","正在跟随","","html-keyboard-response","212","718965","0.0-15.0-2.17","31460","ListA","woman","chinese","SW_C_F_A3","","","","null","","","","","",""
"6920.5999999996275","","","survey-text","213","725889","0.0-15.0-3.17","31460","ListA","woman","chinese","SW_C_F_A3","","","","","{""Q0"":""霍普正在跟随卢克""}","<img src='gifs/BlackGender3a.gif' style='height:400px;''></img>","跟随","正在跟随","chinese",""
"3427.300000000745","<img src='img/portrait_matrix_listA_chinese.jpg' style='width:900px;height:500px;''></img><p>如果您已经记住了所有的人物和名字，请点击继续。</p><p><strong>请注意：您对先前记忆的面孔将在本实验中被测试5次。</strong></p>","0","html-button-response","214","729318","0.0-16.0-0.0","31460","ListA","woman","chinese","SW_C_F_A3","","","","","","","","","",""
"3452.7999999998137","<img src=""portrait/WW1.jpg""style=""height:400px;""></img>","1","html-button-response","215","733779","0.0-16.0-1.0","31460","ListA","woman","chinese","SW_C_F_A3","","true","1","","","","","","",""
"null","正确","","html-keyboard-response","216","735284","0.0-16.0-2.0-0.0","31460","ListA","woman","chinese","SW_C_F_A3","","","","null","","","","","",""
"2476.2999999998137","<img src=""portrait/BM2.jpg""style=""height:400px;""></img>","5","html-button-response","217","737762","0.0-16.0-4.0","31460","ListA","woman","chinese","SW_C_F_A3","","true","5","","","","","","",""
"null","正确","","html-keyboard-response","218","739275","0.0-16.0-5.0-0.0","31460","ListA","woman","chinese","SW_C_F_A3","","","","null","","","","","",""
"1851.1000000005588","<img src=""portrait/WM2.jpg""style=""height:400px;""></img>","7","html-button-response","219","741128","0.0-16.0-7.0","31460","ListA","woman","chinese","SW_C_F_A3","","true","7","","","","","","",""
"null","正确","","html-keyboard-response","220","742646","0.0-16.0-8.0-0.0","31460","ListA","woman","chinese","SW_C_F_A3","","","","null","","","","","",""
"3012.2000000001863","<img src=""portrait/BW1.jpg""style=""height:400px;""></img>","0","html-button-response","221","745661","0.0-16.0-10.0","31460","ListA","woman","chinese","SW_C_F_A3","","true","0","","","","","","",""
"null","正确","","html-keyboard-response","222","747170","0.0-16.0-11.0-0.0","31460","ListA","woman","chinese","SW_C_F_A3","","","","null","","","","","",""
"2175.5","<img src=""portrait/BW2.jpg""style=""height:400px;""></img>","2","html-button-response","223","749347","0.0-16.0-13.0","31460","ListA","woman","chinese","SW_C_F_A3","","true","2","","","","","","",""
"null","正确","","html-keyboard-response","224","750870","0.0-16.0-14.0-0.0","31460","ListA","woman","chinese","SW_C_F_A3","","","","null","","","","","",""
"1617.5","<img src=""portrait/BM1.jpg""style=""height:400px;""></img>","4","html-button-response","225","752489","0.0-16.0-16.0","31460","ListA","woman","chinese","SW_C_F_A3","","true","4","","","","","","",""
"null","正确","","html-keyboard-response","226","754012","0.0-16.0-17.0-0.0","31460","ListA","woman","chinese","SW_C_F_A3","","","","null","","","","","",""
"1389.7999999998137","<img src=""portrait/WM1.jpg""style=""height:400px;""></img>","0","html-button-response","227","755403","0.0-16.0-19.0","31460","ListA","woman","chinese","SW_C_F_A3","","true","6","","","","","","",""
"3117.2999999998137","<img src=""portrait/WM1.jpg""style=""height:400px;""></img>","6","html-button-response","228","759524","0.0-16.0-21.0-0.0","31460","ListA","woman","chinese","SW_C_F_A3","","false","6","","","","","","",""
"null","正确","","html-keyboard-response","229","761045","0.0-16.0-21.0-1.0-0.0","31460","ListA","woman","chinese","SW_C_F_A3","","","","null","","","","","",""
"1631.2000000001863","<img src=""portrait/WW2.jpg""style=""height:400px;""></img>","3","html-button-response","230","762679","0.0-16.0-22.0","31460","ListA","woman","chinese","SW_C_F_A3","","true","3","","","","","","",""
"null","正确","","html-keyboard-response","231","764185","0.0-16.0-23.0-0.0","31460","ListA","woman","chinese","SW_C_F_A3","","","","null","","","","","",""
"1066.8999999994412","<p>您第一次在8题里答对了 7 题。 请点击继续</p>","0","html-button-response","232","765253","0.0-16.0-25.0","31460","ListA","woman","chinese","SW_C_F_A3","","","","","","","","","",""
"1678.8999999994412","因为您没有全部答对，记忆游戏将重新开始。请点击继续。","0","html-button-response","233","767940","0.0-16.0-26.0-0.0","31460","ListA","woman","chinese","SW_C_F_A3","","","","","","","","","",""
"1623.0999999996275","<img src='img/portrait_matrix_listA_chinese.jpg' style='width:900px;height:500px;''></img><p>如果您已经记住了所有的人物和名字，请点击继续。</p><p><strong>请注意：您对先前记忆的面孔将在本实验中被测试5次。</strong></p>","0","html-button-response","234","770572","0.0-16.1-0.1","31460","ListA","woman","chinese","SW_C_F_A3","","","","","","","","","",""
"2056","<img src=""portrait/WW1.jpg""style=""height:400px;""></img>","1","html-button-response","235","773637","0.0-16.1-1.1","31460","ListA","woman","chinese","SW_C_F_A3","","true","1","","","","","","",""
"null","正确","","html-keyboard-response","236","775148","0.0-16.1-2.1-0.1","31460","ListA","woman","chinese","SW_C_F_A3","","","","null","","","","","",""
"2772","<img src=""portrait/BM2.jpg""style=""height:400px;""></img>","5","html-button-response","237","777922","0.0-16.1-4.1","31460","ListA","woman","chinese","SW_C_F_A3","","true","5","","","","","","",""
"null","正确","","html-keyboard-response","238","779443","0.0-16.1-5.1-0.1","31460","ListA","woman","chinese","SW_C_F_A3","","","","null","","","","","",""
"3530.9000000003725","<img src=""portrait/WM2.jpg""style=""height:400px;""></img>","7","html-button-response","239","782976","0.0-16.1-7.1","31460","ListA","woman","chinese","SW_C_F_A3","","true","7","","","","","","",""
"null","正确","","html-keyboard-response","240","784482","0.0-16.1-8.1-0.1","31460","ListA","woman","chinese","SW_C_F_A3","","","","null","","","","","",""
"2754.9000000003725","<img src=""portrait/BW1.jpg""style=""height:400px;""></img>","0","html-button-response","241","787239","0.0-16.1-10.1","31460","ListA","woman","chinese","SW_C_F_A3","","true","0","","","","","","",""
"null","正确","","html-keyboard-response","242","788750","0.0-16.1-11.1-0.1","31460","ListA","woman","chinese","SW_C_F_A3","","","","null","","","","","",""
"2729.7000000001863","<img src=""portrait/BW2.jpg""style=""height:400px;""></img>","2","html-button-response","243","791481","0.0-16.1-13.1","31460","ListA","woman","chinese","SW_C_F_A3","","true","2","","","","","","",""
"null","正确","","html-keyboard-response","244","792995","0.0-16.1-14.1-0.1","31460","ListA","woman","chinese","SW_C_F_A3","","","","null","","","","","",""
"1713.2999999998137","<img src=""portrait/BM1.jpg""style=""height:400px;""></img>","4","html-button-response","245","794711","0.0-16.1-16.1","31460","ListA","woman","chinese","SW_C_F_A3","","true","4","","","","","","",""
"null","正确","","html-keyboard-response","246","796220","0.0-16.1-17.1-0.1","31460","ListA","woman","chinese","SW_C_F_A3","","","","null","","","","","",""
"2643.399999999441","<img src=""portrait/WM1.jpg""style=""height:400px;""></img>","6","html-button-response","247","798865","0.0-16.1-19.1","31460","ListA","woman","chinese","SW_C_F_A3","","true","6","","","","","","",""
"null","正确","","html-keyboard-response","248","800380","0.0-16.1-20.1-0.1","31460","ListA","woman","chinese","SW_C_F_A3","","","","null","","","","","",""
"2435.7999999998137","<img src=""portrait/WW2.jpg""style=""height:400px;""></img>","3","html-button-response","249","802817","0.0-16.1-22.1","31460","ListA","woman","chinese","SW_C_F_A3","","true","3","","","","","","",""
"null","正确","","html-keyboard-response","250","804340","0.0-16.1-23.1-0.1","31460","ListA","woman","chinese","SW_C_F_A3","","","","null","","","","","",""
"829.7000000001863","<p>您第一次在8题里答对了 8 题。 请点击继续</p>","0","html-button-response","251","805171","0.0-16.1-25.1","31460","ListA","woman","chinese","SW_C_F_A3","","","","","","","","","",""
"null","<div style=""font-size:60px;"">+</div>","","html-keyboard-response","252","806686","0.0-17.0-0.0","31460","ListA","woman","chinese","SW_C_F_A3","","","","null","","","","","",""
"null","<img src='gifs/BlackGender4b.gif' style='height:400px;''></img>","","html-keyboard-response","253","808691","0.0-17.0-1.0","31460","ListA","woman","chinese","SW_C_F_A3","","","","null","","","","","",""
"null","正在聘用","","html-keyboard-response","254","811700","0.0-17.0-2.0","31460","ListA","woman","chinese","SW_C_F_A3","","","","null","","","","","",""
"8207","","","survey-text","255","819909","0.0-17.0-3.0","31460","ListA","woman","chinese","SW_C_F_A3","","","","","{""Q0"":""戴夫正在聘用凯特""}","<img src='gifs/BlackGender4b.gif' style='height:400px;''></img>","聘用","正在聘用","chinese",""
"null","<div style=""font-size:60px;"">+</div>","","html-keyboard-response","256","820412","0.0-17.0-0.1","31460","ListA","woman","chinese","SW_C_F_A3","","","","null","","","","","",""
"null","<img src='gifs/ChineseGender1a.gif' style='height:400px;''></img>","","html-keyboard-response","257","822420","0.0-17.0-1.1","31460","ListA","woman","chinese","SW_C_F_A3","","","","null","","","","","",""
"null","正在聘用","","html-keyboard-response","258","825430","0.0-17.0-2.1","31460","ListA","woman","chinese","SW_C_F_A3","","","","null","","","","","",""
"5951.600000000559","","","survey-text","259","831384","0.0-17.0-3.1","31460","ListA","woman","chinese","SW_C_F_A3","","","","","{""Q0"":""凯特正在聘用弗雷""}","<img src='gifs/ChineseGender1a.gif' style='height:400px;''></img>","聘用","正在聘用","chinese",""
"null","<div style=""font-size:60px;"">+</div>","","html-keyboard-response","260","831891","0.0-17.0-0.2","31460","ListA","woman","chinese","SW_C_F_A3","","","","null","","","","","",""
"null","<img src='gifs/MaleRace3b.gif' style='height:400px;''></img>","","html-keyboard-response","261","833900","0.0-17.0-1.2","31460","ListA","woman","chinese","SW_C_F_A3","","","","null","","","","","",""
"null","正在聘用","","html-keyboard-response","262","836908","0.0-17.0-2.2","31460","ListA","woman","chinese","SW_C_F_A3","","","","null","","","","","",""
"4511.200000000186","","","survey-text","263","841423","0.0-17.0-3.2","31460","ListA","woman","chinese","SW_C_F_A3","","","","","{""Q0"":""麦克正在聘用卢克""}","<img src='gifs/MaleRace3b.gif' style='height:400px;''></img>","聘用","正在聘用","chinese",""
"null","<div style=""font-size:60px;"">+</div>","","html-keyboard-response","264","841932","0.0-17.0-0.3","31460","ListA","woman","chinese","SW_C_F_A3","","","","null","","","","","",""
"null","<img src='gifs/MaleRace4a.gif' style='height:400px;''></img>","","html-keyboard-response","265","843937","0.0-17.0-1.3","31460","ListA","woman","chinese","SW_C_F_A3","","","","null","","","","","",""
"null","正在提到","","html-keyboard-response","266","846950","0.0-17.0-2.3","31460","ListA","woman","chinese","SW_C_F_A3","","","","null","","","","","",""
"4908","","","survey-text","267","851862","0.0-17.0-3.3","31460","ListA","woman","chinese","SW_C_F_A3","","","","","{""Q0"":""麦克正在提到戴夫""}","<img src='gifs/MaleRace4a.gif' style='height:400px;''></img>","提到","正在提到","chinese",""
"null","<div style=""font-size:60px;"">+</div>","","html-keyboard-response","268","852374","0.0-17.0-0.4","31460","ListA","woman","chinese","SW_C_F_A3","","","","null","","","","","",""
"null","<img src='gifs/MaleRace4b.gif' style='height:400px;''></img>","","html-keyboard-response","269","854380","0.0-17.0-1.4","31460","ListA","woman","chinese","SW_C_F_A3","","","","null","","","","","",""
"null","正在答应","","html-keyboard-response","270","857388","0.0-17.0-2.4","31460","ListA","woman","chinese","SW_C_F_A3","","","","null","","","","","",""
"5106.5","","","survey-text","271","862497","0.0-17.0-3.4","31460","ListA","woman","chinese","SW_C_F_A3","","","","","{""Q0"":""麦克正在答应戴夫""}","<img src='gifs/MaleRace4b.gif' style='height:400px;''></img>","答应","正在答应","chinese",""
"null","<div style=""font-size:60px;"">+</div>","","html-keyboard-response","272","863004","0.0-17.0-0.5","31460","ListA","woman","chinese","SW_C_F_A3","","","","null","","","","","",""
"null","<img src='gifs/MaleRace2a.gif' style='height:400px;''></img>","","html-keyboard-response","273","865012","0.0-17.0-1.5","31460","ListA","woman","chinese","SW_C_F_A3","","","","null","","","","","",""
"null","正在接近","","html-keyboard-response","274","868017","0.0-17.0-2.5","31460","ListA","woman","chinese","SW_C_F_A3","","","","null","","","","","",""
"4332.4000000003725","","","survey-text","275","872352","0.0-17.0-3.5","31460","ListA","woman","chinese","SW_C_F_A3","","","","","{""Q0"":""戴夫正在接近弗雷""}","<img src='gifs/MaleRace2a.gif' style='height:400px;''></img>","接近","正在接近","chinese",""
"null","<div style=""font-size:60px;"">+</div>","","html-keyboard-response","276","872861","0.0-17.0-0.6","31460","ListA","woman","chinese","SW_C_F_A3","","","","null","","","","","",""
"null","<img src='gifs/ChineseGender2b.gif' style='height:400px;''></img>","","html-keyboard-response","277","874870","0.0-17.0-1.6","31460","ListA","woman","chinese","SW_C_F_A3","","","","null","","","","","",""
"null","正在走向","","html-keyboard-response","278","877878","0.0-17.0-2.6","31460","ListA","woman","chinese","SW_C_F_A3","","","","null","","","","","",""
"11151.599999999627","","","survey-text","279","889032","0.0-17.0-3.6","31460","ListA","woman","chinese","SW_C_F_A3","","","","","{""Q0"":""贝斯正在走向弗雷""}","<img src='gifs/ChineseGender2b.gif' style='height:400px;''></img>","走向","正在走向","chinese",""
"null","<div style=""font-size:60px;"">+</div>","","html-keyboard-response","280","889542","0.0-17.0-0.7","31460","ListA","woman","chinese","SW_C_F_A3","","","","null","","","","","",""
"null","<img src='gifs/MaleRace1a.gif' style='height:400px;''></img>","","html-keyboard-response","281","891548","0.0-17.0-1.7","31460","ListA","woman","chinese","SW_C_F_A3","","","","null","","","","","",""
"null","正在提到","","html-keyboard-response","282","894556","0.0-17.0-2.7","31460","ListA","woman","chinese","SW_C_F_A3","","","","null","","","","","",""
"4974.299999999814","","","survey-text","283","899534","0.0-17.0-3.7","31460","ListA","woman","chinese","SW_C_F_A3","","","","","{""Q0"":""弗雷正在提到卢克""}","<img src='gifs/MaleRace1a.gif' style='height:400px;''></img>","提到","正在提到","chinese",""
"null","<div style=""font-size:60px;"">+</div>","","html-keyboard-response","284","900038","0.0-17.0-0.8","31460","ListA","woman","chinese","SW_C_F_A3","","","","null","","","","","",""
"null","<img src='gifs/FemaleRace3a.gif' style='height:400px;''></img>","","html-keyboard-response","285","902044","0.0-17.0-1.8","31460","ListA","woman","chinese","SW_C_F_A3","","","","null","","","","","",""
"null","正在触摸","","html-keyboard-response","286","905052","0.0-17.0-2.8","31460","ListA","woman","chinese","SW_C_F_A3","","","","null","","","","","",""
"4108","","","survey-text","287","909163","0.0-17.0-3.8","31460","ListA","woman","chinese","SW_C_F_A3","","","","","{""Q0"":""贝斯正在触摸露丝""}","<img src='gifs/FemaleRace3a.gif' style='height:400px;''></img>","触摸","正在触摸","chinese",""
"null","<div style=""font-size:60px;"">+</div>","","html-keyboard-response","288","909669","0.0-17.0-0.9","31460","ListA","woman","chinese","SW_C_F_A3","","","","null","","","","","",""
"null","<img src='gifs/ChineseGender3b.gif' style='height:400px;''></img>","","html-keyboard-response","289","911676","0.0-17.0-1.9","31460","ListA","woman","chinese","SW_C_F_A3","","","","null","","","","","",""
"null","正在陪伴","","html-keyboard-response","290","914684","0.0-17.0-2.9","31460","ListA","woman","chinese","SW_C_F_A3","","","","null","","","","","",""
"4153.299999999814","","","survey-text","291","918840","0.0-17.0-3.9","31460","ListA","woman","chinese","SW_C_F_A3","","","","","{""Q0"":""麦克正在陪伴贝斯""}","<img src='gifs/ChineseGender3b.gif' style='height:400px;''></img>","陪伴","正在陪伴","chinese",""
"null","<div style=""font-size:60px;"">+</div>","","html-keyboard-response","292","919349","0.0-17.0-0.10","31460","ListA","woman","chinese","SW_C_F_A3","","","","null","","","","","",""
"null","<img src='gifs/MaleRace4b.gif' style='height:400px;''></img>","","html-keyboard-response","293","921358","0.0-17.0-1.10","31460","ListA","woman","chinese","SW_C_F_A3","","","","null","","","","","",""
"null","正在跟随","","html-keyboard-response","294","924364","0.0-17.0-2.10","31460","ListA","woman","chinese","SW_C_F_A3","","","","null","","","","","",""
"4777.299999999814","","","survey-text","295","929144","0.0-17.0-3.10","31460","ListA","woman","chinese","SW_C_F_A3","","","","","{""Q0"":""麦克正在跟随戴夫""}","<img src='gifs/MaleRace4b.gif' style='height:400px;''></img>","跟随","正在跟随","chinese",""
"null","<div style=""font-size:60px;"">+</div>","","html-keyboard-response","296","929653","0.0-17.0-0.11","31460","ListA","woman","chinese","SW_C_F_A3","","","","null","","","","","",""
"null","<img src='gifs/BlackGender3b.gif' style='height:400px;''></img>","","html-keyboard-response","297","931661","0.0-17.0-1.11","31460","ListA","woman","chinese","SW_C_F_A3","","","","null","","","","","",""
"null","正在陪伴","","html-keyboard-response","298","934667","0.0-17.0-2.11","31460","ListA","woman","chinese","SW_C_F_A3","","","","null","","","","","",""
"4132.100000000559","","","survey-text","299","938802","0.0-17.0-3.11","31460","ListA","woman","chinese","SW_C_F_A3","","","","","{""Q0"":""霍普正在陪伴卢克""}","<img src='gifs/BlackGender3b.gif' style='height:400px;''></img>","陪伴","正在陪伴","chinese",""
"null","<div style=""font-size:60px;"">+</div>","","html-keyboard-response","300","939309","0.0-17.0-0.12","31460","ListA","woman","chinese","SW_C_F_A3","","","","null","","","","","",""
"null","<img src='gifs/BlackGender2a.gif' style='height:400px;''></img>","","html-keyboard-response","301","941318","0.0-17.0-1.12","31460","ListA","woman","chinese","SW_C_F_A3","","","","null","","","","","",""
"null","正在面向","","html-keyboard-response","302","944325","0.0-17.0-2.12","31460","ListA","woman","chinese","SW_C_F_A3","","","","null","","","","","",""
"4573","","","survey-text","303","948900","0.0-17.0-3.12","31460","ListA","woman","chinese","SW_C_F_A3","","","","","{""Q0"":""戴夫正在面向露丝""}","<img src='gifs/BlackGender2a.gif' style='height:400px;''></img>","面向","正在面向","chinese",""
"null","<div style=""font-size:60px;"">+</div>","","html-keyboard-response","304","949405","0.0-17.0-0.13","31460","ListA","woman","chinese","SW_C_F_A3","","","","null","","","","","",""
"null","<img src='gifs/ChineseGender4b.gif' style='height:400px;''></img>","","html-keyboard-response","305","951413","0.0-17.0-1.13","31460","ListA","woman","chinese","SW_C_F_A3","","","","null","","","","","",""
"null","正在聆听","","html-keyboard-response","306","954422","0.0-17.0-2.13","31460","ListA","woman","chinese","SW_C_F_A3","","","","null","","","","","",""
"4984.399999999441","","","survey-text","307","959411","0.0-17.0-3.13","31460","ListA","woman","chinese","SW_C_F_A3","","","","","{""Q0"":""麦克正在聆听凯特""}","<img src='gifs/ChineseGender4b.gif' style='height:400px;''></img>","聆听","正在聆听","chinese",""
"null","<div style=""font-size:60px;"">+</div>","","html-keyboard-response","308","959916","0.0-17.0-0.14","31460","ListA","woman","chinese","SW_C_F_A3","","","","null","","","","","",""
"null","<img src='gifs/FemaleRace3b.gif' style='height:400px;''></img>","","html-keyboard-response","309","961921","0.0-17.0-1.14","31460","ListA","woman","chinese","SW_C_F_A3","","","","null","","","","","",""
"null","正在聆听","","html-keyboard-response","310","964934","0.0-17.0-2.14","31460","ListA","woman","chinese","SW_C_F_A3","","","","null","","","","","",""
"4496.700000000186","","","survey-text","311","969435","0.0-17.0-3.14","31460","ListA","woman","chinese","SW_C_F_A3","","","","","{""Q0"":""露丝正在聆听贝斯""}","<img src='gifs/FemaleRace3b.gif' style='height:400px;''></img>","聆听","正在聆听","chinese",""
"null","<div style=""font-size:60px;"">+</div>","","html-keyboard-response","312","969939","0.0-17.0-0.15","31460","ListA","woman","chinese","SW_C_F_A3","","","","null","","","","","",""
"null","<img src='gifs/FemaleRace4a.gif' style='height:400px;''></img>","","html-keyboard-response","313","971949","0.0-17.0-1.15","31460","ListA","woman","chinese","SW_C_F_A3","","","","null","","","","","",""
"null","正在面向","","html-keyboard-response","314","974956","0.0-17.0-2.15","31460","ListA","woman","chinese","SW_C_F_A3","","","","null","","","","","",""
"6143.5","","","survey-text","315","981103","0.0-17.0-3.15","31460","ListA","woman","chinese","SW_C_F_A3","","","","","{""Q0"":""霍普正在面向贝斯""}","<img src='gifs/FemaleRace4a.gif' style='height:400px;''></img>","面向","正在面向","chinese",""
"null","<div style=""font-size:60px;"">+</div>","","html-keyboard-response","316","981611","0.0-17.0-0.16","31460","ListA","woman","chinese","SW_C_F_A3","","","","null","","","","","",""
"null","<img src='gifs/BlackGender1b.gif' style='height:400px;''></img>","","html-keyboard-response","317","983619","0.0-17.0-1.16","31460","ListA","woman","chinese","SW_C_F_A3","","","","null","","","","","",""
"null","正在走向","","html-keyboard-response","318","986625","0.0-17.0-2.16","31460","ListA","woman","chinese","SW_C_F_A3","","","","null","","","","","",""
"5470","","","survey-text","319","992099","0.0-17.0-3.16","31460","ListA","woman","chinese","SW_C_F_A3","","","","","{""Q0"":""卢克正在走向露丝""}","<img src='gifs/BlackGender1b.gif' style='height:400px;''></img>","走向","正在走向","chinese",""
"null","<div style=""font-size:60px;"">+</div>","","html-keyboard-response","320","992604","0.0-17.0-0.17","31460","ListA","woman","chinese","SW_C_F_A3","","","","null","","","","","",""
"null","<img src='gifs/ChineseGender3a.gif' style='height:400px;''></img>","","html-keyboard-response","321","994614","0.0-17.0-1.17","31460","ListA","woman","chinese","SW_C_F_A3","","","","null","","","","","",""
"null","正在答应","","html-keyboard-response","322","997622","0.0-17.0-2.17","31460","ListA","woman","chinese","SW_C_F_A3","","","","null","","","","","",""
"3594.7000000001863","","","survey-text","323","1001220","0.0-17.0-3.17","31460","ListA","woman","chinese","SW_C_F_A3","","","","","{""Q0"":""麦克正在答应贝斯""}","<img src='gifs/ChineseGender3a.gif' style='height:400px;''></img>","答应","正在答应","chinese",""
"4258.9000000003725","<p>Thank you for completing that task.</p><p>The final part of this session is a short questionnaire.</p><p>Press Continue.</p>","0","html-button-response","324","1005482","0.0-18.0","31460","ListA","woman","chinese","SW_C_F_A3","","","","","","","","","",""
"56587.60000000056","","","survey-text","325","1063078","0.0-19.0","31460","ListA","woman","chinese","SW_C_F_A3","","","","","{""Q0"":""27"",""Q1"":""chinese"",""Q2"":""chinese and english"",""Q3"":""UK"",""Q4"":""chineses"",""Q5"":""Chinese"",""Q6"":""""}","","","","","demographics"
"4649.700000000186","<p>Have you lived in the UK for the last 5 years or more?</p>","1","html-button-response","326","1067730","0.0-20.0","31460","ListA","woman","chinese","SW_C_F_A3","","","","","","","","","","fiveyears"
"10503.5","","","external-html","327","1079436","0.0-21.0","31460","ListA","woman","chinese","SW_C_F_A3","debrief.html","","","","","","","","",""
"11747","","","survey-text","328","1091185","0.0-22.0","31460","ListA","woman","chinese","SW_C_F_A3","","","","","{""ptpt_id"":""SW_C_F_A3""}","","","","","worker_id"
