"rt","stimulus","button_pressed","trial_type","trial_index","time_elapsed","internal_node_id","subject","list","ppt_gender","ppt_language","ptptID","url","first_guess","correct","key_press","responses","image","verb","phrase","condition","test_part"
"1668.5","Welcome to the experiment. Press Continue to begin.","0","html-button-response","0","1670","0.0-0.0","32447","ListA","man","chinese","CMA12","","","","","","","","","",""
"35645.30000001192","","","external-html","1","38357","0.0-1.0","32447","ListA","man","chinese","CMA12","consent.html","","","","","","","","",""
"22076.600000023842","<p>在下一页中，您将看到8个人物肖像和他们各自的名字。</p><p>请花费几分钟的时间记住这些人物及其所对应的名字。</p><p>之后的实验中需要您对人物的名字做出回忆，</p><p>因此在实验开始前请确保您已 经完全记住这些人物及其所对应的名字。</p><p><strong>然后您将完成一个测试以检验您对人物和名字的记忆。</strong></p><p>完成此记忆测试后，您将正式进入实验。</p><p>准备好了吗？</p>","0","html-button-response","2","60435","0.0-2.0","32447","ListA","man","chinese","CMA12","","","","","","","","","",""
"42283.90000003576","<img src='img/portrait_matrix_listA_chinese.jpg' style='width:900px;height:500px;''></img><p>如果您已经记住了所有的人物和名字，请点击继续。</p><p><strong>请注意：您对先前记忆的面孔将在本实验中被测试5次。</strong></p>","0","html-button-response","3","103732","0.0-3.0-0.0","32447","ListA","man","chinese","CMA12","","","","","","","","","",""
"4315.300000011921","<img src=""portrait/BW1.jpg""style=""height:400px;""></img>","0","html-button-response","4","109057","0.0-3.0-1.0","32447","ListA","man","chinese","CMA12","","true","0","","","","","","",""
"null","正确","","html-keyboard-response","5","110563","0.0-3.0-2.0-0.0","32447","ListA","man","chinese","CMA12","","","","null","","","","","",""
"3012.900000035763","<img src=""portrait/WM2.jpg""style=""height:400px;""></img>","7","html-button-response","6","113577","0.0-3.0-4.0","32447","ListA","man","chinese","CMA12","","true","7","","","","","","",""
"null","正确","","html-keyboard-response","7","115102","0.0-3.0-5.0-0.0","32447","ListA","man","chinese","CMA12","","","","null","","","","","",""
"2881.800000011921","<img src=""portrait/WW2.jpg""style=""height:400px;""></img>","3","html-button-response","8","117984","0.0-3.0-7.0","32447","ListA","man","chinese","CMA12","","true","3","","","","","","",""
"null","正确","","html-keyboard-response","9","119499","0.0-3.0-8.0-0.0","32447","ListA","man","chinese","CMA12","","","","null","","","","","",""
"8213","<img src=""portrait/BM1.jpg""style=""height:400px;""></img>","4","html-button-response","10","127713","0.0-3.0-10.0","32447","ListA","man","chinese","CMA12","","true","4","","","","","","",""
"null","正确","","html-keyboard-response","11","129241","0.0-3.0-11.0-0.0","32447","ListA","man","chinese","CMA12","","","","null","","","","","",""
"7213.199999988079","<img src=""portrait/WM1.jpg""style=""height:400px;""></img>","6","html-button-response","12","136456","0.0-3.0-13.0","32447","ListA","man","chinese","CMA12","","true","6","","","","","","",""
"null","正确","","html-keyboard-response","13","137981","0.0-3.0-14.0-0.0","32447","ListA","man","chinese","CMA12","","","","null","","","","","",""
"7977","<img src=""portrait/WW1.jpg""style=""height:400px;""></img>","1","html-button-response","14","145959","0.0-3.0-16.0","32447","ListA","man","chinese","CMA12","","true","1","","","","","","",""
"null","正确","","html-keyboard-response","15","147463","0.0-3.0-17.0-0.0","32447","ListA","man","chinese","CMA12","","","","null","","","","","",""
"4575.599999964237","<img src=""portrait/BW2.jpg""style=""height:400px;""></img>","3","html-button-response","16","152039","0.0-3.0-19.0","32447","ListA","man","chinese","CMA12","","true","2","","","","","","",""
"4741.400000035763","<img src=""portrait/BW2.jpg""style=""height:400px;""></img>","2","html-button-response","17","157796","0.0-3.0-21.0-0.0","32447","ListA","man","chinese","CMA12","","false","2","","","","","","",""
"null","正确","","html-keyboard-response","18","159326","0.0-3.0-21.0-1.0-0.0","32447","ListA","man","chinese","CMA12","","","","null","","","","","",""
"3199.100000023842","<img src=""portrait/BM2.jpg""style=""height:400px;""></img>","5","html-button-response","19","162527","0.0-3.0-22.0","32447","ListA","man","chinese","CMA12","","true","5","","","","","","",""
"null","正确","","html-keyboard-response","20","164044","0.0-3.0-23.0-0.0","32447","ListA","man","chinese","CMA12","","","","null","","","","","",""
"1091.699999988079","<p>您第一次在8题里答对了 7 题。 请点击继续</p>","0","html-button-response","21","165136","0.0-3.0-25.0","32447","ListA","man","chinese","CMA12","","","","","","","","","",""
"2847.899999976158","因为您没有全部答对，记忆游戏将重新开始。请点击继续。","0","html-button-response","22","168999","0.0-3.0-26.0-0.0","32447","ListA","man","chinese","CMA12","","","","","","","","","",""
"17867.5","<img src='img/portrait_matrix_listA_chinese.jpg' style='width:900px;height:500px;''></img><p>如果您已经记住了所有的人物和名字，请点击继续。</p><p><strong>请注意：您对先前记忆的面孔将在本实验中被测试5次。</strong></p>","0","html-button-response","23","187881","0.0-3.1-0.1","32447","ListA","man","chinese","CMA12","","","","","","","","","",""
"7457.899999976158","<img src=""portrait/BW1.jpg""style=""height:400px;""></img>","0","html-button-response","24","196343","0.0-3.1-1.1","32447","ListA","man","chinese","CMA12","","true","0","","","","","","",""
"null","正确","","html-keyboard-response","25","197869","0.0-3.1-2.1-0.1","32447","ListA","man","chinese","CMA12","","","","null","","","","","",""
"1144.199999988079","<img src=""portrait/WM2.jpg""style=""height:400px;""></img>","7","html-button-response","26","199015","0.0-3.1-4.1","32447","ListA","man","chinese","CMA12","","true","7","","","","","","",""
"null","正确","","html-keyboard-response","27","200523","0.0-3.1-5.1-0.1","32447","ListA","man","chinese","CMA12","","","","null","","","","","",""
"4621.699999988079","<img src=""portrait/WW2.jpg""style=""height:400px;""></img>","3","html-button-response","28","205146","0.0-3.1-7.1","32447","ListA","man","chinese","CMA12","","true","3","","","","","","",""
"null","正确","","html-keyboard-response","29","206656","0.0-3.1-8.1-0.1","32447","ListA","man","chinese","CMA12","","","","null","","","","","",""
"1726","<img src=""portrait/BM1.jpg""style=""height:400px;""></img>","4","html-button-response","30","208384","0.0-3.1-10.1","32447","ListA","man","chinese","CMA12","","true","4","","","","","","",""
"null","正确","","html-keyboard-response","31","209914","0.0-3.1-11.1-0.1","32447","ListA","man","chinese","CMA12","","","","null","","","","","",""
"3288","<img src=""portrait/WM1.jpg""style=""height:400px;""></img>","6","html-button-response","32","213203","0.0-3.1-13.1","32447","ListA","man","chinese","CMA12","","true","6","","","","","","",""
"null","正确","","html-keyboard-response","33","214711","0.0-3.1-14.1-0.1","32447","ListA","man","chinese","CMA12","","","","null","","","","","",""
"5666.299999952316","<img src=""portrait/WW1.jpg""style=""height:400px;""></img>","1","html-button-response","34","220378","0.0-3.1-16.1","32447","ListA","man","chinese","CMA12","","true","1","","","","","","",""
"null","正确","","html-keyboard-response","35","221887","0.0-3.1-17.1-0.1","32447","ListA","man","chinese","CMA12","","","","null","","","","","",""
"2018.9000000357628","<img src=""portrait/BW2.jpg""style=""height:400px;""></img>","2","html-button-response","36","223907","0.0-3.1-19.1","32447","ListA","man","chinese","CMA12","","true","2","","","","","","",""
"null","正确","","html-keyboard-response","37","225424","0.0-3.1-20.1-0.1","32447","ListA","man","chinese","CMA12","","","","null","","","","","",""
"1695.1000000238419","<img src=""portrait/BM2.jpg""style=""height:400px;""></img>","5","html-button-response","38","227120","0.0-3.1-22.1","32447","ListA","man","chinese","CMA12","","true","5","","","","","","",""
"null","正确","","html-keyboard-response","39","228632","0.0-3.1-23.1-0.1","32447","ListA","man","chinese","CMA12","","","","null","","","","","",""
"904.1999999880791","<p>您第一次在8题里答对了 8 题。 请点击继续</p>","0","html-button-response","40","229537","0.0-3.1-25.1","32447","ListA","man","chinese","CMA12","","","","","","","","","",""
"30524.700000047684","<p>此次实验您将会看到先前记忆任务里的人物照片。</p><p>人物照片消失后您将看到一个动词短语，请正确回忆人物的名字并用特定的 动词短语组成一句完整的句子。</p><p>请在指定的框内输入您的答案。在进入下一题之前请确保您填写了完整的句子。</p><p>人物照片和动词短语只会在屏幕上出现几秒钟，因此请您答题时尽量集中注意力。</p><p>以下是例子。请您在准备好后按下“继续”。</p><img src='img/chinese_speaking_example.jpg' style='width:800px;height:460px;''></img>","0","html-button-response","41","261065","0.0-4.0","32447","ListA","man","chinese","CMA12","","","","","","","","","",""
"1344.3999999761581","<p>在实验开始前，将为您展示两个示例实验。</p>","0","html-button-response","42","263417","0.0-5.0","32447","ListA","man","chinese","CMA12","","","","","","","","","",""
"null","<img src='img/meet.gif' style='height:400px;''></img>","","html-keyboard-response","43","266433","0.0-6.0","32447","ListA","man","chinese","CMA12","","","","null","","","","","",""
"null","<p>正在约见</p>","","html-keyboard-response","44","268442","0.0-7.0","32447","ListA","man","chinese","CMA12","","","","null","","","","","",""
"4617.099999964237","<p><b>答案:</b> 凯特正在约见贝斯</p>","0","html-button-response","45","273059","0.0-8.0","32447","ListA","man","chinese","CMA12","","","","","","","","","",""
"null","<img src='img/spy.gif' style='height:400px;''></img>","","html-keyboard-response","46","276070","0.0-9.0","32447","ListA","man","chinese","CMA12","","","","null","","","","","",""
"null","<p>正在监视</p>","","html-keyboard-response","47","278082","0.0-10.0","32447","ListA","man","chinese","CMA12","","","","null","","","","","",""
"5697.600000023842","<p><b>答案:</b> 卢克正在监视戴夫</p>","0","html-button-response","48","283780","0.0-11.0","32447","ListA","man","chinese","CMA12","","","","","","","","","",""
"11449.5","<p>准备好开始了吗？</p><br><p><strong>请记住，您的答案需是一句完整的句子</strong></p><p><strong>，并用给到的图片人物和动词短语作答。</strong></p><p><strong>只有正确并完整完成实验才可获得报酬。</strong></p><p><strong> 您不需要加入任何标点符号。</strong></p><br><p>请按 ‘继续’ 键开始。</p>","0","html-button-response","49","296242","0.0-12.0","32447","ListA","man","chinese","CMA12","","","","","","","","","",""
"null","<div style=""font-size:60px;"">+</div>","","html-keyboard-response","50","297770","0.0-13.0-0.0","32447","ListA","man","chinese","CMA12","","","","null","","","","","",""
"null","<img src='gifs/FemaleRace2a.gif' style='height:400px;''></img>","","html-keyboard-response","51","299783","0.0-13.0-1.0","32447","ListA","man","chinese","CMA12","","","","null","","","","","",""
"null","正在接近","","html-keyboard-response","52","302798","0.0-13.0-2.0","32447","ListA","man","chinese","CMA12","","","","null","","","","","",""
"51825.40000003576","","","survey-text","53","354626","0.0-13.0-3.0","32447","ListA","man","chinese","CMA12","","","","","{""Q0"":""贝丝正在接近凯特""}","<img src='gifs/FemaleRace2a.gif' style='height:400px;''></img>","接近","正在接近","chinese",""
"null","<div style=""font-size:60px;"">+</div>","","html-keyboard-response","54","355132","0.0-13.0-0.1","32447","ListA","man","chinese","CMA12","","","","null","","","","","",""
"null","<img src='gifs/MaleRace1a.gif' style='height:400px;''></img>","","html-keyboard-response","55","357135","0.0-13.0-1.1","32447","ListA","man","chinese","CMA12","","","","null","","","","","",""
"null","正在看着","","html-keyboard-response","56","360138","0.0-13.0-2.1","32447","ListA","man","chinese","CMA12","","","","null","","","","","",""
"31043","","","survey-text","57","391182","0.0-13.0-3.1","32447","ListA","man","chinese","CMA12","","","","","{""Q0"":""弗雷正在看着卢克""}","<img src='gifs/MaleRace1a.gif' style='height:400px;''></img>","看着","正在看着","chinese",""
"null","<div style=""font-size:60px;"">+</div>","","html-keyboard-response","58","391688","0.0-13.0-0.2","32447","ListA","man","chinese","CMA12","","","","null","","","","","",""
"null","<img src='gifs/FemaleRace2b.gif' style='height:400px;''></img>","","html-keyboard-response","59","393694","0.0-13.0-1.2","32447","ListA","man","chinese","CMA12","","","","null","","","","","",""
"null","正在提到","","html-keyboard-response","60","396700","0.0-13.0-2.2","32447","ListA","man","chinese","CMA12","","","","null","","","","","",""
"15293.399999976158","","","survey-text","61","411995","0.0-13.0-3.2","32447","ListA","man","chinese","CMA12","","","","","{""Q0"":""贝丝正在提到凯特""}","<img src='gifs/FemaleRace2b.gif' style='height:400px;''></img>","提到","正在提到","chinese",""
"null","<div style=""font-size:60px;"">+</div>","","html-keyboard-response","62","412510","0.0-13.0-0.3","32447","ListA","man","chinese","CMA12","","","","null","","","","","",""
"null","<img src='gifs/FemaleRace2a.gif' style='height:400px;''></img>","","html-keyboard-response","63","414512","0.0-13.0-1.3","32447","ListA","man","chinese","CMA12","","","","null","","","","","",""
"null","正在联系","","html-keyboard-response","64","417526","0.0-13.0-2.3","32447","ListA","man","chinese","CMA12","","","","null","","","","","",""
"7369.800000011921","","","survey-text","65","424897","0.0-13.0-3.3","32447","ListA","man","chinese","CMA12","","","","","{""Q0"":""贝丝正在联系凯特""}","<img src='gifs/FemaleRace2a.gif' style='height:400px;''></img>","联系","正在联系","chinese",""
"null","<div style=""font-size:60px;"">+</div>","","html-keyboard-response","66","425406","0.0-13.0-0.4","32447","ListA","man","chinese","CMA12","","","","null","","","","","",""
"null","<img src='gifs/ChineseGender3b.gif' style='height:400px;''></img>","","html-keyboard-response","67","427418","0.0-13.0-1.4","32447","ListA","man","chinese","CMA12","","","","null","","","","","",""
"null","正在加入","","html-keyboard-response","68","430429","0.0-13.0-2.4","32447","ListA","man","chinese","CMA12","","","","null","","","","","",""
"31154.19999998808","","","survey-text","69","461584","0.0-13.0-3.4","32447","ListA","man","chinese","CMA12","","","","","{""Q0"":""鲁西麦克""}","<img src='gifs/ChineseGender3b.gif' style='height:400px;''></img>","加入","正在加入","chinese",""
"null","<div style=""font-size:60px;"">+</div>","","html-keyboard-response","70","462087","0.0-13.0-0.5","32447","ListA","man","chinese","CMA12","","","","null","","","","","",""
"null","<img src='gifs/ChineseGender4a.gif' style='height:400px;''></img>","","html-keyboard-response","71","464098","0.0-13.0-1.5","32447","ListA","man","chinese","CMA12","","","","null","","","","","",""
"null","正在触摸","","html-keyboard-response","72","467100","0.0-13.0-2.5","32447","ListA","man","chinese","CMA12","","","","null","","","","","",""
"13660.300000011921","","","survey-text","73","480761","0.0-13.0-3.5","32447","ListA","man","chinese","CMA12","","","","","{""Q0"":""贝丝正在触摸麦克""}","<img src='gifs/ChineseGender4a.gif' style='height:400px;''></img>","触摸","正在触摸","chinese",""
"null","<div style=""font-size:60px;"">+</div>","","html-keyboard-response","74","481266","0.0-13.0-0.6","32447","ListA","man","chinese","CMA12","","","","null","","","","","",""
"null","<img src='gifs/FemaleRace4a.gif' style='height:400px;''></img>","","html-keyboard-response","75","483277","0.0-13.0-1.6","32447","ListA","man","chinese","CMA12","","","","null","","","","","",""
"null","正在介绍","","html-keyboard-response","76","486279","0.0-13.0-2.6","32447","ListA","man","chinese","CMA12","","","","null","","","","","",""
"12242.5","","","survey-text","77","498522","0.0-13.0-3.6","32447","ListA","man","chinese","CMA12","","","","","{""Q0"":""凯特正在介绍露西""}","<img src='gifs/FemaleRace4a.gif' style='height:400px;''></img>","介绍","正在介绍","chinese",""
"null","<div style=""font-size:60px;"">+</div>","","html-keyboard-response","78","499033","0.0-13.0-0.7","32447","ListA","man","chinese","CMA12","","","","null","","","","","",""
"null","<img src='gifs/FemaleRace3a.gif' style='height:400px;''></img>","","html-keyboard-response","79","501035","0.0-13.0-1.7","32447","ListA","man","chinese","CMA12","","","","null","","","","","",""
"null","正在接近","","html-keyboard-response","80","504035","0.0-13.0-2.7","32447","ListA","man","chinese","CMA12","","","","null","","","","","",""
"10291.099999964237","","","survey-text","81","514327","0.0-13.0-3.7","32447","ListA","man","chinese","CMA12","","","","","{""Q0"":""霍普正在接近露西""}","<img src='gifs/FemaleRace3a.gif' style='height:400px;''></img>","接近","正在接近","chinese",""
"null","<div style=""font-size:60px;"">+</div>","","html-keyboard-response","82","514829","0.0-13.0-0.8","32447","ListA","man","chinese","CMA12","","","","null","","","","","",""
"null","<img src='gifs/BlackGender1b.gif' style='height:400px;''></img>","","html-keyboard-response","83","516845","0.0-13.0-1.8","32447","ListA","man","chinese","CMA12","","","","null","","","","","",""
"null","正在加入","","html-keyboard-response","84","519846","0.0-13.0-2.8","32447","ListA","man","chinese","CMA12","","","","null","","","","","",""
"6185.800000011921","","","survey-text","85","526033","0.0-13.0-3.8","32447","ListA","man","chinese","CMA12","","","","","{""Q0"":""露西正在加入卢克""}","<img src='gifs/BlackGender1b.gif' style='height:400px;''></img>","加入","正在加入","chinese",""
"null","<div style=""font-size:60px;"">+</div>","","html-keyboard-response","86","526534","0.0-13.0-0.9","32447","ListA","man","chinese","CMA12","","","","null","","","","","",""
"null","<img src='gifs/MaleRace1b.gif' style='height:400px;''></img>","","html-keyboard-response","87","528538","0.0-13.0-1.9","32447","ListA","man","chinese","CMA12","","","","null","","","","","",""
"null","正在接近","","html-keyboard-response","88","531541","0.0-13.0-2.9","32447","ListA","man","chinese","CMA12","","","","null","","","","","",""
"6570.600000023842","","","survey-text","89","538113","0.0-13.0-3.9","32447","ListA","man","chinese","CMA12","","","","","{""Q0"":""弗雷正在接近卢克""}","<img src='gifs/MaleRace1b.gif' style='height:400px;''></img>","接近","正在接近","chinese",""
"null","<div style=""font-size:60px;"">+</div>","","html-keyboard-response","90","538615","0.0-13.0-0.10","32447","ListA","man","chinese","CMA12","","","","null","","","","","",""
"null","<img src='gifs/BlackGender2b.gif' style='height:400px;''></img>","","html-keyboard-response","91","540622","0.0-13.0-1.10","32447","ListA","man","chinese","CMA12","","","","null","","","","","",""
"null","正在介绍","","html-keyboard-response","92","543633","0.0-13.0-2.10","32447","ListA","man","chinese","CMA12","","","","null","","","","","",""
"12764.800000011921","","","survey-text","93","556399","0.0-13.0-3.10","32447","ListA","man","chinese","CMA12","","","","","{""Q0"":""戴夫正在介绍凯特""}","<img src='gifs/BlackGender2b.gif' style='height:400px;''></img>","介绍","正在介绍","chinese",""
"null","<div style=""font-size:60px;"">+</div>","","html-keyboard-response","94","556913","0.0-13.0-0.11","32447","ListA","man","chinese","CMA12","","","","null","","","","","",""
"null","<img src='gifs/FemaleRace1a.gif' style='height:400px;''></img>","","html-keyboard-response","95","558918","0.0-13.0-1.11","32447","ListA","man","chinese","CMA12","","","","null","","","","","",""
"null","正在聘用","","html-keyboard-response","96","561933","0.0-13.0-2.11","32447","ListA","man","chinese","CMA12","","","","null","","","","","",""
"8773","","","survey-text","97","570708","0.0-13.0-3.11","32447","ListA","man","chinese","CMA12","","","","","{""Q0"":""贝丝正在聘用凯特""}","<img src='gifs/FemaleRace1a.gif' style='height:400px;''></img>","聘用","正在聘用","chinese",""
"null","<div style=""font-size:60px;"">+</div>","","html-keyboard-response","98","571209","0.0-13.0-0.12","32447","ListA","man","chinese","CMA12","","","","null","","","","","",""
"null","<img src='gifs/ChineseGender2a.gif' style='height:400px;''></img>","","html-keyboard-response","99","573217","0.0-13.0-1.12","32447","ListA","man","chinese","CMA12","","","","null","","","","","",""
"null","正在陪伴","","html-keyboard-response","100","576219","0.0-13.0-2.12","32447","ListA","man","chinese","CMA12","","","","null","","","","","",""
"14958.300000011921","","","survey-text","101","591178","0.0-13.0-3.12","32447","ListA","man","chinese","CMA12","","","","","{""Q0"":""弗雷正在陪伴露西""}","<img src='gifs/ChineseGender2a.gif' style='height:400px;''></img>","陪伴","正在陪伴","chinese",""
"null","<div style=""font-size:60px;"">+</div>","","html-keyboard-response","102","591691","0.0-13.0-0.13","32447","ListA","man","chinese","CMA12","","","","null","","","","","",""
"null","<img src='gifs/MaleRace4a.gif' style='height:400px;''></img>","","html-keyboard-response","103","593692","0.0-13.0-1.13","32447","ListA","man","chinese","CMA12","","","","null","","","","","",""
"null","正在跟随","","html-keyboard-response","104","596694","0.0-13.0-2.13","32447","ListA","man","chinese","CMA12","","","","null","","","","","",""
"10356.300000011921","","","survey-text","105","607051","0.0-13.0-3.13","32447","ListA","man","chinese","CMA12","","","","","{""Q0"":""麦克正在跟随戴夫""}","<img src='gifs/MaleRace4a.gif' style='height:400px;''></img>","跟随","正在跟随","chinese",""
"null","<div style=""font-size:60px;"">+</div>","","html-keyboard-response","106","607563","0.0-13.0-0.14","32447","ListA","man","chinese","CMA12","","","","null","","","","","",""
"null","<img src='gifs/BlackGender4a.gif' style='height:400px;''></img>","","html-keyboard-response","107","609564","0.0-13.0-1.14","32447","ListA","man","chinese","CMA12","","","","null","","","","","",""
"null","正在说服","","html-keyboard-response","108","612565","0.0-13.0-2.14","32447","ListA","man","chinese","CMA12","","","","null","","","","","",""
"15064.100000023842","","","survey-text","109","627630","0.0-13.0-3.14","32447","ListA","man","chinese","CMA12","","","","","{""Q0"":""戴夫正在说服霍普""}","<img src='gifs/BlackGender4a.gif' style='height:400px;''></img>","说服","正在说服","chinese",""
"null","<div style=""font-size:60px;"">+</div>","","html-keyboard-response","110","628131","0.0-13.0-0.15","32447","ListA","man","chinese","CMA12","","","","null","","","","","",""
"null","<img src='gifs/MaleRace1a.gif' style='height:400px;''></img>","","html-keyboard-response","111","630133","0.0-13.0-1.15","32447","ListA","man","chinese","CMA12","","","","null","","","","","",""
"null","正在聆听","","html-keyboard-response","112","633134","0.0-13.0-2.15","32447","ListA","man","chinese","CMA12","","","","null","","","","","",""
"16258.699999988079","","","survey-text","113","649393","0.0-13.0-3.15","32447","ListA","man","chinese","CMA12","","","","","{""Q0"":""卢克正在聆听弗雷""}","<img src='gifs/MaleRace1a.gif' style='height:400px;''></img>","聆听","正在聆听","chinese",""
"null","<div style=""font-size:60px;"">+</div>","","html-keyboard-response","114","649905","0.0-13.0-0.16","32447","ListA","man","chinese","CMA12","","","","null","","","","","",""
"null","<img src='gifs/BlackGender2a.gif' style='height:400px;''></img>","","html-keyboard-response","115","651917","0.0-13.0-1.16","32447","ListA","man","chinese","CMA12","","","","null","","","","","",""
"null","正在说服","","html-keyboard-response","116","654920","0.0-13.0-2.16","32447","ListA","man","chinese","CMA12","","","","null","","","","","",""
"12026.400000035763","","","survey-text","117","666947","0.0-13.0-3.16","32447","ListA","man","chinese","CMA12","","","","","{""Q0"":""戴夫正在说服凯特""}","<img src='gifs/BlackGender2a.gif' style='height:400px;''></img>","说服","正在说服","chinese",""
"null","<div style=""font-size:60px;"">+</div>","","html-keyboard-response","118","667458","0.0-13.0-0.17","32447","ListA","man","chinese","CMA12","","","","null","","","","","",""
"null","<img src='gifs/BlackGender3a.gif' style='height:400px;''></img>","","html-keyboard-response","119","669459","0.0-13.0-1.17","32447","ListA","man","chinese","CMA12","","","","null","","","","","",""
"null","正在面向","","html-keyboard-response","120","672460","0.0-13.0-2.17","32447","ListA","man","chinese","CMA12","","","","null","","","","","",""
"8733.100000023842","","","survey-text","121","681195","0.0-13.0-3.17","32447","ListA","man","chinese","CMA12","","","","","{""Q0"":""卢克正在面向霍普""}","<img src='gifs/BlackGender3a.gif' style='height:400px;''></img>","面向","正在面向","chinese",""
"39464.40000003576","<img src='img/portrait_matrix_listA_chinese.jpg' style='width:900px;height:500px;''></img><p>如果您已经记住了所有的人物和名字，请点击继续。</p><p><strong>请注意：您对先前记忆的面孔将在本实验中被测试5次。</strong></p>","0","html-button-response","122","720660","0.0-14.0-0.0","32447","ListA","man","chinese","CMA12","","","","","","","","","",""
"2184.800000011921","<img src=""portrait/BM2.jpg""style=""height:400px;""></img>","5","html-button-response","123","723848","0.0-14.0-1.0","32447","ListA","man","chinese","CMA12","","true","5","","","","","","",""
"null","正确","","html-keyboard-response","124","725352","0.0-14.0-2.0-0.0","32447","ListA","man","chinese","CMA12","","","","null","","","","","",""
"1191.300000011921","<img src=""portrait/BM1.jpg""style=""height:400px;""></img>","4","html-button-response","125","726544","0.0-14.0-4.0","32447","ListA","man","chinese","CMA12","","true","4","","","","","","",""
"null","正确","","html-keyboard-response","126","728054","0.0-14.0-5.0-0.0","32447","ListA","man","chinese","CMA12","","","","null","","","","","",""
"2589.300000011921","<img src=""portrait/BW2.jpg""style=""height:400px;""></img>","2","html-button-response","127","730644","0.0-14.0-7.0","32447","ListA","man","chinese","CMA12","","true","2","","","","","","",""
"null","正确","","html-keyboard-response","128","732146","0.0-14.0-8.0-0.0","32447","ListA","man","chinese","CMA12","","","","null","","","","","",""
"4896.100000023842","<img src=""portrait/BW1.jpg""style=""height:400px;""></img>","0","html-button-response","129","737043","0.0-14.0-10.0","32447","ListA","man","chinese","CMA12","","true","0","","","","","","",""
"null","正确","","html-keyboard-response","130","738568","0.0-14.0-11.0-0.0","32447","ListA","man","chinese","CMA12","","","","null","","","","","",""
"3699.399999976158","<img src=""portrait/WM1.jpg""style=""height:400px;""></img>","6","html-button-response","131","742268","0.0-14.0-13.0","32447","ListA","man","chinese","CMA12","","true","6","","","","","","",""
"null","正确","","html-keyboard-response","132","743779","0.0-14.0-14.0-0.0","32447","ListA","man","chinese","CMA12","","","","null","","","","","",""
"5273.099999964237","<img src=""portrait/WW1.jpg""style=""height:400px;""></img>","1","html-button-response","133","749053","0.0-14.0-16.0","32447","ListA","man","chinese","CMA12","","true","1","","","","","","",""
"null","正确","","html-keyboard-response","134","750559","0.0-14.0-17.0-0.0","32447","ListA","man","chinese","CMA12","","","","null","","","","","",""
"5428.800000011921","<img src=""portrait/WM2.jpg""style=""height:400px;""></img>","7","html-button-response","135","755989","0.0-14.0-19.0","32447","ListA","man","chinese","CMA12","","true","7","","","","","","",""
"null","正确","","html-keyboard-response","136","757494","0.0-14.0-20.0-0.0","32447","ListA","man","chinese","CMA12","","","","null","","","","","",""
"2984.2000000476837","<img src=""portrait/WW2.jpg""style=""height:400px;""></img>","3","html-button-response","137","760479","0.0-14.0-22.0","32447","ListA","man","chinese","CMA12","","true","3","","","","","","",""
"null","正确","","html-keyboard-response","138","761987","0.0-14.0-23.0-0.0","32447","ListA","man","chinese","CMA12","","","","null","","","","","",""
"1046.2000000476837","<p>您第一次在8题里答对了 8 题。 请点击继续</p>","0","html-button-response","139","763034","0.0-14.0-25.0","32447","ListA","man","chinese","CMA12","","","","","","","","","",""
"null","<div style=""font-size:60px;"">+</div>","","html-keyboard-response","140","764545","0.0-15.0-0.0","32447","ListA","man","chinese","CMA12","","","","null","","","","","",""
"null","<img src='gifs/ChineseGender3a.gif' style='height:400px;''></img>","","html-keyboard-response","141","766560","0.0-15.0-1.0","32447","ListA","man","chinese","CMA12","","","","null","","","","","",""
"null","正在聆听","","html-keyboard-response","142","769561","0.0-15.0-2.0","32447","ListA","man","chinese","CMA12","","","","null","","","","","",""
"15793.899999976158","","","survey-text","143","785357","0.0-15.0-3.0","32447","ListA","man","chinese","CMA12","","","","","{""Q0"":""贝斯正在聆听麦克""}","<img src='gifs/ChineseGender3a.gif' style='height:400px;''></img>","聆听","正在聆听","chinese",""
"null","<div style=""font-size:60px;"">+</div>","","html-keyboard-response","144","785865","0.0-15.0-0.1","32447","ListA","man","chinese","CMA12","","","","null","","","","","",""
"null","<img src='gifs/MaleRace3a.gif' style='height:400px;''></img>","","html-keyboard-response","145","787881","0.0-15.0-1.1","32447","ListA","man","chinese","CMA12","","","","null","","","","","",""
"null","正在答应","","html-keyboard-response","146","790884","0.0-15.0-2.1","32447","ListA","man","chinese","CMA12","","","","null","","","","","",""
"6891.300000011921","","","survey-text","147","797777","0.0-15.0-3.1","32447","ListA","man","chinese","CMA12","","","","","{""Q0"":""麦克正在答应卢克""}","<img src='gifs/MaleRace3a.gif' style='height:400px;''></img>","答应","正在答应","chinese",""
"null","<div style=""font-size:60px;"">+</div>","","html-keyboard-response","148","798283","0.0-15.0-0.2","32447","ListA","man","chinese","CMA12","","","","null","","","","","",""
"null","<img src='gifs/MaleRace3a.gif' style='height:400px;''></img>","","html-keyboard-response","149","800285","0.0-15.0-1.2","32447","ListA","man","chinese","CMA12","","","","null","","","","","",""
"null","正在加入","","html-keyboard-response","150","803286","0.0-15.0-2.2","32447","ListA","man","chinese","CMA12","","","","null","","","","","",""
"4302.100000023842","","","survey-text","151","807589","0.0-15.0-3.2","32447","ListA","man","chinese","CMA12","","","","","{""Q0"":""麦克正在加入卢克""}","<img src='gifs/MaleRace3a.gif' style='height:400px;''></img>","加入","正在加入","chinese",""
"null","<div style=""font-size:60px;"">+</div>","","html-keyboard-response","152","808100","0.0-15.0-0.3","32447","ListA","man","chinese","CMA12","","","","null","","","","","",""
"null","<img src='gifs/ChineseGender2b.gif' style='height:400px;''></img>","","html-keyboard-response","153","810113","0.0-15.0-1.3","32447","ListA","man","chinese","CMA12","","","","null","","","","","",""
"null","正在提到","","html-keyboard-response","154","813113","0.0-15.0-2.3","32447","ListA","man","chinese","CMA12","","","","null","","","","","",""
"8464.899999976158","","","survey-text","155","821580","0.0-15.0-3.3","32447","ListA","man","chinese","CMA12","","","","","{""Q0"":""贝斯正在提到弗雷""}","<img src='gifs/ChineseGender2b.gif' style='height:400px;''></img>","提到","正在提到","chinese",""
"null","<div style=""font-size:60px;"">+</div>","","html-keyboard-response","156","822083","0.0-15.0-0.4","32447","ListA","man","chinese","CMA12","","","","null","","","","","",""
"null","<img src='gifs/FemaleRace3b.gif' style='height:400px;''></img>","","html-keyboard-response","157","824097","0.0-15.0-1.4","32447","ListA","man","chinese","CMA12","","","","null","","","","","",""
"null","正在接近","","html-keyboard-response","158","827098","0.0-15.0-2.4","32447","ListA","man","chinese","CMA12","","","","null","","","","","",""
"40975.09999996424","","","survey-text","159","868074","0.0-15.0-3.4","32447","ListA","man","chinese","CMA12","","","","","{""Q0"":""露斯正在接近贝斯""}","<img src='gifs/FemaleRace3b.gif' style='height:400px;''></img>","接近","正在接近","chinese",""
"null","<div style=""font-size:60px;"">+</div>","","html-keyboard-response","160","868580","0.0-15.0-0.5","32447","ListA","man","chinese","CMA12","","","","null","","","","","",""
"null","<img src='gifs/ChineseGender2b.gif' style='height:400px;''></img>","","html-keyboard-response","161","870590","0.0-15.0-1.5","32447","ListA","man","chinese","CMA12","","","","null","","","","","",""
"null","正在联系","","html-keyboard-response","162","873591","0.0-15.0-2.5","32447","ListA","man","chinese","CMA12","","","","null","","","","","",""
"5749","","","survey-text","163","879341","0.0-15.0-3.5","32447","ListA","man","chinese","CMA12","","","","","{""Q0"":""弗雷正在联系贝斯""}","<img src='gifs/ChineseGender2b.gif' style='height:400px;''></img>","联系","正在联系","chinese",""
"null","<div style=""font-size:60px;"">+</div>","","html-keyboard-response","164","879842","0.0-15.0-0.6","32447","ListA","man","chinese","CMA12","","","","null","","","","","",""
"null","<img src='gifs/FemaleRace3b.gif' style='height:400px;''></img>","","html-keyboard-response","165","881843","0.0-15.0-1.6","32447","ListA","man","chinese","CMA12","","","","null","","","","","",""
"null","正在联系","","html-keyboard-response","166","884855","0.0-15.0-2.6","32447","ListA","man","chinese","CMA12","","","","null","","","","","",""
"10011.5","","","survey-text","167","894868","0.0-15.0-3.6","32447","ListA","man","chinese","CMA12","","","","","{""Q0"":""露斯正在联系贝斯""}","<img src='gifs/FemaleRace3b.gif' style='height:400px;''></img>","联系","正在联系","chinese",""
"null","<div style=""font-size:60px;"">+</div>","","html-keyboard-response","168","895384","0.0-15.0-0.7","32447","ListA","man","chinese","CMA12","","","","null","","","","","",""
"null","<img src='gifs/ChineseGender2a.gif' style='height:400px;''></img>","","html-keyboard-response","169","897398","0.0-15.0-1.7","32447","ListA","man","chinese","CMA12","","","","null","","","","","",""
"null","正在面向","","html-keyboard-response","170","900405","0.0-15.0-2.7","32447","ListA","man","chinese","CMA12","","","","null","","","","","",""
"8704.800000011921","","","survey-text","171","909111","0.0-15.0-3.7","32447","ListA","man","chinese","CMA12","","","","","{""Q0"":""贝斯正在面向弗雷""}","<img src='gifs/ChineseGender2a.gif' style='height:400px;''></img>","面向","正在面向","chinese",""
"null","<div style=""font-size:60px;"">+</div>","","html-keyboard-response","172","909611","0.0-15.0-0.8","32447","ListA","man","chinese","CMA12","","","","null","","","","","",""
"null","<img src='gifs/MaleRace2b.gif' style='height:400px;''></img>","","html-keyboard-response","173","911620","0.0-15.0-1.8","32447","ListA","man","chinese","CMA12","","","","null","","","","","",""
"null","正在陪伴","","html-keyboard-response","174","914622","0.0-15.0-2.8","32447","ListA","man","chinese","CMA12","","","","null","","","","","",""
"6853.599999964237","","","survey-text","175","921477","0.0-15.0-3.8","32447","ListA","man","chinese","CMA12","","","","","{""Q0"":""戴夫正在陪伴弗雷""}","<img src='gifs/MaleRace2b.gif' style='height:400px;''></img>","陪伴","正在陪伴","chinese",""
"null","<div style=""font-size:60px;"">+</div>","","html-keyboard-response","176","921978","0.0-15.0-0.9","32447","ListA","man","chinese","CMA12","","","","null","","","","","",""
"null","<img src='gifs/FemaleRace1b.gif' style='height:400px;''></img>","","html-keyboard-response","177","923980","0.0-15.0-1.9","32447","ListA","man","chinese","CMA12","","","","null","","","","","",""
"null","正在聆听","","html-keyboard-response","178","926981","0.0-15.0-2.9","32447","ListA","man","chinese","CMA12","","","","null","","","","","",""
"6286.099999964237","","","survey-text","179","933269","0.0-15.0-3.9","32447","ListA","man","chinese","CMA12","","","","","{""Q0"":""凯特正在聆听露斯""}","<img src='gifs/FemaleRace1b.gif' style='height:400px;''></img>","聆听","正在聆听","chinese",""
"null","<div style=""font-size:60px;"">+</div>","","html-keyboard-response","180","933774","0.0-15.0-0.10","32447","ListA","man","chinese","CMA12","","","","null","","","","","",""
"null","<img src='gifs/MaleRace2a.gif' style='height:400px;''></img>","","html-keyboard-response","181","935776","0.0-15.0-1.10","32447","ListA","man","chinese","CMA12","","","","null","","","","","",""
"null","正在表扬","","html-keyboard-response","182","938777","0.0-15.0-2.10","32447","ListA","man","chinese","CMA12","","","","null","","","","","",""
"11684.100000023842","","","survey-text","183","950462","0.0-15.0-3.10","32447","ListA","man","chinese","CMA12","","","","","{""Q0"":""弗雷正在表扬戴夫""}","<img src='gifs/MaleRace2a.gif' style='height:400px;''></img>","表扬","正在表扬","chinese",""
"null","<div style=""font-size:60px;"">+</div>","","html-keyboard-response","184","950963","0.0-15.0-0.11","32447","ListA","man","chinese","CMA12","","","","null","","","","","",""
"null","<img src='gifs/ChineseGender4b.gif' style='height:400px;''></img>","","html-keyboard-response","185","952978","0.0-15.0-1.11","32447","ListA","man","chinese","CMA12","","","","null","","","","","",""
"null","正在跟随","","html-keyboard-response","186","955978","0.0-15.0-2.11","32447","ListA","man","chinese","CMA12","","","","null","","","","","",""
"6267.600000023842","","","survey-text","187","962247","0.0-15.0-3.11","32447","ListA","man","chinese","CMA12","","","","","{""Q0"":""麦克正在跟随凯特""}","<img src='gifs/ChineseGender4b.gif' style='height:400px;''></img>","跟随","正在跟随","chinese",""
"null","<div style=""font-size:60px;"">+</div>","","html-keyboard-response","188","962751","0.0-15.0-0.12","32447","ListA","man","chinese","CMA12","","","","null","","","","","",""
"null","<img src='gifs/ChineseGender3a.gif' style='height:400px;''></img>","","html-keyboard-response","189","964764","0.0-15.0-1.12","32447","ListA","man","chinese","CMA12","","","","null","","","","","",""
"null","正在面向","","html-keyboard-response","190","967775","0.0-15.0-2.12","32447","ListA","man","chinese","CMA12","","","","null","","","","","",""
"7910","","","survey-text","191","975686","0.0-15.0-3.12","32447","ListA","man","chinese","CMA12","","","","","{""Q0"":""贝斯正在面向麦克""}","<img src='gifs/ChineseGender3a.gif' style='height:400px;''></img>","面向","正在面向","chinese",""
"null","<div style=""font-size:60px;"">+</div>","","html-keyboard-response","192","976198","0.0-15.0-0.13","32447","ListA","man","chinese","CMA12","","","","null","","","","","",""
"null","<img src='gifs/MaleRace4b.gif' style='height:400px;''></img>","","html-keyboard-response","193","978211","0.0-15.0-1.13","32447","ListA","man","chinese","CMA12","","","","null","","","","","",""
"null","正在联系","","html-keyboard-response","194","981212","0.0-15.0-2.13","32447","ListA","man","chinese","CMA12","","","","null","","","","","",""
"5546.700000047684","","","survey-text","195","986760","0.0-15.0-3.13","32447","ListA","man","chinese","CMA12","","","","","{""Q0"":""戴夫正在联系麦克""}","<img src='gifs/MaleRace4b.gif' style='height:400px;''></img>","联系","正在联系","chinese",""
"null","<div style=""font-size:60px;"">+</div>","","html-keyboard-response","196","987263","0.0-15.0-0.14","32447","ListA","man","chinese","CMA12","","","","null","","","","","",""
"null","<img src='gifs/ChineseGender3b.gif' style='height:400px;''></img>","","html-keyboard-response","197","989264","0.0-15.0-1.14","32447","ListA","man","chinese","CMA12","","","","null","","","","","",""
"null","正在介绍","","html-keyboard-response","198","992265","0.0-15.0-2.14","32447","ListA","man","chinese","CMA12","","","","null","","","","","",""
"4322.600000023842","","","survey-text","199","996589","0.0-15.0-3.14","32447","ListA","man","chinese","CMA12","","","","","{""Q0"":""麦克正在介绍贝斯""}","<img src='gifs/ChineseGender3b.gif' style='height:400px;''></img>","介绍","正在介绍","chinese",""
"null","<div style=""font-size:60px;"">+</div>","","html-keyboard-response","200","997093","0.0-15.0-0.15","32447","ListA","man","chinese","CMA12","","","","null","","","","","",""
"null","<img src='gifs/MaleRace4a.gif' style='height:400px;''></img>","","html-keyboard-response","201","999094","0.0-15.0-1.15","32447","ListA","man","chinese","CMA12","","","","null","","","","","",""
"null","正在答应","","html-keyboard-response","202","1002096","0.0-15.0-2.15","32447","ListA","man","chinese","CMA12","","","","null","","","","","",""
"6560.900000035763","","","survey-text","203","1008658","0.0-15.0-3.15","32447","ListA","man","chinese","CMA12","","","","","{""Q0"":""戴夫正在答应麦克""}","<img src='gifs/MaleRace4a.gif' style='height:400px;''></img>","答应","正在答应","chinese",""
"null","<div style=""font-size:60px;"">+</div>","","html-keyboard-response","204","1009158","0.0-15.0-0.16","32447","ListA","man","chinese","CMA12","","","","null","","","","","",""
"null","<img src='gifs/MaleRace3b.gif' style='height:400px;''></img>","","html-keyboard-response","205","1011161","0.0-15.0-1.16","32447","ListA","man","chinese","CMA12","","","","null","","","","","",""
"null","正在提到","","html-keyboard-response","206","1014164","0.0-15.0-2.16","32447","ListA","man","chinese","CMA12","","","","null","","","","","",""
"5752.099999964237","","","survey-text","207","1019917","0.0-15.0-3.16","32447","ListA","man","chinese","CMA12","","","","","{""Q0"":""卢克正在提到麦克""}","<img src='gifs/MaleRace3b.gif' style='height:400px;''></img>","提到","正在提到","chinese",""
"null","<div style=""font-size:60px;"">+</div>","","html-keyboard-response","208","1020419","0.0-15.0-0.17","32447","ListA","man","chinese","CMA12","","","","null","","","","","",""
"null","<img src='gifs/FemaleRace4b.gif' style='height:400px;''></img>","","html-keyboard-response","209","1022421","0.0-15.0-1.17","32447","ListA","man","chinese","CMA12","","","","null","","","","","",""
"null","正在答应","","html-keyboard-response","210","1025423","0.0-15.0-2.17","32447","ListA","man","chinese","CMA12","","","","null","","","","","",""
"17097.5","","","survey-text","211","1042522","0.0-15.0-3.17","32447","ListA","man","chinese","CMA12","","","","","{""Q0"":""贝斯正在答应霍普""}","<img src='gifs/FemaleRace4b.gif' style='height:400px;''></img>","答应","正在答应","chinese",""
"20139.900000035763","<img src='img/portrait_matrix_listA_chinese.jpg' style='width:900px;height:500px;''></img><p>如果您已经记住了所有的人物和名字，请点击继续。</p><p><strong>请注意：您对先前记忆的面孔将在本实验中被测试5次。</strong></p>","0","html-button-response","212","1062662","0.0-16.0-0.0","32447","ListA","man","chinese","CMA12","","","","","","","","","",""
"8259.100000023842","<img src=""portrait/WM1.jpg""style=""height:400px;""></img>","6","html-button-response","213","1071938","0.0-16.0-1.0","32447","ListA","man","chinese","CMA12","","true","6","","","","","","",""
"null","正确","","html-keyboard-response","214","1073457","0.0-16.0-2.0-0.0","32447","ListA","man","chinese","CMA12","","","","null","","","","","",""
"3660.199999988079","<img src=""portrait/WW2.jpg""style=""height:400px;""></img>","3","html-button-response","215","1077118","0.0-16.0-4.0","32447","ListA","man","chinese","CMA12","","true","3","","","","","","",""
"null","正确","","html-keyboard-response","216","1078629","0.0-16.0-5.0-0.0","32447","ListA","man","chinese","CMA12","","","","null","","","","","",""
"6910.300000011921","<img src=""portrait/WW1.jpg""style=""height:400px;""></img>","1","html-button-response","217","1085540","0.0-16.0-7.0","32447","ListA","man","chinese","CMA12","","true","1","","","","","","",""
"null","正确","","html-keyboard-response","218","1087069","0.0-16.0-8.0-0.0","32447","ListA","man","chinese","CMA12","","","","null","","","","","",""
"2522.099999964237","<img src=""portrait/BM2.jpg""style=""height:400px;""></img>","5","html-button-response","219","1089593","0.0-16.0-10.0","32447","ListA","man","chinese","CMA12","","true","5","","","","","","",""
"null","正确","","html-keyboard-response","220","1091114","0.0-16.0-11.0-0.0","32447","ListA","man","chinese","CMA12","","","","null","","","","","",""
"1955.300000011921","<img src=""portrait/BW2.jpg""style=""height:400px;""></img>","2","html-button-response","221","1093071","0.0-16.0-13.0","32447","ListA","man","chinese","CMA12","","true","2","","","","","","",""
"null","正确","","html-keyboard-response","222","1094587","0.0-16.0-14.0-0.0","32447","ListA","man","chinese","CMA12","","","","null","","","","","",""
"2726.099999964237","<img src=""portrait/BW1.jpg""style=""height:400px;""></img>","0","html-button-response","223","1097314","0.0-16.0-16.0","32447","ListA","man","chinese","CMA12","","true","0","","","","","","",""
"null","正确","","html-keyboard-response","224","1098836","0.0-16.0-17.0-0.0","32447","ListA","man","chinese","CMA12","","","","null","","","","","",""
"1228.8999999761581","<img src=""portrait/BM1.jpg""style=""height:400px;""></img>","4","html-button-response","225","1100066","0.0-16.0-19.0","32447","ListA","man","chinese","CMA12","","true","4","","","","","","",""
"null","正确","","html-keyboard-response","226","1101570","0.0-16.0-20.0-0.0","32447","ListA","man","chinese","CMA12","","","","null","","","","","",""
"1928","<img src=""portrait/WM2.jpg""style=""height:400px;""></img>","7","html-button-response","227","1103499","0.0-16.0-22.0","32447","ListA","man","chinese","CMA12","","true","7","","","","","","",""
"null","正确","","html-keyboard-response","228","1105027","0.0-16.0-23.0-0.0","32447","ListA","man","chinese","CMA12","","","","null","","","","","",""
"1095.0999999642372","<p>您第一次在8题里答对了 8 题。 请点击继续</p>","0","html-button-response","229","1106123","0.0-16.0-25.0","32447","ListA","man","chinese","CMA12","","","","","","","","","",""
"null","<div style=""font-size:60px;"">+</div>","","html-keyboard-response","230","1107639","0.0-17.0-0.0","32447","ListA","man","chinese","CMA12","","","","null","","","","","",""
"null","<img src='gifs/MaleRace1b.gif' style='height:400px;''></img>","","html-keyboard-response","231","1109650","0.0-17.0-1.0","32447","ListA","man","chinese","CMA12","","","","null","","","","","",""
"null","正在跟随","","html-keyboard-response","232","1112651","0.0-17.0-2.0","32447","ListA","man","chinese","CMA12","","","","null","","","","","",""
"6198.699999988079","","","survey-text","233","1118851","0.0-17.0-3.0","32447","ListA","man","chinese","CMA12","","","","","{""Q0"":""弗雷正在跟随卢克""}","<img src='gifs/MaleRace1b.gif' style='height:400px;''></img>","跟随","正在跟随","chinese",""
"null","<div style=""font-size:60px;"">+</div>","","html-keyboard-response","234","1119354","0.0-17.0-0.1","32447","ListA","man","chinese","CMA12","","","","null","","","","","",""
"null","<img src='gifs/FemaleRace3a.gif' style='height:400px;''></img>","","html-keyboard-response","235","1121370","0.0-17.0-1.1","32447","ListA","man","chinese","CMA12","","","","null","","","","","",""
"null","正在看着","","html-keyboard-response","236","1124370","0.0-17.0-2.1","32447","ListA","man","chinese","CMA12","","","","null","","","","","",""
"7040.099999964237","","","survey-text","237","1131412","0.0-17.0-3.1","32447","ListA","man","chinese","CMA12","","","","","{""Q0"":""贝斯正在看着露丝""}","<img src='gifs/FemaleRace3a.gif' style='height:400px;''></img>","看着","正在看着","chinese",""
"null","<div style=""font-size:60px;"">+</div>","","html-keyboard-response","238","1131914","0.0-17.0-0.2","32447","ListA","man","chinese","CMA12","","","","null","","","","","",""
"null","<img src='gifs/BlackGender1a.gif' style='height:400px;''></img>","","html-keyboard-response","239","1133929","0.0-17.0-1.2","32447","ListA","man","chinese","CMA12","","","","null","","","","","",""
"null","正在走向","","html-keyboard-response","240","1136930","0.0-17.0-2.2","32447","ListA","man","chinese","CMA12","","","","null","","","","","",""
"6058.5","","","survey-text","241","1142990","0.0-17.0-3.2","32447","ListA","man","chinese","CMA12","","","","","{""Q0"":""露丝正在走向卢克""}","<img src='gifs/BlackGender1a.gif' style='height:400px;''></img>","走向","正在走向","chinese",""
"null","<div style=""font-size:60px;"">+</div>","","html-keyboard-response","242","1143500","0.0-17.0-0.3","32447","ListA","man","chinese","CMA12","","","","null","","","","","",""
"null","<img src='gifs/FemaleRace1b.gif' style='height:400px;''></img>","","html-keyboard-response","243","1145502","0.0-17.0-1.3","32447","ListA","man","chinese","CMA12","","","","null","","","","","",""
"null","正在聆听","","html-keyboard-response","244","1148503","0.0-17.0-2.3","32447","ListA","man","chinese","CMA12","","","","null","","","","","",""
"5714","","","survey-text","245","1154219","0.0-17.0-3.3","32447","ListA","man","chinese","CMA12","","","","","{""Q0"":""露丝正在聆听凯特""}","<img src='gifs/FemaleRace1b.gif' style='height:400px;''></img>","聆听","正在聆听","chinese",""
"null","<div style=""font-size:60px;"">+</div>","","html-keyboard-response","246","1154733","0.0-17.0-0.4","32447","ListA","man","chinese","CMA12","","","","null","","","","","",""
"null","<img src='gifs/MaleRace4b.gif' style='height:400px;''></img>","","html-keyboard-response","247","1156743","0.0-17.0-1.4","32447","ListA","man","chinese","CMA12","","","","null","","","","","",""
"null","正在陪伴","","html-keyboard-response","248","1159750","0.0-17.0-2.4","32447","ListA","man","chinese","CMA12","","","","null","","","","","",""
"6262.099999964237","","","survey-text","249","1166014","0.0-17.0-3.4","32447","ListA","man","chinese","CMA12","","","","","{""Q0"":""麦克正在陪伴戴夫""}","<img src='gifs/MaleRace4b.gif' style='height:400px;''></img>","陪伴","正在陪伴","chinese",""
"null","<div style=""font-size:60px;"">+</div>","","html-keyboard-response","250","1166524","0.0-17.0-0.5","32447","ListA","man","chinese","CMA12","","","","null","","","","","",""
"null","<img src='gifs/FemaleRace4a.gif' style='height:400px;''></img>","","html-keyboard-response","251","1168540","0.0-17.0-1.5","32447","ListA","man","chinese","CMA12","","","","null","","","","","",""
"null","正在聘用","","html-keyboard-response","252","1171555","0.0-17.0-2.5","32447","ListA","man","chinese","CMA12","","","","null","","","","","",""
"8057.600000023842","","","survey-text","253","1179614","0.0-17.0-3.5","32447","ListA","man","chinese","CMA12","","","","","{""Q0"":""贝斯正在聘用霍普""}","<img src='gifs/FemaleRace4a.gif' style='height:400px;''></img>","聘用","正在聘用","chinese",""
"null","<div style=""font-size:60px;"">+</div>","","html-keyboard-response","254","1180115","0.0-17.0-0.6","32447","ListA","man","chinese","CMA12","","","","null","","","","","",""
"null","<img src='gifs/ChineseGender1b.gif' style='height:400px;''></img>","","html-keyboard-response","255","1182118","0.0-17.0-1.6","32447","ListA","man","chinese","CMA12","","","","null","","","","","",""
"null","正在说服","","html-keyboard-response","256","1185119","0.0-17.0-2.6","32447","ListA","man","chinese","CMA12","","","","null","","","","","",""
"6247.099999964237","","","survey-text","257","1191368","0.0-17.0-3.6","32447","ListA","man","chinese","CMA12","","","","","{""Q0"":""凯特正在说服弗雷""}","<img src='gifs/ChineseGender1b.gif' style='height:400px;''></img>","说服","正在说服","chinese",""
"null","<div style=""font-size:60px;"">+</div>","","html-keyboard-response","258","1191874","0.0-17.0-0.7","32447","ListA","man","chinese","CMA12","","","","null","","","","","",""
"null","<img src='gifs/ChineseGender1a.gif' style='height:400px;''></img>","","html-keyboard-response","259","1193883","0.0-17.0-1.7","32447","ListA","man","chinese","CMA12","","","","null","","","","","",""
"null","正在触摸","","html-keyboard-response","260","1196884","0.0-17.0-2.7","32447","ListA","man","chinese","CMA12","","","","null","","","","","",""
"8937.099999964237","","","survey-text","261","1205822","0.0-17.0-3.7","32447","ListA","man","chinese","CMA12","","","","","{""Q0"":""凯特正在触摸弗雷""}","<img src='gifs/ChineseGender1a.gif' style='height:400px;''></img>","触摸","正在触摸","chinese",""
"null","<div style=""font-size:60px;"">+</div>","","html-keyboard-response","262","1206326","0.0-17.0-0.8","32447","ListA","man","chinese","CMA12","","","","null","","","","","",""
"null","<img src='gifs/BlackGender4b.gif' style='height:400px;''></img>","","html-keyboard-response","263","1208336","0.0-17.0-1.8","32447","ListA","man","chinese","CMA12","","","","null","","","","","",""
"null","正在陪伴","","html-keyboard-response","264","1211349","0.0-17.0-2.8","32447","ListA","man","chinese","CMA12","","","","null","","","","","",""
"11550.5","","","survey-text","265","1222901","0.0-17.0-3.8","32447","ListA","man","chinese","CMA12","","","","","{""Q0"":""霍普正在陪伴戴夫""}","<img src='gifs/BlackGender4b.gif' style='height:400px;''></img>","陪伴","正在陪伴","chinese",""
"null","<div style=""font-size:60px;"">+</div>","","html-keyboard-response","266","1223411","0.0-17.0-0.9","32447","ListA","man","chinese","CMA12","","","","null","","","","","",""
"null","<img src='gifs/MaleRace2a.gif' style='height:400px;''></img>","","html-keyboard-response","267","1225421","0.0-17.0-1.9","32447","ListA","man","chinese","CMA12","","","","null","","","","","",""
"null","正在走向","","html-keyboard-response","268","1228423","0.0-17.0-2.9","32447","ListA","man","chinese","CMA12","","","","null","","","","","",""
"6491.800000011921","","","survey-text","269","1234916","0.0-17.0-3.9","32447","ListA","man","chinese","CMA12","","","","","{""Q0"":""戴夫正在走向弗雷""}","<img src='gifs/MaleRace2a.gif' style='height:400px;''></img>","走向","正在走向","chinese",""
"null","<div style=""font-size:60px;"">+</div>","","html-keyboard-response","270","1235431","0.0-17.0-0.10","32447","ListA","man","chinese","CMA12","","","","null","","","","","",""
"null","<img src='gifs/BlackGender4a.gif' style='height:400px;''></img>","","html-keyboard-response","271","1237433","0.0-17.0-1.10","32447","ListA","man","chinese","CMA12","","","","null","","","","","",""
"null","正在聘用","","html-keyboard-response","272","1240434","0.0-17.0-2.10","32447","ListA","man","chinese","CMA12","","","","null","","","","","",""
"11092.5","","","survey-text","273","1251528","0.0-17.0-3.10","32447","ListA","man","chinese","CMA12","","","","","{""Q0"":""戴夫正在聘用霍普""}","<img src='gifs/BlackGender4a.gif' style='height:400px;''></img>","聘用","正在聘用","chinese",""
"null","<div style=""font-size:60px;"">+</div>","","html-keyboard-response","274","1252029","0.0-17.0-0.11","32447","ListA","man","chinese","CMA12","","","","null","","","","","",""
"null","<img src='gifs/BlackGender2a.gif' style='height:400px;''></img>","","html-keyboard-response","275","1254038","0.0-17.0-1.11","32447","ListA","man","chinese","CMA12","","","","null","","","","","",""
"null","正在面向","","html-keyboard-response","276","1257039","0.0-17.0-2.11","32447","ListA","man","chinese","CMA12","","","","null","","","","","",""
"5627.699999988079","","","survey-text","277","1262669","0.0-17.0-3.11","32447","ListA","man","chinese","CMA12","","","","","{""Q0"":""戴夫正在面向露丝""}","<img src='gifs/BlackGender2a.gif' style='height:400px;''></img>","面向","正在面向","chinese",""
"null","<div style=""font-size:60px;"">+</div>","","html-keyboard-response","278","1263179","0.0-17.0-0.12","32447","ListA","man","chinese","CMA12","","","","null","","","","","",""
"null","<img src='gifs/ChineseGender4b.gif' style='height:400px;''></img>","","html-keyboard-response","279","1265194","0.0-17.0-1.12","32447","ListA","man","chinese","CMA12","","","","null","","","","","",""
"null","正在答应","","html-keyboard-response","280","1268202","0.0-17.0-2.12","32447","ListA","man","chinese","CMA12","","","","null","","","","","",""
"7278.5","","","survey-text","281","1275482","0.0-17.0-3.12","32447","ListA","man","chinese","CMA12","","","","","{""Q0"":""麦克正在答应凯特""}","<img src='gifs/ChineseGender4b.gif' style='height:400px;''></img>","答应","正在答应","chinese",""
"null","<div style=""font-size:60px;"">+</div>","","html-keyboard-response","282","1275983","0.0-17.0-0.13","32447","ListA","man","chinese","CMA12","","","","null","","","","","",""
"null","<img src='gifs/MaleRace2b.gif' style='height:400px;''></img>","","html-keyboard-response","283","1277992","0.0-17.0-1.13","32447","ListA","man","chinese","CMA12","","","","null","","","","","",""
"null","正在看着","","html-keyboard-response","284","1280993","0.0-17.0-2.13","32447","ListA","man","chinese","CMA12","","","","null","","","","","",""
"5116.099999964237","","","survey-text","285","1286111","0.0-17.0-3.13","32447","ListA","man","chinese","CMA12","","","","","{""Q0"":""弗雷正在看着戴夫""}","<img src='gifs/MaleRace2b.gif' style='height:400px;''></img>","看着","正在看着","chinese",""
"null","<div style=""font-size:60px;"">+</div>","","html-keyboard-response","286","1286623","0.0-17.0-0.14","32447","ListA","man","chinese","CMA12","","","","null","","","","","",""
"null","<img src='gifs/FemaleRace2b.gif' style='height:400px;''></img>","","html-keyboard-response","287","1288631","0.0-17.0-1.14","32447","ListA","man","chinese","CMA12","","","","null","","","","","",""
"null","正在加入","","html-keyboard-response","288","1291633","0.0-17.0-2.14","32447","ListA","man","chinese","CMA12","","","","null","","","","","",""
"5479.600000023842","","","survey-text","289","1297114","0.0-17.0-3.14","32447","ListA","man","chinese","CMA12","","","","","{""Q0"":""霍普正在加入凯特""}","<img src='gifs/FemaleRace2b.gif' style='height:400px;''></img>","加入","正在加入","chinese",""
"null","<div style=""font-size:60px;"">+</div>","","html-keyboard-response","290","1297614","0.0-17.0-0.15","32447","ListA","man","chinese","CMA12","","","","null","","","","","",""
"null","<img src='gifs/ChineseGender1b.gif' style='height:400px;''></img>","","html-keyboard-response","291","1299615","0.0-17.0-1.15","32447","ListA","man","chinese","CMA12","","","","null","","","","","",""
"null","正在触摸","","html-keyboard-response","292","1302618","0.0-17.0-2.15","32447","ListA","man","chinese","CMA12","","","","null","","","","","",""
"9159.100000023842","","","survey-text","293","1311778","0.0-17.0-3.15","32447","ListA","man","chinese","CMA12","","","","","{""Q0"":""弗雷正在触摸凯特""}","<img src='gifs/ChineseGender1b.gif' style='height:400px;''></img>","触摸","正在触摸","chinese",""
"null","<div style=""font-size:60px;"">+</div>","","html-keyboard-response","294","1312290","0.0-17.0-0.16","32447","ListA","man","chinese","CMA12","","","","null","","","","","",""
"null","<img src='gifs/BlackGender3a.gif' style='height:400px;''></img>","","html-keyboard-response","295","1314300","0.0-17.0-1.16","32447","ListA","man","chinese","CMA12","","","","null","","","","","",""
"null","正在聘用","","html-keyboard-response","296","1317301","0.0-17.0-2.16","32447","ListA","man","chinese","CMA12","","","","null","","","","","",""
"5856.100000023842","","","survey-text","297","1323158","0.0-17.0-3.16","32447","ListA","man","chinese","CMA12","","","","","{""Q0"":""卢克正在聘用霍普""}","<img src='gifs/BlackGender3a.gif' style='height:400px;''></img>","聘用","正在聘用","chinese",""
"null","<div style=""font-size:60px;"">+</div>","","html-keyboard-response","298","1323666","0.0-17.0-0.17","32447","ListA","man","chinese","CMA12","","","","null","","","","","",""
"null","<img src='gifs/BlackGender2b.gif' style='height:400px;''></img>","","html-keyboard-response","299","1325667","0.0-17.0-1.17","32447","ListA","man","chinese","CMA12","","","","null","","","","","",""
"null","正在触摸","","html-keyboard-response","300","1328668","0.0-17.0-2.17","32447","ListA","man","chinese","CMA12","","","","null","","","","","",""
"9676.300000011921","","","survey-text","301","1338346","0.0-17.0-3.17","32447","ListA","man","chinese","CMA12","","","","","{""Q0"":""露丝正在触摸戴夫""}","<img src='gifs/BlackGender2b.gif' style='height:400px;''></img>","触摸","正在触摸","chinese",""
"3226.899999976158","<p>Thank you for completing that task.</p><p>The final part of this session is a short questionnaire.</p><p>Press Continue.</p>","0","html-button-response","302","1341573","0.0-18.0","32447","ListA","man","chinese","CMA12","","","","","","","","","",""
"60360.80000001192","","","survey-text","303","1402938","0.0-19.0","32447","ListA","man","chinese","CMA12","","","","","{""Q0"":""23"",""Q1"":""Chinese Mandarin"",""Q2"":""English"",""Q3"":""United Kingdom"",""Q4"":""Chinese"",""Q5"":""Chinese"",""Q6"":""Male""}","","","","","demographics"
"5052.599999964237","<p>Have you lived in the UK for the last 5 years or more?</p>","1","html-button-response","304","1407992","0.0-20.0","32447","ListA","man","chinese","CMA12","","","","","","","","","","fiveyears"
"9976.300000011921","","","external-html","305","1419067","0.0-21.0","32447","ListA","man","chinese","CMA12","debrief.html","","","","","","","","",""
"102531.5","","","survey-text","306","1521600","0.0-22.0","32447","ListA","man","chinese","CMA12","","","","","{""ptpt_id"":""CMA12""}","","","","","worker_id"
