"rt","stimulus","button_pressed","trial_type","trial_index","time_elapsed","internal_node_id","subject","list","ppt_gender","ppt_language","ptptID","url","first_guess","correct","key_press","responses","image","verb","phrase","condition","test_part"
"2582.900000035763","Welcome to the experiment. Press Continue to begin.","0","html-button-response","0","2586","0.0-0.0","41323","ListA","man","chinese","CMA7","","","","","","","","","",""
"8461.299999952316","","","external-html","1","12100","0.0-1.0","41323","ListA","man","chinese","CMA7","consent.html","","","","","","","","",""
"4597.699999988079","<p>在下一页中，您将看到8个人物肖像和他们各自的名字。</p><p>请花费几分钟的时间记住这些人物及其所对应的名字。</p><p>之后的实验中需要您对人物的名字做出回忆，</p><p>因此在实验开始前请确保您已 经完全记住这些人物及其所对应的名字。</p><p><strong>然后您将完成一个测试以检验您对人物和名字的记忆。</strong></p><p>完成此记忆测试后，您将正式进入实验。</p><p>准备好了吗？</p>","0","html-button-response","2","16699","0.0-2.0","41323","ListA","man","chinese","CMA7","","","","","","","","","",""
"15894.699999988079","<img src='img/portrait_matrix_listA_chinese.jpg' style='width:900px;height:500px;''></img><p>如果您已经记住了所有的人物和名字，请点击继续。</p><p><strong>请注意：您对先前记忆的面孔将在本实验中被测试5次。</strong></p>","0","html-button-response","3","33599","0.0-3.0-0.0","41323","ListA","man","chinese","CMA7","","","","","","","","","",""
"3937.5","<img src=""portrait/BM1.jpg""style=""height:400px;""></img>","5","html-button-response","4","38550","0.0-3.0-1.0","41323","ListA","man","chinese","CMA7","","true","4","","","","","","",""
"4022.5","<img src=""portrait/BM1.jpg""style=""height:400px;""></img>","4","html-button-response","5","43584","0.0-3.0-3.0-0.0","41323","ListA","man","chinese","CMA7","","false","4","","","","","","",""
"null","正确","","html-keyboard-response","6","45104","0.0-3.0-3.0-1.0-0.0","41323","ListA","man","chinese","CMA7","","","","null","","","","","",""
"5210.5","<img src=""portrait/WW1.jpg""style=""height:400px;""></img>","1","html-button-response","7","50316","0.0-3.0-4.0","41323","ListA","man","chinese","CMA7","","true","1","","","","","","",""
"null","正确","","html-keyboard-response","8","51833","0.0-3.0-5.0-0.0","41323","ListA","man","chinese","CMA7","","","","null","","","","","",""
"3013.5","<img src=""portrait/WM1.jpg""style=""height:400px;""></img>","5","html-button-response","9","54849","0.0-3.0-7.0","41323","ListA","man","chinese","CMA7","","true","6","","","","","","",""
"1410.5","<img src=""portrait/WM1.jpg""style=""height:400px;""></img>","6","html-button-response","10","57267","0.0-3.0-9.0-0.0","41323","ListA","man","chinese","CMA7","","false","6","","","","","","",""
"null","正确","","html-keyboard-response","11","58773","0.0-3.0-9.0-1.0-0.0","41323","ListA","man","chinese","CMA7","","","","null","","","","","",""
"2891","<img src=""portrait/BW1.jpg""style=""height:400px;""></img>","3","html-button-response","12","61666","0.0-3.0-10.0","41323","ListA","man","chinese","CMA7","","true","0","","","","","","",""
"1611.6000000238419","<img src=""portrait/BW1.jpg""style=""height:400px;""></img>","0","html-button-response","13","64283","0.0-3.0-12.0-0.0","41323","ListA","man","chinese","CMA7","","false","0","","","","","","",""
"null","正确","","html-keyboard-response","14","65800","0.0-3.0-12.0-1.0-0.0","41323","ListA","man","chinese","CMA7","","","","null","","","","","",""
"5013","<img src=""portrait/BW2.jpg""style=""height:400px;""></img>","2","html-button-response","15","70815","0.0-3.0-13.0","41323","ListA","man","chinese","CMA7","","true","2","","","","","","",""
"null","正确","","html-keyboard-response","16","72334","0.0-3.0-14.0-0.0","41323","ListA","man","chinese","CMA7","","","","null","","","","","",""
"3146.399999976158","<img src=""portrait/WM2.jpg""style=""height:400px;""></img>","7","html-button-response","17","75483","0.0-3.0-16.0","41323","ListA","man","chinese","CMA7","","true","7","","","","","","",""
"null","正确","","html-keyboard-response","18","76997","0.0-3.0-17.0-0.0","41323","ListA","man","chinese","CMA7","","","","null","","","","","",""
"2750.399999976158","<img src=""portrait/BM2.jpg""style=""height:400px;""></img>","5","html-button-response","19","79750","0.0-3.0-19.0","41323","ListA","man","chinese","CMA7","","true","5","","","","","","",""
"null","正确","","html-keyboard-response","20","81273","0.0-3.0-20.0-0.0","41323","ListA","man","chinese","CMA7","","","","null","","","","","",""
"5808.300000011921","<img src=""portrait/WW2.jpg""style=""height:400px;""></img>","1","html-button-response","21","87083","0.0-3.0-22.0","41323","ListA","man","chinese","CMA7","","true","3","","","","","","",""
"1758.699999988079","<img src=""portrait/WW2.jpg""style=""height:400px;""></img>","3","html-button-response","22","89850","0.0-3.0-24.0-0.0","41323","ListA","man","chinese","CMA7","","false","3","","","","","","",""
"null","正确","","html-keyboard-response","23","91368","0.0-3.0-24.0-1.0-0.0","41323","ListA","man","chinese","CMA7","","","","null","","","","","",""
"1044.300000011921","<p>您第一次在8题里答对了 4 题。 请点击继续</p>","0","html-button-response","24","92415","0.0-3.0-25.0","41323","ListA","man","chinese","CMA7","","","","","","","","","",""
"1560.800000011921","因为您没有全部答对，记忆游戏将重新开始。请点击继续。","0","html-button-response","25","94983","0.0-3.0-26.0-0.0","41323","ListA","man","chinese","CMA7","","","","","","","","","",""
"5273.400000035763","<img src='img/portrait_matrix_listA_chinese.jpg' style='width:900px;height:500px;''></img><p>如果您已经记住了所有的人物和名字，请点击继续。</p><p><strong>请注意：您对先前记忆的面孔将在本实验中被测试5次。</strong></p>","0","html-button-response","26","101266","0.0-3.1-0.1","41323","ListA","man","chinese","CMA7","","","","","","","","","",""
"1208.300000011921","<img src=""portrait/BM1.jpg""style=""height:400px;""></img>","4","html-button-response","27","103483","0.0-3.1-1.1","41323","ListA","man","chinese","CMA7","","true","4","","","","","","",""
"null","正确","","html-keyboard-response","28","105000","0.0-3.1-2.1-0.1","41323","ListA","man","chinese","CMA7","","","","null","","","","","",""
"20449.69999998808","<img src=""portrait/WW1.jpg""style=""height:400px;""></img>","3","html-button-response","29","125451","0.0-3.1-4.1","41323","ListA","man","chinese","CMA7","","true","1","","","","","","",""
"1819.0999999642372","<img src=""portrait/WW1.jpg""style=""height:400px;""></img>","1","html-button-response","30","128281","0.0-3.1-6.1-0.1","41323","ListA","man","chinese","CMA7","","false","1","","","","","","",""
"null","正确","","html-keyboard-response","31","129791","0.0-3.1-6.1-1.1-0.1","41323","ListA","man","chinese","CMA7","","","","null","","","","","",""
"4438.799999952316","<img src=""portrait/WM1.jpg""style=""height:400px;""></img>","4","html-button-response","32","134233","0.0-3.1-7.1","41323","ListA","man","chinese","CMA7","","true","6","","","","","","",""
"2491.199999988079","<img src=""portrait/WM1.jpg""style=""height:400px;""></img>","6","html-button-response","33","137732","0.0-3.1-9.1-0.1","41323","ListA","man","chinese","CMA7","","false","6","","","","","","",""
"null","正确","","html-keyboard-response","34","139244","0.0-3.1-9.1-1.1-0.1","41323","ListA","man","chinese","CMA7","","","","null","","","","","",""
"2337.699999988079","<img src=""portrait/BW1.jpg""style=""height:400px;""></img>","2","html-button-response","35","141583","0.0-3.1-10.1","41323","ListA","man","chinese","CMA7","","true","0","","","","","","",""
"1505.0999999642372","<img src=""portrait/BW1.jpg""style=""height:400px;""></img>","0","html-button-response","36","144098","0.0-3.1-12.1-0.1","41323","ListA","man","chinese","CMA7","","false","0","","","","","","",""
"null","正确","","html-keyboard-response","37","145613","0.0-3.1-12.1-1.1-0.1","41323","ListA","man","chinese","CMA7","","","","null","","","","","",""
"2199.100000023842","<img src=""portrait/BW2.jpg""style=""height:400px;""></img>","2","html-button-response","38","147814","0.0-3.1-13.1","41323","ListA","man","chinese","CMA7","","true","2","","","","","","",""
"null","正确","","html-keyboard-response","39","149322","0.0-3.1-14.1-0.1","41323","ListA","man","chinese","CMA7","","","","null","","","","","",""
"1340.199999988079","<img src=""portrait/WM2.jpg""style=""height:400px;""></img>","7","html-button-response","40","150665","0.0-3.1-16.1","41323","ListA","man","chinese","CMA7","","true","7","","","","","","",""
"null","正确","","html-keyboard-response","41","152190","0.0-3.1-17.1-0.1","41323","ListA","man","chinese","CMA7","","","","null","","","","","",""
"1758.5999999642372","<img src=""portrait/BM2.jpg""style=""height:400px;""></img>","5","html-button-response","42","153951","0.0-3.1-19.1","41323","ListA","man","chinese","CMA7","","true","5","","","","","","",""
"null","正确","","html-keyboard-response","43","155463","0.0-3.1-20.1-0.1","41323","ListA","man","chinese","CMA7","","","","null","","","","","",""
"4066.300000011921","<img src=""portrait/WW2.jpg""style=""height:400px;""></img>","3","html-button-response","44","159531","0.0-3.1-22.1","41323","ListA","man","chinese","CMA7","","true","3","","","","","","",""
"null","正确","","html-keyboard-response","45","161042","0.0-3.1-23.1-0.1","41323","ListA","man","chinese","CMA7","","","","null","","","","","",""
"854.3999999761581","<p>您第一次在8题里答对了 5 题。 请点击继续</p>","0","html-button-response","46","161899","0.0-3.1-25.1","41323","ListA","man","chinese","CMA7","","","","","","","","","",""
"939.1000000238419","因为您没有全部答对，记忆游戏将重新开始。请点击继续。","0","html-button-response","47","163848","0.0-3.1-26.1-0.1","41323","ListA","man","chinese","CMA7","","","","","","","","","",""
"8743.100000023842","<img src='img/portrait_matrix_listA_chinese.jpg' style='width:900px;height:500px;''></img><p>如果您已经记住了所有的人物和名字，请点击继续。</p><p><strong>请注意：您对先前记忆的面孔将在本实验中被测试5次。</strong></p>","0","html-button-response","48","173599","0.0-3.2-0.2","41323","ListA","man","chinese","CMA7","","","","","","","","","",""
"1541.300000011921","<img src=""portrait/BM1.jpg""style=""height:400px;""></img>","4","html-button-response","49","176150","0.0-3.2-1.2","41323","ListA","man","chinese","CMA7","","true","4","","","","","","",""
"null","正确","","html-keyboard-response","50","177662","0.0-3.2-2.2-0.2","41323","ListA","man","chinese","CMA7","","","","null","","","","","",""
"1584.2999999523163","<img src=""portrait/WW1.jpg""style=""height:400px;""></img>","1","html-button-response","51","179249","0.0-3.2-4.2","41323","ListA","man","chinese","CMA7","","true","1","","","","","","",""
"null","正确","","html-keyboard-response","52","180765","0.0-3.2-5.2-0.2","41323","ListA","man","chinese","CMA7","","","","null","","","","","",""
"3164.699999988079","<img src=""portrait/WM1.jpg""style=""height:400px;""></img>","6","html-button-response","53","183933","0.0-3.2-7.2","41323","ListA","man","chinese","CMA7","","true","6","","","","","","",""
"null","正确","","html-keyboard-response","54","185443","0.0-3.2-8.2-0.2","41323","ListA","man","chinese","CMA7","","","","null","","","","","",""
"3520.800000011921","<img src=""portrait/BW1.jpg""style=""height:400px;""></img>","2","html-button-response","55","188966","0.0-3.2-10.2","41323","ListA","man","chinese","CMA7","","true","0","","","","","","",""
"1706.699999988079","<img src=""portrait/BW1.jpg""style=""height:400px;""></img>","0","html-button-response","56","191681","0.0-3.2-12.2-0.2","41323","ListA","man","chinese","CMA7","","false","0","","","","","","",""
"null","正确","","html-keyboard-response","57","193206","0.0-3.2-12.2-1.2-0.2","41323","ListA","man","chinese","CMA7","","","","null","","","","","",""
"1590.2000000476837","<img src=""portrait/BW2.jpg""style=""height:400px;""></img>","2","html-button-response","58","194799","0.0-3.2-13.2","41323","ListA","man","chinese","CMA7","","true","2","","","","","","",""
"null","正确","","html-keyboard-response","59","196314","0.0-3.2-14.2-0.2","41323","ListA","man","chinese","CMA7","","","","null","","","","","",""
"1215.5","<img src=""portrait/WM2.jpg""style=""height:400px;""></img>","7","html-button-response","60","197532","0.0-3.2-16.2","41323","ListA","man","chinese","CMA7","","true","7","","","","","","",""
"null","正确","","html-keyboard-response","61","199041","0.0-3.2-17.2-0.2","41323","ListA","man","chinese","CMA7","","","","null","","","","","",""
"1438.6000000238419","<img src=""portrait/BM2.jpg""style=""height:400px;""></img>","5","html-button-response","62","200482","0.0-3.2-19.2","41323","ListA","man","chinese","CMA7","","true","5","","","","","","",""
"null","正确","","html-keyboard-response","63","202006","0.0-3.2-20.2-0.2","41323","ListA","man","chinese","CMA7","","","","null","","","","","",""
"1989.8999999761581","<img src=""portrait/WW2.jpg""style=""height:400px;""></img>","0","html-button-response","64","203998","0.0-3.2-22.2","41323","ListA","man","chinese","CMA7","","true","3","","","","","","",""
"1307.9000000357628","<img src=""portrait/WW2.jpg""style=""height:400px;""></img>","3","html-button-response","65","206317","0.0-3.2-24.2-0.2","41323","ListA","man","chinese","CMA7","","false","3","","","","","","",""
"null","正确","","html-keyboard-response","66","207825","0.0-3.2-24.2-1.2-0.2","41323","ListA","man","chinese","CMA7","","","","null","","","","","",""
"1005.1000000238419","<p>您第一次在8题里答对了 6 题。 请点击继续</p>","0","html-button-response","67","208833","0.0-3.2-25.2","41323","ListA","man","chinese","CMA7","","","","","","","","","",""
"2626.599999964237","因为您没有全部答对，记忆游戏将重新开始。请点击继续。","0","html-button-response","68","212465","0.0-3.2-26.2-0.2","41323","ListA","man","chinese","CMA7","","","","","","","","","",""
"10486.600000023842","<img src='img/portrait_matrix_listA_chinese.jpg' style='width:900px;height:500px;''></img><p>如果您已经记住了所有的人物和名字，请点击继续。</p><p><strong>请注意：您对先前记忆的面孔将在本实验中被测试5次。</strong></p>","0","html-button-response","69","223966","0.0-3.3-0.3","41323","ListA","man","chinese","CMA7","","","","","","","","","",""
"1789.8999999761581","<img src=""portrait/BM1.jpg""style=""height:400px;""></img>","4","html-button-response","70","226765","0.0-3.3-1.3","41323","ListA","man","chinese","CMA7","","true","4","","","","","","",""
"null","正确","","html-keyboard-response","71","228276","0.0-3.3-2.3-0.3","41323","ListA","man","chinese","CMA7","","","","null","","","","","",""
"2169.899999976158","<img src=""portrait/WW1.jpg""style=""height:400px;""></img>","1","html-button-response","72","230449","0.0-3.3-4.3","41323","ListA","man","chinese","CMA7","","true","1","","","","","","",""
"null","正确","","html-keyboard-response","73","231972","0.0-3.3-5.3-0.3","41323","ListA","man","chinese","CMA7","","","","null","","","","","",""
"3523.800000011921","<img src=""portrait/WM1.jpg""style=""height:400px;""></img>","6","html-button-response","74","235499","0.0-3.3-7.3","41323","ListA","man","chinese","CMA7","","true","6","","","","","","",""
"null","正确","","html-keyboard-response","75","237020","0.0-3.3-8.3-0.3","41323","ListA","man","chinese","CMA7","","","","null","","","","","",""
"1676.4000000357628","<img src=""portrait/BW1.jpg""style=""height:400px;""></img>","0","html-button-response","76","238699","0.0-3.3-10.3","41323","ListA","man","chinese","CMA7","","true","0","","","","","","",""
"null","正确","","html-keyboard-response","77","240212","0.0-3.3-11.3-0.3","41323","ListA","man","chinese","CMA7","","","","null","","","","","",""
"1150.5","<img src=""portrait/BW2.jpg""style=""height:400px;""></img>","2","html-button-response","78","241365","0.0-3.3-13.3","41323","ListA","man","chinese","CMA7","","true","2","","","","","","",""
"null","正确","","html-keyboard-response","79","242884","0.0-3.3-14.3-0.3","41323","ListA","man","chinese","CMA7","","","","null","","","","","",""
"1228.6000000238419","<img src=""portrait/WM2.jpg""style=""height:400px;""></img>","7","html-button-response","80","244115","0.0-3.3-16.3","41323","ListA","man","chinese","CMA7","","true","7","","","","","","",""
"null","正确","","html-keyboard-response","81","245628","0.0-3.3-17.3-0.3","41323","ListA","man","chinese","CMA7","","","","null","","","","","",""
"1484.699999988079","<img src=""portrait/BM2.jpg""style=""height:400px;""></img>","5","html-button-response","82","247115","0.0-3.3-19.3","41323","ListA","man","chinese","CMA7","","true","5","","","","","","",""
"null","正确","","html-keyboard-response","83","248627","0.0-3.3-20.3-0.3","41323","ListA","man","chinese","CMA7","","","","null","","","","","",""
"2104.100000023842","<img src=""portrait/WW2.jpg""style=""height:400px;""></img>","3","html-button-response","84","250733","0.0-3.3-22.3","41323","ListA","man","chinese","CMA7","","true","3","","","","","","",""
"null","正确","","html-keyboard-response","85","252242","0.0-3.3-23.3-0.3","41323","ListA","man","chinese","CMA7","","","","null","","","","","",""
"1038.800000011921","<p>您第一次在8题里答对了 8 题。 请点击继续</p>","0","html-button-response","86","253283","0.0-3.3-25.3","41323","ListA","man","chinese","CMA7","","","","","","","","","",""
"9242.699999988079","<p>此次实验您将会看到先前记忆任务里的人物照片。</p><p>人物照片消失后您将看到一个动词短语，请正确回忆人物的名字并用特定的 动词短语组成一句完整的句子。</p><p>请在指定的框内输入您的答案。在进入下一题之前请确保您填写了完整的句子。</p><p>人物照片和动词短语只会在屏幕上出现几秒钟，因此请您答题时尽量集中注意力。</p><p>以下是例子。请您在准备好后按下“继续”。</p><img src='img/chinese_speaking_example.jpg' style='width:800px;height:460px;''></img>","0","html-button-response","87","263532","0.0-4.0","41323","ListA","man","chinese","CMA7","","","","","","","","","",""
"1493.5","<p>在实验开始前，将为您展示两个示例实验。</p>","0","html-button-response","88","266031","0.0-5.0","41323","ListA","man","chinese","CMA7","","","","","","","","","",""
"null","<img src='img/meet.gif' style='height:400px;''></img>","","html-keyboard-response","89","269048","0.0-6.0","41323","ListA","man","chinese","CMA7","","","","null","","","","","",""
"null","<p>正在约见</p>","","html-keyboard-response","90","271058","0.0-7.0","41323","ListA","man","chinese","CMA7","","","","null","","","","","",""
"1855.8999999761581","<p><b>答案:</b> 凯特正在约见贝斯</p>","0","html-button-response","91","272916","0.0-8.0","41323","ListA","man","chinese","CMA7","","","","","","","","","",""
"null","<img src='img/spy.gif' style='height:400px;''></img>","","html-keyboard-response","92","275928","0.0-9.0","41323","ListA","man","chinese","CMA7","","","","null","","","","","",""
"null","<p>正在监视</p>","","html-keyboard-response","93","277935","0.0-10.0","41323","ListA","man","chinese","CMA7","","","","null","","","","","",""
"1427.800000011921","<p><b>答案:</b> 卢克正在监视戴夫</p>","0","html-button-response","94","279365","0.0-11.0","41323","ListA","man","chinese","CMA7","","","","","","","","","",""
"3493.400000035763","<p>准备好开始了吗？</p><br><p><strong>请记住，您的答案需是一句完整的句子</strong></p><p><strong>，并用给到的图片人物和动词短语作答。</strong></p><p><strong>只有正确并完整完成实验才可获得报酬。</strong></p><p><strong> 您不需要加入任何标点符号。</strong></p><br><p>请按 ‘继续’ 键开始。</p>","0","html-button-response","95","283866","0.0-12.0","41323","ListA","man","chinese","CMA7","","","","","","","","","",""
"null","<div style=""font-size:60px;"">+</div>","","html-keyboard-response","96","285387","0.0-13.0-0.0","41323","ListA","man","chinese","CMA7","","","","null","","","","","",""
"null","<img src='gifs/MaleRace3b.gif' style='height:400px;''></img>","","html-keyboard-response","97","287390","0.0-13.0-1.0","41323","ListA","man","chinese","CMA7","","","","null","","","","","",""
"null","正在加入","","html-keyboard-response","98","290403","0.0-13.0-2.0","41323","ListA","man","chinese","CMA7","","","","null","","","","","",""
"9223.800000011921","","","survey-text","99","299632","0.0-13.0-3.0","41323","ListA","man","chinese","CMA7","","","","","{""Q0"":""卢克正在加入弗雷""}","<img src='gifs/MaleRace3b.gif' style='height:400px;''></img>","加入","正在加入","chinese",""
"null","<div style=""font-size:60px;"">+</div>","","html-keyboard-response","100","300146","0.0-13.0-0.1","41323","ListA","man","chinese","CMA7","","","","null","","","","","",""
"null","<img src='gifs/ChineseGender4b.gif' style='height:400px;''></img>","","html-keyboard-response","101","302153","0.0-13.0-1.1","41323","ListA","man","chinese","CMA7","","","","null","","","","","",""
"null","正在聆听","","html-keyboard-response","102","305158","0.0-13.0-2.1","41323","ListA","man","chinese","CMA7","","","","null","","","","","",""
"6513.300000011921","","","survey-text","103","311673","0.0-13.0-3.1","41323","ListA","man","chinese","CMA7","","","","","{""Q0"":""凯特正在聆听弗雷""}","<img src='gifs/ChineseGender4b.gif' style='height:400px;''></img>","聆听","正在聆听","chinese",""
"null","<div style=""font-size:60px;"">+</div>","","html-keyboard-response","104","312186","0.0-13.0-0.2","41323","ListA","man","chinese","CMA7","","","","null","","","","","",""
"null","<img src='gifs/FemaleRace3b.gif' style='height:400px;''></img>","","html-keyboard-response","105","314194","0.0-13.0-1.2","41323","ListA","man","chinese","CMA7","","","","null","","","","","",""
"null","正在表扬","","html-keyboard-response","106","317202","0.0-13.0-2.2","41323","ListA","man","chinese","CMA7","","","","null","","","","","",""
"9340.800000011921","","","survey-text","107","326547","0.0-13.0-3.2","41323","ListA","man","chinese","CMA7","","","","","{""Q0"":""贝斯正在表扬露丝""}","<img src='gifs/FemaleRace3b.gif' style='height:400px;''></img>","表扬","正在表扬","chinese",""
"null","<div style=""font-size:60px;"">+</div>","","html-keyboard-response","108","327057","0.0-13.0-0.3","41323","ListA","man","chinese","CMA7","","","","null","","","","","",""
"null","<img src='gifs/MaleRace1b.gif' style='height:400px;''></img>","","html-keyboard-response","109","329064","0.0-13.0-1.3","41323","ListA","man","chinese","CMA7","","","","null","","","","","",""
"null","正在接近","","html-keyboard-response","110","332070","0.0-13.0-2.3","41323","ListA","man","chinese","CMA7","","","","null","","","","","",""
"6973.199999988079","","","survey-text","111","339047","0.0-13.0-3.3","41323","ListA","man","chinese","CMA7","","","","","{""Q0"":""卢克正在接近弗雷""}","<img src='gifs/MaleRace1b.gif' style='height:400px;''></img>","接近","正在接近","chinese",""
"null","<div style=""font-size:60px;"">+</div>","","html-keyboard-response","112","339549","0.0-13.0-0.4","41323","ListA","man","chinese","CMA7","","","","null","","","","","",""
"null","<img src='gifs/FemaleRace4a.gif' style='height:400px;''></img>","","html-keyboard-response","113","341561","0.0-13.0-1.4","41323","ListA","man","chinese","CMA7","","","","null","","","","","",""
"null","正在面向","","html-keyboard-response","114","344566","0.0-13.0-2.4","41323","ListA","man","chinese","CMA7","","","","null","","","","","",""
"9913.100000023842","","","survey-text","115","354481","0.0-13.0-3.4","41323","ListA","man","chinese","CMA7","","","","","{""Q0"":""露丝正在面向贝斯""}","<img src='gifs/FemaleRace4a.gif' style='height:400px;''></img>","面向","正在面向","chinese",""
"null","<div style=""font-size:60px;"">+</div>","","html-keyboard-response","116","354993","0.0-13.0-0.5","41323","ListA","man","chinese","CMA7","","","","null","","","","","",""
"null","<img src='gifs/FemaleRace2b.gif' style='height:400px;''></img>","","html-keyboard-response","117","356999","0.0-13.0-1.5","41323","ListA","man","chinese","CMA7","","","","null","","","","","",""
"null","正在联系","","html-keyboard-response","118","360007","0.0-13.0-2.5","41323","ListA","man","chinese","CMA7","","","","null","","","","","",""
"6704.799999952316","","","survey-text","119","366714","0.0-13.0-3.5","41323","ListA","man","chinese","CMA7","","","","","{""Q0"":""凯特正在联系贝斯""}","<img src='gifs/FemaleRace2b.gif' style='height:400px;''></img>","联系","正在联系","chinese",""
"null","<div style=""font-size:60px;"">+</div>","","html-keyboard-response","120","367224","0.0-13.0-0.6","41323","ListA","man","chinese","CMA7","","","","null","","","","","",""
"null","<img src='gifs/MaleRace1b.gif' style='height:400px;''></img>","","html-keyboard-response","121","369232","0.0-13.0-1.6","41323","ListA","man","chinese","CMA7","","","","null","","","","","",""
"null","正在介绍","","html-keyboard-response","122","372238","0.0-13.0-2.6","41323","ListA","man","chinese","CMA7","","","","null","","","","","",""
"6105.300000011921","","","survey-text","123","378347","0.0-13.0-3.6","41323","ListA","man","chinese","CMA7","","","","","{""Q0"":""弗雷正在介绍卢克""}","<img src='gifs/MaleRace1b.gif' style='height:400px;''></img>","介绍","正在介绍","chinese",""
"null","<div style=""font-size:60px;"">+</div>","","html-keyboard-response","124","378856","0.0-13.0-0.7","41323","ListA","man","chinese","CMA7","","","","null","","","","","",""
"null","<img src='gifs/FemaleRace2a.gif' style='height:400px;''></img>","","html-keyboard-response","125","380869","0.0-13.0-1.7","41323","ListA","man","chinese","CMA7","","","","null","","","","","",""
"null","正在触摸","","html-keyboard-response","126","383880","0.0-13.0-2.7","41323","ListA","man","chinese","CMA7","","","","null","","","","","",""
"10579.400000035763","","","survey-text","127","394464","0.0-13.0-3.7","41323","ListA","man","chinese","CMA7","","","","","{""Q0"":""霍普正在面向凯特""}","<img src='gifs/FemaleRace2a.gif' style='height:400px;''></img>","触摸","正在触摸","chinese",""
"null","<div style=""font-size:60px;"">+</div>","","html-keyboard-response","128","394968","0.0-13.0-0.8","41323","ListA","man","chinese","CMA7","","","","null","","","","","",""
"null","<img src='gifs/FemaleRace3a.gif' style='height:400px;''></img>","","html-keyboard-response","129","396974","0.0-13.0-1.8","41323","ListA","man","chinese","CMA7","","","","null","","","","","",""
"null","正在介绍","","html-keyboard-response","130","399977","0.0-13.0-2.8","41323","ListA","man","chinese","CMA7","","","","null","","","","","",""
"20351","","","survey-text","131","420331","0.0-13.0-3.8","41323","ListA","man","chinese","CMA7","","","","","{""Q0"":""霍普正在介绍贝斯""}","<img src='gifs/FemaleRace3a.gif' style='height:400px;''></img>","介绍","正在介绍","chinese",""
"null","<div style=""font-size:60px;"">+</div>","","html-keyboard-response","132","420834","0.0-13.0-0.9","41323","ListA","man","chinese","CMA7","","","","null","","","","","",""
"null","<img src='gifs/BlackGender4b.gif' style='height:400px;''></img>","","html-keyboard-response","133","422843","0.0-13.0-1.9","41323","ListA","man","chinese","CMA7","","","","null","","","","","",""
"null","正在联系","","html-keyboard-response","134","425846","0.0-13.0-2.9","41323","ListA","man","chinese","CMA7","","","","null","","","","","",""
"13249.199999988079","","","survey-text","135","439097","0.0-13.0-3.9","41323","ListA","man","chinese","CMA7","","","","","{""Q0"":""戴夫正在联系凯特""}","<img src='gifs/BlackGender4b.gif' style='height:400px;''></img>","联系","正在联系","chinese",""
"null","<div style=""font-size:60px;"">+</div>","","html-keyboard-response","136","439606","0.0-13.0-0.10","41323","ListA","man","chinese","CMA7","","","","null","","","","","",""
"null","<img src='gifs/FemaleRace2b.gif' style='height:400px;''></img>","","html-keyboard-response","137","441609","0.0-13.0-1.10","41323","ListA","man","chinese","CMA7","","","","null","","","","","",""
"null","正在加入","","html-keyboard-response","138","444611","0.0-13.0-2.10","41323","ListA","man","chinese","CMA7","","","","null","","","","","",""
"5650.900000035763","","","survey-text","139","450263","0.0-13.0-3.10","41323","ListA","man","chinese","CMA7","","","","","{""Q0"":""霍普正在加入凯特""}","<img src='gifs/FemaleRace2b.gif' style='height:400px;''></img>","加入","正在加入","chinese",""
"null","<div style=""font-size:60px;"">+</div>","","html-keyboard-response","140","450774","0.0-13.0-0.11","41323","ListA","man","chinese","CMA7","","","","null","","","","","",""
"null","<img src='gifs/MaleRace3a.gif' style='height:400px;''></img>","","html-keyboard-response","141","452790","0.0-13.0-1.11","41323","ListA","man","chinese","CMA7","","","","null","","","","","",""
"null","正在介绍","","html-keyboard-response","142","455798","0.0-13.0-2.11","41323","ListA","man","chinese","CMA7","","","","null","","","","","",""
"7061.699999988079","","","survey-text","143","462863","0.0-13.0-3.11","41323","ListA","man","chinese","CMA7","","","","","{""Q0"":""卢克正在介绍麦克""}","<img src='gifs/MaleRace3a.gif' style='height:400px;''></img>","介绍","正在介绍","chinese",""
"null","<div style=""font-size:60px;"">+</div>","","html-keyboard-response","144","463373","0.0-13.0-0.12","41323","ListA","man","chinese","CMA7","","","","null","","","","","",""
"null","<img src='gifs/ChineseGender2a.gif' style='height:400px;''></img>","","html-keyboard-response","145","465389","0.0-13.0-1.12","41323","ListA","man","chinese","CMA7","","","","null","","","","","",""
"null","正在接近","","html-keyboard-response","146","468391","0.0-13.0-2.12","41323","ListA","man","chinese","CMA7","","","","null","","","","","",""
"11620.099999964237","","","survey-text","147","480013","0.0-13.0-3.12","41323","ListA","man","chinese","CMA7","","","","","{""Q0"":""弗雷正在介绍露丝""}","<img src='gifs/ChineseGender2a.gif' style='height:400px;''></img>","接近","正在接近","chinese",""
"null","<div style=""font-size:60px;"">+</div>","","html-keyboard-response","148","480522","0.0-13.0-0.13","41323","ListA","man","chinese","CMA7","","","","null","","","","","",""
"null","<img src='gifs/MaleRace1a.gif' style='height:400px;''></img>","","html-keyboard-response","149","482528","0.0-13.0-1.13","41323","ListA","man","chinese","CMA7","","","","null","","","","","",""
"null","正在聘用","","html-keyboard-response","150","485538","0.0-13.0-2.13","41323","ListA","man","chinese","CMA7","","","","null","","","","","",""
"12322.099999964237","","","survey-text","151","497863","0.0-13.0-3.13","41323","ListA","man","chinese","CMA7","","","","","{""Q0"":""弗雷正在聘用卢克""}","<img src='gifs/MaleRace1a.gif' style='height:400px;''></img>","聘用","正在聘用","chinese",""
"null","<div style=""font-size:60px;"">+</div>","","html-keyboard-response","152","498370","0.0-13.0-0.14","41323","ListA","man","chinese","CMA7","","","","null","","","","","",""
"null","<img src='gifs/MaleRace3b.gif' style='height:400px;''></img>","","html-keyboard-response","153","500381","0.0-13.0-1.14","41323","ListA","man","chinese","CMA7","","","","null","","","","","",""
"null","正在走向","","html-keyboard-response","154","503387","0.0-13.0-2.14","41323","ListA","man","chinese","CMA7","","","","null","","","","","",""
"5473.899999976158","","","survey-text","155","508863","0.0-13.0-3.14","41323","ListA","man","chinese","CMA7","","","","","{""Q0"":""麦克正在走向卢克""}","<img src='gifs/MaleRace3b.gif' style='height:400px;''></img>","走向","正在走向","chinese",""
"null","<div style=""font-size:60px;"">+</div>","","html-keyboard-response","156","509368","0.0-13.0-0.15","41323","ListA","man","chinese","CMA7","","","","null","","","","","",""
"null","<img src='gifs/BlackGender4b.gif' style='height:400px;''></img>","","html-keyboard-response","157","511375","0.0-13.0-1.15","41323","ListA","man","chinese","CMA7","","","","null","","","","","",""
"null","正在表扬","","html-keyboard-response","158","514387","0.0-13.0-2.15","41323","ListA","man","chinese","CMA7","","","","null","","","","","",""
"11673.399999976158","","","survey-text","159","526064","0.0-13.0-3.15","41323","ListA","man","chinese","CMA7","","","","","{""Q0"":""戴夫正在表扬麦克""}","<img src='gifs/BlackGender4b.gif' style='height:400px;''></img>","表扬","正在表扬","chinese",""
"null","<div style=""font-size:60px;"">+</div>","","html-keyboard-response","160","526567","0.0-13.0-0.16","41323","ListA","man","chinese","CMA7","","","","null","","","","","",""
"null","<img src='gifs/FemaleRace1b.gif' style='height:400px;''></img>","","html-keyboard-response","161","528578","0.0-13.0-1.16","41323","ListA","man","chinese","CMA7","","","","null","","","","","",""
"null","正在答应","","html-keyboard-response","162","531587","0.0-13.0-2.16","41323","ListA","man","chinese","CMA7","","","","null","","","","","",""
"6222.600000023842","","","survey-text","163","537813","0.0-13.0-3.16","41323","ListA","man","chinese","CMA7","","","","","{""Q0"":""霍普正在答应凯特""}","<img src='gifs/FemaleRace1b.gif' style='height:400px;''></img>","答应","正在答应","chinese",""
"null","<div style=""font-size:60px;"">+</div>","","html-keyboard-response","164","538319","0.0-13.0-0.17","41323","ListA","man","chinese","CMA7","","","","null","","","","","",""
"null","<img src='gifs/ChineseGender4a.gif' style='height:400px;''></img>","","html-keyboard-response","165","540326","0.0-13.0-1.17","41323","ListA","man","chinese","CMA7","","","","null","","","","","",""
"null","正在答应","","html-keyboard-response","166","543336","0.0-13.0-2.17","41323","ListA","man","chinese","CMA7","","","","null","","","","","",""
"5574.599999964237","","","survey-text","167","548913","0.0-13.0-3.17","41323","ListA","man","chinese","CMA7","","","","","{""Q0"":""霍普正在答应卢克""}","<img src='gifs/ChineseGender4a.gif' style='height:400px;''></img>","答应","正在答应","chinese",""
"32484.80000001192","<img src='img/portrait_matrix_listA_chinese.jpg' style='width:900px;height:500px;''></img><p>如果您已经记住了所有的人物和名字，请点击继续。</p><p><strong>请注意：您对先前记忆的面孔将在本实验中被测试5次。</strong></p>","0","html-button-response","168","581399","0.0-14.0-0.0","41323","ListA","man","chinese","CMA7","","","","","","","","","",""
"4951.799999952316","<img src=""portrait/BW1.jpg""style=""height:400px;""></img>","0","html-button-response","169","587365","0.0-14.0-1.0","41323","ListA","man","chinese","CMA7","","true","0","","","","","","",""
"null","正确","","html-keyboard-response","170","588889","0.0-14.0-2.0-0.0","41323","ListA","man","chinese","CMA7","","","","null","","","","","",""
"1605.5","<img src=""portrait/WM1.jpg""style=""height:400px;""></img>","6","html-button-response","171","590498","0.0-14.0-4.0","41323","ListA","man","chinese","CMA7","","true","6","","","","","","",""
"null","正确","","html-keyboard-response","172","592009","0.0-14.0-5.0-0.0","41323","ListA","man","chinese","CMA7","","","","null","","","","","",""
"1435.6000000238419","<img src=""portrait/BM1.jpg""style=""height:400px;""></img>","4","html-button-response","173","593449","0.0-14.0-7.0","41323","ListA","man","chinese","CMA7","","true","4","","","","","","",""
"null","正确","","html-keyboard-response","174","594968","0.0-14.0-8.0-0.0","41323","ListA","man","chinese","CMA7","","","","null","","","","","",""
"2026.199999988079","<img src=""portrait/WM2.jpg""style=""height:400px;""></img>","7","html-button-response","175","596997","0.0-14.0-10.0","41323","ListA","man","chinese","CMA7","","true","7","","","","","","",""
"null","正确","","html-keyboard-response","176","598518","0.0-14.0-11.0-0.0","41323","ListA","man","chinese","CMA7","","","","null","","","","","",""
"6927","<img src=""portrait/BW2.jpg""style=""height:400px;""></img>","2","html-button-response","177","605448","0.0-14.0-13.0","41323","ListA","man","chinese","CMA7","","true","2","","","","","","",""
"null","正确","","html-keyboard-response","178","606957","0.0-14.0-14.0-0.0","41323","ListA","man","chinese","CMA7","","","","null","","","","","",""
"2538.800000011921","<img src=""portrait/WW1.jpg""style=""height:400px;""></img>","1","html-button-response","179","609499","0.0-14.0-16.0","41323","ListA","man","chinese","CMA7","","true","1","","","","","","",""
"null","正确","","html-keyboard-response","180","611024","0.0-14.0-17.0-0.0","41323","ListA","man","chinese","CMA7","","","","null","","","","","",""
"1670.1000000238419","<img src=""portrait/WW2.jpg""style=""height:400px;""></img>","3","html-button-response","181","612698","0.0-14.0-19.0","41323","ListA","man","chinese","CMA7","","true","3","","","","","","",""
"null","正确","","html-keyboard-response","182","614204","0.0-14.0-20.0-0.0","41323","ListA","man","chinese","CMA7","","","","null","","","","","",""
"1807.199999988079","<img src=""portrait/BM2.jpg""style=""height:400px;""></img>","5","html-button-response","183","616015","0.0-14.0-22.0","41323","ListA","man","chinese","CMA7","","true","5","","","","","","",""
"null","正确","","html-keyboard-response","184","617535","0.0-14.0-23.0-0.0","41323","ListA","man","chinese","CMA7","","","","null","","","","","",""
"1391.699999988079","<p>您第一次在8题里答对了 8 题。 请点击继续</p>","0","html-button-response","185","618931","0.0-14.0-25.0","41323","ListA","man","chinese","CMA7","","","","","","","","","",""
"null","<div style=""font-size:60px;"">+</div>","","html-keyboard-response","186","620453","0.0-15.0-0.0","41323","ListA","man","chinese","CMA7","","","","null","","","","","",""
"null","<img src='gifs/ChineseGender3b.gif' style='height:400px;''></img>","","html-keyboard-response","187","622461","0.0-15.0-1.0","41323","ListA","man","chinese","CMA7","","","","null","","","","","",""
"null","正在表扬","","html-keyboard-response","188","625466","0.0-15.0-2.0","41323","ListA","man","chinese","CMA7","","","","null","","","","","",""
"6893.400000035763","","","survey-text","189","632362","0.0-15.0-3.0","41323","ListA","man","chinese","CMA7","","","","","{""Q0"":""贝斯正在表扬麦克""}","<img src='gifs/ChineseGender3b.gif' style='height:400px;''></img>","表扬","正在表扬","chinese",""
"null","<div style=""font-size:60px;"">+</div>","","html-keyboard-response","190","632869","0.0-15.0-0.1","41323","ListA","man","chinese","CMA7","","","","null","","","","","",""
"null","<img src='gifs/ChineseGender4b.gif' style='height:400px;''></img>","","html-keyboard-response","191","634879","0.0-15.0-1.1","41323","ListA","man","chinese","CMA7","","","","null","","","","","",""
"null","正在走向","","html-keyboard-response","192","637887","0.0-15.0-2.1","41323","ListA","man","chinese","CMA7","","","","null","","","","","",""
"9554.900000035763","","","survey-text","193","647446","0.0-15.0-3.1","41323","ListA","man","chinese","CMA7","","","","","{""Q0"":""麦克正在表扬凯特""}","<img src='gifs/ChineseGender4b.gif' style='height:400px;''></img>","走向","正在走向","chinese",""
"null","<div style=""font-size:60px;"">+</div>","","html-keyboard-response","194","647951","0.0-15.0-0.2","41323","ListA","man","chinese","CMA7","","","","null","","","","","",""
"null","<img src='gifs/MaleRace3a.gif' style='height:400px;''></img>","","html-keyboard-response","195","649959","0.0-15.0-1.2","41323","ListA","man","chinese","CMA7","","","","null","","","","","",""
"null","正在聘用","","html-keyboard-response","196","652963","0.0-15.0-2.2","41323","ListA","man","chinese","CMA7","","","","null","","","","","",""
"6682","","","survey-text","197","659646","0.0-15.0-3.2","41323","ListA","man","chinese","CMA7","","","","","{""Q0"":""卢克正在聘用麦克""}","<img src='gifs/MaleRace3a.gif' style='height:400px;''></img>","聘用","正在聘用","chinese",""
"null","<div style=""font-size:60px;"">+</div>","","html-keyboard-response","198","660159","0.0-15.0-0.3","41323","ListA","man","chinese","CMA7","","","","null","","","","","",""
"null","<img src='gifs/BlackGender1b.gif' style='height:400px;''></img>","","html-keyboard-response","199","662175","0.0-15.0-1.3","41323","ListA","man","chinese","CMA7","","","","null","","","","","",""
"null","正在加入","","html-keyboard-response","200","665183","0.0-15.0-2.3","41323","ListA","man","chinese","CMA7","","","","null","","","","","",""
"5909","","","survey-text","201","671095","0.0-15.0-3.3","41323","ListA","man","chinese","CMA7","","","","","{""Q0"":""卢克正在加入露丝""}","<img src='gifs/BlackGender1b.gif' style='height:400px;''></img>","加入","正在加入","chinese",""
"null","<div style=""font-size:60px;"">+</div>","","html-keyboard-response","202","671606","0.0-15.0-0.4","41323","ListA","man","chinese","CMA7","","","","null","","","","","",""
"null","<img src='gifs/BlackGender4a.gif' style='height:400px;''></img>","","html-keyboard-response","203","673615","0.0-15.0-1.4","41323","ListA","man","chinese","CMA7","","","","null","","","","","",""
"null","正在看着","","html-keyboard-response","204","676622","0.0-15.0-2.4","41323","ListA","man","chinese","CMA7","","","","null","","","","","",""
"7020.899999976158","","","survey-text","205","683647","0.0-15.0-3.4","41323","ListA","man","chinese","CMA7","","","","","{""Q0"":""戴夫正在看着霍普""}","<img src='gifs/BlackGender4a.gif' style='height:400px;''></img>","看着","正在看着","chinese",""
"null","<div style=""font-size:60px;"">+</div>","","html-keyboard-response","206","684159","0.0-15.0-0.5","41323","ListA","man","chinese","CMA7","","","","null","","","","","",""
"null","<img src='gifs/FemaleRace1b.gif' style='height:400px;''></img>","","html-keyboard-response","207","686171","0.0-15.0-1.5","41323","ListA","man","chinese","CMA7","","","","null","","","","","",""
"null","正在说服","","html-keyboard-response","208","689173","0.0-15.0-2.5","41323","ListA","man","chinese","CMA7","","","","null","","","","","",""
"6487.800000011921","","","survey-text","209","695663","0.0-15.0-3.5","41323","ListA","man","chinese","CMA7","","","","","{""Q0"":""露丝正在说服凯特""}","<img src='gifs/FemaleRace1b.gif' style='height:400px;''></img>","说服","正在说服","chinese",""
"null","<div style=""font-size:60px;"">+</div>","","html-keyboard-response","210","696169","0.0-15.0-0.6","41323","ListA","man","chinese","CMA7","","","","null","","","","","",""
"null","<img src='gifs/BlackGender3b.gif' style='height:400px;''></img>","","html-keyboard-response","211","698178","0.0-15.0-1.6","41323","ListA","man","chinese","CMA7","","","","null","","","","","",""
"null","正在跟随","","html-keyboard-response","212","701190","0.0-15.0-2.6","41323","ListA","man","chinese","CMA7","","","","null","","","","","",""
"6501.800000011921","","","survey-text","213","707696","0.0-15.0-3.6","41323","ListA","man","chinese","CMA7","","","","","{""Q0"":""卢克正在跟随霍普""}","<img src='gifs/BlackGender3b.gif' style='height:400px;''></img>","跟随","正在跟随","chinese",""
"null","<div style=""font-size:60px;"">+</div>","","html-keyboard-response","214","708202","0.0-15.0-0.7","41323","ListA","man","chinese","CMA7","","","","null","","","","","",""
"null","<img src='gifs/BlackGender2a.gif' style='height:400px;''></img>","","html-keyboard-response","215","710211","0.0-15.0-1.7","41323","ListA","man","chinese","CMA7","","","","null","","","","","",""
"null","正在表扬","","html-keyboard-response","216","713220","0.0-15.0-2.7","41323","ListA","man","chinese","CMA7","","","","null","","","","","",""
"9690.800000011921","","","survey-text","217","722912","0.0-15.0-3.7","41323","ListA","man","chinese","CMA7","","","","","{""Q0"":""露丝正在表扬戴夫""}","<img src='gifs/BlackGender2a.gif' style='height:400px;''></img>","表扬","正在表扬","chinese",""
"null","<div style=""font-size:60px;"">+</div>","","html-keyboard-response","218","723420","0.0-15.0-0.8","41323","ListA","man","chinese","CMA7","","","","null","","","","","",""
"null","<img src='gifs/MaleRace4b.gif' style='height:400px;''></img>","","html-keyboard-response","219","725426","0.0-15.0-1.8","41323","ListA","man","chinese","CMA7","","","","null","","","","","",""
"null","正在说服","","html-keyboard-response","220","728436","0.0-15.0-2.8","41323","ListA","man","chinese","CMA7","","","","null","","","","","",""
"7275.800000011921","","","survey-text","221","735713","0.0-15.0-3.8","41323","ListA","man","chinese","CMA7","","","","","{""Q0"":""麦克正在说服戴夫""}","<img src='gifs/MaleRace4b.gif' style='height:400px;''></img>","说服","正在说服","chinese",""
"null","<div style=""font-size:60px;"">+</div>","","html-keyboard-response","222","736220","0.0-15.0-0.9","41323","ListA","man","chinese","CMA7","","","","null","","","","","",""
"null","<img src='gifs/BlackGender3a.gif' style='height:400px;''></img>","","html-keyboard-response","223","738229","0.0-15.0-1.9","41323","ListA","man","chinese","CMA7","","","","null","","","","","",""
"null","正在聆听","","html-keyboard-response","224","741233","0.0-15.0-2.9","41323","ListA","man","chinese","CMA7","","","","null","","","","","",""
"6075.899999976158","","","survey-text","225","747312","0.0-15.0-3.9","41323","ListA","man","chinese","CMA7","","","","","{""Q0"":""卢克正在聆听霍普""}","<img src='gifs/BlackGender3a.gif' style='height:400px;''></img>","聆听","正在聆听","chinese",""
"null","<div style=""font-size:60px;"">+</div>","","html-keyboard-response","226","747820","0.0-15.0-0.10","41323","ListA","man","chinese","CMA7","","","","null","","","","","",""
"null","<img src='gifs/BlackGender2a.gif' style='height:400px;''></img>","","html-keyboard-response","227","749824","0.0-15.0-1.10","41323","ListA","man","chinese","CMA7","","","","null","","","","","",""
"null","正在触摸","","html-keyboard-response","228","752832","0.0-15.0-2.10","41323","ListA","man","chinese","CMA7","","","","null","","","","","",""
"10176.599999964237","","","survey-text","229","763012","0.0-15.0-3.10","41323","ListA","man","chinese","CMA7","","","","","{""Q0"":""戴夫正在触摸露丝""}","<img src='gifs/BlackGender2a.gif' style='height:400px;''></img>","触摸","正在触摸","chinese",""
"null","<div style=""font-size:60px;"">+</div>","","html-keyboard-response","230","763519","0.0-15.0-0.11","41323","ListA","man","chinese","CMA7","","","","null","","","","","",""
"null","<img src='gifs/MaleRace4b.gif' style='height:400px;''></img>","","html-keyboard-response","231","765531","0.0-15.0-1.11","41323","ListA","man","chinese","CMA7","","","","null","","","","","",""
"null","正在触摸","","html-keyboard-response","232","768538","0.0-15.0-2.11","41323","ListA","man","chinese","CMA7","","","","null","","","","","",""
"7321.900000035763","","","survey-text","233","775864","0.0-15.0-3.11","41323","ListA","man","chinese","CMA7","","","","","{""Q0"":""s""}","<img src='gifs/MaleRace4b.gif' style='height:400px;''></img>","触摸","正在触摸","chinese",""
"null","<div style=""font-size:60px;"">+</div>","","html-keyboard-response","234","776367","0.0-15.0-0.12","41323","ListA","man","chinese","CMA7","","","","null","","","","","",""
"null","<img src='gifs/FemaleRace4b.gif' style='height:400px;''></img>","","html-keyboard-response","235","778379","0.0-15.0-1.12","41323","ListA","man","chinese","CMA7","","","","null","","","","","",""
"null","正在答应","","html-keyboard-response","236","781386","0.0-15.0-2.12","41323","ListA","man","chinese","CMA7","","","","null","","","","","",""
"5355.900000035763","","","survey-text","237","786746","0.0-15.0-3.12","41323","ListA","man","chinese","CMA7","","","","","{""Q0"":""贝斯正在答应霍普""}","<img src='gifs/FemaleRace4b.gif' style='height:400px;''></img>","答应","正在答应","chinese",""
"null","<div style=""font-size:60px;"">+</div>","","html-keyboard-response","238","787258","0.0-15.0-0.13","41323","ListA","man","chinese","CMA7","","","","null","","","","","",""
"null","<img src='gifs/ChineseGender1a.gif' style='height:400px;''></img>","","html-keyboard-response","239","789263","0.0-15.0-1.13","41323","ListA","man","chinese","CMA7","","","","null","","","","","",""
"null","正在陪伴","","html-keyboard-response","240","792271","0.0-15.0-2.13","41323","ListA","man","chinese","CMA7","","","","null","","","","","",""
"5935.699999988079","","","survey-text","241","798212","0.0-15.0-3.13","41323","ListA","man","chinese","CMA7","","","","","{""Q0"":""弗雷正在陪伴凯特""}","<img src='gifs/ChineseGender1a.gif' style='height:400px;''></img>","陪伴","正在陪伴","chinese",""
"null","<div style=""font-size:60px;"">+</div>","","html-keyboard-response","242","798719","0.0-15.0-0.14","41323","ListA","man","chinese","CMA7","","","","null","","","","","",""
"null","<img src='gifs/MaleRace4a.gif' style='height:400px;''></img>","","html-keyboard-response","243","800731","0.0-15.0-1.14","41323","ListA","man","chinese","CMA7","","","","null","","","","","",""
"null","正在跟随","","html-keyboard-response","244","803739","0.0-15.0-2.14","41323","ListA","man","chinese","CMA7","","","","null","","","","","",""
"7375.300000011921","","","survey-text","245","811118","0.0-15.0-3.14","41323","ListA","man","chinese","CMA7","","","","","{""Q0"":""麦克正在跟随戴夫""}","<img src='gifs/MaleRace4a.gif' style='height:400px;''></img>","跟随","正在跟随","chinese",""
"null","<div style=""font-size:60px;"">+</div>","","html-keyboard-response","246","811626","0.0-15.0-0.15","41323","ListA","man","chinese","CMA7","","","","null","","","","","",""
"null","<img src='gifs/ChineseGender2a.gif' style='height:400px;''></img>","","html-keyboard-response","247","813634","0.0-15.0-1.15","41323","ListA","man","chinese","CMA7","","","","null","","","","","",""
"null","正在介绍","","html-keyboard-response","248","816638","0.0-15.0-2.15","41323","ListA","man","chinese","CMA7","","","","null","","","","","",""
"8769.300000011921","","","survey-text","249","825412","0.0-15.0-3.15","41323","ListA","man","chinese","CMA7","","","","","{""Q0"":""弗雷正在介绍贝斯""}","<img src='gifs/ChineseGender2a.gif' style='height:400px;''></img>","介绍","正在介绍","chinese",""
"null","<div style=""font-size:60px;"">+</div>","","html-keyboard-response","250","825917","0.0-15.0-0.16","41323","ListA","man","chinese","CMA7","","","","null","","","","","",""
"null","<img src='gifs/ChineseGender1b.gif' style='height:400px;''></img>","","html-keyboard-response","251","827929","0.0-15.0-1.16","41323","ListA","man","chinese","CMA7","","","","null","","","","","",""
"null","正在联系","","html-keyboard-response","252","830932","0.0-15.0-2.16","41323","ListA","man","chinese","CMA7","","","","null","","","","","",""
"7478.399999976158","","","survey-text","253","838412","0.0-15.0-3.16","41323","ListA","man","chinese","CMA7","","","","","{""Q0"":""戴夫正在联系凯特""}","<img src='gifs/ChineseGender1b.gif' style='height:400px;''></img>","联系","正在联系","chinese",""
"null","<div style=""font-size:60px;"">+</div>","","html-keyboard-response","254","838917","0.0-15.0-0.17","41323","ListA","man","chinese","CMA7","","","","null","","","","","",""
"null","<img src='gifs/MaleRace2a.gif' style='height:400px;''></img>","","html-keyboard-response","255","840929","0.0-15.0-1.17","41323","ListA","man","chinese","CMA7","","","","null","","","","","",""
"null","正在陪伴","","html-keyboard-response","256","843937","0.0-15.0-2.17","41323","ListA","man","chinese","CMA7","","","","null","","","","","",""
"6304.699999988079","","","survey-text","257","850245","0.0-15.0-3.17","41323","ListA","man","chinese","CMA7","","","","","{""Q0"":""戴夫正在陪伴弗雷""}","<img src='gifs/MaleRace2a.gif' style='height:400px;''></img>","陪伴","正在陪伴","chinese",""
"6482.699999988079","<img src='img/portrait_matrix_listA_chinese.jpg' style='width:900px;height:500px;''></img><p>如果您已经记住了所有的人物和名字，请点击继续。</p><p><strong>请注意：您对先前记忆的面孔将在本实验中被测试5次。</strong></p>","0","html-button-response","258","856730","0.0-16.0-0.0","41323","ListA","man","chinese","CMA7","","","","","","","","","",""
"2624.5","<img src=""portrait/WM1.jpg""style=""height:400px;""></img>","6","html-button-response","259","860363","0.0-16.0-1.0","41323","ListA","man","chinese","CMA7","","true","6","","","","","","",""
"null","正确","","html-keyboard-response","260","861885","0.0-16.0-2.0-0.0","41323","ListA","man","chinese","CMA7","","","","null","","","","","",""
"2176.399999976158","<img src=""portrait/BM1.jpg""style=""height:400px;""></img>","4","html-button-response","261","864065","0.0-16.0-4.0","41323","ListA","man","chinese","CMA7","","true","4","","","","","","",""
"null","正确","","html-keyboard-response","262","865577","0.0-16.0-5.0-0.0","41323","ListA","man","chinese","CMA7","","","","null","","","","","",""
"6283.699999988079","<img src=""portrait/BW1.jpg""style=""height:400px;""></img>","0","html-button-response","263","871863","0.0-16.0-7.0","41323","ListA","man","chinese","CMA7","","true","0","","","","","","",""
"null","正确","","html-keyboard-response","264","873376","0.0-16.0-8.0-0.0","41323","ListA","man","chinese","CMA7","","","","null","","","","","",""
"1601.7000000476837","<img src=""portrait/BM2.jpg""style=""height:400px;""></img>","5","html-button-response","265","874981","0.0-16.0-10.0","41323","ListA","man","chinese","CMA7","","true","5","","","","","","",""
"null","正确","","html-keyboard-response","266","876500","0.0-16.0-11.0-0.0","41323","ListA","man","chinese","CMA7","","","","null","","","","","",""
"1359.6000000238419","<img src=""portrait/WM2.jpg""style=""height:400px;""></img>","7","html-button-response","267","877863","0.0-16.0-13.0","41323","ListA","man","chinese","CMA7","","true","7","","","","","","",""
"null","正确","","html-keyboard-response","268","879382","0.0-16.0-14.0-0.0","41323","ListA","man","chinese","CMA7","","","","null","","","","","",""
"1527.699999988079","<img src=""portrait/WW1.jpg""style=""height:400px;""></img>","1","html-button-response","269","880913","0.0-16.0-16.0","41323","ListA","man","chinese","CMA7","","true","1","","","","","","",""
"null","正确","","html-keyboard-response","270","882420","0.0-16.0-17.0-0.0","41323","ListA","man","chinese","CMA7","","","","null","","","","","",""
"1355.8999999761581","<img src=""portrait/WW2.jpg""style=""height:400px;""></img>","3","html-button-response","271","883779","0.0-16.0-19.0","41323","ListA","man","chinese","CMA7","","true","3","","","","","","",""
"null","正确","","html-keyboard-response","272","885296","0.0-16.0-20.0-0.0","41323","ListA","man","chinese","CMA7","","","","null","","","","","",""
"1496.800000011921","<img src=""portrait/BW2.jpg""style=""height:400px;""></img>","2","html-button-response","273","886797","0.0-16.0-22.0","41323","ListA","man","chinese","CMA7","","true","2","","","","","","",""
"null","正确","","html-keyboard-response","274","888316","0.0-16.0-23.0-0.0","41323","ListA","man","chinese","CMA7","","","","null","","","","","",""
"1126.300000011921","<p>您第一次在8题里答对了 8 题。 请点击继续</p>","0","html-button-response","275","889446","0.0-16.0-25.0","41323","ListA","man","chinese","CMA7","","","","","","","","","",""
"null","<div style=""font-size:60px;"">+</div>","","html-keyboard-response","276","890960","0.0-17.0-0.0","41323","ListA","man","chinese","CMA7","","","","null","","","","","",""
"null","<img src='gifs/BlackGender1a.gif' style='height:400px;''></img>","","html-keyboard-response","277","892976","0.0-17.0-1.0","41323","ListA","man","chinese","CMA7","","","","null","","","","","",""
"null","正在聘用","","html-keyboard-response","278","895984","0.0-17.0-2.0","41323","ListA","man","chinese","CMA7","","","","null","","","","","",""
"6791.5","","","survey-text","279","902780","0.0-17.0-3.0","41323","ListA","man","chinese","CMA7","","","","","{""Q0"":""露丝正在聘用卢克""}","<img src='gifs/BlackGender1a.gif' style='height:400px;''></img>","聘用","正在聘用","chinese",""
"null","<div style=""font-size:60px;"">+</div>","","html-keyboard-response","280","903285","0.0-17.0-0.1","41323","ListA","man","chinese","CMA7","","","","null","","","","","",""
"null","<img src='gifs/FemaleRace2a.gif' style='height:400px;''></img>","","html-keyboard-response","281","905295","0.0-17.0-1.1","41323","ListA","man","chinese","CMA7","","","","null","","","","","",""
"null","正在提到","","html-keyboard-response","282","908298","0.0-17.0-2.1","41323","ListA","man","chinese","CMA7","","","","null","","","","","",""
"7746.899999976158","","","survey-text","283","916046","0.0-17.0-3.1","41323","ListA","man","chinese","CMA7","","","","","{""Q0"":""凯特正在提到霍普""}","<img src='gifs/FemaleRace2a.gif' style='height:400px;''></img>","提到","正在提到","chinese",""
"null","<div style=""font-size:60px;"">+</div>","","html-keyboard-response","284","916554","0.0-17.0-0.2","41323","ListA","man","chinese","CMA7","","","","null","","","","","",""
"null","<img src='gifs/ChineseGender3b.gif' style='height:400px;''></img>","","html-keyboard-response","285","918566","0.0-17.0-1.2","41323","ListA","man","chinese","CMA7","","","","null","","","","","",""
"null","正在聆听","","html-keyboard-response","286","921570","0.0-17.0-2.2","41323","ListA","man","chinese","CMA7","","","","null","","","","","",""
"5655.199999988079","","","survey-text","287","927228","0.0-17.0-3.2","41323","ListA","man","chinese","CMA7","","","","","{""Q0"":""麦克正在聆听贝斯""}","<img src='gifs/ChineseGender3b.gif' style='height:400px;''></img>","聆听","正在聆听","chinese",""
"null","<div style=""font-size:60px;"">+</div>","","html-keyboard-response","288","927734","0.0-17.0-0.3","41323","ListA","man","chinese","CMA7","","","","null","","","","","",""
"null","<img src='gifs/BlackGender2b.gif' style='height:400px;''></img>","","html-keyboard-response","289","929739","0.0-17.0-1.3","41323","ListA","man","chinese","CMA7","","","","null","","","","","",""
"null","正在接近","","html-keyboard-response","290","932750","0.0-17.0-2.3","41323","ListA","man","chinese","CMA7","","","","null","","","","","",""
"4740.5","","","survey-text","291","937494","0.0-17.0-3.3","41323","ListA","man","chinese","CMA7","","","","","{""Q0"":""戴夫正在接近露丝""}","<img src='gifs/BlackGender2b.gif' style='height:400px;''></img>","接近","正在接近","chinese",""
"null","<div style=""font-size:60px;"">+</div>","","html-keyboard-response","292","938004","0.0-17.0-0.4","41323","ListA","man","chinese","CMA7","","","","null","","","","","",""
"null","<img src='gifs/BlackGender4a.gif' style='height:400px;''></img>","","html-keyboard-response","293","940014","0.0-17.0-1.4","41323","ListA","man","chinese","CMA7","","","","null","","","","","",""
"null","正在走向","","html-keyboard-response","294","943022","0.0-17.0-2.4","41323","ListA","man","chinese","CMA7","","","","null","","","","","",""
"7135.5","","","survey-text","295","950162","0.0-17.0-3.4","41323","ListA","man","chinese","CMA7","","","","","{""Q0"":""戴夫正在走向霍普""}","<img src='gifs/BlackGender4a.gif' style='height:400px;''></img>","走向","正在走向","chinese",""
"null","<div style=""font-size:60px;"">+</div>","","html-keyboard-response","296","950666","0.0-17.0-0.5","41323","ListA","man","chinese","CMA7","","","","null","","","","","",""
"null","<img src='gifs/BlackGender2b.gif' style='height:400px;''></img>","","html-keyboard-response","297","952678","0.0-17.0-1.5","41323","ListA","man","chinese","CMA7","","","","null","","","","","",""
"null","正在陪伴","","html-keyboard-response","298","955686","0.0-17.0-2.5","41323","ListA","man","chinese","CMA7","","","","null","","","","","",""
"7888.100000023842","","","survey-text","299","963578","0.0-17.0-3.5","41323","ListA","man","chinese","CMA7","","","","","{""Q0"":""露丝正在陪伴戴夫""}","<img src='gifs/BlackGender2b.gif' style='height:400px;''></img>","陪伴","正在陪伴","chinese",""
"null","<div style=""font-size:60px;"">+</div>","","html-keyboard-response","300","964086","0.0-17.0-0.6","41323","ListA","man","chinese","CMA7","","","","null","","","","","",""
"null","<img src='gifs/BlackGender1b.gif' style='height:400px;''></img>","","html-keyboard-response","301","966089","0.0-17.0-1.6","41323","ListA","man","chinese","CMA7","","","","null","","","","","",""
"null","正在面向","","html-keyboard-response","302","969097","0.0-17.0-2.6","41323","ListA","man","chinese","CMA7","","","","null","","","","","",""
"5046.699999988079","","","survey-text","303","974145","0.0-17.0-3.6","41323","ListA","man","chinese","CMA7","","","","","{""Q0"":""卢克正在面向露丝""}","<img src='gifs/BlackGender1b.gif' style='height:400px;''></img>","面向","正在面向","chinese",""
"null","<div style=""font-size:60px;"">+</div>","","html-keyboard-response","304","974653","0.0-17.0-0.7","41323","ListA","man","chinese","CMA7","","","","null","","","","","",""
"null","<img src='gifs/FemaleRace3b.gif' style='height:400px;''></img>","","html-keyboard-response","305","976669","0.0-17.0-1.7","41323","ListA","man","chinese","CMA7","","","","null","","","","","",""
"null","正在看着","","html-keyboard-response","306","979673","0.0-17.0-2.7","41323","ListA","man","chinese","CMA7","","","","null","","","","","",""
"8417.400000035763","","","survey-text","307","988094","0.0-17.0-3.7","41323","ListA","man","chinese","CMA7","","","","","{""Q0"":""露丝正在看着贝斯""}","<img src='gifs/FemaleRace3b.gif' style='height:400px;''></img>","看着","正在看着","chinese",""
"null","<div style=""font-size:60px;"">+</div>","","html-keyboard-response","308","988603","0.0-17.0-0.8","41323","ListA","man","chinese","CMA7","","","","null","","","","","",""
"null","<img src='gifs/FemaleRace4a.gif' style='height:400px;''></img>","","html-keyboard-response","309","990612","0.0-17.0-1.8","41323","ListA","man","chinese","CMA7","","","","null","","","","","",""
"null","正在走向","","html-keyboard-response","310","993616","0.0-17.0-2.8","41323","ListA","man","chinese","CMA7","","","","null","","","","","",""
"7257","","","survey-text","311","1000878","0.0-17.0-3.8","41323","ListA","man","chinese","CMA7","","","","","{""Q0"":""贝斯正在走向霍普""}","<img src='gifs/FemaleRace4a.gif' style='height:400px;''></img>","走向","正在走向","chinese",""
"null","<div style=""font-size:60px;"">+</div>","","html-keyboard-response","312","1001388","0.0-17.0-0.9","41323","ListA","man","chinese","CMA7","","","","null","","","","","",""
"null","<img src='gifs/MaleRace2b.gif' style='height:400px;''></img>","","html-keyboard-response","313","1003396","0.0-17.0-1.9","41323","ListA","man","chinese","CMA7","","","","null","","","","","",""
"null","正在面向","","html-keyboard-response","314","1006404","0.0-17.0-2.9","41323","ListA","man","chinese","CMA7","","","","null","","","","","",""
"8420.800000011921","","","survey-text","315","1014828","0.0-17.0-3.9","41323","ListA","man","chinese","CMA7","","","","","{""Q0"":""戴夫正在面向弗雷""}","<img src='gifs/MaleRace2b.gif' style='height:400px;''></img>","面向","正在面向","chinese",""
"null","<div style=""font-size:60px;"">+</div>","","html-keyboard-response","316","1015337","0.0-17.0-0.10","41323","ListA","man","chinese","CMA7","","","","null","","","","","",""
"null","<img src='gifs/ChineseGender4a.gif' style='height:400px;''></img>","","html-keyboard-response","317","1017347","0.0-17.0-1.10","41323","ListA","man","chinese","CMA7","","","","null","","","","","",""
"null","正在提到","","html-keyboard-response","318","1020355","0.0-17.0-2.10","41323","ListA","man","chinese","CMA7","","","","null","","","","","",""
"8368.399999976158","","","survey-text","319","1028727","0.0-17.0-3.10","41323","ListA","man","chinese","CMA7","","","","","{""Q0"":""凯特正在提到麦克""}","<img src='gifs/ChineseGender4a.gif' style='height:400px;''></img>","提到","正在提到","chinese",""
"null","<div style=""font-size:60px;"">+</div>","","html-keyboard-response","320","1029235","0.0-17.0-0.11","41323","ListA","man","chinese","CMA7","","","","null","","","","","",""
"null","<img src='gifs/ChineseGender1b.gif' style='height:400px;''></img>","","html-keyboard-response","321","1031247","0.0-17.0-1.11","41323","ListA","man","chinese","CMA7","","","","null","","","","","",""
"null","正在陪伴","","html-keyboard-response","322","1034259","0.0-17.0-2.11","41323","ListA","man","chinese","CMA7","","","","null","","","","","",""
"4797.699999988079","","","survey-text","323","1039061","0.0-17.0-3.11","41323","ListA","man","chinese","CMA7","","","","","{""Q0"":""弗雷正在陪伴凯特""}","<img src='gifs/ChineseGender1b.gif' style='height:400px;''></img>","陪伴","正在陪伴","chinese",""
"null","<div style=""font-size:60px;"">+</div>","","html-keyboard-response","324","1039571","0.0-17.0-0.12","41323","ListA","man","chinese","CMA7","","","","null","","","","","",""
"null","<img src='gifs/BlackGender3a.gif' style='height:400px;''></img>","","html-keyboard-response","325","1041586","0.0-17.0-1.12","41323","ListA","man","chinese","CMA7","","","","null","","","","","",""
"null","正在聆听","","html-keyboard-response","326","1044594","0.0-17.0-2.12","41323","ListA","man","chinese","CMA7","","","","null","","","","","",""
"5482.599999964237","","","survey-text","327","1050078","0.0-17.0-3.12","41323","ListA","man","chinese","CMA7","","","","","{""Q0"":""卢克正在聆听霍普""}","<img src='gifs/BlackGender3a.gif' style='height:400px;''></img>","聆听","正在聆听","chinese",""
"null","<div style=""font-size:60px;"">+</div>","","html-keyboard-response","328","1050587","0.0-17.0-0.13","41323","ListA","man","chinese","CMA7","","","","null","","","","","",""
"null","<img src='gifs/FemaleRace4b.gif' style='height:400px;''></img>","","html-keyboard-response","329","1052598","0.0-17.0-1.13","41323","ListA","man","chinese","CMA7","","","","null","","","","","",""
"null","正在看着","","html-keyboard-response","330","1055610","0.0-17.0-2.13","41323","ListA","man","chinese","CMA7","","","","null","","","","","",""
"9931.599999964237","","","survey-text","331","1065546","0.0-17.0-3.13","41323","ListA","man","chinese","CMA7","","","","","{""Q0"":""霍普正在看着贝斯""}","<img src='gifs/FemaleRace4b.gif' style='height:400px;''></img>","看着","正在看着","chinese",""
"null","<div style=""font-size:60px;"">+</div>","","html-keyboard-response","332","1066059","0.0-17.0-0.14","41323","ListA","man","chinese","CMA7","","","","null","","","","","",""
"null","<img src='gifs/MaleRace2b.gif' style='height:400px;''></img>","","html-keyboard-response","333","1068066","0.0-17.0-1.14","41323","ListA","man","chinese","CMA7","","","","null","","","","","",""
"null","正在触摸","","html-keyboard-response","334","1071070","0.0-17.0-2.14","41323","ListA","man","chinese","CMA7","","","","null","","","","","",""
"8969.900000035763","","","survey-text","335","1080044","0.0-17.0-3.14","41323","ListA","man","chinese","CMA7","","","","","{""Q0"":""弗雷正在触戴夫""}","<img src='gifs/MaleRace2b.gif' style='height:400px;''></img>","触摸","正在触摸","chinese",""
"null","<div style=""font-size:60px;"">+</div>","","html-keyboard-response","336","1080554","0.0-17.0-0.15","41323","ListA","man","chinese","CMA7","","","","null","","","","","",""
"null","<img src='gifs/ChineseGender1a.gif' style='height:400px;''></img>","","html-keyboard-response","337","1082562","0.0-17.0-1.15","41323","ListA","man","chinese","CMA7","","","","null","","","","","",""
"null","正在说服","","html-keyboard-response","338","1085570","0.0-17.0-2.15","41323","ListA","man","chinese","CMA7","","","","null","","","","","",""
"5620.5","","","survey-text","339","1091194","0.0-17.0-3.15","41323","ListA","man","chinese","CMA7","","","","","{""Q0"":""凯特正在说服弗雷""}","<img src='gifs/ChineseGender1a.gif' style='height:400px;''></img>","说服","正在说服","chinese",""
"null","<div style=""font-size:60px;"">+</div>","","html-keyboard-response","340","1091701","0.0-17.0-0.16","41323","ListA","man","chinese","CMA7","","","","null","","","","","",""
"null","<img src='gifs/ChineseGender3a.gif' style='height:400px;''></img>","","html-keyboard-response","341","1093708","0.0-17.0-1.16","41323","ListA","man","chinese","CMA7","","","","null","","","","","",""
"null","正在加入","","html-keyboard-response","342","1096720","0.0-17.0-2.16","41323","ListA","man","chinese","CMA7","","","","null","","","","","",""
"5423.599999964237","","","survey-text","343","1102145","0.0-17.0-3.16","41323","ListA","man","chinese","CMA7","","","","","{""Q0"":""麦克正在加入贝斯""}","<img src='gifs/ChineseGender3a.gif' style='height:400px;''></img>","加入","正在加入","chinese",""
"null","<div style=""font-size:60px;"">+</div>","","html-keyboard-response","344","1102655","0.0-17.0-0.17","41323","ListA","man","chinese","CMA7","","","","null","","","","","",""
"null","<img src='gifs/ChineseGender2b.gif' style='height:400px;''></img>","","html-keyboard-response","345","1104661","0.0-17.0-1.17","41323","ListA","man","chinese","CMA7","","","","null","","","","","",""
"null","正在面向","","html-keyboard-response","346","1107670","0.0-17.0-2.17","41323","ListA","man","chinese","CMA7","","","","null","","","","","",""
"5886.599999964237","","","survey-text","347","1113561","0.0-17.0-3.17","41323","ListA","man","chinese","CMA7","","","","","{""Q0"":""贝斯正在面向弗雷""}","<img src='gifs/ChineseGender2b.gif' style='height:400px;''></img>","面向","正在面向","chinese",""
"1399.5999999642372","<p>Thank you for completing that task.</p><p>The final part of this session is a short questionnaire.</p><p>Press Continue.</p>","0","html-button-response","348","1114962","0.0-18.0","41323","ListA","man","chinese","CMA7","","","","","","","","","",""
"29936.600000023842","","","survey-text","349","1145910","0.0-19.0","41323","ListA","man","chinese","CMA7","","","","","{""Q0"":""18"",""Q1"":""Mandarin "",""Q2"":""Mandarin"",""Q3"":""United Kingdom"",""Q4"":""Chinese"",""Q5"":""Chinese"",""Q6"":""Male""}","","","","","demographics"
"2947.199999988079","<p>Have you lived in the UK for the last 5 years or more?</p>","1","html-button-response","350","1148859","0.0-20.0","41323","ListA","man","chinese","CMA7","","","","","","","","","","fiveyears"
"2580.199999988079","","","external-html","351","1152562","0.0-21.0","41323","ListA","man","chinese","CMA7","debrief.html","","","","","","","","",""
"12744.199999988079","","","survey-text","352","1165310","0.0-22.0","41323","ListA","man","chinese","CMA7","","","","","{""ptpt_id"":""CMA7""}","","","","","worker_id"
