"rt","stimulus","button_pressed","trial_type","trial_index","time_elapsed","internal_node_id","subject","list","ppt_gender","ppt_language","ptptID","url","first_guess","correct","key_press","responses","image","verb","phrase","condition","test_part"
"32978632.000000004","Welcome to the experiment. Press Continue to begin.","0","html-button-response","0","76544512","0.0-0.0","46416","ListA","woman","chinese","CFA4","","","","","","","","","",""
"10716483.000000004","","","external-html","1","92647173","0.0-1.0","46416","ListA","woman","chinese","CFA4","consent.html","","","","","","","","",""
"13865","<p>在下一页中，您将看到8个人物肖像和他们各自的名字。</p><p>请花费几分钟的时间记住这些人物及其所对应的名字。</p><p>之后的实验中需要您对人物的名字做出回忆，</p><p>因此在实验开始前请确保您已 经完全记住这些人物及其所对应的名字。</p><p><strong>然后您将完成一个测试以检验您对人物和名字的记忆。</strong></p><p>完成此记忆测试后，您将正式进入实验。</p><p>准备好了吗？</p>","0","html-button-response","2","92661041","0.0-2.0","46416","ListA","woman","chinese","CFA4","","","","","","","","","",""
"57446.00000000745","<img src='img/portrait_matrix_listA_chinese.jpg' style='width:900px;height:500px;''></img><p>如果您已经记住了所有的人物和名字，请点击继续。</p><p><strong>请注意：您对先前记忆的面孔将在本实验中被测试5次。</strong></p>","0","html-button-response","3","92719490","0.0-3.0-0.0","46416","ListA","woman","chinese","CFA4","","","","","","","","","",""
"3134","<img src=""portrait/BM1.jpg""style=""height:400px;""></img>","4","html-button-response","4","92723626","0.0-3.0-1.0","46416","ListA","woman","chinese","CFA4","","true","4","","","","","","",""
"null","正确","","html-keyboard-response","5","92725133","0.0-3.0-2.0-0.0","46416","ListA","woman","chinese","CFA4","","","","null","","","","","",""
"2239","<img src=""portrait/BW2.jpg""style=""height:400px;""></img>","2","html-button-response","6","92727373","0.0-3.0-4.0","46416","ListA","woman","chinese","CFA4","","true","2","","","","","","",""
"null","正确","","html-keyboard-response","7","92728877","0.0-3.0-5.0-0.0","46416","ListA","woman","chinese","CFA4","","","","null","","","","","",""
"3696","<img src=""portrait/WM2.jpg""style=""height:400px;""></img>","5","html-button-response","8","92732575","0.0-3.0-7.0","46416","ListA","woman","chinese","CFA4","","true","7","","","","","","",""
"3494","<img src=""portrait/WM2.jpg""style=""height:400px;""></img>","6","html-button-response","9","92737074","0.0-3.0-9.0-0.0","46416","ListA","woman","chinese","CFA4","","false","7","","","","","","",""
"null","不正确","","html-keyboard-response","10","92738578","0.0-3.0-9.0-2.0-0.0","46416","ListA","woman","chinese","CFA4","","","","null","","","","","",""
"7226","<img src=""portrait/WW1.jpg""style=""height:400px;""></img>","0","html-button-response","11","92745807","0.0-3.0-10.0","46416","ListA","woman","chinese","CFA4","","true","1","","","","","","",""
"4046","<img src=""portrait/WW1.jpg""style=""height:400px;""></img>","1","html-button-response","12","92750856","0.0-3.0-12.0-0.0","46416","ListA","woman","chinese","CFA4","","false","1","","","","","","",""
"null","正确","","html-keyboard-response","13","92752360","0.0-3.0-12.0-1.0-0.0","46416","ListA","woman","chinese","CFA4","","","","null","","","","","",""
"7029","<img src=""portrait/WM1.jpg""style=""height:400px;""></img>","5","html-button-response","14","92759391","0.0-3.0-13.0","46416","ListA","woman","chinese","CFA4","","true","6","","","","","","",""
"1462","<img src=""portrait/WM1.jpg""style=""height:400px;""></img>","6","html-button-response","15","92761857","0.0-3.0-15.0-0.0","46416","ListA","woman","chinese","CFA4","","false","6","","","","","","",""
"null","正确","","html-keyboard-response","16","92763360","0.0-3.0-15.0-1.0-0.0","46416","ListA","woman","chinese","CFA4","","","","null","","","","","",""
"7913","<img src=""portrait/BW1.jpg""style=""height:400px;""></img>","0","html-button-response","17","92771274","0.0-3.0-16.0","46416","ListA","woman","chinese","CFA4","","true","0","","","","","","",""
"null","正确","","html-keyboard-response","18","92772778","0.0-3.0-17.0-0.0","46416","ListA","woman","chinese","CFA4","","","","null","","","","","",""
"6611","<img src=""portrait/WW2.jpg""style=""height:400px;""></img>","3","html-button-response","19","92779390","0.0-3.0-19.0","46416","ListA","woman","chinese","CFA4","","true","3","","","","","","",""
"null","正确","","html-keyboard-response","20","92780893","0.0-3.0-20.0-0.0","46416","ListA","woman","chinese","CFA4","","","","null","","","","","",""
"3162","<img src=""portrait/BM2.jpg""style=""height:400px;""></img>","5","html-button-response","21","92784058","0.0-3.0-22.0","46416","ListA","woman","chinese","CFA4","","true","5","","","","","","",""
"null","正确","","html-keyboard-response","22","92785561","0.0-3.0-23.0-0.0","46416","ListA","woman","chinese","CFA4","","","","null","","","","","",""
"1743","<p>您第一次在8题里答对了 5 题。 请点击继续</p>","0","html-button-response","23","92787307","0.0-3.0-25.0","46416","ListA","woman","chinese","CFA4","","","","","","","","","",""
"1697.9999999925494","因为您没有全部答对，记忆游戏将重新开始。请点击继续。","0","html-button-response","24","92790008","0.0-3.0-26.0-0.0","46416","ListA","woman","chinese","CFA4","","","","","","","","","",""
"17145","<img src='img/portrait_matrix_listA_chinese.jpg' style='width:900px;height:500px;''></img><p>如果您已经记住了所有的人物和名字，请点击继续。</p><p><strong>请注意：您对先前记忆的面孔将在本实验中被测试5次。</strong></p>","0","html-button-response","25","92808157","0.0-3.1-0.1","46416","ListA","woman","chinese","CFA4","","","","","","","","","",""
"6929","<img src=""portrait/BM1.jpg""style=""height:400px;""></img>","4","html-button-response","26","92816090","0.0-3.1-1.1","46416","ListA","woman","chinese","CFA4","","true","4","","","","","","",""
"null","正确","","html-keyboard-response","27","92817594","0.0-3.1-2.1-0.1","46416","ListA","woman","chinese","CFA4","","","","null","","","","","",""
"2494.9999999925494","<img src=""portrait/BW2.jpg""style=""height:400px;""></img>","2","html-button-response","28","92820091","0.0-3.1-4.1","46416","ListA","woman","chinese","CFA4","","true","2","","","","","","",""
"null","正确","","html-keyboard-response","29","92821593","0.0-3.1-5.1-0.1","46416","ListA","woman","chinese","CFA4","","","","null","","","","","",""
"8178","<img src=""portrait/WM2.jpg""style=""height:400px;""></img>","4","html-button-response","30","92829774","0.0-3.1-7.1","46416","ListA","woman","chinese","CFA4","","true","7","","","","","","",""
"2346","<img src=""portrait/WM2.jpg""style=""height:400px;""></img>","7","html-button-response","31","92833124","0.0-3.1-9.1-0.1","46416","ListA","woman","chinese","CFA4","","false","7","","","","","","",""
"null","正确","","html-keyboard-response","32","92834628","0.0-3.1-9.1-1.1-0.1","46416","ListA","woman","chinese","CFA4","","","","null","","","","","",""
"2876.0000000074506","<img src=""portrait/WW1.jpg""style=""height:400px;""></img>","3","html-button-response","33","92837506","0.0-3.1-10.1","46416","ListA","woman","chinese","CFA4","","true","1","","","","","","",""
"1702","<img src=""portrait/WW1.jpg""style=""height:400px;""></img>","1","html-button-response","34","92840211","0.0-3.1-12.1-0.1","46416","ListA","woman","chinese","CFA4","","false","1","","","","","","",""
"null","正确","","html-keyboard-response","35","92841714","0.0-3.1-12.1-1.1-0.1","46416","ListA","woman","chinese","CFA4","","","","null","","","","","",""
"3160","<img src=""portrait/WM1.jpg""style=""height:400px;""></img>","5","html-button-response","36","92844877","0.0-3.1-13.1","46416","ListA","woman","chinese","CFA4","","true","6","","","","","","",""
"1780.9999999925494","<img src=""portrait/WM1.jpg""style=""height:400px;""></img>","6","html-button-response","37","92847660","0.0-3.1-15.1-0.1","46416","ListA","woman","chinese","CFA4","","false","6","","","","","","",""
"null","正确","","html-keyboard-response","38","92849164","0.0-3.1-15.1-1.1-0.1","46416","ListA","woman","chinese","CFA4","","","","null","","","","","",""
"3625","<img src=""portrait/BW1.jpg""style=""height:400px;""></img>","0","html-button-response","39","92852792","0.0-3.1-16.1","46416","ListA","woman","chinese","CFA4","","true","0","","","","","","",""
"null","正确","","html-keyboard-response","40","92854295","0.0-3.1-17.1-0.1","46416","ListA","woman","chinese","CFA4","","","","null","","","","","",""
"2410","<img src=""portrait/WW2.jpg""style=""height:400px;""></img>","1","html-button-response","41","92856708","0.0-3.1-19.1","46416","ListA","woman","chinese","CFA4","","true","3","","","","","","",""
"2313.0000000074506","<img src=""portrait/WW2.jpg""style=""height:400px;""></img>","3","html-button-response","42","92860024","0.0-3.1-21.1-0.1","46416","ListA","woman","chinese","CFA4","","false","3","","","","","","",""
"null","正确","","html-keyboard-response","43","92861527","0.0-3.1-21.1-1.1-0.1","46416","ListA","woman","chinese","CFA4","","","","null","","","","","",""
"5081.000000007451","<img src=""portrait/BM2.jpg""style=""height:400px;""></img>","5","html-button-response","44","92866610","0.0-3.1-22.1","46416","ListA","woman","chinese","CFA4","","true","5","","","","","","",""
"null","正确","","html-keyboard-response","45","92868113","0.0-3.1-23.1-0.1","46416","ListA","woman","chinese","CFA4","","","","null","","","","","",""
"1392","<p>您第一次在8题里答对了 4 题。 请点击继续</p>","0","html-button-response","46","92869507","0.0-3.1-25.1","46416","ListA","woman","chinese","CFA4","","","","","","","","","",""
"7349","因为您没有全部答对，记忆游戏将重新开始。请点击继续。","0","html-button-response","47","92877858","0.0-3.1-26.1-0.1","46416","ListA","woman","chinese","CFA4","","","","","","","","","",""
"231618","<img src='img/portrait_matrix_listA_chinese.jpg' style='width:900px;height:500px;''></img><p>如果您已经记住了所有的人物和名字，请点击继续。</p><p><strong>请注意：您对先前记忆的面孔将在本实验中被测试5次。</strong></p>","0","html-button-response","48","93759134","0.0-3.2-0.2","46416","ListA","woman","chinese","CFA4","","","","","","","","","",""
"3647.0000000074506","<img src=""portrait/BM1.jpg""style=""height:400px;""></img>","4","html-button-response","49","93763784","0.0-3.2-1.2","46416","ListA","woman","chinese","CFA4","","true","4","","","","","","",""
"null","正确","","html-keyboard-response","50","93765287","0.0-3.2-2.2-0.2","46416","ListA","woman","chinese","CFA4","","","","null","","","","","",""
"1913","<img src=""portrait/BW2.jpg""style=""height:400px;""></img>","2","html-button-response","51","93767202","0.0-3.2-4.2","46416","ListA","woman","chinese","CFA4","","true","2","","","","","","",""
"null","正确","","html-keyboard-response","52","93768705","0.0-3.2-5.2-0.2","46416","ListA","woman","chinese","CFA4","","","","null","","","","","",""
"3710","<img src=""portrait/WM2.jpg""style=""height:400px;""></img>","7","html-button-response","53","93772417","0.0-3.2-7.2","46416","ListA","woman","chinese","CFA4","","true","7","","","","","","",""
"null","正确","","html-keyboard-response","54","93773920","0.0-3.2-8.2-0.2","46416","ListA","woman","chinese","CFA4","","","","null","","","","","",""
"11329","<img src=""portrait/WW1.jpg""style=""height:400px;""></img>","3","html-button-response","55","93785251","0.0-3.2-10.2","46416","ListA","woman","chinese","CFA4","","true","1","","","","","","",""
"1280","<img src=""portrait/WW1.jpg""style=""height:400px;""></img>","1","html-button-response","56","93787534","0.0-3.2-12.2-0.2","46416","ListA","woman","chinese","CFA4","","false","1","","","","","","",""
"null","正确","","html-keyboard-response","57","93789037","0.0-3.2-12.2-1.2-0.2","46416","ListA","woman","chinese","CFA4","","","","null","","","","","",""
"2411","<img src=""portrait/WM1.jpg""style=""height:400px;""></img>","6","html-button-response","58","93791450","0.0-3.2-13.2","46416","ListA","woman","chinese","CFA4","","true","6","","","","","","",""
"null","正确","","html-keyboard-response","59","93792954","0.0-3.2-14.2-0.2","46416","ListA","woman","chinese","CFA4","","","","null","","","","","",""
"2182","<img src=""portrait/BW1.jpg""style=""height:400px;""></img>","0","html-button-response","60","93795137","0.0-3.2-16.2","46416","ListA","woman","chinese","CFA4","","true","0","","","","","","",""
"null","正确","","html-keyboard-response","61","93796640","0.0-3.2-17.2-0.2","46416","ListA","woman","chinese","CFA4","","","","null","","","","","",""
"2374","<img src=""portrait/WW2.jpg""style=""height:400px;""></img>","3","html-button-response","62","93799017","0.0-3.2-19.2","46416","ListA","woman","chinese","CFA4","","true","3","","","","","","",""
"null","正确","","html-keyboard-response","63","93800520","0.0-3.2-20.2-0.2","46416","ListA","woman","chinese","CFA4","","","","null","","","","","",""
"3179","<img src=""portrait/BM2.jpg""style=""height:400px;""></img>","5","html-button-response","64","93803702","0.0-3.2-22.2","46416","ListA","woman","chinese","CFA4","","true","5","","","","","","",""
"null","正确","","html-keyboard-response","65","93805205","0.0-3.2-23.2-0.2","46416","ListA","woman","chinese","CFA4","","","","null","","","","","",""
"1678","<p>您第一次在8题里答对了 7 题。 请点击继续</p>","0","html-button-response","66","93806885","0.0-3.2-25.2","46416","ListA","woman","chinese","CFA4","","","","","","","","","",""
"1381","因为您没有全部答对，记忆游戏将重新开始。请点击继续。","0","html-button-response","67","93809268","0.0-3.2-26.2-0.2","46416","ListA","woman","chinese","CFA4","","","","","","","","","",""
"2481","<img src='img/portrait_matrix_listA_chinese.jpg' style='width:900px;height:500px;''></img><p>如果您已经记住了所有的人物和名字，请点击继续。</p><p><strong>请注意：您对先前记忆的面孔将在本实验中被测试5次。</strong></p>","0","html-button-response","68","93812751","0.0-3.3-0.3","46416","ListA","woman","chinese","CFA4","","","","","","","","","",""
"5519","<img src=""portrait/BM1.jpg""style=""height:400px;""></img>","4","html-button-response","69","93819271","0.0-3.3-1.3","46416","ListA","woman","chinese","CFA4","","true","4","","","","","","",""
"null","正确","","html-keyboard-response","70","93820773","0.0-3.3-2.3-0.3","46416","ListA","woman","chinese","CFA4","","","","null","","","","","",""
"1311","<img src=""portrait/BW2.jpg""style=""height:400px;""></img>","2","html-button-response","71","93822086","0.0-3.3-4.3","46416","ListA","woman","chinese","CFA4","","true","2","","","","","","",""
"null","正确","","html-keyboard-response","72","93823589","0.0-3.3-5.3-0.3","46416","ListA","woman","chinese","CFA4","","","","null","","","","","",""
"2292","<img src=""portrait/WM2.jpg""style=""height:400px;""></img>","7","html-button-response","73","93825884","0.0-3.3-7.3","46416","ListA","woman","chinese","CFA4","","true","7","","","","","","",""
"null","正确","","html-keyboard-response","74","93827387","0.0-3.3-8.3-0.3","46416","ListA","woman","chinese","CFA4","","","","null","","","","","",""
"1562","<img src=""portrait/WW1.jpg""style=""height:400px;""></img>","3","html-button-response","75","93828951","0.0-3.3-10.3","46416","ListA","woman","chinese","CFA4","","true","1","","","","","","",""
"2464","<img src=""portrait/WW1.jpg""style=""height:400px;""></img>","1","html-button-response","76","93832417","0.0-3.3-12.3-0.3","46416","ListA","woman","chinese","CFA4","","false","1","","","","","","",""
"null","正确","","html-keyboard-response","77","93833920","0.0-3.3-12.3-1.3-0.3","46416","ListA","woman","chinese","CFA4","","","","null","","","","","",""
"2347","<img src=""portrait/WM1.jpg""style=""height:400px;""></img>","6","html-button-response","78","93836269","0.0-3.3-13.3","46416","ListA","woman","chinese","CFA4","","true","6","","","","","","",""
"null","正确","","html-keyboard-response","79","93837773","0.0-3.3-14.3-0.3","46416","ListA","woman","chinese","CFA4","","","","null","","","","","",""
"2193","<img src=""portrait/BW1.jpg""style=""height:400px;""></img>","0","html-button-response","80","93839968","0.0-3.3-16.3","46416","ListA","woman","chinese","CFA4","","true","0","","","","","","",""
"null","正确","","html-keyboard-response","81","93841470","0.0-3.3-17.3-0.3","46416","ListA","woman","chinese","CFA4","","","","null","","","","","",""
"2229","<img src=""portrait/WW2.jpg""style=""height:400px;""></img>","3","html-button-response","82","93843702","0.0-3.3-19.3","46416","ListA","woman","chinese","CFA4","","true","3","","","","","","",""
"null","正确","","html-keyboard-response","83","93845205","0.0-3.3-20.3-0.3","46416","ListA","woman","chinese","CFA4","","","","null","","","","","",""
"2411","<img src=""portrait/BM2.jpg""style=""height:400px;""></img>","5","html-button-response","84","93847618","0.0-3.3-22.3","46416","ListA","woman","chinese","CFA4","","true","5","","","","","","",""
"null","正确","","html-keyboard-response","85","93849119","0.0-3.3-23.3-0.3","46416","ListA","woman","chinese","CFA4","","","","null","","","","","",""
"928","<p>您第一次在8题里答对了 7 题。 请点击继续</p>","0","html-button-response","86","93850050","0.0-3.3-25.3","46416","ListA","woman","chinese","CFA4","","","","","","","","","",""
"1084","因为您没有全部答对，记忆游戏将重新开始。请点击继续。","0","html-button-response","87","93852136","0.0-3.3-26.3-0.3","46416","ListA","woman","chinese","CFA4","","","","","","","","","",""
"3061.9999999925494","<img src='img/portrait_matrix_listA_chinese.jpg' style='width:900px;height:500px;''></img><p>如果您已经记住了所有的人物和名字，请点击继续。</p><p><strong>请注意：您对先前记忆的面孔将在本实验中被测试5次。</strong></p>","0","html-button-response","88","93856202","0.0-3.4-0.4","46416","ListA","woman","chinese","CFA4","","","","","","","","","",""
"2678","<img src=""portrait/BM1.jpg""style=""height:400px;""></img>","4","html-button-response","89","93859884","0.0-3.4-1.4","46416","ListA","woman","chinese","CFA4","","true","4","","","","","","",""
"null","正确","","html-keyboard-response","90","93861386","0.0-3.4-2.4-0.4","46416","ListA","woman","chinese","CFA4","","","","null","","","","","",""
"1482.0000000074506","<img src=""portrait/BW2.jpg""style=""height:400px;""></img>","2","html-button-response","91","93862870","0.0-3.4-4.4","46416","ListA","woman","chinese","CFA4","","true","2","","","","","","",""
"null","正确","","html-keyboard-response","92","93864374","0.0-3.4-5.4-0.4","46416","ListA","woman","chinese","CFA4","","","","null","","","","","",""
"1793","<img src=""portrait/WM2.jpg""style=""height:400px;""></img>","7","html-button-response","93","93866168","0.0-3.4-7.4","46416","ListA","woman","chinese","CFA4","","true","7","","","","","","",""
"null","正确","","html-keyboard-response","94","93867671","0.0-3.4-8.4-0.4","46416","ListA","woman","chinese","CFA4","","","","null","","","","","",""
"1609.0000000074506","<img src=""portrait/WW1.jpg""style=""height:400px;""></img>","1","html-button-response","95","93869284","0.0-3.4-10.4","46416","ListA","woman","chinese","CFA4","","true","1","","","","","","",""
"null","正确","","html-keyboard-response","96","93870786","0.0-3.4-11.4-0.4","46416","ListA","woman","chinese","CFA4","","","","null","","","","","",""
"3096","<img src=""portrait/WM1.jpg""style=""height:400px;""></img>","6","html-button-response","97","93873884","0.0-3.4-13.4","46416","ListA","woman","chinese","CFA4","","true","6","","","","","","",""
"null","正确","","html-keyboard-response","98","93875387","0.0-3.4-14.4-0.4","46416","ListA","woman","chinese","CFA4","","","","null","","","","","",""
"1582","<img src=""portrait/BW1.jpg""style=""height:400px;""></img>","0","html-button-response","99","93876970","0.0-3.4-16.4","46416","ListA","woman","chinese","CFA4","","true","0","","","","","","",""
"null","正确","","html-keyboard-response","100","93878473","0.0-3.4-17.4-0.4","46416","ListA","woman","chinese","CFA4","","","","null","","","","","",""
"1660","<img src=""portrait/WW2.jpg""style=""height:400px;""></img>","3","html-button-response","101","93880135","0.0-3.4-19.4","46416","ListA","woman","chinese","CFA4","","true","3","","","","","","",""
"null","正确","","html-keyboard-response","102","93881639","0.0-3.4-20.4-0.4","46416","ListA","woman","chinese","CFA4","","","","null","","","","","",""
"6610","<img src=""portrait/BM2.jpg""style=""height:400px;""></img>","5","html-button-response","103","93888251","0.0-3.4-22.4","46416","ListA","woman","chinese","CFA4","","true","5","","","","","","",""
"null","正确","","html-keyboard-response","104","93889754","0.0-3.4-23.4-0.4","46416","ListA","woman","chinese","CFA4","","","","null","","","","","",""
"2529","<p>您第一次在8题里答对了 8 题。 请点击继续</p>","0","html-button-response","105","93892284","0.0-3.4-25.4","46416","ListA","woman","chinese","CFA4","","","","","","","","","",""
"88182","<p>此次实验您将会看到先前记忆任务里的人物照片。</p><p>人物照片消失后您将看到一个动词短语，请正确回忆人物的名字并用特定的 动词短语组成一句完整的句子。</p><p>请在指定的框内输入您的答案。在进入下一题之前请确保您填写了完整的句子。</p><p>人物照片和动词短语只会在屏幕上出现几秒钟，因此请您答题时尽量集中注意力。</p><p>以下是例子。请您在准备好后按下“继续”。</p><img src='img/chinese_speaking_example.jpg' style='width:800px;height:460px;''></img>","0","html-button-response","106","93981467","0.0-4.0","46416","ListA","woman","chinese","CFA4","","","","","","","","","",""
"1664","<p>在实验开始前，将为您展示两个示例实验。</p>","0","html-button-response","107","93984134","0.0-5.0","46416","ListA","woman","chinese","CFA4","","","","","","","","","",""
"null","<img src='img/meet.gif' style='height:400px;''></img>","","html-keyboard-response","108","93987137","0.0-6.0","46416","ListA","woman","chinese","CFA4","","","","null","","","","","",""
"null","<p>正在约见</p>","","html-keyboard-response","109","93989139","0.0-7.0","46416","ListA","woman","chinese","CFA4","","","","null","","","","","",""
"3295","<p><b>答案:</b> 凯特正在约见贝斯</p>","0","html-button-response","110","93992435","0.0-8.0","46416","ListA","woman","chinese","CFA4","","","","","","","","","",""
"null","<img src='img/spy.gif' style='height:400px;''></img>","","html-keyboard-response","111","93995438","0.0-9.0","46416","ListA","woman","chinese","CFA4","","","","null","","","","","",""
"null","<p>正在监视</p>","","html-keyboard-response","112","93997441","0.0-10.0","46416","ListA","woman","chinese","CFA4","","","","null","","","","","",""
"1625","<p><b>答案:</b> 卢克正在监视戴夫</p>","0","html-button-response","113","93999067","0.0-11.0","46416","ListA","woman","chinese","CFA4","","","","","","","","","",""
"7765.000000007451","<p>准备好开始了吗？</p><br><p><strong>请记住，您的答案需是一句完整的句子</strong></p><p><strong>，并用给到的图片人物和动词短语作答。</strong></p><p><strong>只有正确并完整完成实验才可获得报酬。</strong></p><p><strong> 您不需要加入任何标点符号。</strong></p><br><p>请按 ‘继续’ 键开始。</p>","0","html-button-response","114","94007834","0.0-12.0","46416","ListA","woman","chinese","CFA4","","","","","","","","","",""
"null","<div style=""font-size:60px;"">+</div>","","html-keyboard-response","115","94009337","0.0-13.0-0.0","46416","ListA","woman","chinese","CFA4","","","","null","","","","","",""
"null","<img src='gifs/ChineseGender2b.gif' style='height:400px;''></img>","","html-keyboard-response","116","94011343","0.0-13.0-1.0","46416","ListA","woman","chinese","CFA4","","","","null","","","","","",""
"null","正在陪伴","","html-keyboard-response","117","94014345","0.0-13.0-2.0","46416","ListA","woman","chinese","CFA4","","","","null","","","","","",""
"14209","","","survey-text","118","94028586","0.0-13.0-3.0","46416","ListA","woman","chinese","CFA4","","","","","{""Q0"":""贝斯正在陪伴弗雷""}","<img src='gifs/ChineseGender2b.gif' style='height:400px;''></img>","陪伴","正在陪伴","chinese",""
"null","<div style=""font-size:60px;"">+</div>","","html-keyboard-response","119","94029089","0.0-13.0-0.1","46416","ListA","woman","chinese","CFA4","","","","null","","","","","",""
"null","<img src='gifs/FemaleRace2a.gif' style='height:400px;''></img>","","html-keyboard-response","120","94031091","0.0-13.0-1.1","46416","ListA","woman","chinese","CFA4","","","","null","","","","","",""
"null","正在加入","","html-keyboard-response","121","94034093","0.0-13.0-2.1","46416","ListA","woman","chinese","CFA4","","","","null","","","","","",""
"6631","","","survey-text","122","94040732","0.0-13.0-3.1","46416","ListA","woman","chinese","CFA4","","","","","{""Q0"":""凯特正在加入霍普""}","<img src='gifs/FemaleRace2a.gif' style='height:400px;''></img>","加入","正在加入","chinese",""
"null","<div style=""font-size:60px;"">+</div>","","html-keyboard-response","123","94041234","0.0-13.0-0.2","46416","ListA","woman","chinese","CFA4","","","","null","","","","","",""
"null","<img src='gifs/FemaleRace1a.gif' style='height:400px;''></img>","","html-keyboard-response","124","94043237","0.0-13.0-1.2","46416","ListA","woman","chinese","CFA4","","","","null","","","","","",""
"null","正在介绍","","html-keyboard-response","125","94046239","0.0-13.0-2.2","46416","ListA","woman","chinese","CFA4","","","","null","","","","","",""
"9959.00000000745","","","survey-text","126","94056208","0.0-13.0-3.2","46416","ListA","woman","chinese","CFA4","","","","","{""Q0"":""露丝正在介绍凯特""}","<img src='gifs/FemaleRace1a.gif' style='height:400px;''></img>","介绍","正在介绍","chinese",""
"null","<div style=""font-size:60px;"">+</div>","","html-keyboard-response","127","94056711","0.0-13.0-0.3","46416","ListA","woman","chinese","CFA4","","","","null","","","","","",""
"null","<img src='gifs/ChineseGender1b.gif' style='height:400px;''></img>","","html-keyboard-response","128","94058714","0.0-13.0-1.3","46416","ListA","woman","chinese","CFA4","","","","null","","","","","",""
"null","正在表扬","","html-keyboard-response","129","94061716","0.0-13.0-2.3","46416","ListA","woman","chinese","CFA4","","","","null","","","","","",""
"5086.999999992549","","","survey-text","130","94066812","0.0-13.0-3.3","46416","ListA","woman","chinese","CFA4","","","","","{""Q0"":""凯特正在表扬弗雷""}","<img src='gifs/ChineseGender1b.gif' style='height:400px;''></img>","表扬","正在表扬","chinese",""
"null","<div style=""font-size:60px;"">+</div>","","html-keyboard-response","131","94067315","0.0-13.0-0.4","46416","ListA","woman","chinese","CFA4","","","","null","","","","","",""
"null","<img src='gifs/BlackGender4b.gif' style='height:400px;''></img>","","html-keyboard-response","132","94069317","0.0-13.0-1.4","46416","ListA","woman","chinese","CFA4","","","","null","","","","","",""
"null","正在联系","","html-keyboard-response","133","94072319","0.0-13.0-2.4","46416","ListA","woman","chinese","CFA4","","","","null","","","","","",""
"28667","","","survey-text","134","94100995","0.0-13.0-3.4","46416","ListA","woman","chinese","CFA4","","","","","{""Q0"":""戴夫正在表扬凯特""}","<img src='gifs/BlackGender4b.gif' style='height:400px;''></img>","联系","正在联系","chinese",""
"null","<div style=""font-size:60px;"">+</div>","","html-keyboard-response","135","94101497","0.0-13.0-0.5","46416","ListA","woman","chinese","CFA4","","","","null","","","","","",""
"null","<img src='gifs/ChineseGender4a.gif' style='height:400px;''></img>","","html-keyboard-response","136","94103500","0.0-13.0-1.5","46416","ListA","woman","chinese","CFA4","","","","null","","","","","",""
"null","正在聆听","","html-keyboard-response","137","94106503","0.0-13.0-2.5","46416","ListA","woman","chinese","CFA4","","","","null","","","","","",""
"18799","","","survey-text","138","94125311","0.0-13.0-3.5","46416","ListA","woman","chinese","CFA4","","","","","{""Q0"":""凯特正在聆听麦克""}","<img src='gifs/ChineseGender4a.gif' style='height:400px;''></img>","聆听","正在聆听","chinese",""
"null","<div style=""font-size:60px;"">+</div>","","html-keyboard-response","139","94125814","0.0-13.0-0.6","46416","ListA","woman","chinese","CFA4","","","","null","","","","","",""
"null","<img src='gifs/FemaleRace2b.gif' style='height:400px;''></img>","","html-keyboard-response","140","94127815","0.0-13.0-1.6","46416","ListA","woman","chinese","CFA4","","","","null","","","","","",""
"null","正在跟随","","html-keyboard-response","141","94130818","0.0-13.0-2.6","46416","ListA","woman","chinese","CFA4","","","","null","","","","","",""
"7123","","","survey-text","142","94137949","0.0-13.0-3.6","46416","ListA","woman","chinese","CFA4","","","","","{""Q0"":""凯特正在跟随霍普""}","<img src='gifs/FemaleRace2b.gif' style='height:400px;''></img>","跟随","正在跟随","chinese",""
"null","<div style=""font-size:60px;"">+</div>","","html-keyboard-response","143","94138451","0.0-13.0-0.7","46416","ListA","woman","chinese","CFA4","","","","null","","","","","",""
"null","<img src='gifs/MaleRace4b.gif' style='height:400px;''></img>","","html-keyboard-response","144","94140454","0.0-13.0-1.7","46416","ListA","woman","chinese","CFA4","","","","null","","","","","",""
"null","正在聘用","","html-keyboard-response","145","94143456","0.0-13.0-2.7","46416","ListA","woman","chinese","CFA4","","","","null","","","","","",""
"6287","","","survey-text","146","94149752","0.0-13.0-3.7","46416","ListA","woman","chinese","CFA4","","","","","{""Q0"":""麦克正在聘用戴夫""}","<img src='gifs/MaleRace4b.gif' style='height:400px;''></img>","聘用","正在聘用","chinese",""
"null","<div style=""font-size:60px;"">+</div>","","html-keyboard-response","147","94150255","0.0-13.0-0.8","46416","ListA","woman","chinese","CFA4","","","","null","","","","","",""
"null","<img src='gifs/ChineseGender1a.gif' style='height:400px;''></img>","","html-keyboard-response","148","94152257","0.0-13.0-1.8","46416","ListA","woman","chinese","CFA4","","","","null","","","","","",""
"null","正在接近","","html-keyboard-response","149","94155260","0.0-13.0-2.8","46416","ListA","woman","chinese","CFA4","","","","null","","","","","",""
"7651.000000007451","","","survey-text","150","94162919","0.0-13.0-3.8","46416","ListA","woman","chinese","CFA4","","","","","{""Q0"":""凯特正在接近弗雷""}","<img src='gifs/ChineseGender1a.gif' style='height:400px;''></img>","接近","正在接近","chinese",""
"null","<div style=""font-size:60px;"">+</div>","","html-keyboard-response","151","94163421","0.0-13.0-0.9","46416","ListA","woman","chinese","CFA4","","","","null","","","","","",""
"null","<img src='gifs/BlackGender1b.gif' style='height:400px;''></img>","","html-keyboard-response","152","94165424","0.0-13.0-1.9","46416","ListA","woman","chinese","CFA4","","","","null","","","","","",""
"null","正在面向","","html-keyboard-response","153","94168426","0.0-13.0-2.9","46416","ListA","woman","chinese","CFA4","","","","null","","","","","",""
"7687","","","survey-text","154","94176121","0.0-13.0-3.9","46416","ListA","woman","chinese","CFA4","","","","","{""Q0"":""露丝正在面向卢克""}","<img src='gifs/BlackGender1b.gif' style='height:400px;''></img>","面向","正在面向","chinese",""
"null","<div style=""font-size:60px;"">+</div>","","html-keyboard-response","155","94176624","0.0-13.0-0.10","46416","ListA","woman","chinese","CFA4","","","","null","","","","","",""
"null","<img src='gifs/MaleRace1b.gif' style='height:400px;''></img>","","html-keyboard-response","156","94178626","0.0-13.0-1.10","46416","ListA","woman","chinese","CFA4","","","","null","","","","","",""
"null","正在表扬","","html-keyboard-response","157","94181628","0.0-13.0-2.10","46416","ListA","woman","chinese","CFA4","","","","null","","","","","",""
"11166","","","survey-text","158","94192802","0.0-13.0-3.10","46416","ListA","woman","chinese","CFA4","","","","","{""Q0"":""卢克正在表扬弗雷""}","<img src='gifs/MaleRace1b.gif' style='height:400px;''></img>","表扬","正在表扬","chinese",""
"null","<div style=""font-size:60px;"">+</div>","","html-keyboard-response","159","94193305","0.0-13.0-0.11","46416","ListA","woman","chinese","CFA4","","","","null","","","","","",""
"null","<img src='gifs/MaleRace1a.gif' style='height:400px;''></img>","","html-keyboard-response","160","94195307","0.0-13.0-1.11","46416","ListA","woman","chinese","CFA4","","","","null","","","","","",""
"null","正在提到","","html-keyboard-response","161","94198310","0.0-13.0-2.11","46416","ListA","woman","chinese","CFA4","","","","null","","","","","",""
"10710","","","survey-text","162","94209027","0.0-13.0-3.11","46416","ListA","woman","chinese","CFA4","","","","","{""Q0"":""弗雷正在提到卢克""}","<img src='gifs/MaleRace1a.gif' style='height:400px;''></img>","提到","正在提到","chinese",""
"null","<div style=""font-size:60px;"">+</div>","","html-keyboard-response","163","94209530","0.0-13.0-0.12","46416","ListA","woman","chinese","CFA4","","","","null","","","","","",""
"null","<img src='gifs/MaleRace1b.gif' style='height:400px;''></img>","","html-keyboard-response","164","94211532","0.0-13.0-1.12","46416","ListA","woman","chinese","CFA4","","","","null","","","","","",""
"null","正在答应","","html-keyboard-response","165","94214534","0.0-13.0-2.12","46416","ListA","woman","chinese","CFA4","","","","null","","","","","",""
"6286","","","survey-text","166","94220829","0.0-13.0-3.12","46416","ListA","woman","chinese","CFA4","","","","","{""Q0"":""弗雷正在答应卢克""}","<img src='gifs/MaleRace1b.gif' style='height:400px;''></img>","答应","正在答应","chinese",""
"null","<div style=""font-size:60px;"">+</div>","","html-keyboard-response","167","94221331","0.0-13.0-0.13","46416","ListA","woman","chinese","CFA4","","","","null","","","","","",""
"null","<img src='gifs/ChineseGender2a.gif' style='height:400px;''></img>","","html-keyboard-response","168","94223334","0.0-13.0-1.13","46416","ListA","woman","chinese","CFA4","","","","null","","","","","",""
"null","正在跟随","","html-keyboard-response","169","94226336","0.0-13.0-2.13","46416","ListA","woman","chinese","CFA4","","","","null","","","","","",""
"5987","","","survey-text","170","94232332","0.0-13.0-3.13","46416","ListA","woman","chinese","CFA4","","","","","{""Q0"":""贝斯正在跟随弗雷""}","<img src='gifs/ChineseGender2a.gif' style='height:400px;''></img>","跟随","正在跟随","chinese",""
"null","<div style=""font-size:60px;"">+</div>","","html-keyboard-response","171","94232834","0.0-13.0-0.14","46416","ListA","woman","chinese","CFA4","","","","null","","","","","",""
"null","<img src='gifs/BlackGender3b.gif' style='height:400px;''></img>","","html-keyboard-response","172","94234837","0.0-13.0-1.14","46416","ListA","woman","chinese","CFA4","","","","null","","","","","",""
"null","正在答应","","html-keyboard-response","173","94237839","0.0-13.0-2.14","46416","ListA","woman","chinese","CFA4","","","","null","","","","","",""
"9722.99999999255","","","survey-text","174","94247571","0.0-13.0-3.14","46416","ListA","woman","chinese","CFA4","","","","","{""Q0"":""卢克正在答应霍普""}","<img src='gifs/BlackGender3b.gif' style='height:400px;''></img>","答应","正在答应","chinese",""
"null","<div style=""font-size:60px;"">+</div>","","html-keyboard-response","175","94248074","0.0-13.0-0.15","46416","ListA","woman","chinese","CFA4","","","","null","","","","","",""
"null","<img src='gifs/ChineseGender1b.gif' style='height:400px;''></img>","","html-keyboard-response","176","94250077","0.0-13.0-1.15","46416","ListA","woman","chinese","CFA4","","","","null","","","","","",""
"null","正在说服","","html-keyboard-response","177","94253078","0.0-13.0-2.15","46416","ListA","woman","chinese","CFA4","","","","null","","","","","",""
"10363","","","survey-text","178","94263448","0.0-13.0-3.15","46416","ListA","woman","chinese","CFA4","","","","","{""Q0"":""凯特正在说服弗雷""}","<img src='gifs/ChineseGender1b.gif' style='height:400px;''></img>","说服","正在说服","chinese",""
"null","<div style=""font-size:60px;"">+</div>","","html-keyboard-response","179","94263951","0.0-13.0-0.16","46416","ListA","woman","chinese","CFA4","","","","null","","","","","",""
"null","<img src='gifs/FemaleRace3b.gif' style='height:400px;''></img>","","html-keyboard-response","180","94265953","0.0-13.0-1.16","46416","ListA","woman","chinese","CFA4","","","","null","","","","","",""
"null","正在说服","","html-keyboard-response","181","94268956","0.0-13.0-2.16","46416","ListA","woman","chinese","CFA4","","","","null","","","","","",""
"6839","","","survey-text","182","94275803","0.0-13.0-3.16","46416","ListA","woman","chinese","CFA4","","","","","{""Q0"":""贝斯正在说服霍普""}","<img src='gifs/FemaleRace3b.gif' style='height:400px;''></img>","说服","正在说服","chinese",""
"null","<div style=""font-size:60px;"">+</div>","","html-keyboard-response","183","94276306","0.0-13.0-0.17","46416","ListA","woman","chinese","CFA4","","","","null","","","","","",""
"null","<img src='gifs/BlackGender1a.gif' style='height:400px;''></img>","","html-keyboard-response","184","94278309","0.0-13.0-1.17","46416","ListA","woman","chinese","CFA4","","","","null","","","","","",""
"null","正在联系","","html-keyboard-response","185","94281311","0.0-13.0-2.17","46416","ListA","woman","chinese","CFA4","","","","null","","","","","",""
"5218","","","survey-text","186","94286537","0.0-13.0-3.17","46416","ListA","woman","chinese","CFA4","","","","","{""Q0"":""露丝正在联系卢克""}","<img src='gifs/BlackGender1a.gif' style='height:400px;''></img>","联系","正在联系","chinese",""
"2878.9999999925494","<img src='img/portrait_matrix_listA_chinese.jpg' style='width:900px;height:500px;''></img><p>如果您已经记住了所有的人物和名字，请点击继续。</p><p><strong>请注意：您对先前记忆的面孔将在本实验中被测试5次。</strong></p>","0","html-button-response","187","94289419","0.0-14.0-0.0","46416","ListA","woman","chinese","CFA4","","","","","","","","","",""
"2715","<img src=""portrait/BM1.jpg""style=""height:400px;""></img>","4","html-button-response","188","94293137","0.0-14.0-1.0","46416","ListA","woman","chinese","CFA4","","true","4","","","","","","",""
"null","正确","","html-keyboard-response","189","94294641","0.0-14.0-2.0-0.0","46416","ListA","woman","chinese","CFA4","","","","null","","","","","",""
"1542","<img src=""portrait/WW1.jpg""style=""height:400px;""></img>","3","html-button-response","190","94296185","0.0-14.0-4.0","46416","ListA","woman","chinese","CFA4","","true","1","","","","","","",""
"980","<img src=""portrait/WW1.jpg""style=""height:400px;""></img>","1","html-button-response","191","94298168","0.0-14.0-6.0-0.0","46416","ListA","woman","chinese","CFA4","","false","1","","","","","","",""
"null","正确","","html-keyboard-response","192","94299671","0.0-14.0-6.0-1.0-0.0","46416","ListA","woman","chinese","CFA4","","","","null","","","","","",""
"2510.0000000074506","<img src=""portrait/BW2.jpg""style=""height:400px;""></img>","2","html-button-response","193","94302185","0.0-14.0-7.0","46416","ListA","woman","chinese","CFA4","","true","2","","","","","","",""
"null","正确","","html-keyboard-response","194","94303688","0.0-14.0-8.0-0.0","46416","ListA","woman","chinese","CFA4","","","","null","","","","","",""
"3016","<img src=""portrait/BW1.jpg""style=""height:400px;""></img>","0","html-button-response","195","94306705","0.0-14.0-10.0","46416","ListA","woman","chinese","CFA4","","true","0","","","","","","",""
"null","正确","","html-keyboard-response","196","94308208","0.0-14.0-11.0-0.0","46416","ListA","woman","chinese","CFA4","","","","null","","","","","",""
"2025","<img src=""portrait/WW2.jpg""style=""height:400px;""></img>","3","html-button-response","197","94310235","0.0-14.0-13.0","46416","ListA","woman","chinese","CFA4","","true","3","","","","","","",""
"null","正确","","html-keyboard-response","198","94311738","0.0-14.0-14.0-0.0","46416","ListA","woman","chinese","CFA4","","","","null","","","","","",""
"23615","<img src=""portrait/WM2.jpg""style=""height:400px;""></img>","7","html-button-response","199","94335355","0.0-14.0-16.0","46416","ListA","woman","chinese","CFA4","","true","7","","","","","","",""
"null","正确","","html-keyboard-response","200","94336858","0.0-14.0-17.0-0.0","46416","ListA","woman","chinese","CFA4","","","","null","","","","","",""
"1845","<img src=""portrait/WM1.jpg""style=""height:400px;""></img>","6","html-button-response","201","94338705","0.0-14.0-19.0","46416","ListA","woman","chinese","CFA4","","true","6","","","","","","",""
"null","正确","","html-keyboard-response","202","94340208","0.0-14.0-20.0-0.0","46416","ListA","woman","chinese","CFA4","","","","null","","","","","",""
"8958","<img src=""portrait/BM2.jpg""style=""height:400px;""></img>","5","html-button-response","203","94349169","0.0-14.0-22.0","46416","ListA","woman","chinese","CFA4","","true","5","","","","","","",""
"null","正确","","html-keyboard-response","204","94350671","0.0-14.0-23.0-0.0","46416","ListA","woman","chinese","CFA4","","","","null","","","","","",""
"1662","<p>您第一次在8题里答对了 7 题。 请点击继续</p>","0","html-button-response","205","94352336","0.0-14.0-25.0","46416","ListA","woman","chinese","CFA4","","","","","","","","","",""
"832","因为您没有全部答对，记忆游戏将重新开始。请点击继续。","0","html-button-response","206","94354170","0.0-14.0-26.0-0.0","46416","ListA","woman","chinese","CFA4","","","","","","","","","",""
"3395","<img src='img/portrait_matrix_listA_chinese.jpg' style='width:900px;height:500px;''></img><p>如果您已经记住了所有的人物和名字，请点击继续。</p><p><strong>请注意：您对先前记忆的面孔将在本实验中被测试5次。</strong></p>","0","html-button-response","207","94358569","0.0-14.1-0.1","46416","ListA","woman","chinese","CFA4","","","","","","","","","",""
"1517","<img src=""portrait/BM1.jpg""style=""height:400px;""></img>","4","html-button-response","208","94361088","0.0-14.1-1.1","46416","ListA","woman","chinese","CFA4","","true","4","","","","","","",""
"null","正确","","html-keyboard-response","209","94362592","0.0-14.1-2.1-0.1","46416","ListA","woman","chinese","CFA4","","","","null","","","","","",""
"1494.9999999925494","<img src=""portrait/WW1.jpg""style=""height:400px;""></img>","1","html-button-response","210","94364088","0.0-14.1-4.1","46416","ListA","woman","chinese","CFA4","","true","1","","","","","","",""
"null","正确","","html-keyboard-response","211","94365592","0.0-14.1-5.1-0.1","46416","ListA","woman","chinese","CFA4","","","","null","","","","","",""
"1144","<img src=""portrait/BW2.jpg""style=""height:400px;""></img>","2","html-button-response","212","94366738","0.0-14.1-7.1","46416","ListA","woman","chinese","CFA4","","true","2","","","","","","",""
"null","正确","","html-keyboard-response","213","94368241","0.0-14.1-8.1-0.1","46416","ListA","woman","chinese","CFA4","","","","null","","","","","",""
"2543","<img src=""portrait/BW1.jpg""style=""height:400px;""></img>","0","html-button-response","214","94370786","0.0-14.1-10.1","46416","ListA","woman","chinese","CFA4","","true","0","","","","","","",""
"null","正确","","html-keyboard-response","215","94372290","0.0-14.1-11.1-0.1","46416","ListA","woman","chinese","CFA4","","","","null","","","","","",""
"2995","<img src=""portrait/WW2.jpg""style=""height:400px;""></img>","3","html-button-response","216","94375288","0.0-14.1-13.1","46416","ListA","woman","chinese","CFA4","","true","3","","","","","","",""
"null","正确","","html-keyboard-response","217","94376791","0.0-14.1-14.1-0.1","46416","ListA","woman","chinese","CFA4","","","","null","","","","","",""
"3559","<img src=""portrait/WM2.jpg""style=""height:400px;""></img>","7","html-button-response","218","94380353","0.0-14.1-16.1","46416","ListA","woman","chinese","CFA4","","true","7","","","","","","",""
"null","正确","","html-keyboard-response","219","94381855","0.0-14.1-17.1-0.1","46416","ListA","woman","chinese","CFA4","","","","null","","","","","",""
"1663","<img src=""portrait/WM1.jpg""style=""height:400px;""></img>","6","html-button-response","220","94383520","0.0-14.1-19.1","46416","ListA","woman","chinese","CFA4","","true","6","","","","","","",""
"null","正确","","html-keyboard-response","221","94385024","0.0-14.1-20.1-0.1","46416","ListA","woman","chinese","CFA4","","","","null","","","","","",""
"1545","<img src=""portrait/BM2.jpg""style=""height:400px;""></img>","5","html-button-response","222","94386571","0.0-14.1-22.1","46416","ListA","woman","chinese","CFA4","","true","5","","","","","","",""
"null","正确","","html-keyboard-response","223","94388074","0.0-14.1-23.1-0.1","46416","ListA","woman","chinese","CFA4","","","","null","","","","","",""
"941.9999999925494","<p>您第一次在8题里答对了 8 题。 请点击继续</p>","0","html-button-response","224","94389018","0.0-14.1-25.1","46416","ListA","woman","chinese","CFA4","","","","","","","","","",""
"null","<div style=""font-size:60px;"">+</div>","","html-keyboard-response","225","94390522","0.0-15.0-0.0","46416","ListA","woman","chinese","CFA4","","","","null","","","","","",""
"null","<img src='gifs/ChineseGender4b.gif' style='height:400px;''></img>","","html-keyboard-response","226","94392525","0.0-15.0-1.0","46416","ListA","woman","chinese","CFA4","","","","null","","","","","",""
"null","正在加入","","html-keyboard-response","227","94395527","0.0-15.0-2.0","46416","ListA","woman","chinese","CFA4","","","","null","","","","","",""
"5945","","","survey-text","228","94401479","0.0-15.0-3.0","46416","ListA","woman","chinese","CFA4","","","","","{""Q0"":""凯特正在加入麦克""}","<img src='gifs/ChineseGender4b.gif' style='height:400px;''></img>","加入","正在加入","chinese",""
"null","<div style=""font-size:60px;"">+</div>","","html-keyboard-response","229","94401981","0.0-15.0-0.1","46416","ListA","woman","chinese","CFA4","","","","null","","","","","",""
"null","<img src='gifs/MaleRace3a.gif' style='height:400px;''></img>","","html-keyboard-response","230","94403983","0.0-15.0-1.1","46416","ListA","woman","chinese","CFA4","","","","null","","","","","",""
"null","正在接近","","html-keyboard-response","231","94406986","0.0-15.0-2.1","46416","ListA","woman","chinese","CFA4","","","","null","","","","","",""
"4825","","","survey-text","232","94411819","0.0-15.0-3.1","46416","ListA","woman","chinese","CFA4","","","","","{""Q0"":""麦克正在接近卢克""}","<img src='gifs/MaleRace3a.gif' style='height:400px;''></img>","接近","正在接近","chinese",""
"null","<div style=""font-size:60px;"">+</div>","","html-keyboard-response","233","94412322","0.0-15.0-0.2","46416","ListA","woman","chinese","CFA4","","","","null","","","","","",""
"null","<img src='gifs/MaleRace4b.gif' style='height:400px;''></img>","","html-keyboard-response","234","94414325","0.0-15.0-1.2","46416","ListA","woman","chinese","CFA4","","","","null","","","","","",""
"null","正在走向","","html-keyboard-response","235","94417328","0.0-15.0-2.2","46416","ListA","woman","chinese","CFA4","","","","null","","","","","",""
"5385","","","survey-text","236","94422721","0.0-15.0-3.2","46416","ListA","woman","chinese","CFA4","","","","","{""Q0"":""麦克正在走向戴夫""}","<img src='gifs/MaleRace4b.gif' style='height:400px;''></img>","走向","正在走向","chinese",""
"null","<div style=""font-size:60px;"">+</div>","","html-keyboard-response","237","94423224","0.0-15.0-0.3","46416","ListA","woman","chinese","CFA4","","","","null","","","","","",""
"null","<img src='gifs/ChineseGender1a.gif' style='height:400px;''></img>","","html-keyboard-response","238","94425226","0.0-15.0-1.3","46416","ListA","woman","chinese","CFA4","","","","null","","","","","",""
"null","正在加入","","html-keyboard-response","239","94428229","0.0-15.0-2.3","46416","ListA","woman","chinese","CFA4","","","","null","","","","","",""
"10710.99999999255","","","survey-text","240","94438948","0.0-15.0-3.3","46416","ListA","woman","chinese","CFA4","","","","","{""Q0"":""凯特正在接近弗雷""}","<img src='gifs/ChineseGender1a.gif' style='height:400px;''></img>","加入","正在加入","chinese",""
"null","<div style=""font-size:60px;"">+</div>","","html-keyboard-response","241","94439450","0.0-15.0-0.4","46416","ListA","woman","chinese","CFA4","","","","null","","","","","",""
"null","<img src='gifs/FemaleRace2b.gif' style='height:400px;''></img>","","html-keyboard-response","242","94441452","0.0-15.0-1.4","46416","ListA","woman","chinese","CFA4","","","","null","","","","","",""
"null","正在陪伴","","html-keyboard-response","243","94444454","0.0-15.0-2.4","46416","ListA","woman","chinese","CFA4","","","","null","","","","","",""
"6264","","","survey-text","244","94450726","0.0-15.0-3.4","46416","ListA","woman","chinese","CFA4","","","","","{""Q0"":""霍普正在陪伴凯特""}","<img src='gifs/FemaleRace2b.gif' style='height:400px;''></img>","陪伴","正在陪伴","chinese",""
"null","<div style=""font-size:60px;"">+</div>","","html-keyboard-response","245","94451229","0.0-15.0-0.5","46416","ListA","woman","chinese","CFA4","","","","null","","","","","",""
"null","<img src='gifs/MaleRace4a.gif' style='height:400px;''></img>","","html-keyboard-response","246","94453231","0.0-15.0-1.5","46416","ListA","woman","chinese","CFA4","","","","null","","","","","",""
"null","正在表扬","","html-keyboard-response","247","94456234","0.0-15.0-2.5","46416","ListA","woman","chinese","CFA4","","","","null","","","","","",""
"4968","","","survey-text","248","94461210","0.0-15.0-3.5","46416","ListA","woman","chinese","CFA4","","","","","{""Q0"":""麦克正在表扬戴夫""}","<img src='gifs/MaleRace4a.gif' style='height:400px;''></img>","表扬","正在表扬","chinese",""
"null","<div style=""font-size:60px;"">+</div>","","html-keyboard-response","249","94461713","0.0-15.0-0.6","46416","ListA","woman","chinese","CFA4","","","","null","","","","","",""
"null","<img src='gifs/ChineseGender4b.gif' style='height:400px;''></img>","","html-keyboard-response","250","94463715","0.0-15.0-1.6","46416","ListA","woman","chinese","CFA4","","","","null","","","","","",""
"null","正在看着","","html-keyboard-response","251","94466718","0.0-15.0-2.6","46416","ListA","woman","chinese","CFA4","","","","null","","","","","",""
"5031","","","survey-text","252","94471757","0.0-15.0-3.6","46416","ListA","woman","chinese","CFA4","","","","","{""Q0"":""麦克正在看着凯特""}","<img src='gifs/ChineseGender4b.gif' style='height:400px;''></img>","看着","正在看着","chinese",""
"null","<div style=""font-size:60px;"">+</div>","","html-keyboard-response","253","94472259","0.0-15.0-0.7","46416","ListA","woman","chinese","CFA4","","","","null","","","","","",""
"null","<img src='gifs/MaleRace2a.gif' style='height:400px;''></img>","","html-keyboard-response","254","94474262","0.0-15.0-1.7","46416","ListA","woman","chinese","CFA4","","","","null","","","","","",""
"null","正在接近","","html-keyboard-response","255","94477265","0.0-15.0-2.7","46416","ListA","woman","chinese","CFA4","","","","null","","","","","",""
"4721","","","survey-text","256","94481994","0.0-15.0-3.7","46416","ListA","woman","chinese","CFA4","","","","","{""Q0"":""弗雷正在接近戴夫""}","<img src='gifs/MaleRace2a.gif' style='height:400px;''></img>","接近","正在接近","chinese",""
"null","<div style=""font-size:60px;"">+</div>","","html-keyboard-response","257","94482497","0.0-15.0-0.8","46416","ListA","woman","chinese","CFA4","","","","null","","","","","",""
"null","<img src='gifs/BlackGender2b.gif' style='height:400px;''></img>","","html-keyboard-response","258","94484500","0.0-15.0-1.8","46416","ListA","woman","chinese","CFA4","","","","null","","","","","",""
"null","正在触摸","","html-keyboard-response","259","94487502","0.0-15.0-2.8","46416","ListA","woman","chinese","CFA4","","","","null","","","","","",""
"8614.00000000745","","","survey-text","260","94496125","0.0-15.0-3.8","46416","ListA","woman","chinese","CFA4","","","","","{""Q0"":""露丝正在触摸戴夫""}","<img src='gifs/BlackGender2b.gif' style='height:400px;''></img>","触摸","正在触摸","chinese",""
"null","<div style=""font-size:60px;"">+</div>","","html-keyboard-response","261","94496628","0.0-15.0-0.9","46416","ListA","woman","chinese","CFA4","","","","null","","","","","",""
"null","<img src='gifs/MaleRace2b.gif' style='height:400px;''></img>","","html-keyboard-response","262","94498630","0.0-15.0-1.9","46416","ListA","woman","chinese","CFA4","","","","null","","","","","",""
"null","正在看着","","html-keyboard-response","263","94501633","0.0-15.0-2.9","46416","ListA","woman","chinese","CFA4","","","","null","","","","","",""
"5254","","","survey-text","264","94506894","0.0-15.0-3.9","46416","ListA","woman","chinese","CFA4","","","","","{""Q0"":""弗雷正在看着戴夫""}","<img src='gifs/MaleRace2b.gif' style='height:400px;''></img>","看着","正在看着","chinese",""
"null","<div style=""font-size:60px;"">+</div>","","html-keyboard-response","265","94507397","0.0-15.0-0.10","46416","ListA","woman","chinese","CFA4","","","","null","","","","","",""
"null","<img src='gifs/FemaleRace3b.gif' style='height:400px;''></img>","","html-keyboard-response","266","94509399","0.0-15.0-1.10","46416","ListA","woman","chinese","CFA4","","","","null","","","","","",""
"null","正在聘用","","html-keyboard-response","267","94512402","0.0-15.0-2.10","46416","ListA","woman","chinese","CFA4","","","","null","","","","","",""
"8923","","","survey-text","268","94521333","0.0-15.0-3.10","46416","ListA","woman","chinese","CFA4","","","","","{""Q0"":""露丝正在聘用贝斯""}","<img src='gifs/FemaleRace3b.gif' style='height:400px;''></img>","聘用","正在聘用","chinese",""
"null","<div style=""font-size:60px;"">+</div>","","html-keyboard-response","269","94521835","0.0-15.0-0.11","46416","ListA","woman","chinese","CFA4","","","","null","","","","","",""
"null","<img src='gifs/BlackGender3a.gif' style='height:400px;''></img>","","html-keyboard-response","270","94523838","0.0-15.0-1.11","46416","ListA","woman","chinese","CFA4","","","","null","","","","","",""
"null","正在面向","","html-keyboard-response","271","94526841","0.0-15.0-2.11","46416","ListA","woman","chinese","CFA4","","","","null","","","","","",""
"5462","","","survey-text","272","94532311","0.0-15.0-3.11","46416","ListA","woman","chinese","CFA4","","","","","{""Q0"":""霍普正在面向卢克""}","<img src='gifs/BlackGender3a.gif' style='height:400px;''></img>","面向","正在面向","chinese",""
"null","<div style=""font-size:60px;"">+</div>","","html-keyboard-response","273","94532814","0.0-15.0-0.12","46416","ListA","woman","chinese","CFA4","","","","null","","","","","",""
"null","<img src='gifs/BlackGender3a.gif' style='height:400px;''></img>","","html-keyboard-response","274","94534816","0.0-15.0-1.12","46416","ListA","woman","chinese","CFA4","","","","null","","","","","",""
"null","正在聆听","","html-keyboard-response","275","94537818","0.0-15.0-2.12","46416","ListA","woman","chinese","CFA4","","","","null","","","","","",""
"6168","","","survey-text","276","94543995","0.0-15.0-3.12","46416","ListA","woman","chinese","CFA4","","","","","{""Q0"":""卢克正在聆听霍普""}","<img src='gifs/BlackGender3a.gif' style='height:400px;''></img>","聆听","正在聆听","chinese",""
"null","<div style=""font-size:60px;"">+</div>","","html-keyboard-response","277","94544498","0.0-15.0-0.13","46416","ListA","woman","chinese","CFA4","","","","null","","","","","",""
"null","<img src='gifs/BlackGender4a.gif' style='height:400px;''></img>","","html-keyboard-response","278","94546500","0.0-15.0-1.13","46416","ListA","woman","chinese","CFA4","","","","null","","","","","",""
"null","正在说服","","html-keyboard-response","279","94549503","0.0-15.0-2.13","46416","ListA","woman","chinese","CFA4","","","","null","","","","","",""
"8490","","","survey-text","280","94558000","0.0-15.0-3.13","46416","ListA","woman","chinese","CFA4","","","","","{""Q0"":""霍普正在说服戴夫""}","<img src='gifs/BlackGender4a.gif' style='height:400px;''></img>","说服","正在说服","chinese",""
"null","<div style=""font-size:60px;"">+</div>","","html-keyboard-response","281","94558503","0.0-15.0-0.14","46416","ListA","woman","chinese","CFA4","","","","null","","","","","",""
"null","<img src='gifs/MaleRace3a.gif' style='height:400px;''></img>","","html-keyboard-response","282","94560505","0.0-15.0-1.14","46416","ListA","woman","chinese","CFA4","","","","null","","","","","",""
"null","正在提到","","html-keyboard-response","283","94563507","0.0-15.0-2.14","46416","ListA","woman","chinese","CFA4","","","","null","","","","","",""
"4804","","","survey-text","284","94568319","0.0-15.0-3.14","46416","ListA","woman","chinese","CFA4","","","","","{""Q0"":""卢克正在提到麦克""}","<img src='gifs/MaleRace3a.gif' style='height:400px;''></img>","提到","正在提到","chinese",""
"null","<div style=""font-size:60px;"">+</div>","","html-keyboard-response","285","94568822","0.0-15.0-0.15","46416","ListA","woman","chinese","CFA4","","","","null","","","","","",""
"null","<img src='gifs/ChineseGender3a.gif' style='height:400px;''></img>","","html-keyboard-response","286","94570824","0.0-15.0-1.15","46416","ListA","woman","chinese","CFA4","","","","null","","","","","",""
"null","正在触摸","","html-keyboard-response","287","94573827","0.0-15.0-2.15","46416","ListA","woman","chinese","CFA4","","","","null","","","","","",""
"4423","","","survey-text","288","94578258","0.0-15.0-3.15","46416","ListA","woman","chinese","CFA4","","","","","{""Q0"":""贝斯正在触摸麦克""}","<img src='gifs/ChineseGender3a.gif' style='height:400px;''></img>","触摸","正在触摸","chinese",""
"null","<div style=""font-size:60px;"">+</div>","","html-keyboard-response","289","94578760","0.0-15.0-0.16","46416","ListA","woman","chinese","CFA4","","","","null","","","","","",""
"null","<img src='gifs/FemaleRace1b.gif' style='height:400px;''></img>","","html-keyboard-response","290","94580762","0.0-15.0-1.16","46416","ListA","woman","chinese","CFA4","","","","null","","","","","",""
"null","正在陪伴","","html-keyboard-response","291","94583765","0.0-15.0-2.16","46416","ListA","woman","chinese","CFA4","","","","null","","","","","",""
"5503","","","survey-text","292","94589276","0.0-15.0-3.16","46416","ListA","woman","chinese","CFA4","","","","","{""Q0"":""凯特正在陪伴露丝""}","<img src='gifs/FemaleRace1b.gif' style='height:400px;''></img>","陪伴","正在陪伴","chinese",""
"null","<div style=""font-size:60px;"">+</div>","","html-keyboard-response","293","94589779","0.0-15.0-0.17","46416","ListA","woman","chinese","CFA4","","","","null","","","","","",""
"null","<img src='gifs/ChineseGender4a.gif' style='height:400px;''></img>","","html-keyboard-response","294","94591781","0.0-15.0-1.17","46416","ListA","woman","chinese","CFA4","","","","null","","","","","",""
"null","正在答应","","html-keyboard-response","295","94594784","0.0-15.0-2.17","46416","ListA","woman","chinese","CFA4","","","","null","","","","","",""
"4890","","","survey-text","296","94599681","0.0-15.0-3.17","46416","ListA","woman","chinese","CFA4","","","","","{""Q0"":""凯特正在答应麦克""}","<img src='gifs/ChineseGender4a.gif' style='height:400px;''></img>","答应","正在答应","chinese",""
"2089","<img src='img/portrait_matrix_listA_chinese.jpg' style='width:900px;height:500px;''></img><p>如果您已经记住了所有的人物和名字，请点击继续。</p><p><strong>请注意：您对先前记忆的面孔将在本实验中被测试5次。</strong></p>","0","html-button-response","297","94601772","0.0-16.0-0.0","46416","ListA","woman","chinese","CFA4","","","","","","","","","",""
"3743","<img src=""portrait/BM2.jpg""style=""height:400px;""></img>","5","html-button-response","298","94606519","0.0-16.0-1.0","46416","ListA","woman","chinese","CFA4","","true","5","","","","","","",""
"null","正确","","html-keyboard-response","299","94608022","0.0-16.0-2.0-0.0","46416","ListA","woman","chinese","CFA4","","","","null","","","","","",""
"1894","<img src=""portrait/BW1.jpg""style=""height:400px;""></img>","0","html-button-response","300","94609919","0.0-16.0-4.0","46416","ListA","woman","chinese","CFA4","","true","0","","","","","","",""
"null","正确","","html-keyboard-response","301","94611422","0.0-16.0-5.0-0.0","46416","ListA","woman","chinese","CFA4","","","","null","","","","","",""
"3379.0000000074506","<img src=""portrait/WW2.jpg""style=""height:400px;""></img>","3","html-button-response","302","94614803","0.0-16.0-7.0","46416","ListA","woman","chinese","CFA4","","true","3","","","","","","",""
"null","正确","","html-keyboard-response","303","94616307","0.0-16.0-8.0-0.0","46416","ListA","woman","chinese","CFA4","","","","null","","","","","",""
"1480","<img src=""portrait/WM2.jpg""style=""height:400px;""></img>","7","html-button-response","304","94617789","0.0-16.0-10.0","46416","ListA","woman","chinese","CFA4","","true","7","","","","","","",""
"null","正确","","html-keyboard-response","305","94619291","0.0-16.0-11.0-0.0","46416","ListA","woman","chinese","CFA4","","","","null","","","","","",""
"2658","<img src=""portrait/WW1.jpg""style=""height:400px;""></img>","1","html-button-response","306","94621952","0.0-16.0-13.0","46416","ListA","woman","chinese","CFA4","","true","1","","","","","","",""
"null","正确","","html-keyboard-response","307","94623455","0.0-16.0-14.0-0.0","46416","ListA","woman","chinese","CFA4","","","","null","","","","","",""
"2277","<img src=""portrait/WM1.jpg""style=""height:400px;""></img>","6","html-button-response","308","94625735","0.0-16.0-16.0","46416","ListA","woman","chinese","CFA4","","true","6","","","","","","",""
"null","正确","","html-keyboard-response","309","94627238","0.0-16.0-17.0-0.0","46416","ListA","woman","chinese","CFA4","","","","null","","","","","",""
"1827","<img src=""portrait/BM1.jpg""style=""height:400px;""></img>","4","html-button-response","310","94629068","0.0-16.0-19.0","46416","ListA","woman","chinese","CFA4","","true","4","","","","","","",""
"null","正确","","html-keyboard-response","311","94630571","0.0-16.0-20.0-0.0","46416","ListA","woman","chinese","CFA4","","","","null","","","","","",""
"1833","<img src=""portrait/BW2.jpg""style=""height:400px;""></img>","2","html-button-response","312","94632406","0.0-16.0-22.0","46416","ListA","woman","chinese","CFA4","","true","2","","","","","","",""
"null","正确","","html-keyboard-response","313","94633909","0.0-16.0-23.0-0.0","46416","ListA","woman","chinese","CFA4","","","","null","","","","","",""
"1191","<p>您第一次在8题里答对了 8 题。 请点击继续</p>","0","html-button-response","314","94635102","0.0-16.0-25.0","46416","ListA","woman","chinese","CFA4","","","","","","","","","",""
"null","<div style=""font-size:60px;"">+</div>","","html-keyboard-response","315","94636607","0.0-17.0-0.0","46416","ListA","woman","chinese","CFA4","","","","null","","","","","",""
"null","<img src='gifs/ChineseGender2a.gif' style='height:400px;''></img>","","html-keyboard-response","316","94638610","0.0-17.0-1.0","46416","ListA","woman","chinese","CFA4","","","","null","","","","","",""
"null","正在联系","","html-keyboard-response","317","94641612","0.0-17.0-2.0","46416","ListA","woman","chinese","CFA4","","","","null","","","","","",""
"4847","","","survey-text","318","94646467","0.0-17.0-3.0","46416","ListA","woman","chinese","CFA4","","","","","{""Q0"":""贝斯正在联系弗雷""}","<img src='gifs/ChineseGender2a.gif' style='height:400px;''></img>","联系","正在联系","chinese",""
"null","<div style=""font-size:60px;"">+</div>","","html-keyboard-response","319","94646970","0.0-17.0-0.1","46416","ListA","woman","chinese","CFA4","","","","null","","","","","",""
"null","<img src='gifs/BlackGender2b.gif' style='height:400px;''></img>","","html-keyboard-response","320","94648974","0.0-17.0-1.1","46416","ListA","woman","chinese","CFA4","","","","null","","","","","",""
"null","正在介绍","","html-keyboard-response","321","94651976","0.0-17.0-2.1","46416","ListA","woman","chinese","CFA4","","","","null","","","","","",""
"5631","","","survey-text","322","94657616","0.0-17.0-3.1","46416","ListA","woman","chinese","CFA4","","","","","{""Q0"":""露丝正在介绍戴夫""}","<img src='gifs/BlackGender2b.gif' style='height:400px;''></img>","介绍","正在介绍","chinese",""
"null","<div style=""font-size:60px;"">+</div>","","html-keyboard-response","323","94658118","0.0-17.0-0.2","46416","ListA","woman","chinese","CFA4","","","","null","","","","","",""
"null","<img src='gifs/ChineseGender3a.gif' style='height:400px;''></img>","","html-keyboard-response","324","94660121","0.0-17.0-1.2","46416","ListA","woman","chinese","CFA4","","","","null","","","","","",""
"null","正在聆听","","html-keyboard-response","325","94663124","0.0-17.0-2.2","46416","ListA","woman","chinese","CFA4","","","","null","","","","","",""
"11864","","","survey-text","326","94674996","0.0-17.0-3.2","46416","ListA","woman","chinese","CFA4","","","","","{""Q0"":""贝斯正在聆听麦克""}","<img src='gifs/ChineseGender3a.gif' style='height:400px;''></img>","聆听","正在聆听","chinese",""
"null","<div style=""font-size:60px;"">+</div>","","html-keyboard-response","327","94675499","0.0-17.0-0.3","46416","ListA","woman","chinese","CFA4","","","","null","","","","","",""
"null","<img src='gifs/ChineseGender3b.gif' style='height:400px;''></img>","","html-keyboard-response","328","94677501","0.0-17.0-1.3","46416","ListA","woman","chinese","CFA4","","","","null","","","","","",""
"null","正在聆听","","html-keyboard-response","329","94680503","0.0-17.0-2.3","46416","ListA","woman","chinese","CFA4","","","","null","","","","","",""
"5411","","","survey-text","330","94685923","0.0-17.0-3.3","46416","ListA","woman","chinese","CFA4","","","","","{""Q0"":""贝斯正在聆听麦克""}","<img src='gifs/ChineseGender3b.gif' style='height:400px;''></img>","聆听","正在聆听","chinese",""
"null","<div style=""font-size:60px;"">+</div>","","html-keyboard-response","331","94686426","0.0-17.0-0.4","46416","ListA","woman","chinese","CFA4","","","","null","","","","","",""
"null","<img src='gifs/MaleRace2a.gif' style='height:400px;''></img>","","html-keyboard-response","332","94688428","0.0-17.0-1.4","46416","ListA","woman","chinese","CFA4","","","","null","","","","","",""
"null","正在介绍","","html-keyboard-response","333","94691433","0.0-17.0-2.4","46416","ListA","woman","chinese","CFA4","","","","null","","","","","",""
"6004","","","survey-text","334","94697446","0.0-17.0-3.4","46416","ListA","woman","chinese","CFA4","","","","","{""Q0"":""弗雷正在介绍戴夫""}","<img src='gifs/MaleRace2a.gif' style='height:400px;''></img>","介绍","正在介绍","chinese",""
"null","<div style=""font-size:60px;"">+</div>","","html-keyboard-response","335","94697947","0.0-17.0-0.5","46416","ListA","woman","chinese","CFA4","","","","null","","","","","",""
"null","<img src='gifs/BlackGender2a.gif' style='height:400px;''></img>","","html-keyboard-response","336","94699950","0.0-17.0-1.5","46416","ListA","woman","chinese","CFA4","","","","null","","","","","",""
"null","正在跟随","","html-keyboard-response","337","94702953","0.0-17.0-2.5","46416","ListA","woman","chinese","CFA4","","","","null","","","","","",""
"5902","","","survey-text","338","94708863","0.0-17.0-3.5","46416","ListA","woman","chinese","CFA4","","","","","{""Q0"":""露丝正在跟随戴夫""}","<img src='gifs/BlackGender2a.gif' style='height:400px;''></img>","跟随","正在跟随","chinese",""
"null","<div style=""font-size:60px;"">+</div>","","html-keyboard-response","339","94709366","0.0-17.0-0.6","46416","ListA","woman","chinese","CFA4","","","","null","","","","","",""
"null","<img src='gifs/FemaleRace4a.gif' style='height:400px;''></img>","","html-keyboard-response","340","94711369","0.0-17.0-1.6","46416","ListA","woman","chinese","CFA4","","","","null","","","","","",""
"null","正在接近","","html-keyboard-response","341","94714371","0.0-17.0-2.6","46416","ListA","woman","chinese","CFA4","","","","null","","","","","",""
"5261","","","survey-text","342","94719640","0.0-17.0-3.6","46416","ListA","woman","chinese","CFA4","","","","","{""Q0"":""贝斯正在接近霍普""}","<img src='gifs/FemaleRace4a.gif' style='height:400px;''></img>","接近","正在接近","chinese",""
"null","<div style=""font-size:60px;"">+</div>","","html-keyboard-response","343","94720143","0.0-17.0-0.7","46416","ListA","woman","chinese","CFA4","","","","null","","","","","",""
"null","<img src='gifs/FemaleRace1a.gif' style='height:400px;''></img>","","html-keyboard-response","344","94722146","0.0-17.0-1.7","46416","ListA","woman","chinese","CFA4","","","","null","","","","","",""
"null","正在走向","","html-keyboard-response","345","94725148","0.0-17.0-2.7","46416","ListA","woman","chinese","CFA4","","","","null","","","","","",""
"5132.999999992549","","","survey-text","346","94730290","0.0-17.0-3.7","46416","ListA","woman","chinese","CFA4","","","","","{""Q0"":""凯特正在走向露丝""}","<img src='gifs/FemaleRace1a.gif' style='height:400px;''></img>","走向","正在走向","chinese",""
"null","<div style=""font-size:60px;"">+</div>","","html-keyboard-response","347","94730792","0.0-17.0-0.8","46416","ListA","woman","chinese","CFA4","","","","null","","","","","",""
"null","<img src='gifs/MaleRace3b.gif' style='height:400px;''></img>","","html-keyboard-response","348","94732795","0.0-17.0-1.8","46416","ListA","woman","chinese","CFA4","","","","null","","","","","",""
"null","正在提到","","html-keyboard-response","349","94735801","0.0-17.0-2.8","46416","ListA","woman","chinese","CFA4","","","","null","","","","","",""
"5286","","","survey-text","350","94741097","0.0-17.0-3.8","46416","ListA","woman","chinese","CFA4","","","","","{""Q0"":""麦克正在提到卢克""}","<img src='gifs/MaleRace3b.gif' style='height:400px;''></img>","提到","正在提到","chinese",""
"null","<div style=""font-size:60px;"">+</div>","","html-keyboard-response","351","94741600","0.0-17.0-0.9","46416","ListA","woman","chinese","CFA4","","","","null","","","","","",""
"null","<img src='gifs/BlackGender4b.gif' style='height:400px;''></img>","","html-keyboard-response","352","94743603","0.0-17.0-1.9","46416","ListA","woman","chinese","CFA4","","","","null","","","","","",""
"null","正在触摸","","html-keyboard-response","353","94746605","0.0-17.0-2.9","46416","ListA","woman","chinese","CFA4","","","","null","","","","","",""
"5836","","","survey-text","354","94752449","0.0-17.0-3.9","46416","ListA","woman","chinese","CFA4","","","","","{""Q0"":""霍普正在触摸戴夫""}","<img src='gifs/BlackGender4b.gif' style='height:400px;''></img>","触摸","正在触摸","chinese",""
"null","<div style=""font-size:60px;"">+</div>","","html-keyboard-response","355","94752952","0.0-17.0-0.10","46416","ListA","woman","chinese","CFA4","","","","null","","","","","",""
"null","<img src='gifs/BlackGender2a.gif' style='height:400px;''></img>","","html-keyboard-response","356","94754955","0.0-17.0-1.10","46416","ListA","woman","chinese","CFA4","","","","null","","","","","",""
"null","正在提到","","html-keyboard-response","357","94757958","0.0-17.0-2.10","46416","ListA","woman","chinese","CFA4","","","","null","","","","","",""
"4877","","","survey-text","358","94762842","0.0-17.0-3.10","46416","ListA","woman","chinese","CFA4","","","","","{""Q0"":""戴夫正在提到露丝""}","<img src='gifs/BlackGender2a.gif' style='height:400px;''></img>","提到","正在提到","chinese",""
"null","<div style=""font-size:60px;"">+</div>","","html-keyboard-response","359","94763345","0.0-17.0-0.11","46416","ListA","woman","chinese","CFA4","","","","null","","","","","",""
"null","<img src='gifs/FemaleRace4b.gif' style='height:400px;''></img>","","html-keyboard-response","360","94765348","0.0-17.0-1.11","46416","ListA","woman","chinese","CFA4","","","","null","","","","","",""
"null","正在陪伴","","html-keyboard-response","361","94768350","0.0-17.0-2.11","46416","ListA","woman","chinese","CFA4","","","","null","","","","","",""
"5741","","","survey-text","362","94774101","0.0-17.0-3.11","46416","ListA","woman","chinese","CFA4","","","","","{""Q0"":""霍普正在陪伴贝斯""}","<img src='gifs/FemaleRace4b.gif' style='height:400px;''></img>","陪伴","正在陪伴","chinese",""
"null","<div style=""font-size:60px;"">+</div>","","html-keyboard-response","363","94774604","0.0-17.0-0.12","46416","ListA","woman","chinese","CFA4","","","","null","","","","","",""
"null","<img src='gifs/ChineseGender3b.gif' style='height:400px;''></img>","","html-keyboard-response","364","94776607","0.0-17.0-1.12","46416","ListA","woman","chinese","CFA4","","","","null","","","","","",""
"null","正在走向","","html-keyboard-response","365","94779609","0.0-17.0-2.12","46416","ListA","woman","chinese","CFA4","","","","null","","","","","",""
"5838","","","survey-text","366","94785454","0.0-17.0-3.12","46416","ListA","woman","chinese","CFA4","","","","","{""Q0"":""贝斯正在走向麦克""}","<img src='gifs/ChineseGender3b.gif' style='height:400px;''></img>","走向","正在走向","chinese",""
"null","<div style=""font-size:60px;"">+</div>","","html-keyboard-response","367","94785957","0.0-17.0-0.13","46416","ListA","woman","chinese","CFA4","","","","null","","","","","",""
"null","<img src='gifs/BlackGender1a.gif' style='height:400px;''></img>","","html-keyboard-response","368","94787960","0.0-17.0-1.13","46416","ListA","woman","chinese","CFA4","","","","null","","","","","",""
"null","正在聘用","","html-keyboard-response","369","94790963","0.0-17.0-2.13","46416","ListA","woman","chinese","CFA4","","","","null","","","","","",""
"6394","","","survey-text","370","94797364","0.0-17.0-3.13","46416","ListA","woman","chinese","CFA4","","","","","{""Q0"":""卢克正在聘用露丝""}","<img src='gifs/BlackGender1a.gif' style='height:400px;''></img>","聘用","正在聘用","chinese",""
"null","<div style=""font-size:60px;"">+</div>","","html-keyboard-response","371","94797867","0.0-17.0-0.14","46416","ListA","woman","chinese","CFA4","","","","null","","","","","",""
"null","<img src='gifs/FemaleRace2a.gif' style='height:400px;''></img>","","html-keyboard-response","372","94799870","0.0-17.0-1.14","46416","ListA","woman","chinese","CFA4","","","","null","","","","","",""
"null","正在面向","","html-keyboard-response","373","94802872","0.0-17.0-2.14","46416","ListA","woman","chinese","CFA4","","","","null","","","","","",""
"6766","","","survey-text","374","94809646","0.0-17.0-3.14","46416","ListA","woman","chinese","CFA4","","","","","{""Q0"":""霍普正在面向凯特""}","<img src='gifs/FemaleRace2a.gif' style='height:400px;''></img>","面向","正在面向","chinese",""
"null","<div style=""font-size:60px;"">+</div>","","html-keyboard-response","375","94810149","0.0-17.0-0.15","46416","ListA","woman","chinese","CFA4","","","","null","","","","","",""
"null","<img src='gifs/MaleRace3b.gif' style='height:400px;''></img>","","html-keyboard-response","376","94812152","0.0-17.0-1.15","46416","ListA","woman","chinese","CFA4","","","","null","","","","","",""
"null","正在看着","","html-keyboard-response","377","94815154","0.0-17.0-2.15","46416","ListA","woman","chinese","CFA4","","","","null","","","","","",""
"5199","","","survey-text","378","94820360","0.0-17.0-3.15","46416","ListA","woman","chinese","CFA4","","","","","{""Q0"":""麦克正在看着卢克""}","<img src='gifs/MaleRace3b.gif' style='height:400px;''></img>","看着","正在看着","chinese",""
"null","<div style=""font-size:60px;"">+</div>","","html-keyboard-response","379","94820863","0.0-17.0-0.16","46416","ListA","woman","chinese","CFA4","","","","null","","","","","",""
"null","<img src='gifs/BlackGender4a.gif' style='height:400px;''></img>","","html-keyboard-response","380","94822866","0.0-17.0-1.16","46416","ListA","woman","chinese","CFA4","","","","null","","","","","",""
"null","正在看着","","html-keyboard-response","381","94825869","0.0-17.0-2.16","46416","ListA","woman","chinese","CFA4","","","","null","","","","","",""
"5867","","","survey-text","382","94831744","0.0-17.0-3.16","46416","ListA","woman","chinese","CFA4","","","","","{""Q0"":""戴夫正在看着霍普""}","<img src='gifs/BlackGender4a.gif' style='height:400px;''></img>","看着","正在看着","chinese",""
"null","<div style=""font-size:60px;"">+</div>","","html-keyboard-response","383","94832247","0.0-17.0-0.17","46416","ListA","woman","chinese","CFA4","","","","null","","","","","",""
"null","<img src='gifs/BlackGender1b.gif' style='height:400px;''></img>","","html-keyboard-response","384","94834250","0.0-17.0-1.17","46416","ListA","woman","chinese","CFA4","","","","null","","","","","",""
"null","正在面向","","html-keyboard-response","385","94837252","0.0-17.0-2.17","46416","ListA","woman","chinese","CFA4","","","","null","","","","","",""
"5912","","","survey-text","386","94843172","0.0-17.0-3.17","46416","ListA","woman","chinese","CFA4","","","","","{""Q0"":""露丝正在看着卢克""}","<img src='gifs/BlackGender1b.gif' style='height:400px;''></img>","面向","正在面向","chinese",""
"3782","<p>Thank you for completing that task.</p><p>The final part of this session is a short questionnaire.</p><p>Press Continue.</p>","0","html-button-response","387","94846956","0.0-18.0","46416","ListA","woman","chinese","CFA4","","","","","","","","","",""
"47700","","","survey-text","388","94895671","0.0-19.0","46416","ListA","woman","chinese","CFA4","","","","","{""Q0"":""23"",""Q1"":""Chinese"",""Q2"":""Chinese"",""Q3"":""uk"",""Q4"":""Chinese"",""Q5"":""Chinese"",""Q6"":""female""}","","","","","demographics"
"3579","<p>Have you lived in the UK for the last 5 years or more?</p>","1","html-button-response","389","94899252","0.0-20.0","46416","ListA","woman","chinese","CFA4","","","","","","","","","","fiveyears"
"4599","","","external-html","390","94905402","0.0-21.0","46416","ListA","woman","chinese","CFA4","debrief.html","","","","","","","","",""
"24979","","","survey-text","391","94930386","0.0-22.0","46416","ListA","woman","chinese","CFA4","","","","","{""ptpt_id"":""CFA4""}","","","","","worker_id"
