"rt","stimulus","button_pressed","trial_type","trial_index","time_elapsed","internal_node_id","subject","list","ppt_gender","ppt_language","ptptID","url","first_guess","correct","key_press","responses","image","verb","phrase","condition","test_part"
"32130.200000286102","Welcome to the experiment. Press Continue to begin.","0","html-button-response","0","32132","0.0-0.0","47740","ListA","woman","chinese","CFA10","","","","","","","","","",""
"149678.80000019073","","","external-html","1","183831","0.0-1.0","47740","ListA","woman","chinese","CFA10","consent.html","","","","","","","","",""
"9151.400000095367","<p>在下一页中，您将看到8个人物肖像和他们各自的名字。</p><p>请花费几分钟的时间记住这些人物及其所对应的名字。</p><p>之后的实验中需要您对人物的名字做出回忆，</p><p>因此在实验开始前请确保您已 经完全记住这些人物及其所对应的名字。</p><p><strong>然后您将完成一个测试以检验您对人物和名字的记忆。</strong></p><p>完成此记忆测试后，您将正式进入实验。</p><p>准备好了吗？</p>","0","html-button-response","2","192984","0.0-2.0","47740","ListA","woman","chinese","CFA10","","","","","","","","","",""
"274139.59999990463","<img src='img/portrait_matrix_listA_chinese.jpg' style='width:900px;height:500px;''></img><p>如果您已经记住了所有的人物和名字，请点击继续。</p><p><strong>请注意：您对先前记忆的面孔将在本实验中被测试5次。</strong></p>","0","html-button-response","3","468133","0.0-3.0-0.0","47740","ListA","woman","chinese","CFA10","","","","","","","","","",""
"6902.099999904633","<img src=""portrait/BM1.jpg""style=""height:400px;""></img>","4","html-button-response","4","476039","0.0-3.0-1.0","47740","ListA","woman","chinese","CFA10","","true","4","","","","","","",""
"null","正确","","html-keyboard-response","5","477571","0.0-3.0-2.0-0.0","47740","ListA","woman","chinese","CFA10","","","","null","","","","","",""
"4709.700000286102","<img src=""portrait/WW1.jpg""style=""height:400px;""></img>","1","html-button-response","6","482282","0.0-3.0-4.0","47740","ListA","woman","chinese","CFA10","","true","1","","","","","","",""
"null","正确","","html-keyboard-response","7","483821","0.0-3.0-5.0-0.0","47740","ListA","woman","chinese","CFA10","","","","null","","","","","",""
"2959.699999809265","<img src=""portrait/WM2.jpg""style=""height:400px;""></img>","6","html-button-response","8","486782","0.0-3.0-7.0","47740","ListA","woman","chinese","CFA10","","true","7","","","","","","",""
"6975.099999904633","<img src=""portrait/WM2.jpg""style=""height:400px;""></img>","7","html-button-response","9","494769","0.0-3.0-9.0-0.0","47740","ListA","woman","chinese","CFA10","","false","7","","","","","","",""
"null","正确","","html-keyboard-response","10","496305","0.0-3.0-9.0-1.0-0.0","47740","ListA","woman","chinese","CFA10","","","","null","","","","","",""
"2183.2000002861023","<img src=""portrait/WM1.jpg""style=""height:400px;""></img>","6","html-button-response","11","498490","0.0-3.0-10.0","47740","ListA","woman","chinese","CFA10","","true","6","","","","","","",""
"null","正确","","html-keyboard-response","12","500023","0.0-3.0-11.0-0.0","47740","ListA","woman","chinese","CFA10","","","","null","","","","","",""
"26029.800000190735","<img src=""portrait/BW2.jpg""style=""height:400px;""></img>","0","html-button-response","13","526053","0.0-3.0-13.0","47740","ListA","woman","chinese","CFA10","","true","2","","","","","","",""
"2654.1000003814697","<img src=""portrait/BW2.jpg""style=""height:400px;""></img>","2","html-button-response","14","529723","0.0-3.0-15.0-0.0","47740","ListA","woman","chinese","CFA10","","false","2","","","","","","",""
"null","正确","","html-keyboard-response","15","531257","0.0-3.0-15.0-1.0-0.0","47740","ListA","woman","chinese","CFA10","","","","null","","","","","",""
"2551.1000003814697","<img src=""portrait/BM2.jpg""style=""height:400px;""></img>","5","html-button-response","16","533809","0.0-3.0-16.0","47740","ListA","woman","chinese","CFA10","","true","5","","","","","","",""
"null","正确","","html-keyboard-response","17","535338","0.0-3.0-17.0-0.0","47740","ListA","woman","chinese","CFA10","","","","null","","","","","",""
"2342.4000000953674","<img src=""portrait/WW2.jpg""style=""height:400px;""></img>","3","html-button-response","18","537681","0.0-3.0-19.0","47740","ListA","woman","chinese","CFA10","","true","3","","","","","","",""
"null","正确","","html-keyboard-response","19","539202","0.0-3.0-20.0-0.0","47740","ListA","woman","chinese","CFA10","","","","null","","","","","",""
"2930.199999809265","<img src=""portrait/BW1.jpg""style=""height:400px;""></img>","0","html-button-response","20","542134","0.0-3.0-22.0","47740","ListA","woman","chinese","CFA10","","true","0","","","","","","",""
"null","正确","","html-keyboard-response","21","543648","0.0-3.0-23.0-0.0","47740","ListA","woman","chinese","CFA10","","","","null","","","","","",""
"1412.6999998092651","<p>您第一次在8题里答对了 6 题。 请点击继续</p>","0","html-button-response","22","545061","0.0-3.0-25.0","47740","ListA","woman","chinese","CFA10","","","","","","","","","",""
"1779.3000001907349","因为您没有全部答对，记忆游戏将重新开始。请点击继续。","0","html-button-response","23","547843","0.0-3.0-26.0-0.0","47740","ListA","woman","chinese","CFA10","","","","","","","","","",""
"11945","<img src='img/portrait_matrix_listA_chinese.jpg' style='width:900px;height:500px;''></img><p>如果您已经记住了所有的人物和名字，请点击继续。</p><p><strong>请注意：您对先前记忆的面孔将在本实验中被测试5次。</strong></p>","0","html-button-response","24","560800","0.0-3.1-0.1","47740","ListA","woman","chinese","CFA10","","","","","","","","","",""
"6305.800000190735","<img src=""portrait/BM1.jpg""style=""height:400px;""></img>","4","html-button-response","25","568130","0.0-3.1-1.1","47740","ListA","woman","chinese","CFA10","","true","4","","","","","","",""
"null","正确","","html-keyboard-response","26","569666","0.0-3.1-2.1-0.1","47740","ListA","woman","chinese","CFA10","","","","null","","","","","",""
"6482.5","<img src=""portrait/WW1.jpg""style=""height:400px;""></img>","1","html-button-response","27","576149","0.0-3.1-4.1","47740","ListA","woman","chinese","CFA10","","true","1","","","","","","",""
"null","正确","","html-keyboard-response","28","577669","0.0-3.1-5.1-0.1","47740","ListA","woman","chinese","CFA10","","","","null","","","","","",""
"10410.300000190735","<img src=""portrait/WM2.jpg""style=""height:400px;""></img>","7","html-button-response","29","588081","0.0-3.1-7.1","47740","ListA","woman","chinese","CFA10","","true","7","","","","","","",""
"null","正确","","html-keyboard-response","30","589594","0.0-3.1-8.1-0.1","47740","ListA","woman","chinese","CFA10","","","","null","","","","","",""
"1238.8999996185303","<img src=""portrait/WM1.jpg""style=""height:400px;""></img>","6","html-button-response","31","590834","0.0-3.1-10.1","47740","ListA","woman","chinese","CFA10","","true","6","","","","","","",""
"null","正确","","html-keyboard-response","32","592345","0.0-3.1-11.1-0.1","47740","ListA","woman","chinese","CFA10","","","","null","","","","","",""
"2145.5","<img src=""portrait/BW2.jpg""style=""height:400px;""></img>","2","html-button-response","33","594492","0.0-3.1-13.1","47740","ListA","woman","chinese","CFA10","","true","2","","","","","","",""
"null","正确","","html-keyboard-response","34","596027","0.0-3.1-14.1-0.1","47740","ListA","woman","chinese","CFA10","","","","null","","","","","",""
"3023.5","<img src=""portrait/BM2.jpg""style=""height:400px;""></img>","5","html-button-response","35","599052","0.0-3.1-16.1","47740","ListA","woman","chinese","CFA10","","true","5","","","","","","",""
"null","正确","","html-keyboard-response","36","600586","0.0-3.1-17.1-0.1","47740","ListA","woman","chinese","CFA10","","","","null","","","","","",""
"1552.4000000953674","<img src=""portrait/WW2.jpg""style=""height:400px;""></img>","3","html-button-response","37","602140","0.0-3.1-19.1","47740","ListA","woman","chinese","CFA10","","true","3","","","","","","",""
"null","正确","","html-keyboard-response","38","603659","0.0-3.1-20.1-0.1","47740","ListA","woman","chinese","CFA10","","","","null","","","","","",""
"4452.099999904633","<img src=""portrait/BW1.jpg""style=""height:400px;""></img>","0","html-button-response","39","608112","0.0-3.1-22.1","47740","ListA","woman","chinese","CFA10","","true","0","","","","","","",""
"null","正确","","html-keyboard-response","40","609642","0.0-3.1-23.1-0.1","47740","ListA","woman","chinese","CFA10","","","","null","","","","","",""
"1734.1999998092651","<p>您第一次在8题里答对了 8 题。 请点击继续</p>","0","html-button-response","41","611378","0.0-3.1-25.1","47740","ListA","woman","chinese","CFA10","","","","","","","","","",""
"33249.40000009537","<p>此次实验您将会看到先前记忆任务里的人物照片。</p><p>人物照片消失后您将看到一个动词短语，请正确回忆人物的名字并用特定的 动词短语组成一句完整的句子。</p><p>请在指定的框内输入您的答案。在进入下一题之前请确保您填写了完整的句子。</p><p>人物照片和动词短语只会在屏幕上出现几秒钟，因此请您答题时尽量集中注意力。</p><p>以下是例子。请您在准备好后按下“继续”。</p><img src='img/chinese_speaking_example.jpg' style='width:800px;height:460px;''></img>","0","html-button-response","42","645642","0.0-4.0","47740","ListA","woman","chinese","CFA10","","","","","","","","","",""
"1466.3000001907349","<p>在实验开始前，将为您展示两个示例实验。</p>","0","html-button-response","43","648121","0.0-5.0","47740","ListA","woman","chinese","CFA10","","","","","","","","","",""
"null","<img src='img/meet.gif' style='height:400px;''></img>","","html-keyboard-response","44","651152","0.0-6.0","47740","ListA","woman","chinese","CFA10","","","","null","","","","","",""
"null","<p>正在约见</p>","","html-keyboard-response","45","653157","0.0-7.0","47740","ListA","woman","chinese","CFA10","","","","null","","","","","",""
"4261.799999713898","<p><b>答案:</b> 凯特正在约见贝斯</p>","0","html-button-response","46","657419","0.0-8.0","47740","ListA","woman","chinese","CFA10","","","","","","","","","",""
"null","<img src='img/spy.gif' style='height:400px;''></img>","","html-keyboard-response","47","660432","0.0-9.0","47740","ListA","woman","chinese","CFA10","","","","null","","","","","",""
"null","<p>正在监视</p>","","html-keyboard-response","48","662454","0.0-10.0","47740","ListA","woman","chinese","CFA10","","","","null","","","","","",""
"10614.800000190735","<p><b>答案:</b> 卢克正在监视戴夫</p>","0","html-button-response","49","673069","0.0-11.0","47740","ListA","woman","chinese","CFA10","","","","","","","","","",""
"7902.599999904633","<p>准备好开始了吗？</p><br><p><strong>请记住，您的答案需是一句完整的句子</strong></p><p><strong>，并用给到的图片人物和动词短语作答。</strong></p><p><strong>只有正确并完整完成实验才可获得报酬。</strong></p><p><strong> 您不需要加入任何标点符号。</strong></p><br><p>请按 ‘继续’ 键开始。</p>","0","html-button-response","50","681989","0.0-12.0","47740","ListA","woman","chinese","CFA10","","","","","","","","","",""
"null","<div style=""font-size:60px;"">+</div>","","html-keyboard-response","51","683507","0.0-13.0-0.0","47740","ListA","woman","chinese","CFA10","","","","null","","","","","",""
"null","<img src='gifs/BlackGender3b.gif' style='height:400px;''></img>","","html-keyboard-response","52","685511","0.0-13.0-1.0","47740","ListA","woman","chinese","CFA10","","","","null","","","","","",""
"null","正在陪伴","","html-keyboard-response","53","688529","0.0-13.0-2.0","47740","ListA","woman","chinese","CFA10","","","","null","","","","","",""
"25608.199999809265","","","survey-text","54","714140","0.0-13.0-3.0","47740","ListA","woman","chinese","CFA10","","","","","{""Q0"":""卢克正在陪伴霍普""}","<img src='gifs/BlackGender3b.gif' style='height:400px;''></img>","陪伴","正在陪伴","chinese",""
"null","<div style=""font-size:60px;"">+</div>","","html-keyboard-response","55","714643","0.0-13.0-0.1","47740","ListA","woman","chinese","CFA10","","","","null","","","","","",""
"null","<img src='gifs/BlackGender1b.gif' style='height:400px;''></img>","","html-keyboard-response","56","716654","0.0-13.0-1.1","47740","ListA","woman","chinese","CFA10","","","","null","","","","","",""
"null","正在跟随","","html-keyboard-response","57","719658","0.0-13.0-2.1","47740","ListA","woman","chinese","CFA10","","","","null","","","","","",""
"22522.799999713898","","","survey-text","58","742183","0.0-13.0-3.1","47740","ListA","woman","chinese","CFA10","","","","","{""Q0"":""卢克正在跟随露丝""}","<img src='gifs/BlackGender1b.gif' style='height:400px;''></img>","跟随","正在跟随","chinese",""
"null","<div style=""font-size:60px;"">+</div>","","html-keyboard-response","59","742699","0.0-13.0-0.2","47740","ListA","woman","chinese","CFA10","","","","null","","","","","",""
"null","<img src='gifs/FemaleRace4a.gif' style='height:400px;''></img>","","html-keyboard-response","60","744713","0.0-13.0-1.2","47740","ListA","woman","chinese","CFA10","","","","null","","","","","",""
"null","正在面向","","html-keyboard-response","61","747723","0.0-13.0-2.2","47740","ListA","woman","chinese","CFA10","","","","null","","","","","",""
"10380.200000286102","","","survey-text","62","758105","0.0-13.0-3.2","47740","ListA","woman","chinese","CFA10","","","","","{""Q0"":""霍普正在面向贝斯""}","<img src='gifs/FemaleRace4a.gif' style='height:400px;''></img>","面向","正在面向","chinese",""
"null","<div style=""font-size:60px;"">+</div>","","html-keyboard-response","63","758611","0.0-13.0-0.3","47740","ListA","woman","chinese","CFA10","","","","null","","","","","",""
"null","<img src='gifs/BlackGender2a.gif' style='height:400px;''></img>","","html-keyboard-response","64","760616","0.0-13.0-1.3","47740","ListA","woman","chinese","CFA10","","","","null","","","","","",""
"null","正在联系","","html-keyboard-response","65","763634","0.0-13.0-2.3","47740","ListA","woman","chinese","CFA10","","","","null","","","","","",""
"11534.099999904633","","","survey-text","66","775169","0.0-13.0-3.3","47740","ListA","woman","chinese","CFA10","","","","","{""Q0"":""露丝正在联系戴夫""}","<img src='gifs/BlackGender2a.gif' style='height:400px;''></img>","联系","正在联系","chinese",""
"null","<div style=""font-size:60px;"">+</div>","","html-keyboard-response","67","775673","0.0-13.0-0.4","47740","ListA","woman","chinese","CFA10","","","","null","","","","","",""
"null","<img src='gifs/BlackGender4a.gif' style='height:400px;''></img>","","html-keyboard-response","68","777679","0.0-13.0-1.4","47740","ListA","woman","chinese","CFA10","","","","null","","","","","",""
"null","正在跟随","","html-keyboard-response","69","780690","0.0-13.0-2.4","47740","ListA","woman","chinese","CFA10","","","","null","","","","","",""
"10718.800000190735","","","survey-text","70","791411","0.0-13.0-3.4","47740","ListA","woman","chinese","CFA10","","","","","{""Q0"":""霍普正在跟随戴夫""}","<img src='gifs/BlackGender4a.gif' style='height:400px;''></img>","跟随","正在跟随","chinese",""
"null","<div style=""font-size:60px;"">+</div>","","html-keyboard-response","71","791922","0.0-13.0-0.5","47740","ListA","woman","chinese","CFA10","","","","null","","","","","",""
"null","<img src='gifs/MaleRace2a.gif' style='height:400px;''></img>","","html-keyboard-response","72","793938","0.0-13.0-1.5","47740","ListA","woman","chinese","CFA10","","","","null","","","","","",""
"null","正在面向","","html-keyboard-response","73","796957","0.0-13.0-2.5","47740","ListA","woman","chinese","CFA10","","","","null","","","","","",""
"11083.099999904633","","","survey-text","74","808041","0.0-13.0-3.5","47740","ListA","woman","chinese","CFA10","","","","","{""Q0"":""弗雷正在面向戴夫""}","<img src='gifs/MaleRace2a.gif' style='height:400px;''></img>","面向","正在面向","chinese",""
"null","<div style=""font-size:60px;"">+</div>","","html-keyboard-response","75","808543","0.0-13.0-0.6","47740","ListA","woman","chinese","CFA10","","","","null","","","","","",""
"null","<img src='gifs/MaleRace1b.gif' style='height:400px;''></img>","","html-keyboard-response","76","810551","0.0-13.0-1.6","47740","ListA","woman","chinese","CFA10","","","","null","","","","","",""
"null","正在面向","","html-keyboard-response","77","813567","0.0-13.0-2.6","47740","ListA","woman","chinese","CFA10","","","","null","","","","","",""
"9192.299999713898","","","survey-text","78","822761","0.0-13.0-3.6","47740","ListA","woman","chinese","CFA10","","","","","{""Q0"":""弗雷正在面向卢克""}","<img src='gifs/MaleRace1b.gif' style='height:400px;''></img>","面向","正在面向","chinese",""
"null","<div style=""font-size:60px;"">+</div>","","html-keyboard-response","79","823266","0.0-13.0-0.7","47740","ListA","woman","chinese","CFA10","","","","null","","","","","",""
"null","<img src='gifs/FemaleRace4b.gif' style='height:400px;''></img>","","html-keyboard-response","80","825272","0.0-13.0-1.7","47740","ListA","woman","chinese","CFA10","","","","null","","","","","",""
"null","正在看着","","html-keyboard-response","81","828280","0.0-13.0-2.7","47740","ListA","woman","chinese","CFA10","","","","null","","","","","",""
"7397.099999904633","","","survey-text","82","835679","0.0-13.0-3.7","47740","ListA","woman","chinese","CFA10","","","","","{""Q0"":""贝斯正在看着霍普""}","<img src='gifs/FemaleRace4b.gif' style='height:400px;''></img>","看着","正在看着","chinese",""
"null","<div style=""font-size:60px;"">+</div>","","html-keyboard-response","83","836198","0.0-13.0-0.8","47740","ListA","woman","chinese","CFA10","","","","null","","","","","",""
"null","<img src='gifs/BlackGender4b.gif' style='height:400px;''></img>","","html-keyboard-response","84","838203","0.0-13.0-1.8","47740","ListA","woman","chinese","CFA10","","","","null","","","","","",""
"null","正在陪伴","","html-keyboard-response","85","841216","0.0-13.0-2.8","47740","ListA","woman","chinese","CFA10","","","","null","","","","","",""
"12005.599999904633","","","survey-text","86","853223","0.0-13.0-3.8","47740","ListA","woman","chinese","CFA10","","","","","{""Q0"":""戴夫正在陪伴霍普""}","<img src='gifs/BlackGender4b.gif' style='height:400px;''></img>","陪伴","正在陪伴","chinese",""
"null","<div style=""font-size:60px;"">+</div>","","html-keyboard-response","87","853738","0.0-13.0-0.9","47740","ListA","woman","chinese","CFA10","","","","null","","","","","",""
"null","<img src='gifs/MaleRace3b.gif' style='height:400px;''></img>","","html-keyboard-response","88","855754","0.0-13.0-1.9","47740","ListA","woman","chinese","CFA10","","","","null","","","","","",""
"null","正在看着","","html-keyboard-response","89","858760","0.0-13.0-2.9","47740","ListA","woman","chinese","CFA10","","","","null","","","","","",""
"9916.199999809265","","","survey-text","90","868678","0.0-13.0-3.9","47740","ListA","woman","chinese","CFA10","","","","","{""Q0"":""麦克正在看着卢克""}","<img src='gifs/MaleRace3b.gif' style='height:400px;''></img>","看着","正在看着","chinese",""
"null","<div style=""font-size:60px;"">+</div>","","html-keyboard-response","91","869183","0.0-13.0-0.10","47740","ListA","woman","chinese","CFA10","","","","null","","","","","",""
"null","<img src='gifs/MaleRace2b.gif' style='height:400px;''></img>","","html-keyboard-response","92","871194","0.0-13.0-1.10","47740","ListA","woman","chinese","CFA10","","","","null","","","","","",""
"null","正在加入","","html-keyboard-response","93","874201","0.0-13.0-2.10","47740","ListA","woman","chinese","CFA10","","","","null","","","","","",""
"8482.400000095367","","","survey-text","94","882685","0.0-13.0-3.10","47740","ListA","woman","chinese","CFA10","","","","","{""Q0"":""弗雷正在加入戴夫""}","<img src='gifs/MaleRace2b.gif' style='height:400px;''></img>","加入","正在加入","chinese",""
"null","<div style=""font-size:60px;"">+</div>","","html-keyboard-response","95","883205","0.0-13.0-0.11","47740","ListA","woman","chinese","CFA10","","","","null","","","","","",""
"null","<img src='gifs/ChineseGender1a.gif' style='height:400px;''></img>","","html-keyboard-response","96","885218","0.0-13.0-1.11","47740","ListA","woman","chinese","CFA10","","","","null","","","","","",""
"null","正在聘用","","html-keyboard-response","97","888233","0.0-13.0-2.11","47740","ListA","woman","chinese","CFA10","","","","null","","","","","",""
"7792.300000190735","","","survey-text","98","896027","0.0-13.0-3.11","47740","ListA","woman","chinese","CFA10","","","","","{""Q0"":""弗雷正在聘用凯特""}","<img src='gifs/ChineseGender1a.gif' style='height:400px;''></img>","聘用","正在聘用","chinese",""
"null","<div style=""font-size:60px;"">+</div>","","html-keyboard-response","99","896533","0.0-13.0-0.12","47740","ListA","woman","chinese","CFA10","","","","null","","","","","",""
"null","<img src='gifs/MaleRace4b.gif' style='height:400px;''></img>","","html-keyboard-response","100","898547","0.0-13.0-1.12","47740","ListA","woman","chinese","CFA10","","","","null","","","","","",""
"null","正在答应","","html-keyboard-response","101","901565","0.0-13.0-2.12","47740","ListA","woman","chinese","CFA10","","","","null","","","","","",""
"11520.5","","","survey-text","102","913087","0.0-13.0-3.12","47740","ListA","woman","chinese","CFA10","","","","","{""Q0"":""麦克正在答应戴夫""}","<img src='gifs/MaleRace4b.gif' style='height:400px;''></img>","答应","正在答应","chinese",""
"null","<div style=""font-size:60px;"">+</div>","","html-keyboard-response","103","913604","0.0-13.0-0.13","47740","ListA","woman","chinese","CFA10","","","","null","","","","","",""
"null","<img src='gifs/ChineseGender1b.gif' style='height:400px;''></img>","","html-keyboard-response","104","915617","0.0-13.0-1.13","47740","ListA","woman","chinese","CFA10","","","","null","","","","","",""
"null","正在触摸","","html-keyboard-response","105","918635","0.0-13.0-2.13","47740","ListA","woman","chinese","CFA10","","","","null","","","","","",""
"6744.799999713898","","","survey-text","106","925381","0.0-13.0-3.13","47740","ListA","woman","chinese","CFA10","","","","","{""Q0"":""凯特正在触摸弗雷""}","<img src='gifs/ChineseGender1b.gif' style='height:400px;''></img>","触摸","正在触摸","chinese",""
"null","<div style=""font-size:60px;"">+</div>","","html-keyboard-response","107","925882","0.0-13.0-0.14","47740","ListA","woman","chinese","CFA10","","","","null","","","","","",""
"null","<img src='gifs/FemaleRace3b.gif' style='height:400px;''></img>","","html-keyboard-response","108","927896","0.0-13.0-1.14","47740","ListA","woman","chinese","CFA10","","","","null","","","","","",""
"null","正在触摸","","html-keyboard-response","109","930904","0.0-13.0-2.14","47740","ListA","woman","chinese","CFA10","","","","null","","","","","",""
"9502.099999904633","","","survey-text","110","940408","0.0-13.0-3.14","47740","ListA","woman","chinese","CFA10","","","","","{""Q0"":""贝斯正在触摸露丝""}","<img src='gifs/FemaleRace3b.gif' style='height:400px;''></img>","触摸","正在触摸","chinese",""
"null","<div style=""font-size:60px;"">+</div>","","html-keyboard-response","111","940924","0.0-13.0-0.15","47740","ListA","woman","chinese","CFA10","","","","null","","","","","",""
"null","<img src='gifs/FemaleRace3a.gif' style='height:400px;''></img>","","html-keyboard-response","112","942928","0.0-13.0-1.15","47740","ListA","woman","chinese","CFA10","","","","null","","","","","",""
"null","正在跟随","","html-keyboard-response","113","945950","0.0-13.0-2.15","47740","ListA","woman","chinese","CFA10","","","","null","","","","","",""
"15227.700000286102","","","survey-text","114","961179","0.0-13.0-3.15","47740","ListA","woman","chinese","CFA10","","","","","{""Q0"":""贝斯正在跟随露丝""}","<img src='gifs/FemaleRace3a.gif' style='height:400px;''></img>","跟随","正在跟随","chinese",""
"null","<div style=""font-size:60px;"">+</div>","","html-keyboard-response","115","961687","0.0-13.0-0.16","47740","ListA","woman","chinese","CFA10","","","","null","","","","","",""
"null","<img src='gifs/ChineseGender3a.gif' style='height:400px;''></img>","","html-keyboard-response","116","963703","0.0-13.0-1.16","47740","ListA","woman","chinese","CFA10","","","","null","","","","","",""
"null","正在联系","","html-keyboard-response","117","966716","0.0-13.0-2.16","47740","ListA","woman","chinese","CFA10","","","","null","","","","","",""
"6376.699999809265","","","survey-text","118","973094","0.0-13.0-3.16","47740","ListA","woman","chinese","CFA10","","","","","{""Q0"":""麦克正在联系贝斯""}","<img src='gifs/ChineseGender3a.gif' style='height:400px;''></img>","联系","正在联系","chinese",""
"null","<div style=""font-size:60px;"">+</div>","","html-keyboard-response","119","973607","0.0-13.0-0.17","47740","ListA","woman","chinese","CFA10","","","","null","","","","","",""
"null","<img src='gifs/FemaleRace4a.gif' style='height:400px;''></img>","","html-keyboard-response","120","975625","0.0-13.0-1.17","47740","ListA","woman","chinese","CFA10","","","","null","","","","","",""
"null","正在答应","","html-keyboard-response","121","978645","0.0-13.0-2.17","47740","ListA","woman","chinese","CFA10","","","","null","","","","","",""
"8100","","","survey-text","122","986747","0.0-13.0-3.17","47740","ListA","woman","chinese","CFA10","","","","","{""Q0"":""贝斯正在答应霍普""}","<img src='gifs/FemaleRace4a.gif' style='height:400px;''></img>","答应","正在答应","chinese",""
"7897","<img src='img/portrait_matrix_listA_chinese.jpg' style='width:900px;height:500px;''></img><p>如果您已经记住了所有的人物和名字，请点击继续。</p><p><strong>请注意：您对先前记忆的面孔将在本实验中被测试5次。</strong></p>","0","html-button-response","123","994645","0.0-14.0-0.0","47740","ListA","woman","chinese","CFA10","","","","","","","","","",""
"3356.9000000953674","<img src=""portrait/WW1.jpg""style=""height:400px;""></img>","1","html-button-response","124","999017","0.0-14.0-1.0","47740","ListA","woman","chinese","CFA10","","true","1","","","","","","",""
"null","正确","","html-keyboard-response","125","1000535","0.0-14.0-2.0-0.0","47740","ListA","woman","chinese","CFA10","","","","null","","","","","",""
"1415.6000003814697","<img src=""portrait/WM2.jpg""style=""height:400px;""></img>","7","html-button-response","126","1001953","0.0-14.0-4.0","47740","ListA","woman","chinese","CFA10","","true","7","","","","","","",""
"null","正确","","html-keyboard-response","127","1003488","0.0-14.0-5.0-0.0","47740","ListA","woman","chinese","CFA10","","","","null","","","","","",""
"2619.9000000953674","<img src=""portrait/BM2.jpg""style=""height:400px;""></img>","5","html-button-response","128","1006109","0.0-14.0-7.0","47740","ListA","woman","chinese","CFA10","","true","5","","","","","","",""
"null","正确","","html-keyboard-response","129","1007624","0.0-14.0-8.0-0.0","47740","ListA","woman","chinese","CFA10","","","","null","","","","","",""
"2528.4000000953674","<img src=""portrait/BW2.jpg""style=""height:400px;""></img>","2","html-button-response","130","1010154","0.0-14.0-10.0","47740","ListA","woman","chinese","CFA10","","true","2","","","","","","",""
"null","正确","","html-keyboard-response","131","1011694","0.0-14.0-11.0-0.0","47740","ListA","woman","chinese","CFA10","","","","null","","","","","",""
"5732.699999809265","<img src=""portrait/WM1.jpg""style=""height:400px;""></img>","6","html-button-response","132","1017428","0.0-14.0-13.0","47740","ListA","woman","chinese","CFA10","","true","6","","","","","","",""
"null","正确","","html-keyboard-response","133","1018964","0.0-14.0-14.0-0.0","47740","ListA","woman","chinese","CFA10","","","","null","","","","","",""
"3290.0999999046326","<img src=""portrait/BM1.jpg""style=""height:400px;""></img>","4","html-button-response","134","1022255","0.0-14.0-16.0","47740","ListA","woman","chinese","CFA10","","true","4","","","","","","",""
"null","正确","","html-keyboard-response","135","1023760","0.0-14.0-17.0-0.0","47740","ListA","woman","chinese","CFA10","","","","null","","","","","",""
"1582.7000002861023","<img src=""portrait/BW1.jpg""style=""height:400px;""></img>","2","html-button-response","136","1025344","0.0-14.0-19.0","47740","ListA","woman","chinese","CFA10","","true","0","","","","","","",""
"4051.4000000953674","<img src=""portrait/BW1.jpg""style=""height:400px;""></img>","0","html-button-response","137","1030405","0.0-14.0-21.0-0.0","47740","ListA","woman","chinese","CFA10","","false","0","","","","","","",""
"null","正确","","html-keyboard-response","138","1031932","0.0-14.0-21.0-1.0-0.0","47740","ListA","woman","chinese","CFA10","","","","null","","","","","",""
"1256.0999999046326","<img src=""portrait/WW2.jpg""style=""height:400px;""></img>","3","html-button-response","139","1033189","0.0-14.0-22.0","47740","ListA","woman","chinese","CFA10","","true","3","","","","","","",""
"null","正确","","html-keyboard-response","140","1034714","0.0-14.0-23.0-0.0","47740","ListA","woman","chinese","CFA10","","","","null","","","","","",""
"1242.6999998092651","<p>您第一次在8题里答对了 7 题。 请点击继续</p>","0","html-button-response","141","1035958","0.0-14.0-25.0","47740","ListA","woman","chinese","CFA10","","","","","","","","","",""
"1066.7000002861023","因为您没有全部答对，记忆游戏将重新开始。请点击继续。","0","html-button-response","142","1038027","0.0-14.0-26.0-0.0","47740","ListA","woman","chinese","CFA10","","","","","","","","","",""
"1715.6999998092651","<img src='img/portrait_matrix_listA_chinese.jpg' style='width:900px;height:500px;''></img><p>如果您已经记住了所有的人物和名字，请点击继续。</p><p><strong>请注意：您对先前记忆的面孔将在本实验中被测试5次。</strong></p>","0","html-button-response","143","1040761","0.0-14.1-0.1","47740","ListA","woman","chinese","CFA10","","","","","","","","","",""
"5468.599999904633","<img src=""portrait/WW1.jpg""style=""height:400px;""></img>","1","html-button-response","144","1047237","0.0-14.1-1.1","47740","ListA","woman","chinese","CFA10","","true","1","","","","","","",""
"null","正确","","html-keyboard-response","145","1048749","0.0-14.1-2.1-0.1","47740","ListA","woman","chinese","CFA10","","","","null","","","","","",""
"2072.5999999046326","<img src=""portrait/WM2.jpg""style=""height:400px;""></img>","7","html-button-response","146","1050823","0.0-14.1-4.1","47740","ListA","woman","chinese","CFA10","","true","7","","","","","","",""
"null","正确","","html-keyboard-response","147","1052356","0.0-14.1-5.1-0.1","47740","ListA","woman","chinese","CFA10","","","","null","","","","","",""
"1305.7000002861023","<img src=""portrait/BM2.jpg""style=""height:400px;""></img>","5","html-button-response","148","1053663","0.0-14.1-7.1","47740","ListA","woman","chinese","CFA10","","true","5","","","","","","",""
"null","正确","","html-keyboard-response","149","1055204","0.0-14.1-8.1-0.1","47740","ListA","woman","chinese","CFA10","","","","null","","","","","",""
"2248.1000003814697","<img src=""portrait/BW2.jpg""style=""height:400px;""></img>","2","html-button-response","150","1057453","0.0-14.1-10.1","47740","ListA","woman","chinese","CFA10","","true","2","","","","","","",""
"null","正确","","html-keyboard-response","151","1058975","0.0-14.1-11.1-0.1","47740","ListA","woman","chinese","CFA10","","","","null","","","","","",""
"4048.7000002861023","<img src=""portrait/WM1.jpg""style=""height:400px;""></img>","7","html-button-response","152","1063025","0.0-14.1-13.1","47740","ListA","woman","chinese","CFA10","","true","6","","","","","","",""
"4716.5","<img src=""portrait/WM1.jpg""style=""height:400px;""></img>","6","html-button-response","153","1068759","0.0-14.1-15.1-0.1","47740","ListA","woman","chinese","CFA10","","false","6","","","","","","",""
"null","正确","","html-keyboard-response","154","1070268","0.0-14.1-15.1-1.1-0.1","47740","ListA","woman","chinese","CFA10","","","","null","","","","","",""
"6930","<img src=""portrait/BM1.jpg""style=""height:400px;""></img>","4","html-button-response","155","1077199","0.0-14.1-16.1","47740","ListA","woman","chinese","CFA10","","true","4","","","","","","",""
"null","正确","","html-keyboard-response","156","1078713","0.0-14.1-17.1-0.1","47740","ListA","woman","chinese","CFA10","","","","null","","","","","",""
"3269.699999809265","<img src=""portrait/BW1.jpg""style=""height:400px;""></img>","2","html-button-response","157","1081984","0.0-14.1-19.1","47740","ListA","woman","chinese","CFA10","","true","0","","","","","","",""
"2638.699999809265","<img src=""portrait/BW1.jpg""style=""height:400px;""></img>","0","html-button-response","158","1085643","0.0-14.1-21.1-0.1","47740","ListA","woman","chinese","CFA10","","false","0","","","","","","",""
"null","正确","","html-keyboard-response","159","1087174","0.0-14.1-21.1-1.1-0.1","47740","ListA","woman","chinese","CFA10","","","","null","","","","","",""
"1415.0999999046326","<img src=""portrait/WW2.jpg""style=""height:400px;""></img>","3","html-button-response","160","1088590","0.0-14.1-22.1","47740","ListA","woman","chinese","CFA10","","true","3","","","","","","",""
"null","正确","","html-keyboard-response","161","1090114","0.0-14.1-23.1-0.1","47740","ListA","woman","chinese","CFA10","","","","null","","","","","",""
"1257.5999999046326","<p>您第一次在8题里答对了 6 题。 请点击继续</p>","0","html-button-response","162","1091373","0.0-14.1-25.1","47740","ListA","woman","chinese","CFA10","","","","","","","","","",""
"1052.2000002861023","因为您没有全部答对，记忆游戏将重新开始。请点击继续。","0","html-button-response","163","1093435","0.0-14.1-26.1-0.1","47740","ListA","woman","chinese","CFA10","","","","","","","","","",""
"1558.0999999046326","<img src='img/portrait_matrix_listA_chinese.jpg' style='width:900px;height:500px;''></img><p>如果您已经记住了所有的人物和名字，请点击继续。</p><p><strong>请注意：您对先前记忆的面孔将在本实验中被测试5次。</strong></p>","0","html-button-response","164","1096003","0.0-14.2-0.2","47740","ListA","woman","chinese","CFA10","","","","","","","","","",""
"6266.300000190735","<img src=""portrait/WW1.jpg""style=""height:400px;""></img>","1","html-button-response","165","1103273","0.0-14.2-1.2","47740","ListA","woman","chinese","CFA10","","true","1","","","","","","",""
"null","正确","","html-keyboard-response","166","1104813","0.0-14.2-2.2-0.2","47740","ListA","woman","chinese","CFA10","","","","null","","","","","",""
"1280.7000002861023","<img src=""portrait/WM2.jpg""style=""height:400px;""></img>","7","html-button-response","167","1106095","0.0-14.2-4.2","47740","ListA","woman","chinese","CFA10","","true","7","","","","","","",""
"null","正确","","html-keyboard-response","168","1107627","0.0-14.2-5.2-0.2","47740","ListA","woman","chinese","CFA10","","","","null","","","","","",""
"3296.2999997138977","<img src=""portrait/BM2.jpg""style=""height:400px;""></img>","5","html-button-response","169","1110925","0.0-14.2-7.2","47740","ListA","woman","chinese","CFA10","","true","5","","","","","","",""
"null","正确","","html-keyboard-response","170","1112456","0.0-14.2-8.2-0.2","47740","ListA","woman","chinese","CFA10","","","","null","","","","","",""
"5145.799999713898","<img src=""portrait/BW2.jpg""style=""height:400px;""></img>","2","html-button-response","171","1117603","0.0-14.2-10.2","47740","ListA","woman","chinese","CFA10","","true","2","","","","","","",""
"null","正确","","html-keyboard-response","172","1119121","0.0-14.2-11.2-0.2","47740","ListA","woman","chinese","CFA10","","","","null","","","","","",""
"5100.599999904633","<img src=""portrait/WM1.jpg""style=""height:400px;""></img>","6","html-button-response","173","1124223","0.0-14.2-13.2","47740","ListA","woman","chinese","CFA10","","true","6","","","","","","",""
"null","正确","","html-keyboard-response","174","1125752","0.0-14.2-14.2-0.2","47740","ListA","woman","chinese","CFA10","","","","null","","","","","",""
"1669.3999996185303","<img src=""portrait/BM1.jpg""style=""height:400px;""></img>","4","html-button-response","175","1127423","0.0-14.2-16.2","47740","ListA","woman","chinese","CFA10","","true","4","","","","","","",""
"null","正确","","html-keyboard-response","176","1128959","0.0-14.2-17.2-0.2","47740","ListA","woman","chinese","CFA10","","","","null","","","","","",""
"4643.200000286102","<img src=""portrait/BW1.jpg""style=""height:400px;""></img>","0","html-button-response","177","1133603","0.0-14.2-19.2","47740","ListA","woman","chinese","CFA10","","true","0","","","","","","",""
"null","正确","","html-keyboard-response","178","1135114","0.0-14.2-20.2-0.2","47740","ListA","woman","chinese","CFA10","","","","null","","","","","",""
"1531.9000000953674","<img src=""portrait/WW2.jpg""style=""height:400px;""></img>","3","html-button-response","179","1136647","0.0-14.2-22.2","47740","ListA","woman","chinese","CFA10","","true","3","","","","","","",""
"null","正确","","html-keyboard-response","180","1138181","0.0-14.2-23.2-0.2","47740","ListA","woman","chinese","CFA10","","","","null","","","","","",""
"1225.6999998092651","<p>您第一次在8题里答对了 8 题。 请点击继续</p>","0","html-button-response","181","1139407","0.0-14.2-25.2","47740","ListA","woman","chinese","CFA10","","","","","","","","","",""
"null","<div style=""font-size:60px;"">+</div>","","html-keyboard-response","182","1140940","0.0-15.0-0.0","47740","ListA","woman","chinese","CFA10","","","","null","","","","","",""
"null","<img src='gifs/MaleRace3a.gif' style='height:400px;''></img>","","html-keyboard-response","183","1142954","0.0-15.0-1.0","47740","ListA","woman","chinese","CFA10","","","","null","","","","","",""
"null","正在介绍","","html-keyboard-response","184","1145967","0.0-15.0-2.0","47740","ListA","woman","chinese","CFA10","","","","null","","","","","",""
"12055.89999961853","","","survey-text","185","1158025","0.0-15.0-3.0","47740","ListA","woman","chinese","CFA10","","","","","{""Q0"":""卢克正在介绍麦克""}","<img src='gifs/MaleRace3a.gif' style='height:400px;''></img>","介绍","正在介绍","chinese",""
"null","<div style=""font-size:60px;"">+</div>","","html-keyboard-response","186","1158529","0.0-15.0-0.1","47740","ListA","woman","chinese","CFA10","","","","null","","","","","",""
"null","<img src='gifs/MaleRace2a.gif' style='height:400px;''></img>","","html-keyboard-response","187","1160544","0.0-15.0-1.1","47740","ListA","woman","chinese","CFA10","","","","null","","","","","",""
"null","正在加入","","html-keyboard-response","188","1163559","0.0-15.0-2.1","47740","ListA","woman","chinese","CFA10","","","","null","","","","","",""
"7984.799999713898","","","survey-text","189","1171545","0.0-15.0-3.1","47740","ListA","woman","chinese","CFA10","","","","","{""Q0"":""戴夫正在加入弗雷""}","<img src='gifs/MaleRace2a.gif' style='height:400px;''></img>","加入","正在加入","chinese",""
"null","<div style=""font-size:60px;"">+</div>","","html-keyboard-response","190","1172051","0.0-15.0-0.2","47740","ListA","woman","chinese","CFA10","","","","null","","","","","",""
"null","<img src='gifs/MaleRace1a.gif' style='height:400px;''></img>","","html-keyboard-response","191","1174064","0.0-15.0-1.2","47740","ListA","woman","chinese","CFA10","","","","null","","","","","",""
"null","正在接近","","html-keyboard-response","192","1177085","0.0-15.0-2.2","47740","ListA","woman","chinese","CFA10","","","","null","","","","","",""
"8437.10000038147","","","survey-text","193","1185523","0.0-15.0-3.2","47740","ListA","woman","chinese","CFA10","","","","","{""Q0"":""弗雷正在接近卢克""}","<img src='gifs/MaleRace1a.gif' style='height:400px;''></img>","接近","正在接近","chinese",""
"null","<div style=""font-size:60px;"">+</div>","","html-keyboard-response","194","1186030","0.0-15.0-0.3","47740","ListA","woman","chinese","CFA10","","","","null","","","","","",""
"null","<img src='gifs/FemaleRace2b.gif' style='height:400px;''></img>","","html-keyboard-response","195","1188040","0.0-15.0-1.3","47740","ListA","woman","chinese","CFA10","","","","null","","","","","",""
"null","正在聆听","","html-keyboard-response","196","1191057","0.0-15.0-2.3","47740","ListA","woman","chinese","CFA10","","","","null","","","","","",""
"8550.700000286102","","","survey-text","197","1199609","0.0-15.0-3.3","47740","ListA","woman","chinese","CFA10","","","","","{""Q0"":""凯特正在聆听霍普""}","<img src='gifs/FemaleRace2b.gif' style='height:400px;''></img>","聆听","正在聆听","chinese",""
"null","<div style=""font-size:60px;"">+</div>","","html-keyboard-response","198","1200117","0.0-15.0-0.4","47740","ListA","woman","chinese","CFA10","","","","null","","","","","",""
"null","<img src='gifs/MaleRace3b.gif' style='height:400px;''></img>","","html-keyboard-response","199","1202126","0.0-15.0-1.4","47740","ListA","woman","chinese","CFA10","","","","null","","","","","",""
"null","正在陪伴","","html-keyboard-response","200","1205131","0.0-15.0-2.4","47740","ListA","woman","chinese","CFA10","","","","null","","","","","",""
"4974.5","","","survey-text","201","1210107","0.0-15.0-3.4","47740","ListA","woman","chinese","CFA10","","","","","{""Q0"":""麦克正在陪伴卢克""}","<img src='gifs/MaleRace3b.gif' style='height:400px;''></img>","陪伴","正在陪伴","chinese",""
"null","<div style=""font-size:60px;"">+</div>","","html-keyboard-response","202","1210621","0.0-15.0-0.5","47740","ListA","woman","chinese","CFA10","","","","null","","","","","",""
"null","<img src='gifs/BlackGender3b.gif' style='height:400px;''></img>","","html-keyboard-response","203","1212635","0.0-15.0-1.5","47740","ListA","woman","chinese","CFA10","","","","null","","","","","",""
"null","正在说服","","html-keyboard-response","204","1215645","0.0-15.0-2.5","47740","ListA","woman","chinese","CFA10","","","","null","","","","","",""
"5571.900000095367","","","survey-text","205","1221219","0.0-15.0-3.5","47740","ListA","woman","chinese","CFA10","","","","","{""Q0"":""霍普正在说服卢克""}","<img src='gifs/BlackGender3b.gif' style='height:400px;''></img>","说服","正在说服","chinese",""
"null","<div style=""font-size:60px;"">+</div>","","html-keyboard-response","206","1221726","0.0-15.0-0.6","47740","ListA","woman","chinese","CFA10","","","","null","","","","","",""
"null","<img src='gifs/BlackGender2a.gif' style='height:400px;''></img>","","html-keyboard-response","207","1223733","0.0-15.0-1.6","47740","ListA","woman","chinese","CFA10","","","","null","","","","","",""
"null","正在聆听","","html-keyboard-response","208","1226750","0.0-15.0-2.6","47740","ListA","woman","chinese","CFA10","","","","null","","","","","",""
"5959.300000190735","","","survey-text","209","1232711","0.0-15.0-3.6","47740","ListA","woman","chinese","CFA10","","","","","{""Q0"":""弗雷正在聆听露丝""}","<img src='gifs/BlackGender2a.gif' style='height:400px;''></img>","聆听","正在聆听","chinese",""
"null","<div style=""font-size:60px;"">+</div>","","html-keyboard-response","210","1233222","0.0-15.0-0.7","47740","ListA","woman","chinese","CFA10","","","","null","","","","","",""
"null","<img src='gifs/MaleRace1a.gif' style='height:400px;''></img>","","html-keyboard-response","211","1235241","0.0-15.0-1.7","47740","ListA","woman","chinese","CFA10","","","","null","","","","","",""
"null","正在加入","","html-keyboard-response","212","1238250","0.0-15.0-2.7","47740","ListA","woman","chinese","CFA10","","","","null","","","","","",""
"13891.800000190735","","","survey-text","213","1252143","0.0-15.0-3.7","47740","ListA","woman","chinese","CFA10","","","","","{""Q0"":""卢克正在说服弗雷""}","<img src='gifs/MaleRace1a.gif' style='height:400px;''></img>","加入","正在加入","chinese",""
"null","<div style=""font-size:60px;"">+</div>","","html-keyboard-response","214","1252659","0.0-15.0-0.8","47740","ListA","woman","chinese","CFA10","","","","null","","","","","",""
"null","<img src='gifs/MaleRace1b.gif' style='height:400px;''></img>","","html-keyboard-response","215","1254674","0.0-15.0-1.8","47740","ListA","woman","chinese","CFA10","","","","null","","","","","",""
"null","正在说服","","html-keyboard-response","216","1257684","0.0-15.0-2.8","47740","ListA","woman","chinese","CFA10","","","","null","","","","","",""
"8800.199999809265","","","survey-text","217","1266485","0.0-15.0-3.8","47740","ListA","woman","chinese","CFA10","","","","","{""Q0"":""弗雷正在说服卢克""}","<img src='gifs/MaleRace1b.gif' style='height:400px;''></img>","说服","正在说服","chinese",""
"null","<div style=""font-size:60px;"">+</div>","","html-keyboard-response","218","1266994","0.0-15.0-0.9","47740","ListA","woman","chinese","CFA10","","","","null","","","","","",""
"null","<img src='gifs/FemaleRace1b.gif' style='height:400px;''></img>","","html-keyboard-response","219","1269000","0.0-15.0-1.9","47740","ListA","woman","chinese","CFA10","","","","null","","","","","",""
"null","正在聆听","","html-keyboard-response","220","1272010","0.0-15.0-2.9","47740","ListA","woman","chinese","CFA10","","","","null","","","","","",""
"5782","","","survey-text","221","1277794","0.0-15.0-3.9","47740","ListA","woman","chinese","CFA10","","","","","{""Q0"":""凯特正在聆听露丝""}","<img src='gifs/FemaleRace1b.gif' style='height:400px;''></img>","聆听","正在聆听","chinese",""
"null","<div style=""font-size:60px;"">+</div>","","html-keyboard-response","222","1278299","0.0-15.0-0.10","47740","ListA","woman","chinese","CFA10","","","","null","","","","","",""
"null","<img src='gifs/BlackGender1b.gif' style='height:400px;''></img>","","html-keyboard-response","223","1280313","0.0-15.0-1.10","47740","ListA","woman","chinese","CFA10","","","","null","","","","","",""
"null","正在触摸","","html-keyboard-response","224","1283321","0.0-15.0-2.10","47740","ListA","woman","chinese","CFA10","","","","null","","","","","",""
"5422.599999904633","","","survey-text","225","1288746","0.0-15.0-3.10","47740","ListA","woman","chinese","CFA10","","","","","{""Q0"":""露丝正在触摸卢克""}","<img src='gifs/BlackGender1b.gif' style='height:400px;''></img>","触摸","正在触摸","chinese",""
"null","<div style=""font-size:60px;"">+</div>","","html-keyboard-response","226","1289258","0.0-15.0-0.11","47740","ListA","woman","chinese","CFA10","","","","null","","","","","",""
"null","<img src='gifs/FemaleRace1a.gif' style='height:400px;''></img>","","html-keyboard-response","227","1291273","0.0-15.0-1.11","47740","ListA","woman","chinese","CFA10","","","","null","","","","","",""
"null","正在表扬","","html-keyboard-response","228","1294293","0.0-15.0-2.11","47740","ListA","woman","chinese","CFA10","","","","null","","","","","",""
"5670.900000095367","","","survey-text","229","1299965","0.0-15.0-3.11","47740","ListA","woman","chinese","CFA10","","","","","{""Q0"":""露丝正在表扬凯特""}","<img src='gifs/FemaleRace1a.gif' style='height:400px;''></img>","表扬","正在表扬","chinese",""
"null","<div style=""font-size:60px;"">+</div>","","html-keyboard-response","230","1300485","0.0-15.0-0.12","47740","ListA","woman","chinese","CFA10","","","","null","","","","","",""
"null","<img src='gifs/MaleRace2b.gif' style='height:400px;''></img>","","html-keyboard-response","231","1302494","0.0-15.0-1.12","47740","ListA","woman","chinese","CFA10","","","","null","","","","","",""
"null","正在接近","","html-keyboard-response","232","1305506","0.0-15.0-2.12","47740","ListA","woman","chinese","CFA10","","","","null","","","","","",""
"10089.199999809265","","","survey-text","233","1315597","0.0-15.0-3.12","47740","ListA","woman","chinese","CFA10","","","","","{""Q0"":""弗雷正在接近戴夫""}","<img src='gifs/MaleRace2b.gif' style='height:400px;''></img>","接近","正在接近","chinese",""
"null","<div style=""font-size:60px;"">+</div>","","html-keyboard-response","234","1316113","0.0-15.0-0.13","47740","ListA","woman","chinese","CFA10","","","","null","","","","","",""
"null","<img src='gifs/FemaleRace2a.gif' style='height:400px;''></img>","","html-keyboard-response","235","1318115","0.0-15.0-1.13","47740","ListA","woman","chinese","CFA10","","","","null","","","","","",""
"null","正在提到","","html-keyboard-response","236","1321132","0.0-15.0-2.13","47740","ListA","woman","chinese","CFA10","","","","null","","","","","",""
"7049.5","","","survey-text","237","1328183","0.0-15.0-3.13","47740","ListA","woman","chinese","CFA10","","","","","{""Q0"":""凯特正在提到霍普""}","<img src='gifs/FemaleRace2a.gif' style='height:400px;''></img>","提到","正在提到","chinese",""
"null","<div style=""font-size:60px;"">+</div>","","html-keyboard-response","238","1328698","0.0-15.0-0.14","47740","ListA","woman","chinese","CFA10","","","","null","","","","","",""
"null","<img src='gifs/BlackGender4b.gif' style='height:400px;''></img>","","html-keyboard-response","239","1330706","0.0-15.0-1.14","47740","ListA","woman","chinese","CFA10","","","","null","","","","","",""
"null","正在走向","","html-keyboard-response","240","1333727","0.0-15.0-2.14","47740","ListA","woman","chinese","CFA10","","","","null","","","","","",""
"7594.199999809265","","","survey-text","241","1341323","0.0-15.0-3.14","47740","ListA","woman","chinese","CFA10","","","","","{""Q0"":""霍普正在走向戴夫""}","<img src='gifs/BlackGender4b.gif' style='height:400px;''></img>","走向","正在走向","chinese",""
"null","<div style=""font-size:60px;"">+</div>","","html-keyboard-response","242","1341837","0.0-15.0-0.15","47740","ListA","woman","chinese","CFA10","","","","null","","","","","",""
"null","<img src='gifs/ChineseGender3b.gif' style='height:400px;''></img>","","html-keyboard-response","243","1343851","0.0-15.0-1.15","47740","ListA","woman","chinese","CFA10","","","","null","","","","","",""
"null","正在答应","","html-keyboard-response","244","1346863","0.0-15.0-2.15","47740","ListA","woman","chinese","CFA10","","","","null","","","","","",""
"8780","","","survey-text","245","1355645","0.0-15.0-3.15","47740","ListA","woman","chinese","CFA10","","","","","{""Q0"":""贝斯正在答应麦克""}","<img src='gifs/ChineseGender3b.gif' style='height:400px;''></img>","答应","正在答应","chinese",""
"null","<div style=""font-size:60px;"">+</div>","","html-keyboard-response","246","1356154","0.0-15.0-0.16","47740","ListA","woman","chinese","CFA10","","","","null","","","","","",""
"null","<img src='gifs/FemaleRace3b.gif' style='height:400px;''></img>","","html-keyboard-response","247","1358162","0.0-15.0-1.16","47740","ListA","woman","chinese","CFA10","","","","null","","","","","",""
"null","正在介绍","","html-keyboard-response","248","1361179","0.0-15.0-2.16","47740","ListA","woman","chinese","CFA10","","","","null","","","","","",""
"9057","","","survey-text","249","1370238","0.0-15.0-3.16","47740","ListA","woman","chinese","CFA10","","","","","{""Q0"":""露丝正在答应贝斯""}","<img src='gifs/FemaleRace3b.gif' style='height:400px;''></img>","介绍","正在介绍","chinese",""
"null","<div style=""font-size:60px;"">+</div>","","html-keyboard-response","250","1370746","0.0-15.0-0.17","47740","ListA","woman","chinese","CFA10","","","","null","","","","","",""
"null","<img src='gifs/BlackGender2b.gif' style='height:400px;''></img>","","html-keyboard-response","251","1372752","0.0-15.0-1.17","47740","ListA","woman","chinese","CFA10","","","","null","","","","","",""
"null","正在聘用","","html-keyboard-response","252","1375773","0.0-15.0-2.17","47740","ListA","woman","chinese","CFA10","","","","null","","","","","",""
"11586.099999904633","","","survey-text","253","1387361","0.0-15.0-3.17","47740","ListA","woman","chinese","CFA10","","","","","{""Q0"":""戴夫正在聘用露丝""}","<img src='gifs/BlackGender2b.gif' style='height:400px;''></img>","聘用","正在聘用","chinese",""
"2710.7999997138977","<img src='img/portrait_matrix_listA_chinese.jpg' style='width:900px;height:500px;''></img><p>如果您已经记住了所有的人物和名字，请点击继续。</p><p><strong>请注意：您对先前记忆的面孔将在本实验中被测试5次。</strong></p>","0","html-button-response","254","1390073","0.0-16.0-0.0","47740","ListA","woman","chinese","CFA10","","","","","","","","","",""
"2596","<img src=""portrait/BM2.jpg""style=""height:400px;""></img>","5","html-button-response","255","1393678","0.0-16.0-1.0","47740","ListA","woman","chinese","CFA10","","true","5","","","","","","",""
"null","正确","","html-keyboard-response","256","1395198","0.0-16.0-2.0-0.0","47740","ListA","woman","chinese","CFA10","","","","null","","","","","",""
"1960.5999999046326","<img src=""portrait/WW2.jpg""style=""height:400px;""></img>","3","html-button-response","257","1397161","0.0-16.0-4.0","47740","ListA","woman","chinese","CFA10","","true","3","","","","","","",""
"null","正确","","html-keyboard-response","258","1398690","0.0-16.0-5.0-0.0","47740","ListA","woman","chinese","CFA10","","","","null","","","","","",""
"2417.2999997138977","<img src=""portrait/WM2.jpg""style=""height:400px;""></img>","7","html-button-response","259","1401109","0.0-16.0-7.0","47740","ListA","woman","chinese","CFA10","","true","7","","","","","","",""
"null","正确","","html-keyboard-response","260","1402632","0.0-16.0-8.0-0.0","47740","ListA","woman","chinese","CFA10","","","","null","","","","","",""
"1881.5","<img src=""portrait/BW2.jpg""style=""height:400px;""></img>","2","html-button-response","261","1404515","0.0-16.0-10.0","47740","ListA","woman","chinese","CFA10","","true","2","","","","","","",""
"null","正确","","html-keyboard-response","262","1406043","0.0-16.0-11.0-0.0","47740","ListA","woman","chinese","CFA10","","","","null","","","","","",""
"4546.299999713898","<img src=""portrait/BM1.jpg""style=""height:400px;""></img>","4","html-button-response","263","1410591","0.0-16.0-13.0","47740","ListA","woman","chinese","CFA10","","true","4","","","","","","",""
"null","正确","","html-keyboard-response","264","1412120","0.0-16.0-14.0-0.0","47740","ListA","woman","chinese","CFA10","","","","null","","","","","",""
"2193.5","<img src=""portrait/WM1.jpg""style=""height:400px;""></img>","6","html-button-response","265","1414315","0.0-16.0-16.0","47740","ListA","woman","chinese","CFA10","","true","6","","","","","","",""
"null","正确","","html-keyboard-response","266","1415845","0.0-16.0-17.0-0.0","47740","ListA","woman","chinese","CFA10","","","","null","","","","","",""
"10110.299999713898","<img src=""portrait/BW1.jpg""style=""height:400px;""></img>","0","html-button-response","267","1425957","0.0-16.0-19.0","47740","ListA","woman","chinese","CFA10","","true","0","","","","","","",""
"null","正确","","html-keyboard-response","268","1427487","0.0-16.0-20.0-0.0","47740","ListA","woman","chinese","CFA10","","","","null","","","","","",""
"2474.9000000953674","<img src=""portrait/WW1.jpg""style=""height:400px;""></img>","1","html-button-response","269","1429963","0.0-16.0-22.0","47740","ListA","woman","chinese","CFA10","","true","1","","","","","","",""
"null","正确","","html-keyboard-response","270","1431499","0.0-16.0-23.0-0.0","47740","ListA","woman","chinese","CFA10","","","","null","","","","","",""
"1720.5999999046326","<p>您第一次在8题里答对了 8 题。 请点击继续</p>","0","html-button-response","271","1433220","0.0-16.0-25.0","47740","ListA","woman","chinese","CFA10","","","","","","","","","",""
"null","<div style=""font-size:60px;"">+</div>","","html-keyboard-response","272","1434756","0.0-17.0-0.0","47740","ListA","woman","chinese","CFA10","","","","null","","","","","",""
"null","<img src='gifs/MaleRace4b.gif' style='height:400px;''></img>","","html-keyboard-response","273","1436763","0.0-17.0-1.0","47740","ListA","woman","chinese","CFA10","","","","null","","","","","",""
"null","正在加入","","html-keyboard-response","274","1439775","0.0-17.0-2.0","47740","ListA","woman","chinese","CFA10","","","","null","","","","","",""
"5469.700000286102","","","survey-text","275","1445247","0.0-17.0-3.0","47740","ListA","woman","chinese","CFA10","","","","","{""Q0"":""麦克正在加入戴夫""}","<img src='gifs/MaleRace4b.gif' style='height:400px;''></img>","加入","正在加入","chinese",""
"null","<div style=""font-size:60px;"">+</div>","","html-keyboard-response","276","1445764","0.0-17.0-0.1","47740","ListA","woman","chinese","CFA10","","","","null","","","","","",""
"null","<img src='gifs/FemaleRace3a.gif' style='height:400px;''></img>","","html-keyboard-response","277","1447774","0.0-17.0-1.1","47740","ListA","woman","chinese","CFA10","","","","null","","","","","",""
"null","正在看着","","html-keyboard-response","278","1450779","0.0-17.0-2.1","47740","ListA","woman","chinese","CFA10","","","","null","","","","","",""
"5195.699999809265","","","survey-text","279","1455976","0.0-17.0-3.1","47740","ListA","woman","chinese","CFA10","","","","","{""Q0"":""贝斯正在看着露丝""}","<img src='gifs/FemaleRace3a.gif' style='height:400px;''></img>","看着","正在看着","chinese",""
"null","<div style=""font-size:60px;"">+</div>","","html-keyboard-response","280","1456491","0.0-17.0-0.2","47740","ListA","woman","chinese","CFA10","","","","null","","","","","",""
"null","<img src='gifs/ChineseGender1b.gif' style='height:400px;''></img>","","html-keyboard-response","281","1458498","0.0-17.0-1.2","47740","ListA","woman","chinese","CFA10","","","","null","","","","","",""
"null","正在提到","","html-keyboard-response","282","1461518","0.0-17.0-2.2","47740","ListA","woman","chinese","CFA10","","","","null","","","","","",""
"7951.299999713898","","","survey-text","283","1469471","0.0-17.0-3.2","47740","ListA","woman","chinese","CFA10","","","","","{""Q0"":""弗雷正在提到凯特""}","<img src='gifs/ChineseGender1b.gif' style='height:400px;''></img>","提到","正在提到","chinese",""
"null","<div style=""font-size:60px;"">+</div>","","html-keyboard-response","284","1469986","0.0-17.0-0.3","47740","ListA","woman","chinese","CFA10","","","","null","","","","","",""
"null","<img src='gifs/ChineseGender3b.gif' style='height:400px;''></img>","","html-keyboard-response","285","1471994","0.0-17.0-1.3","47740","ListA","woman","chinese","CFA10","","","","null","","","","","",""
"null","正在聘用","","html-keyboard-response","286","1475007","0.0-17.0-2.3","47740","ListA","woman","chinese","CFA10","","","","null","","","","","",""
"10808.200000286102","","","survey-text","287","1485817","0.0-17.0-3.3","47740","ListA","woman","chinese","CFA10","","","","","{""Q0"":""麦克正在聘用贝斯""}","<img src='gifs/ChineseGender3b.gif' style='height:400px;''></img>","聘用","正在聘用","chinese",""
"null","<div style=""font-size:60px;"">+</div>","","html-keyboard-response","288","1486320","0.0-17.0-0.4","47740","ListA","woman","chinese","CFA10","","","","null","","","","","",""
"null","<img src='gifs/ChineseGender1a.gif' style='height:400px;''></img>","","html-keyboard-response","289","1488330","0.0-17.0-1.4","47740","ListA","woman","chinese","CFA10","","","","null","","","","","",""
"null","正在表扬","","html-keyboard-response","290","1491338","0.0-17.0-2.4","47740","ListA","woman","chinese","CFA10","","","","null","","","","","",""
"6612.299999713898","","","survey-text","291","1497952","0.0-17.0-3.4","47740","ListA","woman","chinese","CFA10","","","","","{""Q0"":""凯特正在表扬弗雷""}","<img src='gifs/ChineseGender1a.gif' style='height:400px;''></img>","表扬","正在表扬","chinese",""
"null","<div style=""font-size:60px;"">+</div>","","html-keyboard-response","292","1498468","0.0-17.0-0.5","47740","ListA","woman","chinese","CFA10","","","","null","","","","","",""
"null","<img src='gifs/ChineseGender4b.gif' style='height:400px;''></img>","","html-keyboard-response","293","1500476","0.0-17.0-1.5","47740","ListA","woman","chinese","CFA10","","","","null","","","","","",""
"null","正在看着","","html-keyboard-response","294","1503494","0.0-17.0-2.5","47740","ListA","woman","chinese","CFA10","","","","null","","","","","",""
"5659.800000190735","","","survey-text","295","1509156","0.0-17.0-3.5","47740","ListA","woman","chinese","CFA10","","","","","{""Q0"":""凯特正在看着麦克""}","<img src='gifs/ChineseGender4b.gif' style='height:400px;''></img>","看着","正在看着","chinese",""
"null","<div style=""font-size:60px;"">+</div>","","html-keyboard-response","296","1509678","0.0-17.0-0.6","47740","ListA","woman","chinese","CFA10","","","","null","","","","","",""
"null","<img src='gifs/BlackGender1a.gif' style='height:400px;''></img>","","html-keyboard-response","297","1511702","0.0-17.0-1.6","47740","ListA","woman","chinese","CFA10","","","","null","","","","","",""
"null","正在面向","","html-keyboard-response","298","1514710","0.0-17.0-2.6","47740","ListA","woman","chinese","CFA10","","","","null","","","","","",""
"9969.10000038147","","","survey-text","299","1524681","0.0-17.0-3.6","47740","ListA","woman","chinese","CFA10","","","","","{""Q0"":""露丝正在面向卢克""}","<img src='gifs/BlackGender1a.gif' style='height:400px;''></img>","面向","正在面向","chinese",""
"null","<div style=""font-size:60px;"">+</div>","","html-keyboard-response","300","1525193","0.0-17.0-0.7","47740","ListA","woman","chinese","CFA10","","","","null","","","","","",""
"null","<img src='gifs/MaleRace4a.gif' style='height:400px;''></img>","","html-keyboard-response","301","1527203","0.0-17.0-1.7","47740","ListA","woman","chinese","CFA10","","","","null","","","","","",""
"null","正在说服","","html-keyboard-response","302","1530208","0.0-17.0-2.7","47740","ListA","woman","chinese","CFA10","","","","null","","","","","",""
"6890.599999904633","","","survey-text","303","1537100","0.0-17.0-3.7","47740","ListA","woman","chinese","CFA10","","","","","{""Q0"":""麦克正在说服戴夫""}","<img src='gifs/MaleRace4a.gif' style='height:400px;''></img>","说服","正在说服","chinese",""
"null","<div style=""font-size:60px;"">+</div>","","html-keyboard-response","304","1537615","0.0-17.0-0.8","47740","ListA","woman","chinese","CFA10","","","","null","","","","","",""
"null","<img src='gifs/ChineseGender4a.gif' style='height:400px;''></img>","","html-keyboard-response","305","1539625","0.0-17.0-1.8","47740","ListA","woman","chinese","CFA10","","","","null","","","","","",""
"null","正在聘用","","html-keyboard-response","306","1542643","0.0-17.0-2.8","47740","ListA","woman","chinese","CFA10","","","","null","","","","","",""
"8187.700000286102","","","survey-text","307","1550832","0.0-17.0-3.8","47740","ListA","woman","chinese","CFA10","","","","","{""Q0"":""麦克正在聘用凯特""}","<img src='gifs/ChineseGender4a.gif' style='height:400px;''></img>","聘用","正在聘用","chinese",""
"null","<div style=""font-size:60px;"">+</div>","","html-keyboard-response","308","1551344","0.0-17.0-0.9","47740","ListA","woman","chinese","CFA10","","","","null","","","","","",""
"null","<img src='gifs/FemaleRace2a.gif' style='height:400px;''></img>","","html-keyboard-response","309","1553358","0.0-17.0-1.9","47740","ListA","woman","chinese","CFA10","","","","null","","","","","",""
"null","正在说服","","html-keyboard-response","310","1556373","0.0-17.0-2.9","47740","ListA","woman","chinese","CFA10","","","","null","","","","","",""
"252486.5","","","survey-text","311","1808861","0.0-17.0-3.9","47740","ListA","woman","chinese","CFA10","","","","","{""Q0"":""凯特正在说服霍普""}","<img src='gifs/FemaleRace2a.gif' style='height:400px;''></img>","说服","正在说服","chinese",""
"null","<div style=""font-size:60px;"">+</div>","","html-keyboard-response","312","1809376","0.0-17.0-0.10","47740","ListA","woman","chinese","CFA10","","","","null","","","","","",""
"null","<img src='gifs/ChineseGender2b.gif' style='height:400px;''></img>","","html-keyboard-response","313","1811386","0.0-17.0-1.10","47740","ListA","woman","chinese","CFA10","","","","null","","","","","",""
"null","正在跟随","","html-keyboard-response","314","1814404","0.0-17.0-2.10","47740","ListA","woman","chinese","CFA10","","","","null","","","","","",""
"9320.799999713898","","","survey-text","315","1823727","0.0-17.0-3.10","47740","ListA","woman","chinese","CFA10","","","","","{""Q0"":""贝斯正在跟随弗雷""}","<img src='gifs/ChineseGender2b.gif' style='height:400px;''></img>","跟随","正在跟随","chinese",""
"null","<div style=""font-size:60px;"">+</div>","","html-keyboard-response","316","1824242","0.0-17.0-0.11","47740","ListA","woman","chinese","CFA10","","","","null","","","","","",""
"null","<img src='gifs/ChineseGender3a.gif' style='height:400px;''></img>","","html-keyboard-response","317","1826259","0.0-17.0-1.11","47740","ListA","woman","chinese","CFA10","","","","null","","","","","",""
"null","正在联系","","html-keyboard-response","318","1829273","0.0-17.0-2.11","47740","ListA","woman","chinese","CFA10","","","","null","","","","","",""
"6073.800000190735","","","survey-text","319","1835349","0.0-17.0-3.11","47740","ListA","woman","chinese","CFA10","","","","","{""Q0"":""贝斯正在联系麦克""}","<img src='gifs/ChineseGender3a.gif' style='height:400px;''></img>","联系","正在联系","chinese",""
"null","<div style=""font-size:60px;"">+</div>","","html-keyboard-response","320","1835870","0.0-17.0-0.12","47740","ListA","woman","chinese","CFA10","","","","null","","","","","",""
"null","<img src='gifs/BlackGender2b.gif' style='height:400px;''></img>","","html-keyboard-response","321","1837879","0.0-17.0-1.12","47740","ListA","woman","chinese","CFA10","","","","null","","","","","",""
"null","正在表扬","","html-keyboard-response","322","1840894","0.0-17.0-2.12","47740","ListA","woman","chinese","CFA10","","","","null","","","","","",""
"7020.400000095367","","","survey-text","323","1847917","0.0-17.0-3.12","47740","ListA","woman","chinese","CFA10","","","","","{""Q0"":""露丝正在表扬戴夫""}","<img src='gifs/BlackGender2b.gif' style='height:400px;''></img>","表扬","正在表扬","chinese",""
"null","<div style=""font-size:60px;"">+</div>","","html-keyboard-response","324","1848431","0.0-17.0-0.13","47740","ListA","woman","chinese","CFA10","","","","null","","","","","",""
"null","<img src='gifs/ChineseGender2a.gif' style='height:400px;''></img>","","html-keyboard-response","325","1850449","0.0-17.0-1.13","47740","ListA","woman","chinese","CFA10","","","","null","","","","","",""
"null","正在聆听","","html-keyboard-response","326","1853464","0.0-17.0-2.13","47740","ListA","woman","chinese","CFA10","","","","null","","","","","",""
"8101.599999904633","","","survey-text","327","1861567","0.0-17.0-3.13","47740","ListA","woman","chinese","CFA10","","","","","{""Q0"":""弗雷正在聆听贝斯""}","<img src='gifs/ChineseGender2a.gif' style='height:400px;''></img>","聆听","正在聆听","chinese",""
"null","<div style=""font-size:60px;"">+</div>","","html-keyboard-response","328","1862081","0.0-17.0-0.14","47740","ListA","woman","chinese","CFA10","","","","null","","","","","",""
"null","<img src='gifs/BlackGender3a.gif' style='height:400px;''></img>","","html-keyboard-response","329","1864096","0.0-17.0-1.14","47740","ListA","woman","chinese","CFA10","","","","null","","","","","",""
"null","正在触摸","","html-keyboard-response","330","1867119","0.0-17.0-2.14","47740","ListA","woman","chinese","CFA10","","","","null","","","","","",""
"5909.199999809265","","","survey-text","331","1873030","0.0-17.0-3.14","47740","ListA","woman","chinese","CFA10","","","","","{""Q0"":""霍普正在触摸卢克""}","<img src='gifs/BlackGender3a.gif' style='height:400px;''></img>","触摸","正在触摸","chinese",""
"null","<div style=""font-size:60px;"">+</div>","","html-keyboard-response","332","1873548","0.0-17.0-0.15","47740","ListA","woman","chinese","CFA10","","","","null","","","","","",""
"null","<img src='gifs/BlackGender3a.gif' style='height:400px;''></img>","","html-keyboard-response","333","1875567","0.0-17.0-1.15","47740","ListA","woman","chinese","CFA10","","","","null","","","","","",""
"null","正在走向","","html-keyboard-response","334","1878582","0.0-17.0-2.15","47740","ListA","woman","chinese","CFA10","","","","null","","","","","",""
"8122.199999809265","","","survey-text","335","1886706","0.0-17.0-3.15","47740","ListA","woman","chinese","CFA10","","","","","{""Q0"":""霍普正在走向卢克""}","<img src='gifs/BlackGender3a.gif' style='height:400px;''></img>","走向","正在走向","chinese",""
"null","<div style=""font-size:60px;"">+</div>","","html-keyboard-response","336","1887223","0.0-17.0-0.16","47740","ListA","woman","chinese","CFA10","","","","null","","","","","",""
"null","<img src='gifs/MaleRace4a.gif' style='height:400px;''></img>","","html-keyboard-response","337","1889233","0.0-17.0-1.16","47740","ListA","woman","chinese","CFA10","","","","null","","","","","",""
"null","正在陪伴","","html-keyboard-response","338","1892254","0.0-17.0-2.16","47740","ListA","woman","chinese","CFA10","","","","null","","","","","",""
"7811.900000095367","","","survey-text","339","1900067","0.0-17.0-3.16","47740","ListA","woman","chinese","CFA10","","","","","{""Q0"":""戴夫正在陪伴麦克""}","<img src='gifs/MaleRace4a.gif' style='height:400px;''></img>","陪伴","正在陪伴","chinese",""
"null","<div style=""font-size:60px;"">+</div>","","html-keyboard-response","340","1900577","0.0-17.0-0.17","47740","ListA","woman","chinese","CFA10","","","","null","","","","","",""
"null","<img src='gifs/FemaleRace1b.gif' style='height:400px;''></img>","","html-keyboard-response","341","1902586","0.0-17.0-1.17","47740","ListA","woman","chinese","CFA10","","","","null","","","","","",""
"null","正在提到","","html-keyboard-response","342","1905602","0.0-17.0-2.17","47740","ListA","woman","chinese","CFA10","","","","null","","","","","",""
"6460.700000286102","","","survey-text","343","1912065","0.0-17.0-3.17","47740","ListA","woman","chinese","CFA10","","","","","{""Q0"":""露丝正在提到凯特""}","<img src='gifs/FemaleRace1b.gif' style='height:400px;''></img>","提到","正在提到","chinese",""
"5039","<p>Thank you for completing that task.</p><p>The final part of this session is a short questionnaire.</p><p>Press Continue.</p>","0","html-button-response","344","1917104","0.0-18.0","47740","ListA","woman","chinese","CFA10","","","","","","","","","",""
"133942.89999961853","","","survey-text","345","2052069","0.0-19.0","47740","ListA","woman","chinese","CFA10","","","","","{""Q0"":""22"",""Q1"":""Chinese"",""Q2"":""Chinese"",""Q3"":""China"",""Q4"":""Chinese"",""Q5"":""Asian"",""Q6"":""Female""}","","","","","demographics"
"6550.5","<p>Have you lived in the UK for the last 5 years or more?</p>","1","html-button-response","346","2058623","0.0-20.0","47740","ListA","woman","chinese","CFA10","","","","","","","","","","fiveyears"
"161662.5","","","external-html","347","2222411","0.0-21.0","47740","ListA","woman","chinese","CFA10","debrief.html","","","","","","","","",""
"21022.800000190735","","","survey-text","348","2243436","0.0-22.0","47740","ListA","woman","chinese","CFA10","","","","","{""ptpt_id"":""CFA10""}","","","","","worker_id"
