"rt","stimulus","button_pressed","trial_type","trial_index","time_elapsed","internal_node_id","subject","list","ppt_gender","ppt_language","ptptID","url","first_guess","correct","key_press","responses","image","verb","phrase","condition","test_part"
"1791.6999999999825","Welcome to the experiment. Press Continue to begin.","0","html-button-response","0","1793","0.0-0.0","56347","ListB","man","chinese","SW_C_M_B8","","","","","","","","","",""
"323726.9","","","external-html","1","324270","0.0-1.0","56347","ListB","man","chinese","SW_C_M_B8","consent.html","","","","","","","","",""
"30496.900000000023","<p>在下一页中，您将看到8个人物肖像和他们各自的名字。</p><p>请花费几分钟的时间记住这些人物及其所对应的名字。</p><p>之后的实验中需要您对人物的名字做出回忆，</p><p>因此在实验开始前请确保您已 经完全记住这些人物及其所对应的名字。</p><p><strong>然后您将完成一个测试以检验您对人物和名字的记忆。</strong></p><p>完成此记忆测试后，您将正式进入实验。</p><p>准备好了吗？</p>","0","html-button-response","2","354767","0.0-2.0","56347","ListB","man","chinese","SW_C_M_B8","","","","","","","","","",""
"31652.599999999977","<img src='img/portrait_matrix_listB_chinese.jpg' style='width:900px;height:500px;''></img><p>如果您已经记住了所有的人物和名字，请点击继续。</p><p><strong>请注意：您对先前记忆的面孔将在本实验中被测试5次。</strong></p>","0","html-button-response","3","387425","0.0-3.0-0.0","56347","ListB","man","chinese","SW_C_M_B8","","","","","","","","","",""
"10366.900000000023","<img src=""portrait/WW1.jpg""style=""height:400px;""></img>","1","html-button-response","4","398796","0.0-3.0-1.0","56347","ListB","man","chinese","SW_C_M_B8","","true","1","","","","","","",""
"null","正确","","html-keyboard-response","5","400314","0.0-3.0-2.0-0.0","56347","ListB","man","chinese","SW_C_M_B8","","","","null","","","","","",""
"3382.4000000000233","<img src=""portrait/BM2.jpg""style=""height:400px;""></img>","5","html-button-response","6","403698","0.0-3.0-4.0","56347","ListB","man","chinese","SW_C_M_B8","","true","5","","","","","","",""
"null","正确","","html-keyboard-response","7","405199","0.0-3.0-5.0-0.0","56347","ListB","man","chinese","SW_C_M_B8","","","","null","","","","","",""
"3497.5999999999767","<img src=""portrait/WM1.jpg""style=""height:400px;""></img>","6","html-button-response","8","408698","0.0-3.0-7.0","56347","ListB","man","chinese","SW_C_M_B8","","true","6","","","","","","",""
"null","正确","","html-keyboard-response","9","410216","0.0-3.0-8.0-0.0","56347","ListB","man","chinese","SW_C_M_B8","","","","null","","","","","",""
"2874.20000000007","<img src=""portrait/BW1.jpg""style=""height:400px;""></img>","0","html-button-response","10","413091","0.0-3.0-10.0","56347","ListB","man","chinese","SW_C_M_B8","","true","0","","","","","","",""
"null","正确","","html-keyboard-response","11","414615","0.0-3.0-11.0-0.0","56347","ListB","man","chinese","SW_C_M_B8","","","","null","","","","","",""
"7356.70000000007","<img src=""portrait/BW2.jpg""style=""height:400px;""></img>","4","html-button-response","12","421973","0.0-3.0-13.0","56347","ListB","man","chinese","SW_C_M_B8","","true","2","","","","","","",""
"4867.20000000007","<img src=""portrait/BW2.jpg""style=""height:400px;""></img>","2","html-button-response","13","427849","0.0-3.0-15.0-0.0","56347","ListB","man","chinese","SW_C_M_B8","","false","2","","","","","","",""
"null","正确","","html-keyboard-response","14","429371","0.0-3.0-15.0-1.0-0.0","56347","ListB","man","chinese","SW_C_M_B8","","","","null","","","","","",""
"2647.4000000000233","<img src=""portrait/WW2.jpg""style=""height:400px;""></img>","3","html-button-response","15","432020","0.0-3.0-16.0","56347","ListB","man","chinese","SW_C_M_B8","","true","3","","","","","","",""
"null","正确","","html-keyboard-response","16","433522","0.0-3.0-17.0-0.0","56347","ListB","man","chinese","SW_C_M_B8","","","","null","","","","","",""
"3031","<img src=""portrait/WM2.jpg""style=""height:400px;""></img>","7","html-button-response","17","436553","0.0-3.0-19.0","56347","ListB","man","chinese","SW_C_M_B8","","true","7","","","","","","",""
"null","正确","","html-keyboard-response","18","438059","0.0-3.0-20.0-0.0","56347","ListB","man","chinese","SW_C_M_B8","","","","null","","","","","",""
"6634","<img src=""portrait/BM1.jpg""style=""height:400px;""></img>","5","html-button-response","19","444694","0.0-3.0-22.0","56347","ListB","man","chinese","SW_C_M_B8","","true","4","","","","","","",""
"2607.5","<img src=""portrait/BM1.jpg""style=""height:400px;""></img>","4","html-button-response","20","448317","0.0-3.0-24.0-0.0","56347","ListB","man","chinese","SW_C_M_B8","","false","4","","","","","","",""
"null","正确","","html-keyboard-response","21","449818","0.0-3.0-24.0-1.0-0.0","56347","ListB","man","chinese","SW_C_M_B8","","","","null","","","","","",""
"3596.79999999993","<p>您第一次在8题里答对了 6 题。 请点击继续</p>","0","html-button-response","22","453416","0.0-3.0-25.0","56347","ListB","man","chinese","SW_C_M_B8","","","","","","","","","",""
"1609.8000000000466","因为您没有全部答对，记忆游戏将重新开始。请点击继续。","0","html-button-response","23","456035","0.0-3.0-26.0-0.0","56347","ListB","man","chinese","SW_C_M_B8","","","","","","","","","",""
"2860.6999999999534","<img src='img/portrait_matrix_listB_chinese.jpg' style='width:900px;height:500px;''></img><p>如果您已经记住了所有的人物和名字，请点击继续。</p><p><strong>请注意：您对先前记忆的面孔将在本实验中被测试5次。</strong></p>","0","html-button-response","24","459898","0.0-3.1-0.1","56347","ListB","man","chinese","SW_C_M_B8","","","","","","","","","",""
"2953.4000000000233","<img src=""portrait/WW1.jpg""style=""height:400px;""></img>","1","html-button-response","25","463853","0.0-3.1-1.1","56347","ListB","man","chinese","SW_C_M_B8","","true","1","","","","","","",""
"null","正确","","html-keyboard-response","26","465358","0.0-3.1-2.1-0.1","56347","ListB","man","chinese","SW_C_M_B8","","","","null","","","","","",""
"3693.79999999993","<img src=""portrait/BM2.jpg""style=""height:400px;""></img>","5","html-button-response","27","469053","0.0-3.1-4.1","56347","ListB","man","chinese","SW_C_M_B8","","true","5","","","","","","",""
"null","正确","","html-keyboard-response","28","470566","0.0-3.1-5.1-0.1","56347","ListB","man","chinese","SW_C_M_B8","","","","null","","","","","",""
"2588","<img src=""portrait/WM1.jpg""style=""height:400px;""></img>","6","html-button-response","29","473155","0.0-3.1-7.1","56347","ListB","man","chinese","SW_C_M_B8","","true","6","","","","","","",""
"null","正确","","html-keyboard-response","30","474658","0.0-3.1-8.1-0.1","56347","ListB","man","chinese","SW_C_M_B8","","","","null","","","","","",""
"4059.5999999999767","<img src=""portrait/BW1.jpg""style=""height:400px;""></img>","0","html-button-response","31","478719","0.0-3.1-10.1","56347","ListB","man","chinese","SW_C_M_B8","","true","0","","","","","","",""
"null","正确","","html-keyboard-response","32","480247","0.0-3.1-11.1-0.1","56347","ListB","man","chinese","SW_C_M_B8","","","","null","","","","","",""
"3674.20000000007","<img src=""portrait/BW2.jpg""style=""height:400px;""></img>","2","html-button-response","33","483922","0.0-3.1-13.1","56347","ListB","man","chinese","SW_C_M_B8","","true","2","","","","","","",""
"null","正确","","html-keyboard-response","34","485432","0.0-3.1-14.1-0.1","56347","ListB","man","chinese","SW_C_M_B8","","","","null","","","","","",""
"2437.0999999999767","<img src=""portrait/WW2.jpg""style=""height:400px;""></img>","3","html-button-response","35","487870","0.0-3.1-16.1","56347","ListB","man","chinese","SW_C_M_B8","","true","3","","","","","","",""
"null","正确","","html-keyboard-response","36","489377","0.0-3.1-17.1-0.1","56347","ListB","man","chinese","SW_C_M_B8","","","","null","","","","","",""
"2852.79999999993","<img src=""portrait/WM2.jpg""style=""height:400px;""></img>","7","html-button-response","37","492231","0.0-3.1-19.1","56347","ListB","man","chinese","SW_C_M_B8","","true","7","","","","","","",""
"null","正确","","html-keyboard-response","38","493739","0.0-3.1-20.1-0.1","56347","ListB","man","chinese","SW_C_M_B8","","","","null","","","","","",""
"3325.8000000000466","<img src=""portrait/BM1.jpg""style=""height:400px;""></img>","4","html-button-response","39","497066","0.0-3.1-22.1","56347","ListB","man","chinese","SW_C_M_B8","","true","4","","","","","","",""
"null","正确","","html-keyboard-response","40","498579","0.0-3.1-23.1-0.1","56347","ListB","man","chinese","SW_C_M_B8","","","","null","","","","","",""
"1434.7000000000698","<p>您第一次在8题里答对了 8 题。 请点击继续</p>","0","html-button-response","41","500015","0.0-3.1-25.1","56347","ListB","man","chinese","SW_C_M_B8","","","","","","","","","",""
"34387","<p>此次实验您将会看到先前记忆任务里的人物照片。</p><p>人物照片消失后您将看到一个动词短语，请正确回忆人物的名字并用特定的 动词短语组成一句完整的句子。</p><p>请在指定的框内输入您的答案。在进入下一题之前请确保您填写了完整的句子。</p><p>人物照片和动词短语只会在屏幕上出现几秒钟，因此请您答题时尽量集中注意力。</p><p>以下是例子。请您在准备好后按下“继续”。</p><img src='img/chinese_speaking_example.jpg' style='width:800px;height:460px;''></img>","0","html-button-response","42","535406","0.0-4.0","56347","ListB","man","chinese","SW_C_M_B8","","","","","","","","","",""
"1239.4000000000233","<p>在实验开始前，将为您展示两个示例实验。</p>","0","html-button-response","43","537647","0.0-5.0","56347","ListB","man","chinese","SW_C_M_B8","","","","","","","","","",""
"null","<img src='img/meet.gif' style='height:400px;''></img>","","html-keyboard-response","44","540657","0.0-6.0","56347","ListB","man","chinese","SW_C_M_B8","","","","null","","","","","",""
"null","<p>正在约见</p>","","html-keyboard-response","45","542665","0.0-7.0","56347","ListB","man","chinese","SW_C_M_B8","","","","null","","","","","",""
"10864.300000000047","<p><b>答案：</b> 霍普正在约见露丝</p>","0","html-button-response","46","553530","0.0-8.0","56347","ListB","man","chinese","SW_C_M_B8","","","","","","","","","",""
"null","<img src='img/spy.gif' style='height:400px;''></img>","","html-keyboard-response","47","556549","0.0-9.0","56347","ListB","man","chinese","SW_C_M_B8","","","","null","","","","","",""
"null","<p>正在监视</p>","","html-keyboard-response","48","558555","0.0-10.0","56347","ListB","man","chinese","SW_C_M_B8","","","","null","","","","","",""
"6459.300000000047","<p><b>答案：</b> 弗雷正在监视麦克</p>","0","html-button-response","49","565015","0.0-11.0","56347","ListB","man","chinese","SW_C_M_B8","","","","","","","","","",""
"5232.099999999977","<p>准备好开始了吗？</p><br><p><strong>请记住，您的答案需是一句完整的句子</strong></p><p><strong>，并用给到的图片人物和动词短语作答。</strong></p><p><strong>只有正确并完整完成实验才可获得报酬。</strong></p><p><strong> 您不需要加入任何标点符号。</strong></p><br><p>请按 ‘继续’ 键开始。</p>","0","html-button-response","50","571253","0.0-12.0","56347","ListB","man","chinese","SW_C_M_B8","","","","","","","","","",""
"null","<div style=""font-size:60px;"">+</div>","","html-keyboard-response","51","572761","0.0-13.0-0.0","56347","ListB","man","chinese","SW_C_M_B8","","","","null","","","","","",""
"null","<img src='gifs/MaleRace2b.gif' style='height:400px;''></img>","","html-keyboard-response","52","574763","0.0-13.0-1.0","56347","ListB","man","chinese","SW_C_M_B8","","","","null","","","","","",""
"null","正在提到","","html-keyboard-response","53","577765","0.0-13.0-2.0","56347","ListB","man","chinese","SW_C_M_B8","","","","null","","","","","",""
"23591.5","","","survey-text","54","601381","0.0-13.0-3.0","56347","ListB","man","chinese","SW_C_M_B8","","","","","{""Q0"":""麦克正在提到卢克""}","<img src='gifs/MaleRace2b.gif' style='height:400px;''></img>","提到","正在提到","chinese",""
"null","<div style=""font-size:60px;"">+</div>","","html-keyboard-response","55","601883","0.0-13.0-0.1","56347","ListB","man","chinese","SW_C_M_B8","","","","null","","","","","",""
"null","<img src='gifs/FemaleRace4a.gif' style='height:400px;''></img>","","html-keyboard-response","56","603884","0.0-13.0-1.1","56347","ListB","man","chinese","SW_C_M_B8","","","","null","","","","","",""
"null","正在聆听","","html-keyboard-response","57","606898","0.0-13.0-2.1","56347","ListB","man","chinese","SW_C_M_B8","","","","null","","","","","",""
"36685.5","","","survey-text","58","643584","0.0-13.0-3.1","56347","ListB","man","chinese","SW_C_M_B8","","","","","{""Q0"":""凯特正在监视露丝""}","<img src='gifs/FemaleRace4a.gif' style='height:400px;''></img>","聆听","正在聆听","chinese",""
"null","<div style=""font-size:60px;"">+</div>","","html-keyboard-response","59","644085","0.0-13.0-0.2","56347","ListB","man","chinese","SW_C_M_B8","","","","null","","","","","",""
"null","<img src='gifs/BlackGender1a.gif' style='height:400px;''></img>","","html-keyboard-response","60","646087","0.0-13.0-1.2","56347","ListB","man","chinese","SW_C_M_B8","","","","null","","","","","",""
"null","正在接近","","html-keyboard-response","61","649087","0.0-13.0-2.2","56347","ListB","man","chinese","SW_C_M_B8","","","","null","","","","","",""
"49136.09999999998","","","survey-text","62","698225","0.0-13.0-3.2","56347","ListB","man","chinese","SW_C_M_B8","","","","","{""Q0"":""贝斯正在接近弗雷""}","<img src='gifs/BlackGender1a.gif' style='height:400px;''></img>","接近","正在接近","chinese",""
"null","<div style=""font-size:60px;"">+</div>","","html-keyboard-response","63","698727","0.0-13.0-0.3","56347","ListB","man","chinese","SW_C_M_B8","","","","null","","","","","",""
"null","<img src='gifs/ChineseGender4a.gif' style='height:400px;''></img>","","html-keyboard-response","64","700729","0.0-13.0-1.3","56347","ListB","man","chinese","SW_C_M_B8","","","","null","","","","","",""
"null","正在陪伴","","html-keyboard-response","65","703730","0.0-13.0-2.3","56347","ListB","man","chinese","SW_C_M_B8","","","","null","","","","","",""
"37177.5","","","survey-text","66","740909","0.0-13.0-3.3","56347","ListB","man","chinese","SW_C_M_B8","","","","","{""Q0"":""戴夫正在陪伴霍普""}","<img src='gifs/ChineseGender4a.gif' style='height:400px;''></img>","陪伴","正在陪伴","chinese",""
"null","<div style=""font-size:60px;"">+</div>","","html-keyboard-response","67","741422","0.0-13.0-0.4","56347","ListB","man","chinese","SW_C_M_B8","","","","null","","","","","",""
"null","<img src='gifs/FemaleRace1a.gif' style='height:400px;''></img>","","html-keyboard-response","68","743425","0.0-13.0-1.4","56347","ListB","man","chinese","SW_C_M_B8","","","","null","","","","","",""
"null","正在表扬","","html-keyboard-response","69","746428","0.0-13.0-2.4","56347","ListB","man","chinese","SW_C_M_B8","","","","null","","","","","",""
"36016.89999999991","","","survey-text","70","782446","0.0-13.0-3.4","56347","ListB","man","chinese","SW_C_M_B8","","","","","{""Q0"":""贝斯正在表扬霍普""}","<img src='gifs/FemaleRace1a.gif' style='height:400px;''></img>","表扬","正在表扬","chinese",""
"null","<div style=""font-size:60px;"">+</div>","","html-keyboard-response","71","782948","0.0-13.0-0.5","56347","ListB","man","chinese","SW_C_M_B8","","","","null","","","","","",""
"null","<img src='gifs/BlackGender4b.gif' style='height:400px;''></img>","","html-keyboard-response","72","784950","0.0-13.0-1.5","56347","ListB","man","chinese","SW_C_M_B8","","","","null","","","","","",""
"null","正在走向","","html-keyboard-response","73","787963","0.0-13.0-2.5","56347","ListB","man","chinese","SW_C_M_B8","","","","null","","","","","",""
"22457.599999999977","","","survey-text","74","810421","0.0-13.0-3.5","56347","ListB","man","chinese","SW_C_M_B8","","","","","{""Q0"":""麦克正在走向凯特""}","<img src='gifs/BlackGender4b.gif' style='height:400px;''></img>","走向","正在走向","chinese",""
"null","<div style=""font-size:60px;"">+</div>","","html-keyboard-response","75","810925","0.0-13.0-0.6","56347","ListB","man","chinese","SW_C_M_B8","","","","null","","","","","",""
"null","<img src='gifs/MaleRace1a.gif' style='height:400px;''></img>","","html-keyboard-response","76","812942","0.0-13.0-1.6","56347","ListB","man","chinese","SW_C_M_B8","","","","null","","","","","",""
"null","正在走向","","html-keyboard-response","77","815944","0.0-13.0-2.6","56347","ListB","man","chinese","SW_C_M_B8","","","","null","","","","","",""
"33384.89999999991","","","survey-text","78","849331","0.0-13.0-3.6","56347","ListB","man","chinese","SW_C_M_B8","","","","","{""Q0"":""卢克正在走向弗雷""}","<img src='gifs/MaleRace1a.gif' style='height:400px;''></img>","走向","正在走向","chinese",""
"null","<div style=""font-size:60px;"">+</div>","","html-keyboard-response","79","849833","0.0-13.0-0.7","56347","ListB","man","chinese","SW_C_M_B8","","","","null","","","","","",""
"null","<img src='gifs/BlackGender1b.gif' style='height:400px;''></img>","","html-keyboard-response","80","851847","0.0-13.0-1.7","56347","ListB","man","chinese","SW_C_M_B8","","","","null","","","","","",""
"null","正在接近","","html-keyboard-response","81","854863","0.0-13.0-2.7","56347","ListB","man","chinese","SW_C_M_B8","","","","null","","","","","",""
"25956","","","survey-text","82","880821","0.0-13.0-3.7","56347","ListB","man","chinese","SW_C_M_B8","","","","","{""Q0"":""弗雷正在接近贝斯""}","<img src='gifs/BlackGender1b.gif' style='height:400px;''></img>","接近","正在接近","chinese",""
"null","<div style=""font-size:60px;"">+</div>","","html-keyboard-response","83","881328","0.0-13.0-0.8","56347","ListB","man","chinese","SW_C_M_B8","","","","null","","","","","",""
"null","<img src='gifs/ChineseGender4b.gif' style='height:400px;''></img>","","html-keyboard-response","84","883331","0.0-13.0-1.8","56347","ListB","man","chinese","SW_C_M_B8","","","","null","","","","","",""
"null","正在联系","","html-keyboard-response","85","886332","0.0-13.0-2.8","56347","ListB","man","chinese","SW_C_M_B8","","","","null","","","","","",""
"28493.09999999986","","","survey-text","86","914826","0.0-13.0-3.8","56347","ListB","man","chinese","SW_C_M_B8","","","","","{""Q0"":""霍普正在联系戴夫""}","<img src='gifs/ChineseGender4b.gif' style='height:400px;''></img>","联系","正在联系","chinese",""
"null","<div style=""font-size:60px;"">+</div>","","html-keyboard-response","87","915328","0.0-13.0-0.9","56347","ListB","man","chinese","SW_C_M_B8","","","","null","","","","","",""
"null","<img src='gifs/ChineseGender4a.gif' style='height:400px;''></img>","","html-keyboard-response","88","917329","0.0-13.0-1.9","56347","ListB","man","chinese","SW_C_M_B8","","","","null","","","","","",""
"null","正在面向","","html-keyboard-response","89","920343","0.0-13.0-2.9","56347","ListB","man","chinese","SW_C_M_B8","","","","null","","","","","",""
"34958","","","survey-text","90","955302","0.0-13.0-3.9","56347","ListB","man","chinese","SW_C_M_B8","","","","","{""Q0"":""霍普正在面向戴夫""}","<img src='gifs/ChineseGender4a.gif' style='height:400px;''></img>","面向","正在面向","chinese",""
"null","<div style=""font-size:60px;"">+</div>","","html-keyboard-response","91","955817","0.0-13.0-0.10","56347","ListB","man","chinese","SW_C_M_B8","","","","null","","","","","",""
"null","<img src='gifs/FemaleRace2a.gif' style='height:400px;''></img>","","html-keyboard-response","92","957821","0.0-13.0-1.10","56347","ListB","man","chinese","SW_C_M_B8","","","","null","","","","","",""
"null","正在接近","","html-keyboard-response","93","960822","0.0-13.0-2.10","56347","ListB","man","chinese","SW_C_M_B8","","","","null","","","","","",""
"29248.199999999953","","","survey-text","94","990071","0.0-13.0-3.10","56347","ListB","man","chinese","SW_C_M_B8","","","","","{""Q0"":""霍普正在接近凯特""}","<img src='gifs/FemaleRace2a.gif' style='height:400px;''></img>","接近","正在接近","chinese",""
"null","<div style=""font-size:60px;"">+</div>","","html-keyboard-response","95","990583","0.0-13.0-0.11","56347","ListB","man","chinese","SW_C_M_B8","","","","null","","","","","",""
"null","<img src='gifs/MaleRace2a.gif' style='height:400px;''></img>","","html-keyboard-response","96","992589","0.0-13.0-1.11","56347","ListB","man","chinese","SW_C_M_B8","","","","null","","","","","",""
"null","正在触摸","","html-keyboard-response","97","995601","0.0-13.0-2.11","56347","ListB","man","chinese","SW_C_M_B8","","","","null","","","","","",""
"26404.799999999814","","","survey-text","98","1022007","0.0-13.0-3.11","56347","ListB","man","chinese","SW_C_M_B8","","","","","{""Q0"":""卢克正在触摸麦克""}","<img src='gifs/MaleRace2a.gif' style='height:400px;''></img>","触摸","正在触摸","chinese",""
"null","<div style=""font-size:60px;"">+</div>","","html-keyboard-response","99","1022518","0.0-13.0-0.12","56347","ListB","man","chinese","SW_C_M_B8","","","","null","","","","","",""
"null","<img src='gifs/ChineseGender3b.gif' style='height:400px;''></img>","","html-keyboard-response","100","1024520","0.0-13.0-1.12","56347","ListB","man","chinese","SW_C_M_B8","","","","null","","","","","",""
"null","正在答应","","html-keyboard-response","101","1027533","0.0-13.0-2.12","56347","ListB","man","chinese","SW_C_M_B8","","","","null","","","","","",""
"33285.70000000007","","","survey-text","102","1060820","0.0-13.0-3.12","56347","ListB","man","chinese","SW_C_M_B8","","","","","{""Q0"":""露丝正在答应戴夫""}","<img src='gifs/ChineseGender3b.gif' style='height:400px;''></img>","答应","正在答应","chinese",""
"null","<div style=""font-size:60px;"">+</div>","","html-keyboard-response","103","1061321","0.0-13.0-0.13","56347","ListB","man","chinese","SW_C_M_B8","","","","null","","","","","",""
"null","<img src='gifs/ChineseGender2b.gif' style='height:400px;''></img>","","html-keyboard-response","104","1063325","0.0-13.0-1.13","56347","ListB","man","chinese","SW_C_M_B8","","","","null","","","","","",""
"null","正在介绍","","html-keyboard-response","105","1066326","0.0-13.0-2.13","56347","ListB","man","chinese","SW_C_M_B8","","","","null","","","","","",""
"23928.399999999907","","","survey-text","106","1090255","0.0-13.0-3.13","56347","ListB","man","chinese","SW_C_M_B8","","","","","{""Q0"":""露丝正在介绍卢克""}","<img src='gifs/ChineseGender2b.gif' style='height:400px;''></img>","介绍","正在介绍","chinese",""
"null","<div style=""font-size:60px;"">+</div>","","html-keyboard-response","107","1090768","0.0-13.0-0.14","56347","ListB","man","chinese","SW_C_M_B8","","","","null","","","","","",""
"null","<img src='gifs/FemaleRace4a.gif' style='height:400px;''></img>","","html-keyboard-response","108","1092775","0.0-13.0-1.14","56347","ListB","man","chinese","SW_C_M_B8","","","","null","","","","","",""
"null","正在看着","","html-keyboard-response","109","1095777","0.0-13.0-2.14","56347","ListB","man","chinese","SW_C_M_B8","","","","null","","","","","",""
"19362","","","survey-text","110","1115139","0.0-13.0-3.14","56347","ListB","man","chinese","SW_C_M_B8","","","","","{""Q0"":""露丝正在看着凯特""}","<img src='gifs/FemaleRace4a.gif' style='height:400px;''></img>","看着","正在看着","chinese",""
"null","<div style=""font-size:60px;"">+</div>","","html-keyboard-response","111","1115642","0.0-13.0-0.15","56347","ListB","man","chinese","SW_C_M_B8","","","","null","","","","","",""
"null","<img src='gifs/ChineseGender1b.gif' style='height:400px;''></img>","","html-keyboard-response","112","1117659","0.0-13.0-1.15","56347","ListB","man","chinese","SW_C_M_B8","","","","null","","","","","",""
"null","正在介绍","","html-keyboard-response","113","1120668","0.0-13.0-2.15","56347","ListB","man","chinese","SW_C_M_B8","","","","null","","","","","",""
"30554.59999999986","","","survey-text","114","1151224","0.0-13.0-3.15","56347","ListB","man","chinese","SW_C_M_B8","","","","","{""Q0"":""霍普正在介绍卢克""}","<img src='gifs/ChineseGender1b.gif' style='height:400px;''></img>","介绍","正在介绍","chinese",""
"null","<div style=""font-size:60px;"">+</div>","","html-keyboard-response","115","1151728","0.0-13.0-0.16","56347","ListB","man","chinese","SW_C_M_B8","","","","null","","","","","",""
"null","<img src='gifs/MaleRace2b.gif' style='height:400px;''></img>","","html-keyboard-response","116","1153736","0.0-13.0-1.16","56347","ListB","man","chinese","SW_C_M_B8","","","","null","","","","","",""
"null","正在聘用","","html-keyboard-response","117","1156738","0.0-13.0-2.16","56347","ListB","man","chinese","SW_C_M_B8","","","","null","","","","","",""
"16196.59999999986","","","survey-text","118","1172936","0.0-13.0-3.16","56347","ListB","man","chinese","SW_C_M_B8","","","","","{""Q0"":""卢克正在聘用麦克""}","<img src='gifs/MaleRace2b.gif' style='height:400px;''></img>","聘用","正在聘用","chinese",""
"null","<div style=""font-size:60px;"">+</div>","","html-keyboard-response","119","1173448","0.0-13.0-0.17","56347","ListB","man","chinese","SW_C_M_B8","","","","null","","","","","",""
"null","<img src='gifs/ChineseGender3a.gif' style='height:400px;''></img>","","html-keyboard-response","120","1175452","0.0-13.0-1.17","56347","ListB","man","chinese","SW_C_M_B8","","","","null","","","","","",""
"null","正在聘用","","html-keyboard-response","121","1178459","0.0-13.0-2.17","56347","ListB","man","chinese","SW_C_M_B8","","","","null","","","","","",""
"23690.699999999953","","","survey-text","122","1202152","0.0-13.0-3.17","56347","ListB","man","chinese","SW_C_M_B8","","","","","{""Q0"":""戴夫正在聘用露丝""}","<img src='gifs/ChineseGender3a.gif' style='height:400px;''></img>","聘用","正在聘用","chinese",""
"7413.90000000014","<img src='img/portrait_matrix_listB_chinese.jpg' style='width:900px;height:500px;''></img><p>如果您已经记住了所有的人物和名字，请点击继续。</p><p><strong>请注意：您对先前记忆的面孔将在本实验中被测试5次。</strong></p>","0","html-button-response","123","1209566","0.0-14.0-0.0","56347","ListB","man","chinese","SW_C_M_B8","","","","","","","","","",""
"31883.200000000186","<img src=""portrait/BM1.jpg""style=""height:400px;""></img>","4","html-button-response","124","1242452","0.0-14.0-1.0","56347","ListB","man","chinese","SW_C_M_B8","","true","4","","","","","","",""
"null","正确","","html-keyboard-response","125","1243961","0.0-14.0-2.0-0.0","56347","ListB","man","chinese","SW_C_M_B8","","","","null","","","","","",""
"2795.6999999999534","<img src=""portrait/BM2.jpg""style=""height:400px;""></img>","5","html-button-response","126","1246757","0.0-14.0-4.0","56347","ListB","man","chinese","SW_C_M_B8","","true","5","","","","","","",""
"null","正确","","html-keyboard-response","127","1248260","0.0-14.0-5.0-0.0","56347","ListB","man","chinese","SW_C_M_B8","","","","null","","","","","",""
"2002.3999999999069","<img src=""portrait/WW2.jpg""style=""height:400px;""></img>","3","html-button-response","128","1250263","0.0-14.0-7.0","56347","ListB","man","chinese","SW_C_M_B8","","true","3","","","","","","",""
"null","正确","","html-keyboard-response","129","1251793","0.0-14.0-8.0-0.0","56347","ListB","man","chinese","SW_C_M_B8","","","","null","","","","","",""
"4015.5","<img src=""portrait/BW2.jpg""style=""height:400px;""></img>","2","html-button-response","130","1255810","0.0-14.0-10.0","56347","ListB","man","chinese","SW_C_M_B8","","true","2","","","","","","",""
"null","正确","","html-keyboard-response","131","1257331","0.0-14.0-11.0-0.0","56347","ListB","man","chinese","SW_C_M_B8","","","","null","","","","","",""
"2148.6999999999534","<img src=""portrait/WW1.jpg""style=""height:400px;""></img>","1","html-button-response","132","1259481","0.0-14.0-13.0","56347","ListB","man","chinese","SW_C_M_B8","","true","1","","","","","","",""
"null","正确","","html-keyboard-response","133","1261002","0.0-14.0-14.0-0.0","56347","ListB","man","chinese","SW_C_M_B8","","","","null","","","","","",""
"2144.899999999907","<img src=""portrait/WM2.jpg""style=""height:400px;""></img>","7","html-button-response","134","1263148","0.0-14.0-16.0","56347","ListB","man","chinese","SW_C_M_B8","","true","7","","","","","","",""
"null","正确","","html-keyboard-response","135","1264664","0.0-14.0-17.0-0.0","56347","ListB","man","chinese","SW_C_M_B8","","","","null","","","","","",""
"3283.1999999999534","<img src=""portrait/BW1.jpg""style=""height:400px;""></img>","0","html-button-response","136","1267948","0.0-14.0-19.0","56347","ListB","man","chinese","SW_C_M_B8","","true","0","","","","","","",""
"null","正确","","html-keyboard-response","137","1269449","0.0-14.0-20.0-0.0","56347","ListB","man","chinese","SW_C_M_B8","","","","null","","","","","",""
"2614.1999999999534","<img src=""portrait/WM1.jpg""style=""height:400px;""></img>","6","html-button-response","138","1272064","0.0-14.0-22.0","56347","ListB","man","chinese","SW_C_M_B8","","true","6","","","","","","",""
"null","正确","","html-keyboard-response","139","1273583","0.0-14.0-23.0-0.0","56347","ListB","man","chinese","SW_C_M_B8","","","","null","","","","","",""
"3698","<p>您第一次在8题里答对了 8 题。 请点击继续</p>","0","html-button-response","140","1277282","0.0-14.0-25.0","56347","ListB","man","chinese","SW_C_M_B8","","","","","","","","","",""
"null","<div style=""font-size:60px;"">+</div>","","html-keyboard-response","141","1278795","0.0-15.0-0.0","56347","ListB","man","chinese","SW_C_M_B8","","","","null","","","","","",""
"null","<img src='gifs/FemaleRace2b.gif' style='height:400px;''></img>","","html-keyboard-response","142","1280806","0.0-15.0-1.0","56347","ListB","man","chinese","SW_C_M_B8","","","","null","","","","","",""
"null","正在说服","","html-keyboard-response","143","1283807","0.0-15.0-2.0","56347","ListB","man","chinese","SW_C_M_B8","","","","null","","","","","",""
"24749.09999999986","","","survey-text","144","1308557","0.0-15.0-3.0","56347","ListB","man","chinese","SW_C_M_B8","","","","","{""Q0"":""霍普正在说服凯特""}","<img src='gifs/FemaleRace2b.gif' style='height:400px;''></img>","说服","正在说服","chinese",""
"null","<div style=""font-size:60px;"">+</div>","","html-keyboard-response","145","1309066","0.0-15.0-0.1","56347","ListB","man","chinese","SW_C_M_B8","","","","null","","","","","",""
"null","<img src='gifs/FemaleRace4b.gif' style='height:400px;''></img>","","html-keyboard-response","146","1311069","0.0-15.0-1.1","56347","ListB","man","chinese","SW_C_M_B8","","","","null","","","","","",""
"null","正在聘用","","html-keyboard-response","147","1314069","0.0-15.0-2.1","56347","ListB","man","chinese","SW_C_M_B8","","","","null","","","","","",""
"19728.699999999953","","","survey-text","148","1333799","0.0-15.0-3.1","56347","ListB","man","chinese","SW_C_M_B8","","","","","{""Q0"":""露丝正在聘用凯特""}","<img src='gifs/FemaleRace4b.gif' style='height:400px;''></img>","聘用","正在聘用","chinese",""
"null","<div style=""font-size:60px;"">+</div>","","html-keyboard-response","149","1334309","0.0-15.0-0.2","56347","ListB","man","chinese","SW_C_M_B8","","","","null","","","","","",""
"null","<img src='gifs/BlackGender1a.gif' style='height:400px;''></img>","","html-keyboard-response","150","1336316","0.0-15.0-1.2","56347","ListB","man","chinese","SW_C_M_B8","","","","null","","","","","",""
"null","正在面向","","html-keyboard-response","151","1339317","0.0-15.0-2.2","56347","ListB","man","chinese","SW_C_M_B8","","","","null","","","","","",""
"23302.699999999953","","","survey-text","152","1362621","0.0-15.0-3.2","56347","ListB","man","chinese","SW_C_M_B8","","","","","{""Q0"":""弗雷正在面向贝斯""}","<img src='gifs/BlackGender1a.gif' style='height:400px;''></img>","面向","正在面向","chinese",""
"null","<div style=""font-size:60px;"">+</div>","","html-keyboard-response","153","1363137","0.0-15.0-0.3","56347","ListB","man","chinese","SW_C_M_B8","","","","null","","","","","",""
"null","<img src='gifs/FemaleRace2b.gif' style='height:400px;''></img>","","html-keyboard-response","154","1365144","0.0-15.0-1.3","56347","ListB","man","chinese","SW_C_M_B8","","","","null","","","","","",""
"null","正在表扬","","html-keyboard-response","155","1368156","0.0-15.0-2.3","56347","ListB","man","chinese","SW_C_M_B8","","","","null","","","","","",""
"27345.299999999814","","","survey-text","156","1395502","0.0-15.0-3.3","56347","ListB","man","chinese","SW_C_M_B8","","","","","{""Q0"":""凯特正在表扬霍普""}","<img src='gifs/FemaleRace2b.gif' style='height:400px;''></img>","表扬","正在表扬","chinese",""
"null","<div style=""font-size:60px;"">+</div>","","html-keyboard-response","157","1396003","0.0-15.0-0.4","56347","ListB","man","chinese","SW_C_M_B8","","","","null","","","","","",""
"null","<img src='gifs/FemaleRace1b.gif' style='height:400px;''></img>","","html-keyboard-response","158","1398019","0.0-15.0-1.4","56347","ListB","man","chinese","SW_C_M_B8","","","","null","","","","","",""
"null","正在联系","","html-keyboard-response","159","1401020","0.0-15.0-2.4","56347","ListB","man","chinese","SW_C_M_B8","","","","null","","","","","",""
"14406","","","survey-text","160","1415427","0.0-15.0-3.4","56347","ListB","man","chinese","SW_C_M_B8","","","","","{""Q0"":""霍普正在联系贝斯""}","<img src='gifs/FemaleRace1b.gif' style='height:400px;''></img>","联系","正在联系","chinese",""
"null","<div style=""font-size:60px;"">+</div>","","html-keyboard-response","161","1415939","0.0-15.0-0.5","56347","ListB","man","chinese","SW_C_M_B8","","","","null","","","","","",""
"null","<img src='gifs/FemaleRace4b.gif' style='height:400px;''></img>","","html-keyboard-response","162","1417947","0.0-15.0-1.5","56347","ListB","man","chinese","SW_C_M_B8","","","","null","","","","","",""
"null","正在表扬","","html-keyboard-response","163","1420948","0.0-15.0-2.5","56347","ListB","man","chinese","SW_C_M_B8","","","","null","","","","","",""
"15240.699999999953","","","survey-text","164","1436190","0.0-15.0-3.5","56347","ListB","man","chinese","SW_C_M_B8","","","","","{""Q0"":""凯特正在表演露丝""}","<img src='gifs/FemaleRace4b.gif' style='height:400px;''></img>","表扬","正在表扬","chinese",""
"null","<div style=""font-size:60px;"">+</div>","","html-keyboard-response","165","1436704","0.0-15.0-0.6","56347","ListB","man","chinese","SW_C_M_B8","","","","null","","","","","",""
"null","<img src='gifs/FemaleRace1b.gif' style='height:400px;''></img>","","html-keyboard-response","166","1438715","0.0-15.0-1.6","56347","ListB","man","chinese","SW_C_M_B8","","","","null","","","","","",""
"null","正在表扬","","html-keyboard-response","167","1441726","0.0-15.0-2.6","56347","ListB","man","chinese","SW_C_M_B8","","","","null","","","","","",""
"18746","","","survey-text","168","1460473","0.0-15.0-3.6","56347","ListB","man","chinese","SW_C_M_B8","","","","","{""Q0"":""贝斯正在表扬霍普""}","<img src='gifs/FemaleRace1b.gif' style='height:400px;''></img>","表扬","正在表扬","chinese",""
"null","<div style=""font-size:60px;"">+</div>","","html-keyboard-response","169","1460984","0.0-15.0-0.7","56347","ListB","man","chinese","SW_C_M_B8","","","","null","","","","","",""
"null","<img src='gifs/BlackGender2b.gif' style='height:400px;''></img>","","html-keyboard-response","170","1462987","0.0-15.0-1.7","56347","ListB","man","chinese","SW_C_M_B8","","","","null","","","","","",""
"null","正在答应","","html-keyboard-response","171","1465988","0.0-15.0-2.7","56347","ListB","man","chinese","SW_C_M_B8","","","","null","","","","","",""
"17865.100000000093","","","survey-text","172","1483854","0.0-15.0-3.7","56347","ListB","man","chinese","SW_C_M_B8","","","","","{""Q0"":""贝斯正在答应麦克""}","<img src='gifs/BlackGender2b.gif' style='height:400px;''></img>","答应","正在答应","chinese",""
"null","<div style=""font-size:60px;"">+</div>","","html-keyboard-response","173","1484357","0.0-15.0-0.8","56347","ListB","man","chinese","SW_C_M_B8","","","","null","","","","","",""
"null","<img src='gifs/BlackGender2b.gif' style='height:400px;''></img>","","html-keyboard-response","174","1486363","0.0-15.0-1.8","56347","ListB","man","chinese","SW_C_M_B8","","","","null","","","","","",""
"null","正在加入","","html-keyboard-response","175","1489371","0.0-15.0-2.8","56347","ListB","man","chinese","SW_C_M_B8","","","","null","","","","","",""
"12999.800000000047","","","survey-text","176","1502372","0.0-15.0-3.8","56347","ListB","man","chinese","SW_C_M_B8","","","","","{""Q0"":""贝斯正在加入麦克""}","<img src='gifs/BlackGender2b.gif' style='height:400px;''></img>","加入","正在加入","chinese",""
"null","<div style=""font-size:60px;"">+</div>","","html-keyboard-response","177","1502875","0.0-15.0-0.9","56347","ListB","man","chinese","SW_C_M_B8","","","","null","","","","","",""
"null","<img src='gifs/ChineseGender2a.gif' style='height:400px;''></img>","","html-keyboard-response","178","1504878","0.0-15.0-1.9","56347","ListB","man","chinese","SW_C_M_B8","","","","null","","","","","",""
"null","正在加入","","html-keyboard-response","179","1507879","0.0-15.0-2.9","56347","ListB","man","chinese","SW_C_M_B8","","","","null","","","","","",""
"17090.300000000047","","","survey-text","180","1524970","0.0-15.0-3.9","56347","ListB","man","chinese","SW_C_M_B8","","","","","{""Q0"":""卢克正在加入露丝""}","<img src='gifs/ChineseGender2a.gif' style='height:400px;''></img>","加入","正在加入","chinese",""
"null","<div style=""font-size:60px;"">+</div>","","html-keyboard-response","181","1525478","0.0-15.0-0.10","56347","ListB","man","chinese","SW_C_M_B8","","","","null","","","","","",""
"null","<img src='gifs/ChineseGender1a.gif' style='height:400px;''></img>","","html-keyboard-response","182","1527483","0.0-15.0-1.10","56347","ListB","man","chinese","SW_C_M_B8","","","","null","","","","","",""
"null","正在触摸","","html-keyboard-response","183","1530484","0.0-15.0-2.10","56347","ListB","man","chinese","SW_C_M_B8","","","","null","","","","","",""
"14639.899999999907","","","survey-text","184","1545125","0.0-15.0-3.10","56347","ListB","man","chinese","SW_C_M_B8","","","","","{""Q0"":""卢克正在触摸霍普""}","<img src='gifs/ChineseGender1a.gif' style='height:400px;''></img>","触摸","正在触摸","chinese",""
"null","<div style=""font-size:60px;"">+</div>","","html-keyboard-response","185","1545635","0.0-15.0-0.11","56347","ListB","man","chinese","SW_C_M_B8","","","","null","","","","","",""
"null","<img src='gifs/BlackGender3a.gif' style='height:400px;''></img>","","html-keyboard-response","186","1547652","0.0-15.0-1.11","56347","ListB","man","chinese","SW_C_M_B8","","","","null","","","","","",""
"null","正在联系","","html-keyboard-response","187","1550653","0.0-15.0-2.11","56347","ListB","man","chinese","SW_C_M_B8","","","","null","","","","","",""
"17791.100000000093","","","survey-text","188","1568445","0.0-15.0-3.11","56347","ListB","man","chinese","SW_C_M_B8","","","","","{""Q0"":""凯特正在联系弗雷""}","<img src='gifs/BlackGender3a.gif' style='height:400px;''></img>","联系","正在联系","chinese",""
"null","<div style=""font-size:60px;"">+</div>","","html-keyboard-response","189","1568957","0.0-15.0-0.12","56347","ListB","man","chinese","SW_C_M_B8","","","","null","","","","","",""
"null","<img src='gifs/BlackGender3b.gif' style='height:400px;''></img>","","html-keyboard-response","190","1570967","0.0-15.0-1.12","56347","ListB","man","chinese","SW_C_M_B8","","","","null","","","","","",""
"null","正在看着","","html-keyboard-response","191","1573970","0.0-15.0-2.12","56347","ListB","man","chinese","SW_C_M_B8","","","","null","","","","","",""
"12326.199999999953","","","survey-text","192","1586297","0.0-15.0-3.12","56347","ListB","man","chinese","SW_C_M_B8","","","","","{""Q0"":""弗雷正在看着凯特""}","<img src='gifs/BlackGender3b.gif' style='height:400px;''></img>","看着","正在看着","chinese",""
"null","<div style=""font-size:60px;"">+</div>","","html-keyboard-response","193","1586807","0.0-15.0-0.13","56347","ListB","man","chinese","SW_C_M_B8","","","","null","","","","","",""
"null","<img src='gifs/BlackGender4a.gif' style='height:400px;''></img>","","html-keyboard-response","194","1588809","0.0-15.0-1.13","56347","ListB","man","chinese","SW_C_M_B8","","","","null","","","","","",""
"null","正在面向","","html-keyboard-response","195","1591821","0.0-15.0-2.13","56347","ListB","man","chinese","SW_C_M_B8","","","","null","","","","","",""
"15841.5","","","survey-text","196","1607664","0.0-15.0-3.13","56347","ListB","man","chinese","SW_C_M_B8","","","","","{""Q0"":""凯特正在面向麦克""}","<img src='gifs/BlackGender4a.gif' style='height:400px;''></img>","面向","正在面向","chinese",""
"null","<div style=""font-size:60px;"">+</div>","","html-keyboard-response","197","1608179","0.0-15.0-0.14","56347","ListB","man","chinese","SW_C_M_B8","","","","null","","","","","",""
"null","<img src='gifs/ChineseGender3a.gif' style='height:400px;''></img>","","html-keyboard-response","198","1610186","0.0-15.0-1.14","56347","ListB","man","chinese","SW_C_M_B8","","","","null","","","","","",""
"null","正在答应","","html-keyboard-response","199","1613187","0.0-15.0-2.14","56347","ListB","man","chinese","SW_C_M_B8","","","","null","","","","","",""
"17271.59999999986","","","survey-text","200","1630460","0.0-15.0-3.14","56347","ListB","man","chinese","SW_C_M_B8","","","","","{""Q0"":""露丝正在答应戴夫""}","<img src='gifs/ChineseGender3a.gif' style='height:400px;''></img>","答应","正在答应","chinese",""
"null","<div style=""font-size:60px;"">+</div>","","html-keyboard-response","201","1630967","0.0-15.0-0.15","56347","ListB","man","chinese","SW_C_M_B8","","","","null","","","","","",""
"null","<img src='gifs/MaleRace4b.gif' style='height:400px;''></img>","","html-keyboard-response","202","1632970","0.0-15.0-1.15","56347","ListB","man","chinese","SW_C_M_B8","","","","null","","","","","",""
"null","正在接近","","html-keyboard-response","203","1635981","0.0-15.0-2.15","56347","ListB","man","chinese","SW_C_M_B8","","","","null","","","","","",""
"14465.699999999953","","","survey-text","204","1650448","0.0-15.0-3.15","56347","ListB","man","chinese","SW_C_M_B8","","","","","{""Q0"":""麦克正在接近戴夫""}","<img src='gifs/MaleRace4b.gif' style='height:400px;''></img>","接近","正在接近","chinese",""
"null","<div style=""font-size:60px;"">+</div>","","html-keyboard-response","205","1650954","0.0-15.0-0.16","56347","ListB","man","chinese","SW_C_M_B8","","","","null","","","","","",""
"null","<img src='gifs/MaleRace3a.gif' style='height:400px;''></img>","","html-keyboard-response","206","1652956","0.0-15.0-1.16","56347","ListB","man","chinese","SW_C_M_B8","","","","null","","","","","",""
"null","正在提到","","html-keyboard-response","207","1655961","0.0-15.0-2.16","56347","ListB","man","chinese","SW_C_M_B8","","","","null","","","","","",""
"18933.600000000093","","","survey-text","208","1674896","0.0-15.0-3.16","56347","ListB","man","chinese","SW_C_M_B8","","","","","{""Q0"":""戴夫正在提到弗雷""}","<img src='gifs/MaleRace3a.gif' style='height:400px;''></img>","提到","正在提到","chinese",""
"null","<div style=""font-size:60px;"">+</div>","","html-keyboard-response","209","1675412","0.0-15.0-0.17","56347","ListB","man","chinese","SW_C_M_B8","","","","null","","","","","",""
"null","<img src='gifs/BlackGender2a.gif' style='height:400px;''></img>","","html-keyboard-response","210","1677423","0.0-15.0-1.17","56347","ListB","man","chinese","SW_C_M_B8","","","","null","","","","","",""
"null","正在触摸","","html-keyboard-response","211","1680425","0.0-15.0-2.17","56347","ListB","man","chinese","SW_C_M_B8","","","","null","","","","","",""
"17608.700000000186","","","survey-text","212","1698035","0.0-15.0-3.17","56347","ListB","man","chinese","SW_C_M_B8","","","","","{""Q0"":""贝斯正在触摸麦克""}","<img src='gifs/BlackGender2a.gif' style='height:400px;''></img>","触摸","正在触摸","chinese",""
"3299.6999999999534","<img src='img/portrait_matrix_listB_chinese.jpg' style='width:900px;height:500px;''></img><p>如果您已经记住了所有的人物和名字，请点击继续。</p><p><strong>请注意：您对先前记忆的面孔将在本实验中被测试5次。</strong></p>","0","html-button-response","213","1701335","0.0-16.0-0.0","56347","ListB","man","chinese","SW_C_M_B8","","","","","","","","","",""
"3980.8000000000466","<img src=""portrait/BM2.jpg""style=""height:400px;""></img>","5","html-button-response","214","1706322","0.0-16.0-1.0","56347","ListB","man","chinese","SW_C_M_B8","","true","5","","","","","","",""
"null","正确","","html-keyboard-response","215","1707833","0.0-16.0-2.0-0.0","56347","ListB","man","chinese","SW_C_M_B8","","","","null","","","","","",""
"2766.3000000000466","<img src=""portrait/BM1.jpg""style=""height:400px;""></img>","4","html-button-response","216","1710600","0.0-16.0-4.0","56347","ListB","man","chinese","SW_C_M_B8","","true","4","","","","","","",""
"null","正确","","html-keyboard-response","217","1712115","0.0-16.0-5.0-0.0","56347","ListB","man","chinese","SW_C_M_B8","","","","null","","","","","",""
"2481.399999999907","<img src=""portrait/WM2.jpg""style=""height:400px;""></img>","7","html-button-response","218","1714597","0.0-16.0-7.0","56347","ListB","man","chinese","SW_C_M_B8","","true","7","","","","","","",""
"null","正确","","html-keyboard-response","219","1716122","0.0-16.0-8.0-0.0","56347","ListB","man","chinese","SW_C_M_B8","","","","null","","","","","",""
"2148.5","<img src=""portrait/WW1.jpg""style=""height:400px;""></img>","1","html-button-response","220","1718271","0.0-16.0-10.0","56347","ListB","man","chinese","SW_C_M_B8","","true","1","","","","","","",""
"null","正确","","html-keyboard-response","221","1719795","0.0-16.0-11.0-0.0","56347","ListB","man","chinese","SW_C_M_B8","","","","null","","","","","",""
"2571.399999999907","<img src=""portrait/BW2.jpg""style=""height:400px;""></img>","2","html-button-response","222","1722367","0.0-16.0-13.0","56347","ListB","man","chinese","SW_C_M_B8","","true","2","","","","","","",""
"null","正确","","html-keyboard-response","223","1723871","0.0-16.0-14.0-0.0","56347","ListB","man","chinese","SW_C_M_B8","","","","null","","","","","",""
"1694.8000000000466","<img src=""portrait/WW2.jpg""style=""height:400px;""></img>","3","html-button-response","224","1725566","0.0-16.0-16.0","56347","ListB","man","chinese","SW_C_M_B8","","true","3","","","","","","",""
"null","正确","","html-keyboard-response","225","1727079","0.0-16.0-17.0-0.0","56347","ListB","man","chinese","SW_C_M_B8","","","","null","","","","","",""
"2825.8000000000466","<img src=""portrait/WM1.jpg""style=""height:400px;""></img>","6","html-button-response","226","1729906","0.0-16.0-19.0","56347","ListB","man","chinese","SW_C_M_B8","","true","6","","","","","","",""
"null","正确","","html-keyboard-response","227","1731418","0.0-16.0-20.0-0.0","56347","ListB","man","chinese","SW_C_M_B8","","","","null","","","","","",""
"3451.1999999999534","<img src=""portrait/BW1.jpg""style=""height:400px;""></img>","0","html-button-response","228","1734870","0.0-16.0-22.0","56347","ListB","man","chinese","SW_C_M_B8","","true","0","","","","","","",""
"null","正确","","html-keyboard-response","229","1736394","0.0-16.0-23.0-0.0","56347","ListB","man","chinese","SW_C_M_B8","","","","null","","","","","",""
"3909.5","<p>您第一次在8题里答对了 8 题。 请点击继续</p>","0","html-button-response","230","1740304","0.0-16.0-25.0","56347","ListB","man","chinese","SW_C_M_B8","","","","","","","","","",""
"null","<div style=""font-size:60px;"">+</div>","","html-keyboard-response","231","1741828","0.0-17.0-0.0","56347","ListB","man","chinese","SW_C_M_B8","","","","null","","","","","",""
"null","<img src='gifs/FemaleRace2a.gif' style='height:400px;''></img>","","html-keyboard-response","232","1743838","0.0-17.0-1.0","56347","ListB","man","chinese","SW_C_M_B8","","","","null","","","","","",""
"null","正在聘用","","html-keyboard-response","233","1746843","0.0-17.0-2.0","56347","ListB","man","chinese","SW_C_M_B8","","","","null","","","","","",""
"16403.700000000186","","","survey-text","234","1763248","0.0-17.0-3.0","56347","ListB","man","chinese","SW_C_M_B8","","","","","{""Q0"":""霍普正在聘用凯特""}","<img src='gifs/FemaleRace2a.gif' style='height:400px;''></img>","聘用","正在聘用","chinese",""
"null","<div style=""font-size:60px;"">+</div>","","html-keyboard-response","235","1763749","0.0-17.0-0.1","56347","ListB","man","chinese","SW_C_M_B8","","","","null","","","","","",""
"null","<img src='gifs/BlackGender2a.gif' style='height:400px;''></img>","","html-keyboard-response","236","1765764","0.0-17.0-1.1","56347","ListB","man","chinese","SW_C_M_B8","","","","null","","","","","",""
"null","正在聆听","","html-keyboard-response","237","1768765","0.0-17.0-2.1","56347","ListB","man","chinese","SW_C_M_B8","","","","null","","","","","",""
"17083.100000000093","","","survey-text","238","1785849","0.0-17.0-3.1","56347","ListB","man","chinese","SW_C_M_B8","","","","","{""Q0"":""麦克正在聆听贝斯""}","<img src='gifs/BlackGender2a.gif' style='height:400px;''></img>","聆听","正在聆听","chinese",""
"null","<div style=""font-size:60px;"">+</div>","","html-keyboard-response","239","1786358","0.0-17.0-0.2","56347","ListB","man","chinese","SW_C_M_B8","","","","null","","","","","",""
"null","<img src='gifs/MaleRace3b.gif' style='height:400px;''></img>","","html-keyboard-response","240","1788359","0.0-17.0-1.2","56347","ListB","man","chinese","SW_C_M_B8","","","","null","","","","","",""
"null","正在陪伴","","html-keyboard-response","241","1791366","0.0-17.0-2.2","56347","ListB","man","chinese","SW_C_M_B8","","","","null","","","","","",""
"26342.600000000093","","","survey-text","242","1817710","0.0-17.0-3.2","56347","ListB","man","chinese","SW_C_M_B8","","","","","{""Q0"":""弗雷正在陪伴戴夫""}","<img src='gifs/MaleRace3b.gif' style='height:400px;''></img>","陪伴","正在陪伴","chinese",""
"null","<div style=""font-size:60px;"">+</div>","","html-keyboard-response","243","1818220","0.0-17.0-0.3","56347","ListB","man","chinese","SW_C_M_B8","","","","null","","","","","",""
"null","<img src='gifs/MaleRace4a.gif' style='height:400px;''></img>","","html-keyboard-response","244","1820223","0.0-17.0-1.3","56347","ListB","man","chinese","SW_C_M_B8","","","","null","","","","","",""
"null","正在跟随","","html-keyboard-response","245","1823231","0.0-17.0-2.3","56347","ListB","man","chinese","SW_C_M_B8","","","","null","","","","","",""
"26042.300000000047","","","survey-text","246","1849275","0.0-17.0-3.3","56347","ListB","man","chinese","SW_C_M_B8","","","","","{""Q0"":""戴夫正在跟随麦克""}","<img src='gifs/MaleRace4a.gif' style='height:400px;''></img>","跟随","正在跟随","chinese",""
"null","<div style=""font-size:60px;"">+</div>","","html-keyboard-response","247","1849785","0.0-17.0-0.4","56347","ListB","man","chinese","SW_C_M_B8","","","","null","","","","","",""
"null","<img src='gifs/BlackGender4a.gif' style='height:400px;''></img>","","html-keyboard-response","248","1851793","0.0-17.0-1.4","56347","ListB","man","chinese","SW_C_M_B8","","","","null","","","","","",""
"null","正在加入","","html-keyboard-response","249","1854794","0.0-17.0-2.4","56347","ListB","man","chinese","SW_C_M_B8","","","","null","","","","","",""
"12188.90000000014","","","survey-text","250","1866984","0.0-17.0-3.4","56347","ListB","man","chinese","SW_C_M_B8","","","","","{""Q0"":""麦克正在加入凯特""}","<img src='gifs/BlackGender4a.gif' style='height:400px;''></img>","加入","正在加入","chinese",""
"null","<div style=""font-size:60px;"">+</div>","","html-keyboard-response","251","1867486","0.0-17.0-0.5","56347","ListB","man","chinese","SW_C_M_B8","","","","null","","","","","",""
"null","<img src='gifs/MaleRace1b.gif' style='height:400px;''></img>","","html-keyboard-response","252","1869489","0.0-17.0-1.5","56347","ListB","man","chinese","SW_C_M_B8","","","","null","","","","","",""
"null","正在面向","","html-keyboard-response","253","1872489","0.0-17.0-2.5","56347","ListB","man","chinese","SW_C_M_B8","","","","null","","","","","",""
"33156.10000000009","","","survey-text","254","1905646","0.0-17.0-3.5","56347","ListB","man","chinese","SW_C_M_B8","","","","","{""Q0"":""弗雷正在面向卢克""}","<img src='gifs/MaleRace1b.gif' style='height:400px;''></img>","面向","正在面向","chinese",""
"null","<div style=""font-size:60px;"">+</div>","","html-keyboard-response","255","1906157","0.0-17.0-0.6","56347","ListB","man","chinese","SW_C_M_B8","","","","null","","","","","",""
"null","<img src='gifs/FemaleRace3b.gif' style='height:400px;''></img>","","html-keyboard-response","256","1908158","0.0-17.0-1.6","56347","ListB","man","chinese","SW_C_M_B8","","","","null","","","","","",""
"null","正在聆听","","html-keyboard-response","257","1911158","0.0-17.0-2.6","56347","ListB","man","chinese","SW_C_M_B8","","","","null","","","","","",""
"12483.80000000028","","","survey-text","258","1923643","0.0-17.0-3.6","56347","ListB","man","chinese","SW_C_M_B8","","","","","{""Q0"":""露丝正在聆听贝斯""}","<img src='gifs/FemaleRace3b.gif' style='height:400px;''></img>","聆听","正在聆听","chinese",""
"null","<div style=""font-size:60px;"">+</div>","","html-keyboard-response","259","1924158","0.0-17.0-0.7","56347","ListB","man","chinese","SW_C_M_B8","","","","null","","","","","",""
"null","<img src='gifs/ChineseGender2b.gif' style='height:400px;''></img>","","html-keyboard-response","260","1926162","0.0-17.0-1.7","56347","ListB","man","chinese","SW_C_M_B8","","","","null","","","","","",""
"null","正在跟随","","html-keyboard-response","261","1929163","0.0-17.0-2.7","56347","ListB","man","chinese","SW_C_M_B8","","","","null","","","","","",""
"13778","","","survey-text","262","1942942","0.0-17.0-3.7","56347","ListB","man","chinese","SW_C_M_B8","","","","","{""Q0"":""卢克正在跟随露丝""}","<img src='gifs/ChineseGender2b.gif' style='height:400px;''></img>","跟随","正在跟随","chinese",""
"null","<div style=""font-size:60px;"">+</div>","","html-keyboard-response","263","1943444","0.0-17.0-0.8","56347","ListB","man","chinese","SW_C_M_B8","","","","null","","","","","",""
"null","<img src='gifs/FemaleRace1a.gif' style='height:400px;''></img>","","html-keyboard-response","264","1945445","0.0-17.0-1.8","56347","ListB","man","chinese","SW_C_M_B8","","","","null","","","","","",""
"null","正在跟随","","html-keyboard-response","265","1948446","0.0-17.0-2.8","56347","ListB","man","chinese","SW_C_M_B8","","","","null","","","","","",""
"10620.5","","","survey-text","266","1959067","0.0-17.0-3.8","56347","ListB","man","chinese","SW_C_M_B8","","","","","{""Q0"":""霍普正在跟随贝斯""}","<img src='gifs/FemaleRace1a.gif' style='height:400px;''></img>","跟随","正在跟随","chinese",""
"null","<div style=""font-size:60px;"">+</div>","","html-keyboard-response","267","1959576","0.0-17.0-0.9","56347","ListB","man","chinese","SW_C_M_B8","","","","null","","","","","",""
"null","<img src='gifs/MaleRace1b.gif' style='height:400px;''></img>","","html-keyboard-response","268","1961584","0.0-17.0-1.9","56347","ListB","man","chinese","SW_C_M_B8","","","","null","","","","","",""
"null","正在看着","","html-keyboard-response","269","1964585","0.0-17.0-2.9","56347","ListB","man","chinese","SW_C_M_B8","","","","null","","","","","",""
"15756.19999999972","","","survey-text","270","1980342","0.0-17.0-3.9","56347","ListB","man","chinese","SW_C_M_B8","","","","","{""Q0"":""卢克正在看着弗雷""}","<img src='gifs/MaleRace1b.gif' style='height:400px;''></img>","看着","正在看着","chinese",""
"null","<div style=""font-size:60px;"">+</div>","","html-keyboard-response","271","1980849","0.0-17.0-0.10","56347","ListB","man","chinese","SW_C_M_B8","","","","null","","","","","",""
"null","<img src='gifs/FemaleRace3b.gif' style='height:400px;''></img>","","html-keyboard-response","272","1982859","0.0-17.0-1.10","56347","ListB","man","chinese","SW_C_M_B8","","","","null","","","","","",""
"null","正在跟随","","html-keyboard-response","273","1985860","0.0-17.0-2.10","56347","ListB","man","chinese","SW_C_M_B8","","","","null","","","","","",""
"27023.100000000093","","","survey-text","274","2012885","0.0-17.0-3.10","56347","ListB","man","chinese","SW_C_M_B8","","","","","{""Q0"":""贝斯正在跟随露丝""}","<img src='gifs/FemaleRace3b.gif' style='height:400px;''></img>","跟随","正在跟随","chinese",""
"null","<div style=""font-size:60px;"">+</div>","","html-keyboard-response","275","2013386","0.0-17.0-0.11","56347","ListB","man","chinese","SW_C_M_B8","","","","null","","","","","",""
"null","<img src='gifs/MaleRace4a.gif' style='height:400px;''></img>","","html-keyboard-response","276","2015387","0.0-17.0-1.11","56347","ListB","man","chinese","SW_C_M_B8","","","","null","","","","","",""
"null","正在说服","","html-keyboard-response","277","2018390","0.0-17.0-2.11","56347","ListB","man","chinese","SW_C_M_B8","","","","null","","","","","",""
"20119.19999999972","","","survey-text","278","2038510","0.0-17.0-3.11","56347","ListB","man","chinese","SW_C_M_B8","","","","","{""Q0"":""麦克正在说服戴夫""}","<img src='gifs/MaleRace4a.gif' style='height:400px;''></img>","说服","正在说服","chinese",""
"null","<div style=""font-size:60px;"">+</div>","","html-keyboard-response","279","2039022","0.0-17.0-0.12","56347","ListB","man","chinese","SW_C_M_B8","","","","null","","","","","",""
"null","<img src='gifs/BlackGender3a.gif' style='height:400px;''></img>","","html-keyboard-response","280","2041027","0.0-17.0-1.12","56347","ListB","man","chinese","SW_C_M_B8","","","","null","","","","","",""
"null","正在看着","","html-keyboard-response","281","2044028","0.0-17.0-2.12","56347","ListB","man","chinese","SW_C_M_B8","","","","null","","","","","",""
"20671.900000000373","","","survey-text","282","2064701","0.0-17.0-3.12","56347","ListB","man","chinese","SW_C_M_B8","","","","","{""Q0"":""弗雷正在看着凯特""}","<img src='gifs/BlackGender3a.gif' style='height:400px;''></img>","看着","正在看着","chinese",""
"null","<div style=""font-size:60px;"">+</div>","","html-keyboard-response","283","2065207","0.0-17.0-0.13","56347","ListB","man","chinese","SW_C_M_B8","","","","null","","","","","",""
"null","<img src='gifs/MaleRace1a.gif' style='height:400px;''></img>","","html-keyboard-response","284","2067220","0.0-17.0-1.13","56347","ListB","man","chinese","SW_C_M_B8","","","","null","","","","","",""
"null","正在提到","","html-keyboard-response","285","2070229","0.0-17.0-2.13","56347","ListB","man","chinese","SW_C_M_B8","","","","null","","","","","",""
"11352.399999999907","","","survey-text","286","2081583","0.0-17.0-3.13","56347","ListB","man","chinese","SW_C_M_B8","","","","","{""Q0"":""弗雷正在提到卢克""}","<img src='gifs/MaleRace1a.gif' style='height:400px;''></img>","提到","正在提到","chinese",""
"null","<div style=""font-size:60px;"">+</div>","","html-keyboard-response","287","2082097","0.0-17.0-0.14","56347","ListB","man","chinese","SW_C_M_B8","","","","null","","","","","",""
"null","<img src='gifs/MaleRace2a.gif' style='height:400px;''></img>","","html-keyboard-response","288","2084112","0.0-17.0-1.14","56347","ListB","man","chinese","SW_C_M_B8","","","","null","","","","","",""
"null","正在说服","","html-keyboard-response","289","2087113","0.0-17.0-2.14","56347","ListB","man","chinese","SW_C_M_B8","","","","null","","","","","",""
"13854","","","survey-text","290","2100968","0.0-17.0-3.14","56347","ListB","man","chinese","SW_C_M_B8","","","","","{""Q0"":""麦克正在说服卢克""}","<img src='gifs/MaleRace2a.gif' style='height:400px;''></img>","说服","正在说服","chinese",""
"null","<div style=""font-size:60px;"">+</div>","","html-keyboard-response","291","2101483","0.0-17.0-0.15","56347","ListB","man","chinese","SW_C_M_B8","","","","null","","","","","",""
"null","<img src='gifs/ChineseGender1a.gif' style='height:400px;''></img>","","html-keyboard-response","292","2103492","0.0-17.0-1.15","56347","ListB","man","chinese","SW_C_M_B8","","","","null","","","","","",""
"null","正在联系","","html-keyboard-response","293","2106494","0.0-17.0-2.15","56347","ListB","man","chinese","SW_C_M_B8","","","","null","","","","","",""
"9340.700000000186","","","survey-text","294","2115835","0.0-17.0-3.15","56347","ListB","man","chinese","SW_C_M_B8","","","","","{""Q0"":""霍普正在联系卢克""}","<img src='gifs/ChineseGender1a.gif' style='height:400px;''></img>","联系","正在联系","chinese",""
"null","<div style=""font-size:60px;"">+</div>","","html-keyboard-response","295","2116347","0.0-17.0-0.16","56347","ListB","man","chinese","SW_C_M_B8","","","","null","","","","","",""
"null","<img src='gifs/BlackGender3b.gif' style='height:400px;''></img>","","html-keyboard-response","296","2118355","0.0-17.0-1.16","56347","ListB","man","chinese","SW_C_M_B8","","","","null","","","","","",""
"null","正在答应","","html-keyboard-response","297","2121357","0.0-17.0-2.16","56347","ListB","man","chinese","SW_C_M_B8","","","","null","","","","","",""
"22260.400000000373","","","survey-text","298","2143618","0.0-17.0-3.16","56347","ListB","man","chinese","SW_C_M_B8","","","","","{""Q0"":""凯特正在答应弗雷""}","<img src='gifs/BlackGender3b.gif' style='height:400px;''></img>","答应","正在答应","chinese",""
"null","<div style=""font-size:60px;"">+</div>","","html-keyboard-response","299","2144120","0.0-17.0-0.17","56347","ListB","man","chinese","SW_C_M_B8","","","","null","","","","","",""
"null","<img src='gifs/ChineseGender1b.gif' style='height:400px;''></img>","","html-keyboard-response","300","2146130","0.0-17.0-1.17","56347","ListB","man","chinese","SW_C_M_B8","","","","null","","","","","",""
"null","正在陪伴","","html-keyboard-response","301","2149131","0.0-17.0-2.17","56347","ListB","man","chinese","SW_C_M_B8","","","","null","","","","","",""
"33887.40000000037","","","survey-text","302","2183019","0.0-17.0-3.17","56347","ListB","man","chinese","SW_C_M_B8","","","","","{""Q0"":""卢克正在陪伴霍普""}","<img src='gifs/ChineseGender1b.gif' style='height:400px;''></img>","陪伴","正在陪伴","chinese",""
"13984.200000000186","<p>Thank you for completing that task.</p><p>The final part of this session is a short questionnaire.</p><p>Press Continue.</p>","0","html-button-response","303","2197004","0.0-18.0","56347","ListB","man","chinese","SW_C_M_B8","","","","","","","","","",""
"343533.6000000001","","","survey-text","304","2541541","0.0-19.0","56347","ListB","man","chinese","SW_C_M_B8","","","","","{""Q0"":""twenty-two"",""Q1"":""Chinese"",""Q2"":""Chinese"",""Q3"":""China"",""Q4"":""China"",""Q5"":""asian Chinese"",""Q6"":""male""}","","","","","demographics"
"29015.5","<p>Have you lived in the UK for the last 5 years or more?</p>","0","html-button-response","305","2570558","0.0-20.0","56347","ListB","man","chinese","SW_C_M_B8","","","","","","","","","","fiveyears"
"50735.39999999991","","","external-html","306","2623274","0.0-21.0","56347","ListB","man","chinese","SW_C_M_B8","debrief.html","","","","","","","","",""
"131874.1000000001","","","survey-text","307","2755153","0.0-22.0","56347","ListB","man","chinese","SW_C_M_B8","","","","","{""ptpt_id"":""SW_C_M_B8""}","","","","","worker_id"
