"rt","stimulus","button_pressed","trial_type","trial_index","time_elapsed","internal_node_id","subject","list","ppt_gender","ppt_language","url","first_guess","correct","key_press","responses","image","verb","phrase","condition","test_part"
"2850.7999999523163","Welcome to the experiment. Press Continue to begin.","0","html-button-response","0","2852","0.0-0.0","58403","ListB","woman","english","","","","","","","","","",""
"27050.10000014305","","","external-html","1","30934","0.0-1.0","58403","ListB","woman","english","consent.html","","","","","","","","",""
"24805","<p>On the next page, you will see portraits of 8 people and their names.</p><p>Your first task is to take a few minutes to memorise the names of these people.</p><p>You will have to recall their names during the rest of the experiment, so it is</p><p>essential that you try to memorise these people and their names as best as you can.</p><p><strong>You will then be tested on your memory of these names and portraits.</strong></p><p>The experiment will start after you have completed this memory test.</p><p>Ready?</p>","0","html-button-response","2","55739","0.0-2.0","58403","ListB","woman","english","","","","","","","","","",""
"103665.09999990463","<img src='img/portrait_matrix_listB.jpg' style='width:900px;height:500px;''></img><p>If you have memorised all the portraits and names and are ready to start, press Continue.</p><p><strong>Please note: Your memory of these faces will be tested 5 times during this experiment.</strong></p>","0","html-button-response","3","160420","0.0-3.0-0.0","58403","ListB","woman","english","","","","","","","","","",""
"3488.899999856949","<img src=""portrait/BM2.jpg""style=""height:400px;""></img>","5","html-button-response","4","164911","0.0-3.0-1.0","58403","ListB","woman","english","","true","5","","","","","","",""
"null","CORRECT","","html-keyboard-response","5","166445","0.0-3.0-2.0-0.0","58403","ListB","woman","english","","","","null","","","","","",""
"8037.599999904633","<img src=""portrait/BW1.jpg""style=""height:400px;""></img>","1","html-button-response","6","174483","0.0-3.0-4.0","58403","ListB","woman","english","","true","0","","","","","","",""
"4330","<img src=""portrait/BW1.jpg""style=""height:400px;""></img>","0","html-button-response","7","179814","0.0-3.0-6.0-0.0","58403","ListB","woman","english","","false","0","","","","","","",""
"null","CORRECT","","html-keyboard-response","8","181336","0.0-3.0-6.0-1.0-0.0","58403","ListB","woman","english","","","","null","","","","","",""
"6457.899999856949","<img src=""portrait/WM2.jpg""style=""height:400px;""></img>","7","html-button-response","9","187795","0.0-3.0-7.0","58403","ListB","woman","english","","true","7","","","","","","",""
"null","CORRECT","","html-keyboard-response","10","189310","0.0-3.0-8.0-0.0","58403","ListB","woman","english","","","","null","","","","","",""
"5269.099999904633","<img src=""portrait/WW1.jpg""style=""height:400px;""></img>","1","html-button-response","11","194579","0.0-3.0-10.0","58403","ListB","woman","english","","true","1","","","","","","",""
"null","CORRECT","","html-keyboard-response","12","196089","0.0-3.0-11.0-0.0","58403","ListB","woman","english","","","","null","","","","","",""
"3632.5","<img src=""portrait/WM1.jpg""style=""height:400px;""></img>","6","html-button-response","13","199722","0.0-3.0-13.0","58403","ListB","woman","english","","true","6","","","","","","",""
"null","CORRECT","","html-keyboard-response","14","201229","0.0-3.0-14.0-0.0","58403","ListB","woman","english","","","","null","","","","","",""
"1734.5999999046326","<img src=""portrait/BM1.jpg""style=""height:400px;""></img>","4","html-button-response","15","202964","0.0-3.0-16.0","58403","ListB","woman","english","","true","4","","","","","","",""
"null","CORRECT","","html-keyboard-response","16","204466","0.0-3.0-17.0-0.0","58403","ListB","woman","english","","","","null","","","","","",""
"1652","<img src=""portrait/WW2.jpg""style=""height:400px;""></img>","3","html-button-response","17","206118","0.0-3.0-19.0","58403","ListB","woman","english","","true","3","","","","","","",""
"null","CORRECT","","html-keyboard-response","18","207627","0.0-3.0-20.0-0.0","58403","ListB","woman","english","","","","null","","","","","",""
"2441.300000190735","<img src=""portrait/BW2.jpg""style=""height:400px;""></img>","2","html-button-response","19","210070","0.0-3.0-22.0","58403","ListB","woman","english","","true","2","","","","","","",""
"null","CORRECT","","html-keyboard-response","20","211574","0.0-3.0-23.0-0.0","58403","ListB","woman","english","","","","null","","","","","",""
"2306.2000000476837","<p>You got 7 out of 8 right first time. Press Continue.</p>","0","html-button-response","21","213881","0.0-3.0-25.0","58403","ListB","woman","english","","","","","","","","","",""
"3736","As you did not score 100%, the memory game will repeat. Press Continue.","0","html-button-response","22","218632","0.0-3.0-26.0-0.0","58403","ListB","woman","english","","","","","","","","","",""
"3191.2000000476837","<img src='img/portrait_matrix_listB.jpg' style='width:900px;height:500px;''></img><p>If you have memorised all the portraits and names and are ready to start, press Continue.</p><p><strong>Please note: Your memory of these faces will be tested 5 times during this experiment.</strong></p>","0","html-button-response","23","222824","0.0-3.1-0.1","58403","ListB","woman","english","","","","","","","","","",""
"1870.2999999523163","<img src=""portrait/BM2.jpg""style=""height:400px;""></img>","5","html-button-response","24","225708","0.0-3.1-1.1","58403","ListB","woman","english","","true","5","","","","","","",""
"null","CORRECT","","html-keyboard-response","25","227223","0.0-3.1-2.1-0.1","58403","ListB","woman","english","","","","null","","","","","",""
"3676.5","<img src=""portrait/BW1.jpg""style=""height:400px;""></img>","0","html-button-response","26","230900","0.0-3.1-4.1","58403","ListB","woman","english","","true","0","","","","","","",""
"null","CORRECT","","html-keyboard-response","27","232407","0.0-3.1-5.1-0.1","58403","ListB","woman","english","","","","null","","","","","",""
"3626.2000000476837","<img src=""portrait/WM2.jpg""style=""height:400px;""></img>","7","html-button-response","28","236034","0.0-3.1-7.1","58403","ListB","woman","english","","true","7","","","","","","",""
"null","CORRECT","","html-keyboard-response","29","237537","0.0-3.1-8.1-0.1","58403","ListB","woman","english","","","","null","","","","","",""
"4629.099999904633","<img src=""portrait/WW1.jpg""style=""height:400px;""></img>","1","html-button-response","30","242167","0.0-3.1-10.1","58403","ListB","woman","english","","true","1","","","","","","",""
"null","CORRECT","","html-keyboard-response","31","243673","0.0-3.1-11.1-0.1","58403","ListB","woman","english","","","","null","","","","","",""
"5434.300000190735","<img src=""portrait/WM1.jpg""style=""height:400px;""></img>","6","html-button-response","32","249108","0.0-3.1-13.1","58403","ListB","woman","english","","true","6","","","","","","",""
"null","CORRECT","","html-keyboard-response","33","250618","0.0-3.1-14.1-0.1","58403","ListB","woman","english","","","","null","","","","","",""
"1730.2000000476837","<img src=""portrait/BM1.jpg""style=""height:400px;""></img>","4","html-button-response","34","252349","0.0-3.1-16.1","58403","ListB","woman","english","","true","4","","","","","","",""
"null","CORRECT","","html-keyboard-response","35","253868","0.0-3.1-17.1-0.1","58403","ListB","woman","english","","","","null","","","","","",""
"1213","<img src=""portrait/WW2.jpg""style=""height:400px;""></img>","3","html-button-response","36","255082","0.0-3.1-19.1","58403","ListB","woman","english","","true","3","","","","","","",""
"null","CORRECT","","html-keyboard-response","37","256601","0.0-3.1-20.1-0.1","58403","ListB","woman","english","","","","null","","","","","",""
"2011.8999998569489","<img src=""portrait/BW2.jpg""style=""height:400px;""></img>","2","html-button-response","38","258613","0.0-3.1-22.1","58403","ListB","woman","english","","true","2","","","","","","",""
"null","CORRECT","","html-keyboard-response","39","260127","0.0-3.1-23.1-0.1","58403","ListB","woman","english","","","","null","","","","","",""
"34493","<p>You got 8 out of 8 right first time. Press Continue.</p>","0","html-button-response","40","294621","0.0-3.1-25.1","58403","ListB","woman","english","","","","","","","","","",""
"42020.700000047684","<p>In this experiment, you will view photographs of the people from the memory game.</p><p>By using the <strong>exact</strong> phrase given <i>after</i> the photograph appears and recalling the correct names of the people in the photographs, form a sentence describing an interaction. You do not need to capitalise names.</p><p>Type your answer in the space provided. Please complete every sentence before moving onto the next trial.</p><p>You will only have a few seconds to memorise each given photograph and phrase before you can respond, so try your best to focus.</p><p>An example is given below. Press 'Continue' when you are ready.</p><img src='img/speaking_example.jpg' style='width:800px;height:460px;''></img>","0","html-button-response","41","337644","0.0-4.0","58403","ListB","woman","english","","","","","","","","","",""
"3042.800000190735","<p>Before the experiment starts, you will watch two example trials. Press 'Continue'.</p>","0","html-button-response","42","341689","0.0-5.0","58403","ListB","woman","english","","","","","","","","","",""
"null","<img src='img/meet.gif' style='height:400px;''></img>","","html-keyboard-response","43","344707","0.0-6.0","58403","ListB","woman","english","","","","null","","","","","",""
"null","<p>is meeting</p>","","html-keyboard-response","44","346722","0.0-7.0","58403","ListB","woman","english","","","","null","","","","","",""
"2972.2000000476837","<p><b>Answer:</b> jane is meeting ruth</p>","0","html-button-response","45","349695","0.0-8.0","58403","ListB","woman","english","","","","","","","","","",""
"null","<img src='img/spy.gif' style='height:400px;''></img>","","html-keyboard-response","46","352715","0.0-9.0","58403","ListB","woman","english","","","","null","","","","","",""
"null","<p>is being spied on by</p>","","html-keyboard-response","47","354726","0.0-10.0","58403","ListB","woman","english","","","","null","","","","","",""
"4750.700000047684","<p><b>Answer:</b> fred is being spied on by mike</p>","0","html-button-response","48","359477","0.0-11.0","58403","ListB","woman","english","","","","","","","","","",""
"2876.100000143051","<p>Ready to start the experiment?</p><br><p><strong>Remember to describe the picture using a full sentence,</strong></p><p><strong>that combines the names of the people with the <i>exact</i> phrase given.</strong></p><p><strong>To receive full payment you must do this correctly.</strong></p><p><strong> You do not need to capitalise names or use punctuation.</strong></p><br><p>Press 'Continue' to begin.</p>","0","html-button-response","49","363360","0.0-12.0","58403","ListB","woman","english","","","","","","","","","",""
"null","<div style=""font-size:60px;"">+</div>","","html-keyboard-response","50","364871","0.0-13.0-0.0","58403","ListB","woman","english","","","","null","","","","","",""
"null","<img src='gifs/MaleRace3a.gif' style='height:400px;''></img>","","html-keyboard-response","51","366873","0.0-13.0-1.0","58403","ListB","woman","english","","","","null","","","","","",""
"null","is looking at","","html-keyboard-response","52","369886","0.0-13.0-2.0","58403","ListB","woman","english","","","","null","","","","","",""
"14879.599999904633","","","survey-text","53","384767","0.0-13.0-3.0","58403","ListB","woman","english","","","","","{""Q0"":""luke is looking at fred""}","<img src='gifs/MaleRace3a.gif' style='height:400px;''></img>","looking at","is looking at","english",""
"null","<div style=""font-size:60px;"">+</div>","","html-keyboard-response","54","385268","0.0-13.0-0.1","58403","ListB","woman","english","","","","null","","","","","",""
"null","<img src='gifs/MaleRace4a.gif' style='height:400px;''></img>","","html-keyboard-response","55","387269","0.0-13.0-1.1","58403","ListB","woman","english","","","","null","","","","","",""
"null","is accompanying","","html-keyboard-response","56","390285","0.0-13.0-2.1","58403","ListB","woman","english","","","","null","","","","","",""
"11906.800000190735","","","survey-text","57","402192","0.0-13.0-3.1","58403","ListB","woman","english","","","","","{""Q0"":""mike is touching dave""}","<img src='gifs/MaleRace4a.gif' style='height:400px;''></img>","accompanying","is accompanying","english",""
"null","<div style=""font-size:60px;"">+</div>","","html-keyboard-response","58","402699","0.0-13.0-0.2","58403","ListB","woman","english","","","","null","","","","","",""
"null","<img src='gifs/FemaleRace3b.gif' style='height:400px;''></img>","","html-keyboard-response","59","404716","0.0-13.0-1.2","58403","ListB","woman","english","","","","null","","","","","",""
"null","is touching","","html-keyboard-response","60","407720","0.0-13.0-2.2","58403","ListB","woman","english","","","","null","","","","","",""
"23317.89999985695","","","survey-text","61","431039","0.0-13.0-3.2","58403","ListB","woman","english","","","","","{""Q0"":""ruth is touching beth""}","<img src='gifs/FemaleRace3b.gif' style='height:400px;''></img>","touching","is touching","english",""
"null","<div style=""font-size:60px;"">+</div>","","html-keyboard-response","62","431551","0.0-13.0-0.3","58403","ListB","woman","english","","","","null","","","","","",""
"null","<img src='gifs/ChineseGender1a.gif' style='height:400px;''></img>","","html-keyboard-response","63","433552","0.0-13.0-1.3","58403","ListB","woman","english","","","","null","","","","","",""
"null","is mentioning","","html-keyboard-response","64","436552","0.0-13.0-2.3","58403","ListB","woman","english","","","","null","","","","","",""
"29296.700000047684","","","survey-text","65","465850","0.0-13.0-3.3","58403","ListB","woman","english","","","","","{""Q0"":""jane is mentioning luke""}","<img src='gifs/ChineseGender1a.gif' style='height:400px;''></img>","mention","is mentioning","english",""
"null","<div style=""font-size:60px;"">+</div>","","html-keyboard-response","66","466355","0.0-13.0-0.4","58403","ListB","woman","english","","","","null","","","","","",""
"null","<img src='gifs/BlackGender1a.gif' style='height:400px;''></img>","","html-keyboard-response","67","468358","0.0-13.0-1.4","58403","ListB","woman","english","","","","null","","","","","",""
"null","is praising","","html-keyboard-response","68","471371","0.0-13.0-2.4","58403","ListB","woman","english","","","","null","","","","","",""
"19338","","","survey-text","69","490710","0.0-13.0-3.4","58403","ListB","woman","english","","","","","{""Q0"":""fred is praising beth""}","<img src='gifs/BlackGender1a.gif' style='height:400px;''></img>","praising","is praising","english",""
"null","<div style=""font-size:60px;"">+</div>","","html-keyboard-response","70","491218","0.0-13.0-0.5","58403","ListB","woman","english","","","","null","","","","","",""
"null","<img src='gifs/FemaleRace4a.gif' style='height:400px;''></img>","","html-keyboard-response","71","493229","0.0-13.0-1.5","58403","ListB","woman","english","","","","null","","","","","",""
"null","is accompanying","","html-keyboard-response","72","496230","0.0-13.0-2.5","58403","ListB","woman","english","","","","null","","","","","",""
"13552.700000047684","","","survey-text","73","509784","0.0-13.0-3.5","58403","ListB","woman","english","","","","","{""Q0"":""ruth is accompanying kate""}","<img src='gifs/FemaleRace4a.gif' style='height:400px;''></img>","accompanying","is accompanying","english",""
"null","<div style=""font-size:60px;"">+</div>","","html-keyboard-response","74","510286","0.0-13.0-0.6","58403","ListB","woman","english","","","","null","","","","","",""
"null","<img src='gifs/ChineseGender4b.gif' style='height:400px;''></img>","","html-keyboard-response","75","512287","0.0-13.0-1.6","58403","ListB","woman","english","","","","null","","","","","",""
"null","is looking at","","html-keyboard-response","76","515289","0.0-13.0-2.6","58403","ListB","woman","english","","","","null","","","","","",""
"7238.899999856949","","","survey-text","77","522529","0.0-13.0-3.6","58403","ListB","woman","english","","","","","{""Q0"":""dave is looking at jane""}","<img src='gifs/ChineseGender4b.gif' style='height:400px;''></img>","looking at","is looking at","english",""
"null","<div style=""font-size:60px;"">+</div>","","html-keyboard-response","78","523030","0.0-13.0-0.7","58403","ListB","woman","english","","","","null","","","","","",""
"null","<img src='gifs/MaleRace1b.gif' style='height:400px;''></img>","","html-keyboard-response","79","525032","0.0-13.0-1.7","58403","ListB","woman","english","","","","null","","","","","",""
"null","is joining","","html-keyboard-response","80","528034","0.0-13.0-2.7","58403","ListB","woman","english","","","","null","","","","","",""
"7689.300000190735","","","survey-text","81","535724","0.0-13.0-3.7","58403","ListB","woman","english","","","","","{""Q0"":""mike is joining luke""}","<img src='gifs/MaleRace1b.gif' style='height:400px;''></img>","join","is joining","english",""
"null","<div style=""font-size:60px;"">+</div>","","html-keyboard-response","82","536225","0.0-13.0-0.8","58403","ListB","woman","english","","","","null","","","","","",""
"null","<img src='gifs/BlackGender2b.gif' style='height:400px;''></img>","","html-keyboard-response","83","538228","0.0-13.0-1.8","58403","ListB","woman","english","","","","null","","","","","",""
"null","is convincing","","html-keyboard-response","84","541237","0.0-13.0-2.8","58403","ListB","woman","english","","","","null","","","","","",""
"15063.700000047684","","","survey-text","85","556302","0.0-13.0-3.8","58403","ListB","woman","english","","","","","{""Q0"":""mike is convincing beth""}","<img src='gifs/BlackGender2b.gif' style='height:400px;''></img>","convincing","is convincing","english",""
"null","<div style=""font-size:60px;"">+</div>","","html-keyboard-response","86","556806","0.0-13.0-0.9","58403","ListB","woman","english","","","","null","","","","","",""
"null","<img src='gifs/FemaleRace1b.gif' style='height:400px;''></img>","","html-keyboard-response","87","558808","0.0-13.0-1.9","58403","ListB","woman","english","","","","null","","","","","",""
"null","is introducing","","html-keyboard-response","88","561813","0.0-13.0-2.9","58403","ListB","woman","english","","","","null","","","","","",""
"18417.099999904633","","","survey-text","89","580231","0.0-13.0-3.9","58403","ListB","woman","english","","","","","{""Q0"":""jane is introducing beth""}","<img src='gifs/FemaleRace1b.gif' style='height:400px;''></img>","introducing","is introducing","english",""
"null","<div style=""font-size:60px;"">+</div>","","html-keyboard-response","90","580736","0.0-13.0-0.10","58403","ListB","woman","english","","","","null","","","","","",""
"null","<img src='gifs/ChineseGender3b.gif' style='height:400px;''></img>","","html-keyboard-response","91","582752","0.0-13.0-1.10","58403","ListB","woman","english","","","","null","","","","","",""
"null","is praising","","html-keyboard-response","92","585754","0.0-13.0-2.10","58403","ListB","woman","english","","","","null","","","","","",""
"12500.300000190735","","","survey-text","93","598255","0.0-13.0-3.10","58403","ListB","woman","english","","","","","{""Q0"":""ruth is praising dave""}","<img src='gifs/ChineseGender3b.gif' style='height:400px;''></img>","praising","is praising","english",""
"null","<div style=""font-size:60px;"">+</div>","","html-keyboard-response","94","598771","0.0-13.0-0.11","58403","ListB","woman","english","","","","null","","","","","",""
"null","<img src='gifs/ChineseGender2a.gif' style='height:400px;''></img>","","html-keyboard-response","95","600777","0.0-13.0-1.11","58403","ListB","woman","english","","","","null","","","","","",""
"null","is facing","","html-keyboard-response","96","603790","0.0-13.0-2.11","58403","ListB","woman","english","","","","null","","","","","",""
"14050.5","","","survey-text","97","617842","0.0-13.0-3.11","58403","ListB","woman","english","","","","","{""Q0"":""ruth is facing luke""}","<img src='gifs/ChineseGender2a.gif' style='height:400px;''></img>","facing","is facing","english",""
"null","<div style=""font-size:60px;"">+</div>","","html-keyboard-response","98","618348","0.0-13.0-0.12","58403","ListB","woman","english","","","","null","","","","","",""
"null","<img src='gifs/ChineseGender3a.gif' style='height:400px;''></img>","","html-keyboard-response","99","620355","0.0-13.0-1.12","58403","ListB","woman","english","","","","null","","","","","",""
"null","is employing","","html-keyboard-response","100","623357","0.0-13.0-2.12","58403","ListB","woman","english","","","","null","","","","","",""
"10439.100000143051","","","survey-text","101","633797","0.0-13.0-3.12","58403","ListB","woman","english","","","","","{""Q0"":""dave is employing ruth""}","<img src='gifs/ChineseGender3a.gif' style='height:400px;''></img>","employing","is employing","english",""
"null","<div style=""font-size:60px;"">+</div>","","html-keyboard-response","102","634298","0.0-13.0-0.13","58403","ListB","woman","english","","","","null","","","","","",""
"null","<img src='gifs/ChineseGender1a.gif' style='height:400px;''></img>","","html-keyboard-response","103","636299","0.0-13.0-1.13","58403","ListB","woman","english","","","","null","","","","","",""
"null","is approaching","","html-keyboard-response","104","639303","0.0-13.0-2.13","58403","ListB","woman","english","","","","null","","","","","",""
"14099","","","survey-text","105","653403","0.0-13.0-3.13","58403","ListB","woman","english","","","","","{""Q0"":""jane is approaching luke""}","<img src='gifs/ChineseGender1a.gif' style='height:400px;''></img>","approaching","is approaching","english",""
"null","<div style=""font-size:60px;"">+</div>","","html-keyboard-response","106","653903","0.0-13.0-0.14","58403","ListB","woman","english","","","","null","","","","","",""
"null","<img src='gifs/MaleRace2a.gif' style='height:400px;''></img>","","html-keyboard-response","107","655920","0.0-13.0-1.14","58403","ListB","woman","english","","","","null","","","","","",""
"null","is promising","","html-keyboard-response","108","658936","0.0-13.0-2.14","58403","ListB","woman","english","","","","null","","","","","",""
"7319.700000047684","","","survey-text","109","666257","0.0-13.0-3.14","58403","ListB","woman","english","","","","","{""Q0"":""luke is promising mike""}","<img src='gifs/MaleRace2a.gif' style='height:400px;''></img>","promising","is promising","english",""
"null","<div style=""font-size:60px;"">+</div>","","html-keyboard-response","110","666758","0.0-13.0-0.15","58403","ListB","woman","english","","","","null","","","","","",""
"null","<img src='gifs/MaleRace3a.gif' style='height:400px;''></img>","","html-keyboard-response","111","668761","0.0-13.0-1.15","58403","ListB","woman","english","","","","null","","","","","",""
"null","is employing","","html-keyboard-response","112","671769","0.0-13.0-2.15","58403","ListB","woman","english","","","","null","","","","","",""
"8400.5","","","survey-text","113","680170","0.0-13.0-3.15","58403","ListB","woman","english","","","","","{""Q0"":""mike is employing dave ""}","<img src='gifs/MaleRace3a.gif' style='height:400px;''></img>","employing","is employing","english",""
"null","<div style=""font-size:60px;"">+</div>","","html-keyboard-response","114","680674","0.0-13.0-0.16","58403","ListB","woman","english","","","","null","","","","","",""
"null","<img src='gifs/BlackGender4a.gif' style='height:400px;''></img>","","html-keyboard-response","115","682675","0.0-13.0-1.16","58403","ListB","woman","english","","","","null","","","","","",""
"null","is listening to","","html-keyboard-response","116","685678","0.0-13.0-2.16","58403","ListB","woman","english","","","","null","","","","","",""
"11562.899999856949","","","survey-text","117","697242","0.0-13.0-3.16","58403","ListB","woman","english","","","","","{""Q0"":""mike is listening to kate""}","<img src='gifs/BlackGender4a.gif' style='height:400px;''></img>","listening to","is listening to","english",""
"null","<div style=""font-size:60px;"">+</div>","","html-keyboard-response","118","697755","0.0-13.0-0.17","58403","ListB","woman","english","","","","null","","","","","",""
"null","<img src='gifs/FemaleRace2a.gif' style='height:400px;''></img>","","html-keyboard-response","119","699756","0.0-13.0-1.17","58403","ListB","woman","english","","","","null","","","","","",""
"null","is listening to","","html-keyboard-response","120","702757","0.0-13.0-2.17","58403","ListB","woman","english","","","","null","","","","","",""
"9961.199999809265","","","survey-text","121","712720","0.0-13.0-3.17","58403","ListB","woman","english","","","","","{""Q0"":""kate is listening to jane""}","<img src='gifs/FemaleRace2a.gif' style='height:400px;''></img>","listening to","is listening to","english",""
"21022","<img src='img/portrait_matrix_listB.jpg' style='width:900px;height:500px;''></img><p>If you have memorised all the portraits and names and are ready to start, press Continue.</p><p><strong>Please note: Your memory of these faces will be tested 5 times during this experiment.</strong></p>","0","html-button-response","122","733742","0.0-14.0-0.0","58403","ListB","woman","english","","","","","","","","","",""
"3754.7999999523163","<img src=""portrait/BW2.jpg""style=""height:400px;""></img>","2","html-button-response","123","738505","0.0-14.0-1.0","58403","ListB","woman","english","","true","2","","","","","","",""
"null","CORRECT","","html-keyboard-response","124","740019","0.0-14.0-2.0-0.0","58403","ListB","woman","english","","","","null","","","","","",""
"1849.5","<img src=""portrait/BM1.jpg""style=""height:400px;""></img>","5","html-button-response","125","741869","0.0-14.0-4.0","58403","ListB","woman","english","","true","4","","","","","","",""
"2127.7999999523163","<img src=""portrait/BM1.jpg""style=""height:400px;""></img>","4","html-button-response","126","745012","0.0-14.0-6.0-0.0","58403","ListB","woman","english","","false","4","","","","","","",""
"null","CORRECT","","html-keyboard-response","127","746529","0.0-14.0-6.0-1.0-0.0","58403","ListB","woman","english","","","","null","","","","","",""
"1104.1000001430511","<img src=""portrait/BM2.jpg""style=""height:400px;""></img>","5","html-button-response","128","747634","0.0-14.0-7.0","58403","ListB","woman","english","","true","5","","","","","","",""
"null","CORRECT","","html-keyboard-response","129","749146","0.0-14.0-8.0-0.0","58403","ListB","woman","english","","","","null","","","","","",""
"1960.2999999523163","<img src=""portrait/WM2.jpg""style=""height:400px;""></img>","7","html-button-response","130","751107","0.0-14.0-10.0","58403","ListB","woman","english","","true","7","","","","","","",""
"null","CORRECT","","html-keyboard-response","131","752621","0.0-14.0-11.0-0.0","58403","ListB","woman","english","","","","null","","","","","",""
"1018.2000000476837","<img src=""portrait/WM1.jpg""style=""height:400px;""></img>","6","html-button-response","132","753640","0.0-14.0-13.0","58403","ListB","woman","english","","true","6","","","","","","",""
"null","CORRECT","","html-keyboard-response","133","755147","0.0-14.0-14.0-0.0","58403","ListB","woman","english","","","","null","","","","","",""
"1966","<img src=""portrait/BW1.jpg""style=""height:400px;""></img>","0","html-button-response","134","757113","0.0-14.0-16.0","58403","ListB","woman","english","","true","0","","","","","","",""
"null","CORRECT","","html-keyboard-response","135","758625","0.0-14.0-17.0-0.0","58403","ListB","woman","english","","","","null","","","","","",""
"1280.7000000476837","<img src=""portrait/WW2.jpg""style=""height:400px;""></img>","3","html-button-response","136","759906","0.0-14.0-19.0","58403","ListB","woman","english","","true","3","","","","","","",""
"null","CORRECT","","html-keyboard-response","137","761415","0.0-14.0-20.0-0.0","58403","ListB","woman","english","","","","null","","","","","",""
"1372.4000000953674","<img src=""portrait/WW1.jpg""style=""height:400px;""></img>","1","html-button-response","138","762788","0.0-14.0-22.0","58403","ListB","woman","english","","true","1","","","","","","",""
"null","CORRECT","","html-keyboard-response","139","764303","0.0-14.0-23.0-0.0","58403","ListB","woman","english","","","","null","","","","","",""
"1138.4000000953674","<p>You got 7 out of 8 right first time. Press Continue.</p>","0","html-button-response","140","765442","0.0-14.0-25.0","58403","ListB","woman","english","","","","","","","","","",""
"824.1000001430511","As you did not score 100%, the memory game will repeat. Press Continue.","0","html-button-response","141","767276","0.0-14.0-26.0-0.0","58403","ListB","woman","english","","","","","","","","","",""
"920.4000000953674","<img src='img/portrait_matrix_listB.jpg' style='width:900px;height:500px;''></img><p>If you have memorised all the portraits and names and are ready to start, press Continue.</p><p><strong>Please note: Your memory of these faces will be tested 5 times during this experiment.</strong></p>","0","html-button-response","142","769197","0.0-14.1-0.1","58403","ListB","woman","english","","","","","","","","","",""
"1706.2000000476837","<img src=""portrait/BW2.jpg""style=""height:400px;""></img>","2","html-button-response","143","771910","0.0-14.1-1.1","58403","ListB","woman","english","","true","2","","","","","","",""
"null","CORRECT","","html-keyboard-response","144","773411","0.0-14.1-2.1-0.1","58403","ListB","woman","english","","","","null","","","","","",""
"1820.7999999523163","<img src=""portrait/BM1.jpg""style=""height:400px;""></img>","4","html-button-response","145","775233","0.0-14.1-4.1","58403","ListB","woman","english","","true","4","","","","","","",""
"null","CORRECT","","html-keyboard-response","146","776751","0.0-14.1-5.1-0.1","58403","ListB","woman","english","","","","null","","","","","",""
"1412.7000000476837","<img src=""portrait/BM2.jpg""style=""height:400px;""></img>","5","html-button-response","147","778164","0.0-14.1-7.1","58403","ListB","woman","english","","true","5","","","","","","",""
"null","CORRECT","","html-keyboard-response","148","779669","0.0-14.1-8.1-0.1","58403","ListB","woman","english","","","","null","","","","","",""
"2848.800000190735","<img src=""portrait/WM2.jpg""style=""height:400px;""></img>","7","html-button-response","149","782519","0.0-14.1-10.1","58403","ListB","woman","english","","true","7","","","","","","",""
"null","CORRECT","","html-keyboard-response","150","784035","0.0-14.1-11.1-0.1","58403","ListB","woman","english","","","","null","","","","","",""
"944.6000001430511","<img src=""portrait/WM1.jpg""style=""height:400px;""></img>","6","html-button-response","151","784981","0.0-14.1-13.1","58403","ListB","woman","english","","true","6","","","","","","",""
"null","CORRECT","","html-keyboard-response","152","786502","0.0-14.1-14.1-0.1","58403","ListB","woman","english","","","","null","","","","","",""
"2072.100000143051","<img src=""portrait/BW1.jpg""style=""height:400px;""></img>","0","html-button-response","153","788574","0.0-14.1-16.1","58403","ListB","woman","english","","true","0","","","","","","",""
"null","CORRECT","","html-keyboard-response","154","790092","0.0-14.1-17.1-0.1","58403","ListB","woman","english","","","","null","","","","","",""
"1163.7999999523163","<img src=""portrait/WW2.jpg""style=""height:400px;""></img>","3","html-button-response","155","791257","0.0-14.1-19.1","58403","ListB","woman","english","","true","3","","","","","","",""
"null","CORRECT","","html-keyboard-response","156","792778","0.0-14.1-20.1-0.1","58403","ListB","woman","english","","","","null","","","","","",""
"1269.9000000953674","<img src=""portrait/WW1.jpg""style=""height:400px;""></img>","1","html-button-response","157","794049","0.0-14.1-22.1","58403","ListB","woman","english","","true","1","","","","","","",""
"null","CORRECT","","html-keyboard-response","158","795564","0.0-14.1-23.1-0.1","58403","ListB","woman","english","","","","null","","","","","",""
"965.5999999046326","<p>You got 8 out of 8 right first time. Press Continue.</p>","0","html-button-response","159","796530","0.0-14.1-25.1","58403","ListB","woman","english","","","","","","","","","",""
"null","<div style=""font-size:60px;"">+</div>","","html-keyboard-response","160","798052","0.0-15.0-0.0","58403","ListB","woman","english","","","","null","","","","","",""
"null","<img src='gifs/MaleRace2a.gif' style='height:400px;''></img>","","html-keyboard-response","161","800057","0.0-15.0-1.0","58403","ListB","woman","english","","","","null","","","","","",""
"null","is looking at","","html-keyboard-response","162","803072","0.0-15.0-2.0","58403","ListB","woman","english","","","","null","","","","","",""
"8962","","","survey-text","163","812035","0.0-15.0-3.0","58403","ListB","woman","english","","","","","{""Q0"":""mike is looking at luke""}","<img src='gifs/MaleRace2a.gif' style='height:400px;''></img>","looking at","is looking at","english",""
"null","<div style=""font-size:60px;"">+</div>","","html-keyboard-response","164","812544","0.0-15.0-0.1","58403","ListB","woman","english","","","","null","","","","","",""
"null","<img src='gifs/ChineseGender2b.gif' style='height:400px;''></img>","","html-keyboard-response","165","814544","0.0-15.0-1.1","58403","ListB","woman","english","","","","null","","","","","",""
"null","is contacting","","html-keyboard-response","166","817556","0.0-15.0-2.1","58403","ListB","woman","english","","","","null","","","","","",""
"9298","","","survey-text","167","826856","0.0-15.0-3.1","58403","ListB","woman","english","","","","","{""Q0"":""luke is contacting ruth""}","<img src='gifs/ChineseGender2b.gif' style='height:400px;''></img>","contacting","is contacting","english",""
"null","<div style=""font-size:60px;"">+</div>","","html-keyboard-response","168","827362","0.0-15.0-0.2","58403","ListB","woman","english","","","","null","","","","","",""
"null","<img src='gifs/BlackGender3a.gif' style='height:400px;''></img>","","html-keyboard-response","169","829371","0.0-15.0-1.2","58403","ListB","woman","english","","","","null","","","","","",""
"null","is convincing","","html-keyboard-response","170","832379","0.0-15.0-2.2","58403","ListB","woman","english","","","","null","","","","","",""
"10036.299999952316","","","survey-text","171","842416","0.0-15.0-3.2","58403","ListB","woman","english","","","","","{""Q0"":""kate is convincing fred""}","<img src='gifs/BlackGender3a.gif' style='height:400px;''></img>","convincing","is convincing","english",""
"null","<div style=""font-size:60px;"">+</div>","","html-keyboard-response","172","842931","0.0-15.0-0.3","58403","ListB","woman","english","","","","null","","","","","",""
"null","<img src='gifs/FemaleRace4b.gif' style='height:400px;''></img>","","html-keyboard-response","173","844940","0.0-15.0-1.3","58403","ListB","woman","english","","","","null","","","","","",""
"null","is joining","","html-keyboard-response","174","847956","0.0-15.0-2.3","58403","ListB","woman","english","","","","null","","","","","",""
"5459.100000143051","","","survey-text","175","853416","0.0-15.0-3.3","58403","ListB","woman","english","","","","","{""Q0"":""ruth is joining kate""}","<img src='gifs/FemaleRace4b.gif' style='height:400px;''></img>","join","is joining","english",""
"null","<div style=""font-size:60px;"">+</div>","","html-keyboard-response","176","853930","0.0-15.0-0.4","58403","ListB","woman","english","","","","null","","","","","",""
"null","<img src='gifs/FemaleRace1a.gif' style='height:400px;''></img>","","html-keyboard-response","177","855932","0.0-15.0-1.4","58403","ListB","woman","english","","","","null","","","","","",""
"null","is following","","html-keyboard-response","178","858944","0.0-15.0-2.4","58403","ListB","woman","english","","","","null","","","","","",""
"6793.799999952316","","","survey-text","179","865739","0.0-15.0-3.4","58403","ListB","woman","english","","","","","{""Q0"":""jane is following beth""}","<img src='gifs/FemaleRace1a.gif' style='height:400px;''></img>","following","is following","english",""
"null","<div style=""font-size:60px;"">+</div>","","html-keyboard-response","180","866247","0.0-15.0-0.5","58403","ListB","woman","english","","","","null","","","","","",""
"null","<img src='gifs/ChineseGender2b.gif' style='height:400px;''></img>","","html-keyboard-response","181","868253","0.0-15.0-1.5","58403","ListB","woman","english","","","","null","","","","","",""
"null","is introducing","","html-keyboard-response","182","871258","0.0-15.0-2.5","58403","ListB","woman","english","","","","null","","","","","",""
"9488","","","survey-text","183","880746","0.0-15.0-3.5","58403","ListB","woman","english","","","","","{""Q0"":""luke is introducing ruth""}","<img src='gifs/ChineseGender2b.gif' style='height:400px;''></img>","introducing","is introducing","english",""
"null","<div style=""font-size:60px;"">+</div>","","html-keyboard-response","184","881247","0.0-15.0-0.6","58403","ListB","woman","english","","","","null","","","","","",""
"null","<img src='gifs/FemaleRace4b.gif' style='height:400px;''></img>","","html-keyboard-response","185","883249","0.0-15.0-1.6","58403","ListB","woman","english","","","","null","","","","","",""
"null","is accompanying","","html-keyboard-response","186","886261","0.0-15.0-2.6","58403","ListB","woman","english","","","","null","","","","","",""
"7708.299999952316","","","survey-text","187","893970","0.0-15.0-3.6","58403","ListB","woman","english","","","","","{""Q0"":""kate is accompanying ruth""}","<img src='gifs/FemaleRace4b.gif' style='height:400px;''></img>","accompanying","is accompanying","english",""
"null","<div style=""font-size:60px;"">+</div>","","html-keyboard-response","188","894475","0.0-15.0-0.7","58403","ListB","woman","english","","","","null","","","","","",""
"null","<img src='gifs/BlackGender1a.gif' style='height:400px;''></img>","","html-keyboard-response","189","896477","0.0-15.0-1.7","58403","ListB","woman","english","","","","null","","","","","",""
"null","is promising","","html-keyboard-response","190","899481","0.0-15.0-2.7","58403","ListB","woman","english","","","","null","","","","","",""
"9009.600000143051","","","survey-text","191","908492","0.0-15.0-3.7","58403","ListB","woman","english","","","","","{""Q0"":""fred is promising beth""}","<img src='gifs/BlackGender1a.gif' style='height:400px;''></img>","promising","is promising","english",""
"null","<div style=""font-size:60px;"">+</div>","","html-keyboard-response","192","908994","0.0-15.0-0.8","58403","ListB","woman","english","","","","null","","","","","",""
"null","<img src='gifs/BlackGender4a.gif' style='height:400px;''></img>","","html-keyboard-response","193","911009","0.0-15.0-1.8","58403","ListB","woman","english","","","","null","","","","","",""
"null","is touching","","html-keyboard-response","194","914012","0.0-15.0-2.8","58403","ListB","woman","english","","","","null","","","","","",""
"7192.799999952316","","","survey-text","195","921206","0.0-15.0-3.8","58403","ListB","woman","english","","","","","{""Q0"":""mike is touching kate""}","<img src='gifs/BlackGender4a.gif' style='height:400px;''></img>","touching","is touching","english",""
"null","<div style=""font-size:60px;"">+</div>","","html-keyboard-response","196","921707","0.0-15.0-0.9","58403","ListB","woman","english","","","","null","","","","","",""
"null","<img src='gifs/ChineseGender4b.gif' style='height:400px;''></img>","","html-keyboard-response","197","923720","0.0-15.0-1.9","58403","ListB","woman","english","","","","null","","","","","",""
"null","is promising","","html-keyboard-response","198","926732","0.0-15.0-2.9","58403","ListB","woman","english","","","","null","","","","","",""
"8075.100000143051","","","survey-text","199","934808","0.0-15.0-3.9","58403","ListB","woman","english","","","","","{""Q0"":""dave is promising jane ""}","<img src='gifs/ChineseGender4b.gif' style='height:400px;''></img>","promising","is promising","english",""
"null","<div style=""font-size:60px;"">+</div>","","html-keyboard-response","200","935309","0.0-15.0-0.10","58403","ListB","woman","english","","","","null","","","","","",""
"null","<img src='gifs/FemaleRace3a.gif' style='height:400px;''></img>","","html-keyboard-response","201","937311","0.0-15.0-1.10","58403","ListB","woman","english","","","","null","","","","","",""
"null","is praising","","html-keyboard-response","202","940319","0.0-15.0-2.10","58403","ListB","woman","english","","","","null","","","","","",""
"14076.100000143051","","","survey-text","203","954396","0.0-15.0-3.10","58403","ListB","woman","english","","","","","{""Q0"":""ruth is praising beth""}","<img src='gifs/FemaleRace3a.gif' style='height:400px;''></img>","praising","is praising","english",""
"null","<div style=""font-size:60px;"">+</div>","","html-keyboard-response","204","954908","0.0-15.0-0.11","58403","ListB","woman","english","","","","null","","","","","",""
"null","<img src='gifs/FemaleRace2b.gif' style='height:400px;''></img>","","html-keyboard-response","205","956916","0.0-15.0-1.11","58403","ListB","woman","english","","","","null","","","","","",""
"null","is accompanying","","html-keyboard-response","206","959925","0.0-15.0-2.11","58403","ListB","woman","english","","","","null","","","","","",""
"9111","","","survey-text","207","969037","0.0-15.0-3.11","58403","ListB","woman","english","","","","","{""Q0"":""kate is accompanying jane""}","<img src='gifs/FemaleRace2b.gif' style='height:400px;''></img>","accompanying","is accompanying","english",""
"null","<div style=""font-size:60px;"">+</div>","","html-keyboard-response","208","969546","0.0-15.0-0.12","58403","ListB","woman","english","","","","null","","","","","",""
"null","<img src='gifs/MaleRace4a.gif' style='height:400px;''></img>","","html-keyboard-response","209","971561","0.0-15.0-1.12","58403","ListB","woman","english","","","","null","","","","","",""
"null","is following","","html-keyboard-response","210","974575","0.0-15.0-2.12","58403","ListB","woman","english","","","","null","","","","","",""
"7760.799999952316","","","survey-text","211","982337","0.0-15.0-3.12","58403","ListB","woman","english","","","","","{""Q0"":""mike is following kate""}","<img src='gifs/MaleRace4a.gif' style='height:400px;''></img>","following","is following","english",""
"null","<div style=""font-size:60px;"">+</div>","","html-keyboard-response","212","982849","0.0-15.0-0.13","58403","ListB","woman","english","","","","null","","","","","",""
"null","<img src='gifs/ChineseGender3b.gif' style='height:400px;''></img>","","html-keyboard-response","213","984852","0.0-15.0-1.13","58403","ListB","woman","english","","","","null","","","","","",""
"null","is approaching","","html-keyboard-response","214","987853","0.0-15.0-2.13","58403","ListB","woman","english","","","","null","","","","","",""
"9441.700000047684","","","survey-text","215","997296","0.0-15.0-3.13","58403","ListB","woman","english","","","","","{""Q0"":""dave is approaching ruth""}","<img src='gifs/ChineseGender3b.gif' style='height:400px;''></img>","approaching","is approaching","english",""
"null","<div style=""font-size:60px;"">+</div>","","html-keyboard-response","216","997796","0.0-15.0-0.14","58403","ListB","woman","english","","","","null","","","","","",""
"null","<img src='gifs/MaleRace1b.gif' style='height:400px;''></img>","","html-keyboard-response","217","999805","0.0-15.0-1.14","58403","ListB","woman","english","","","","null","","","","","",""
"null","is touching","","html-keyboard-response","218","1002812","0.0-15.0-2.14","58403","ListB","woman","english","","","","null","","","","","",""
"7342.5","","","survey-text","219","1010157","0.0-15.0-3.14","58403","ListB","woman","english","","","","","{""Q0"":""luke is touching fred""}","<img src='gifs/MaleRace1b.gif' style='height:400px;''></img>","touching","is touching","english",""
"null","<div style=""font-size:60px;"">+</div>","","html-keyboard-response","220","1010671","0.0-15.0-0.15","58403","ListB","woman","english","","","","null","","","","","",""
"null","<img src='gifs/MaleRace2b.gif' style='height:400px;''></img>","","html-keyboard-response","221","1012673","0.0-15.0-1.15","58403","ListB","woman","english","","","","null","","","","","",""
"null","is contacting","","html-keyboard-response","222","1015678","0.0-15.0-2.15","58403","ListB","woman","english","","","","null","","","","","",""
"10427.799999952316","","","survey-text","223","1026107","0.0-15.0-3.15","58403","ListB","woman","english","","","","","{""Q0"":""luke is touching mike""}","<img src='gifs/MaleRace2b.gif' style='height:400px;''></img>","contacting","is contacting","english",""
"null","<div style=""font-size:60px;"">+</div>","","html-keyboard-response","224","1026613","0.0-15.0-0.16","58403","ListB","woman","english","","","","null","","","","","",""
"null","<img src='gifs/MaleRace4b.gif' style='height:400px;''></img>","","html-keyboard-response","225","1028614","0.0-15.0-1.16","58403","ListB","woman","english","","","","null","","","","","",""
"null","is following","","html-keyboard-response","226","1031630","0.0-15.0-2.16","58403","ListB","woman","english","","","","null","","","","","",""
"7376.700000047684","","","survey-text","227","1039008","0.0-15.0-3.16","58403","ListB","woman","english","","","","","{""Q0"":""dave is following mike""}","<img src='gifs/MaleRace4b.gif' style='height:400px;''></img>","following","is following","english",""
"null","<div style=""font-size:60px;"">+</div>","","html-keyboard-response","228","1039511","0.0-15.0-0.17","58403","ListB","woman","english","","","","null","","","","","",""
"null","<img src='gifs/MaleRace3b.gif' style='height:400px;''></img>","","html-keyboard-response","229","1041512","0.0-15.0-1.17","58403","ListB","woman","english","","","","null","","","","","",""
"null","is listening to","","html-keyboard-response","230","1044518","0.0-15.0-2.17","58403","ListB","woman","english","","","","null","","","","","",""
"9173.599999904633","","","survey-text","231","1053692","0.0-15.0-3.17","58403","ListB","woman","english","","","","","{""Q0"":""fred is listening to dave""}","<img src='gifs/MaleRace3b.gif' style='height:400px;''></img>","listening to","is listening to","english",""
"40857.59999990463","<img src='img/portrait_matrix_listB.jpg' style='width:900px;height:500px;''></img><p>If you have memorised all the portraits and names and are ready to start, press Continue.</p><p><strong>Please note: Your memory of these faces will be tested 5 times during this experiment.</strong></p>","0","html-button-response","232","1094551","0.0-16.0-0.0","58403","ListB","woman","english","","","","","","","","","",""
"3340.7999999523163","<img src=""portrait/WW1.jpg""style=""height:400px;""></img>","1","html-button-response","233","1098893","0.0-16.0-1.0","58403","ListB","woman","english","","true","1","","","","","","",""
"null","CORRECT","","html-keyboard-response","234","1100414","0.0-16.0-2.0-0.0","58403","ListB","woman","english","","","","null","","","","","",""
"3729.2999999523163","<img src=""portrait/BW1.jpg""style=""height:400px;""></img>","0","html-button-response","235","1104144","0.0-16.0-4.0","58403","ListB","woman","english","","true","0","","","","","","",""
"null","CORRECT","","html-keyboard-response","236","1105659","0.0-16.0-5.0-0.0","58403","ListB","woman","english","","","","null","","","","","",""
"1535.7999999523163","<img src=""portrait/WW2.jpg""style=""height:400px;""></img>","3","html-button-response","237","1107196","0.0-16.0-7.0","58403","ListB","woman","english","","true","3","","","","","","",""
"null","CORRECT","","html-keyboard-response","238","1108702","0.0-16.0-8.0-0.0","58403","ListB","woman","english","","","","null","","","","","",""
"2273.7000000476837","<img src=""portrait/BM2.jpg""style=""height:400px;""></img>","5","html-button-response","239","1110977","0.0-16.0-10.0","58403","ListB","woman","english","","true","5","","","","","","",""
"null","CORRECT","","html-keyboard-response","240","1112495","0.0-16.0-11.0-0.0","58403","ListB","woman","english","","","","null","","","","","",""
"1163","<img src=""portrait/BM1.jpg""style=""height:400px;""></img>","4","html-button-response","241","1113658","0.0-16.0-13.0","58403","ListB","woman","english","","true","4","","","","","","",""
"null","CORRECT","","html-keyboard-response","242","1115164","0.0-16.0-14.0-0.0","58403","ListB","woman","english","","","","null","","","","","",""
"3144.699999809265","<img src=""portrait/WM2.jpg""style=""height:400px;""></img>","7","html-button-response","243","1118309","0.0-16.0-16.0","58403","ListB","woman","english","","true","7","","","","","","",""
"null","CORRECT","","html-keyboard-response","244","1119822","0.0-16.0-17.0-0.0","58403","ListB","woman","english","","","","null","","","","","",""
"2138.5","<img src=""portrait/BW2.jpg""style=""height:400px;""></img>","2","html-button-response","245","1121961","0.0-16.0-19.0","58403","ListB","woman","english","","true","2","","","","","","",""
"null","CORRECT","","html-keyboard-response","246","1123478","0.0-16.0-20.0-0.0","58403","ListB","woman","english","","","","null","","","","","",""
"2133.2999999523163","<img src=""portrait/WM1.jpg""style=""height:400px;""></img>","6","html-button-response","247","1125612","0.0-16.0-22.0","58403","ListB","woman","english","","true","6","","","","","","",""
"null","CORRECT","","html-keyboard-response","248","1127114","0.0-16.0-23.0-0.0","58403","ListB","woman","english","","","","null","","","","","",""
"82883.20000004768","<p>You got 8 out of 8 right first time. Press Continue.</p>","0","html-button-response","249","1209999","0.0-16.0-25.0","58403","ListB","woman","english","","","","","","","","","",""
"null","<div style=""font-size:60px;"">+</div>","","html-keyboard-response","250","1211501","0.0-17.0-0.0","58403","ListB","woman","english","","","","null","","","","","",""
"null","<img src='gifs/FemaleRace1a.gif' style='height:400px;''></img>","","html-keyboard-response","251","1213514","0.0-17.0-1.0","58403","ListB","woman","english","","","","null","","","","","",""
"null","is joining","","html-keyboard-response","252","1216527","0.0-17.0-2.0","58403","ListB","woman","english","","","","null","","","","","",""
"10497.100000143051","","","survey-text","253","1227025","0.0-17.0-3.0","58403","ListB","woman","english","","","","","{""Q0"":""jane is joining beth""}","<img src='gifs/FemaleRace1a.gif' style='height:400px;''></img>","join","is joining","english",""
"null","<div style=""font-size:60px;"">+</div>","","html-keyboard-response","254","1227529","0.0-17.0-0.1","58403","ListB","woman","english","","","","null","","","","","",""
"null","<img src='gifs/FemaleRace3b.gif' style='height:400px;''></img>","","html-keyboard-response","255","1229543","0.0-17.0-1.1","58403","ListB","woman","english","","","","null","","","","","",""
"null","is facing","","html-keyboard-response","256","1232544","0.0-17.0-2.1","58403","ListB","woman","english","","","","null","","","","","",""
"45509.700000047684","","","survey-text","257","1278055","0.0-17.0-3.1","58403","ListB","woman","english","","","","","{""Q0"":""beth is facing ruth""}","<img src='gifs/FemaleRace3b.gif' style='height:400px;''></img>","facing","is facing","english",""
"null","<div style=""font-size:60px;"">+</div>","","html-keyboard-response","258","1278562","0.0-17.0-0.2","58403","ListB","woman","english","","","","null","","","","","",""
"null","<img src='gifs/BlackGender3b.gif' style='height:400px;''></img>","","html-keyboard-response","259","1280564","0.0-17.0-1.2","58403","ListB","woman","english","","","","null","","","","","",""
"null","is convincing","","html-keyboard-response","260","1283568","0.0-17.0-2.2","58403","ListB","woman","english","","","","null","","","","","",""
"12850.5","","","survey-text","261","1296420","0.0-17.0-3.2","58403","ListB","woman","english","","","","","{""Q0"":""kate is convincing fred""}","<img src='gifs/BlackGender3b.gif' style='height:400px;''></img>","convincing","is convincing","english",""
"null","<div style=""font-size:60px;"">+</div>","","html-keyboard-response","262","1296920","0.0-17.0-0.3","58403","ListB","woman","english","","","","null","","","","","",""
"null","<img src='gifs/ChineseGender3a.gif' style='height:400px;''></img>","","html-keyboard-response","263","1298923","0.0-17.0-1.3","58403","ListB","woman","english","","","","null","","","","","",""
"null","is introducing","","html-keyboard-response","264","1301931","0.0-17.0-2.3","58403","ListB","woman","english","","","","null","","","","","",""
"11153.799999952316","","","survey-text","265","1313086","0.0-17.0-3.3","58403","ListB","woman","english","","","","","{""Q0"":""ruth is introducing dave ""}","<img src='gifs/ChineseGender3a.gif' style='height:400px;''></img>","introducing","is introducing","english",""
"null","<div style=""font-size:60px;"">+</div>","","html-keyboard-response","266","1313591","0.0-17.0-0.4","58403","ListB","woman","english","","","","null","","","","","",""
"null","<img src='gifs/BlackGender3a.gif' style='height:400px;''></img>","","html-keyboard-response","267","1315597","0.0-17.0-1.4","58403","ListB","woman","english","","","","null","","","","","",""
"null","is mentioning","","html-keyboard-response","268","1318598","0.0-17.0-2.4","58403","ListB","woman","english","","","","null","","","","","",""
"7242.700000047684","","","survey-text","269","1325842","0.0-17.0-3.4","58403","ListB","woman","english","","","","","{""Q0"":""fred is mentioning kate""}","<img src='gifs/BlackGender3a.gif' style='height:400px;''></img>","mention","is mentioning","english",""
"null","<div style=""font-size:60px;"">+</div>","","html-keyboard-response","270","1326344","0.0-17.0-0.5","58403","ListB","woman","english","","","","null","","","","","",""
"null","<img src='gifs/FemaleRace2b.gif' style='height:400px;''></img>","","html-keyboard-response","271","1328349","0.0-17.0-1.5","58403","ListB","woman","english","","","","null","","","","","",""
"null","is listening to","","html-keyboard-response","272","1331358","0.0-17.0-2.5","58403","ListB","woman","english","","","","null","","","","","",""
"8226.700000047684","","","survey-text","273","1339586","0.0-17.0-3.5","58403","ListB","woman","english","","","","","{""Q0"":""kate is listening to jane""}","<img src='gifs/FemaleRace2b.gif' style='height:400px;''></img>","listening to","is listening to","english",""
"null","<div style=""font-size:60px;"">+</div>","","html-keyboard-response","274","1340090","0.0-17.0-0.6","58403","ListB","woman","english","","","","null","","","","","",""
"null","<img src='gifs/ChineseGender2a.gif' style='height:400px;''></img>","","html-keyboard-response","275","1342103","0.0-17.0-1.6","58403","ListB","woman","english","","","","null","","","","","",""
"null","is employing","","html-keyboard-response","276","1345119","0.0-17.0-2.6","58403","ListB","woman","english","","","","null","","","","","",""
"10881.200000047684","","","survey-text","277","1356002","0.0-17.0-3.6","58403","ListB","woman","english","","","","","{""Q0"":""ruth is employing luke""}","<img src='gifs/ChineseGender2a.gif' style='height:400px;''></img>","employing","is employing","english",""
"null","<div style=""font-size:60px;"">+</div>","","html-keyboard-response","278","1356515","0.0-17.0-0.7","58403","ListB","woman","english","","","","null","","","","","",""
"null","<img src='gifs/FemaleRace2a.gif' style='height:400px;''></img>","","html-keyboard-response","279","1358517","0.0-17.0-1.7","58403","ListB","woman","english","","","","null","","","","","",""
"null","is promising","","html-keyboard-response","280","1361519","0.0-17.0-2.7","58403","ListB","woman","english","","","","null","","","","","",""
"6466.900000095367","","","survey-text","281","1367986","0.0-17.0-3.7","58403","ListB","woman","english","","","","","{""Q0"":""jane is promising kate""}","<img src='gifs/FemaleRace2a.gif' style='height:400px;''></img>","promising","is promising","english",""
"null","<div style=""font-size:60px;"">+</div>","","html-keyboard-response","282","1368489","0.0-17.0-0.8","58403","ListB","woman","english","","","","null","","","","","",""
"null","<img src='gifs/BlackGender2b.gif' style='height:400px;''></img>","","html-keyboard-response","283","1370499","0.0-17.0-1.8","58403","ListB","woman","english","","","","null","","","","","",""
"null","is walking towards","","html-keyboard-response","284","1373507","0.0-17.0-2.8","58403","ListB","woman","english","","","","null","","","","","",""
"7604.799999952316","","","survey-text","285","1381113","0.0-17.0-3.8","58403","ListB","woman","english","","","","","{""Q0"":""beth is walking towards mike""}","<img src='gifs/BlackGender2b.gif' style='height:400px;''></img>","walking towards","is walking towards","english",""
"null","<div style=""font-size:60px;"">+</div>","","html-keyboard-response","286","1381616","0.0-17.0-0.9","58403","ListB","woman","english","","","","null","","","","","",""
"null","<img src='gifs/BlackGender1b.gif' style='height:400px;''></img>","","html-keyboard-response","287","1383624","0.0-17.0-1.9","58403","ListB","woman","english","","","","null","","","","","",""
"null","is facing","","html-keyboard-response","288","1386639","0.0-17.0-2.9","58403","ListB","woman","english","","","","null","","","","","",""
"5697.799999952316","","","survey-text","289","1392337","0.0-17.0-3.9","58403","ListB","woman","english","","","","","{""Q0"":""beth is facing fred""}","<img src='gifs/BlackGender1b.gif' style='height:400px;''></img>","facing","is facing","english",""
"null","<div style=""font-size:60px;"">+</div>","","html-keyboard-response","290","1392851","0.0-17.0-0.10","58403","ListB","woman","english","","","","null","","","","","",""
"null","<img src='gifs/MaleRace2b.gif' style='height:400px;''></img>","","html-keyboard-response","291","1394864","0.0-17.0-1.10","58403","ListB","woman","english","","","","null","","","","","",""
"null","is facing","","html-keyboard-response","292","1397877","0.0-17.0-2.10","58403","ListB","woman","english","","","","null","","","","","",""
"7615.5","","","survey-text","293","1405493","0.0-17.0-3.10","58403","ListB","woman","english","","","","","{""Q0"":""luke is facing mike""}","<img src='gifs/MaleRace2b.gif' style='height:400px;''></img>","facing","is facing","english",""
"null","<div style=""font-size:60px;"">+</div>","","html-keyboard-response","294","1405995","0.0-17.0-0.11","58403","ListB","woman","english","","","","null","","","","","",""
"null","<img src='gifs/BlackGender2a.gif' style='height:400px;''></img>","","html-keyboard-response","295","1408010","0.0-17.0-1.11","58403","ListB","woman","english","","","","null","","","","","",""
"null","is contacting","","html-keyboard-response","296","1411025","0.0-17.0-2.11","58403","ListB","woman","english","","","","null","","","","","",""
"9330.899999856949","","","survey-text","297","1420357","0.0-17.0-3.11","58403","ListB","woman","english","","","","","{""Q0"":""mike is contacting beth""}","<img src='gifs/BlackGender2a.gif' style='height:400px;''></img>","contacting","is contacting","english",""
"null","<div style=""font-size:60px;"">+</div>","","html-keyboard-response","298","1420873","0.0-17.0-0.12","58403","ListB","woman","english","","","","null","","","","","",""
"null","<img src='gifs/ChineseGender1b.gif' style='height:400px;''></img>","","html-keyboard-response","299","1422880","0.0-17.0-1.12","58403","ListB","woman","english","","","","null","","","","","",""
"null","is employing","","html-keyboard-response","300","1425889","0.0-17.0-2.12","58403","ListB","woman","english","","","","null","","","","","",""
"8693.199999809265","","","survey-text","301","1434583","0.0-17.0-3.12","58403","ListB","woman","english","","","","","{""Q0"":""jane is employing luke""}","<img src='gifs/ChineseGender1b.gif' style='height:400px;''></img>","employing","is employing","english",""
"null","<div style=""font-size:60px;"">+</div>","","html-keyboard-response","302","1435089","0.0-17.0-0.13","58403","ListB","woman","english","","","","null","","","","","",""
"null","<img src='gifs/MaleRace3b.gif' style='height:400px;''></img>","","html-keyboard-response","303","1437103","0.0-17.0-1.13","58403","ListB","woman","english","","","","null","","","","","",""
"null","is approaching","","html-keyboard-response","304","1440113","0.0-17.0-2.13","58403","ListB","woman","english","","","","null","","","","","",""
"7955.100000143051","","","survey-text","305","1448069","0.0-17.0-3.13","58403","ListB","woman","english","","","","","{""Q0"":""dave is approaching mike""}","<img src='gifs/MaleRace3b.gif' style='height:400px;''></img>","approaching","is approaching","english",""
"null","<div style=""font-size:60px;"">+</div>","","html-keyboard-response","306","1448578","0.0-17.0-0.14","58403","ListB","woman","english","","","","null","","","","","",""
"null","<img src='gifs/MaleRace1a.gif' style='height:400px;''></img>","","html-keyboard-response","307","1450591","0.0-17.0-1.14","58403","ListB","woman","english","","","","null","","","","","",""
"null","is walking towards","","html-keyboard-response","308","1453597","0.0-17.0-2.14","58403","ListB","woman","english","","","","null","","","","","",""
"11265.899999856949","","","survey-text","309","1464864","0.0-17.0-3.14","58403","ListB","woman","english","","","","","{""Q0"":""luke is walking towards fred""}","<img src='gifs/MaleRace1a.gif' style='height:400px;''></img>","walking towards","is walking towards","english",""
"null","<div style=""font-size:60px;"">+</div>","","html-keyboard-response","310","1465373","0.0-17.0-0.15","58403","ListB","woman","english","","","","null","","","","","",""
"null","<img src='gifs/FemaleRace3a.gif' style='height:400px;''></img>","","html-keyboard-response","311","1467384","0.0-17.0-1.15","58403","ListB","woman","english","","","","null","","","","","",""
"null","is praising","","html-keyboard-response","312","1470391","0.0-17.0-2.15","58403","ListB","woman","english","","","","null","","","","","",""
"5276.600000143051","","","survey-text","313","1475668","0.0-17.0-3.15","58403","ListB","woman","english","","","","","{""Q0"":""ruth is prasing beth""}","<img src='gifs/FemaleRace3a.gif' style='height:400px;''></img>","praising","is praising","english",""
"null","<div style=""font-size:60px;"">+</div>","","html-keyboard-response","314","1476174","0.0-17.0-0.16","58403","ListB","woman","english","","","","null","","","","","",""
"null","<img src='gifs/MaleRace4b.gif' style='height:400px;''></img>","","html-keyboard-response","315","1478176","0.0-17.0-1.16","58403","ListB","woman","english","","","","null","","","","","",""
"null","is touching","","html-keyboard-response","316","1481191","0.0-17.0-2.16","58403","ListB","woman","english","","","","null","","","","","",""
"4170.5","","","survey-text","317","1485362","0.0-17.0-3.16","58403","ListB","woman","english","","","","","{""Q0"":""dave is touching mike""}","<img src='gifs/MaleRace4b.gif' style='height:400px;''></img>","touching","is touching","english",""
"null","<div style=""font-size:60px;"">+</div>","","html-keyboard-response","318","1485874","0.0-17.0-0.17","58403","ListB","woman","english","","","","null","","","","","",""
"null","<img src='gifs/BlackGender2a.gif' style='height:400px;''></img>","","html-keyboard-response","319","1487882","0.0-17.0-1.17","58403","ListB","woman","english","","","","null","","","","","",""
"null","is mentioning","","html-keyboard-response","320","1490889","0.0-17.0-2.17","58403","ListB","woman","english","","","","null","","","","","",""
"7327.399999856949","","","survey-text","321","1498217","0.0-17.0-3.17","58403","ListB","woman","english","","","","","{""Q0"":""mike is mentioning beth""}","<img src='gifs/BlackGender2a.gif' style='height:400px;''></img>","mention","is mentioning","english",""
"3740.7000000476837","<p>Thank you for completing that task.</p><p>The final part of this session is a short questionnaire.</p><p>Press Continue.</p>","0","html-button-response","322","1501958","0.0-18.0","58403","ListB","woman","english","","","","","","","","","",""
"36727","","","survey-text","323","1539695","0.0-19.0","58403","ListB","woman","english","","","","","{""Q0"":""22"",""Q1"":""chinese"",""Q2"":""chinese"",""Q3"":""UK"",""Q4"":""China"",""Q5"":""Chinese"",""Q6"":""Female""}","","","","","demographics"
"2939.5999999046326","<p>Have you lived in the UK for the last 5 years or more?</p>","0","html-button-response","324","1542635","0.0-20.0","58403","ListB","woman","english","","","","","","","","","","fiveyears"
"17021.700000047684","","","external-html","325","1561018","0.0-21.0","58403","ListB","woman","english","debrief.html","","","","","","","","",""
"12553.099999904633","","","survey-text","326","1573572","0.0-22.0","58403","ListB","woman","english","","","","","{""Q0"":""EFB11""}","","","","","worker_id"
