"rt","stimulus","button_pressed","trial_type","trial_index","time_elapsed","internal_node_id","subject","list","ppt_gender","ppt_language","ptptID","url","first_guess","correct","key_press","responses","image","verb","phrase","condition","test_part"
"106233.30000000447","Welcome to the experiment. Press Continue to begin.","0","html-button-response","0","106234","0.0-0.0","59128","ListA","man","chinese","CMA9","","","","","","","","","",""
"56127.79999999702","","","external-html","1","163497","0.0-1.0","59128","ListA","man","chinese","CMA9","consent.html","","","","","","","","",""
"10730","<p>在下一页中，您将看到8个人物肖像和他们各自的名字。</p><p>请花费几分钟的时间记住这些人物及其所对应的名字。</p><p>之后的实验中需要您对人物的名字做出回忆，</p><p>因此在实验开始前请确保您已 经完全记住这些人物及其所对应的名字。</p><p><strong>然后您将完成一个测试以检验您对人物和名字的记忆。</strong></p><p>完成此记忆测试后，您将正式进入实验。</p><p>准备好了吗？</p>","0","html-button-response","2","174228","0.0-2.0","59128","ListA","man","chinese","CMA9","","","","","","","","","",""
"60322.39999999851","<img src='img/portrait_matrix_listA_chinese.jpg' style='width:900px;height:500px;''></img><p>如果您已经记住了所有的人物和名字，请点击继续。</p><p><strong>请注意：您对先前记忆的面孔将在本实验中被测试5次。</strong></p>","0","html-button-response","3","235560","0.0-3.0-0.0","59128","ListA","man","chinese","CMA9","","","","","","","","","",""
"6377.19999999553","<img src=""portrait/WW2.jpg""style=""height:400px;""></img>","3","html-button-response","4","242945","0.0-3.0-1.0","59128","ListA","man","chinese","CMA9","","true","3","","","","","","",""
"null","正确","","html-keyboard-response","5","244460","0.0-3.0-2.0-0.0","59128","ListA","man","chinese","CMA9","","","","null","","","","","",""
"4696.79999999702","<img src=""portrait/WM1.jpg""style=""height:400px;""></img>","6","html-button-response","6","249159","0.0-3.0-4.0","59128","ListA","man","chinese","CMA9","","true","6","","","","","","",""
"null","正确","","html-keyboard-response","7","250670","0.0-3.0-5.0-0.0","59128","ListA","man","chinese","CMA9","","","","null","","","","","",""
"11070.09999999404","<img src=""portrait/BW1.jpg""style=""height:400px;""></img>","2","html-button-response","8","261742","0.0-3.0-7.0","59128","ListA","man","chinese","CMA9","","true","0","","","","","","",""
"4360.10000000149","<img src=""portrait/BW1.jpg""style=""height:400px;""></img>","0","html-button-response","9","267109","0.0-3.0-9.0-0.0","59128","ListA","man","chinese","CMA9","","false","0","","","","","","",""
"null","正确","","html-keyboard-response","10","268622","0.0-3.0-9.0-1.0-0.0","59128","ListA","man","chinese","CMA9","","","","null","","","","","",""
"4904.10000000149","<img src=""portrait/WW1.jpg""style=""height:400px;""></img>","0","html-button-response","11","273528","0.0-3.0-10.0","59128","ListA","man","chinese","CMA9","","true","1","","","","","","",""
"2007.3999999985099","<img src=""portrait/WW1.jpg""style=""height:400px;""></img>","1","html-button-response","12","276542","0.0-3.0-12.0-0.0","59128","ListA","man","chinese","CMA9","","false","1","","","","","","",""
"null","正确","","html-keyboard-response","13","278051","0.0-3.0-12.0-1.0-0.0","59128","ListA","man","chinese","CMA9","","","","null","","","","","",""
"3756.10000000149","<img src=""portrait/WM2.jpg""style=""height:400px;""></img>","7","html-button-response","14","281809","0.0-3.0-13.0","59128","ListA","man","chinese","CMA9","","true","7","","","","","","",""
"null","正确","","html-keyboard-response","15","283320","0.0-3.0-14.0-0.0","59128","ListA","man","chinese","CMA9","","","","null","","","","","",""
"2603.7999999970198","<img src=""portrait/BW2.jpg""style=""height:400px;""></img>","2","html-button-response","16","285926","0.0-3.0-16.0","59128","ListA","man","chinese","CMA9","","true","2","","","","","","",""
"null","正确","","html-keyboard-response","17","287444","0.0-3.0-17.0-0.0","59128","ListA","man","chinese","CMA9","","","","null","","","","","",""
"10512.5","<img src=""portrait/BM2.jpg""style=""height:400px;""></img>","5","html-button-response","18","297959","0.0-3.0-19.0","59128","ListA","man","chinese","CMA9","","true","5","","","","","","",""
"null","正确","","html-keyboard-response","19","299475","0.0-3.0-20.0-0.0","59128","ListA","man","chinese","CMA9","","","","null","","","","","",""
"1948.7999999970198","<img src=""portrait/BM1.jpg""style=""height:400px;""></img>","4","html-button-response","20","301426","0.0-3.0-22.0","59128","ListA","man","chinese","CMA9","","true","4","","","","","","",""
"null","正确","","html-keyboard-response","21","302950","0.0-3.0-23.0-0.0","59128","ListA","man","chinese","CMA9","","","","null","","","","","",""
"2158.1999999955297","<p>您第一次在8题里答对了 6 题。 请点击继续</p>","0","html-button-response","22","305110","0.0-3.0-25.0","59128","ListA","man","chinese","CMA9","","","","","","","","","",""
"1690.5999999940395","因为您没有全部答对，记忆游戏将重新开始。请点击继续。","0","html-button-response","23","307808","0.0-3.0-26.0-0.0","59128","ListA","man","chinese","CMA9","","","","","","","","","",""
"20153","<img src='img/portrait_matrix_listA_chinese.jpg' style='width:900px;height:500px;''></img><p>如果您已经记住了所有的人物和名字，请点击继续。</p><p><strong>请注意：您对先前记忆的面孔将在本实验中被测试5次。</strong></p>","0","html-button-response","24","328977","0.0-3.1-0.1","59128","ListA","man","chinese","CMA9","","","","","","","","","",""
"1755.2000000029802","<img src=""portrait/WW2.jpg""style=""height:400px;""></img>","3","html-button-response","25","331744","0.0-3.1-1.1","59128","ListA","man","chinese","CMA9","","true","3","","","","","","",""
"null","正确","","html-keyboard-response","26","333260","0.0-3.1-2.1-0.1","59128","ListA","man","chinese","CMA9","","","","null","","","","","",""
"2731.2000000029802","<img src=""portrait/WM1.jpg""style=""height:400px;""></img>","6","html-button-response","27","335993","0.0-3.1-4.1","59128","ListA","man","chinese","CMA9","","true","6","","","","","","",""
"null","正确","","html-keyboard-response","28","337507","0.0-3.1-5.1-0.1","59128","ListA","man","chinese","CMA9","","","","null","","","","","",""
"3551","<img src=""portrait/BW1.jpg""style=""height:400px;""></img>","0","html-button-response","29","341060","0.0-3.1-7.1","59128","ListA","man","chinese","CMA9","","true","0","","","","","","",""
"null","正确","","html-keyboard-response","30","342579","0.0-3.1-8.1-0.1","59128","ListA","man","chinese","CMA9","","","","null","","","","","",""
"5063.39999999851","<img src=""portrait/WW1.jpg""style=""height:400px;""></img>","1","html-button-response","31","347644","0.0-3.1-10.1","59128","ListA","man","chinese","CMA9","","true","1","","","","","","",""
"null","正确","","html-keyboard-response","32","349156","0.0-3.1-11.1-0.1","59128","ListA","man","chinese","CMA9","","","","null","","","","","",""
"5316.80000000447","<img src=""portrait/WM2.jpg""style=""height:400px;""></img>","7","html-button-response","33","354475","0.0-3.1-13.1","59128","ListA","man","chinese","CMA9","","true","7","","","","","","",""
"null","正确","","html-keyboard-response","34","355986","0.0-3.1-14.1-0.1","59128","ListA","man","chinese","CMA9","","","","null","","","","","",""
"5605.20000000298","<img src=""portrait/BW2.jpg""style=""height:400px;""></img>","2","html-button-response","35","361593","0.0-3.1-16.1","59128","ListA","man","chinese","CMA9","","true","2","","","","","","",""
"null","正确","","html-keyboard-response","36","363108","0.0-3.1-17.1-0.1","59128","ListA","man","chinese","CMA9","","","","null","","","","","",""
"4382.29999999702","<img src=""portrait/BM2.jpg""style=""height:400px;""></img>","5","html-button-response","37","367492","0.0-3.1-19.1","59128","ListA","man","chinese","CMA9","","true","5","","","","","","",""
"null","正确","","html-keyboard-response","38","369000","0.0-3.1-20.1-0.1","59128","ListA","man","chinese","CMA9","","","","null","","","","","",""
"3858.9000000059605","<img src=""portrait/BM1.jpg""style=""height:400px;""></img>","4","html-button-response","39","372861","0.0-3.1-22.1","59128","ListA","man","chinese","CMA9","","true","4","","","","","","",""
"null","正确","","html-keyboard-response","40","374371","0.0-3.1-23.1-0.1","59128","ListA","man","chinese","CMA9","","","","null","","","","","",""
"3670.5","<p>您第一次在8题里答对了 8 题。 请点击继续</p>","0","html-button-response","41","378043","0.0-3.1-25.1","59128","ListA","man","chinese","CMA9","","","","","","","","","",""
"101656.70000000298","<p>此次实验您将会看到先前记忆任务里的人物照片。</p><p>人物照片消失后您将看到一个动词短语，请正确回忆人物的名字并用特定的 动词短语组成一句完整的句子。</p><p>请在指定的框内输入您的答案。在进入下一题之前请确保您填写了完整的句子。</p><p>人物照片和动词短语只会在屏幕上出现几秒钟，因此请您答题时尽量集中注意力。</p><p>以下是例子。请您在准备好后按下“继续”。</p><img src='img/chinese_speaking_example.jpg' style='width:800px;height:460px;''></img>","0","html-button-response","42","480708","0.0-4.0","59128","ListA","man","chinese","CMA9","","","","","","","","","",""
"1504","<p>在实验开始前，将为您展示两个示例实验。</p>","0","html-button-response","43","483224","0.0-5.0","59128","ListA","man","chinese","CMA9","","","","","","","","","",""
"null","<img src='img/meet.gif' style='height:400px;''></img>","","html-keyboard-response","44","486241","0.0-6.0","59128","ListA","man","chinese","CMA9","","","","null","","","","","",""
"null","<p>正在约见</p>","","html-keyboard-response","45","488246","0.0-7.0","59128","ListA","man","chinese","CMA9","","","","null","","","","","",""
"5995.60000000149","<p><b>答案:</b> 凯特正在约见贝斯</p>","0","html-button-response","46","494243","0.0-8.0","59128","ListA","man","chinese","CMA9","","","","","","","","","",""
"null","<img src='img/spy.gif' style='height:400px;''></img>","","html-keyboard-response","47","497262","0.0-9.0","59128","ListA","man","chinese","CMA9","","","","null","","","","","",""
"null","<p>正在监视</p>","","html-keyboard-response","48","499270","0.0-10.0","59128","ListA","man","chinese","CMA9","","","","null","","","","","",""
"2252.5","<p><b>答案:</b> 卢克正在监视戴夫</p>","0","html-button-response","49","501524","0.0-11.0","59128","ListA","man","chinese","CMA9","","","","","","","","","",""
"8222.89999999851","<p>准备好开始了吗？</p><br><p><strong>请记住，您的答案需是一句完整的句子</strong></p><p><strong>，并用给到的图片人物和动词短语作答。</strong></p><p><strong>只有正确并完整完成实验才可获得报酬。</strong></p><p><strong> 您不需要加入任何标点符号。</strong></p><br><p>请按 ‘继续’ 键开始。</p>","0","html-button-response","50","510760","0.0-12.0","59128","ListA","man","chinese","CMA9","","","","","","","","","",""
"null","<div style=""font-size:60px;"">+</div>","","html-keyboard-response","51","512280","0.0-13.0-0.0","59128","ListA","man","chinese","CMA9","","","","null","","","","","",""
"null","<img src='gifs/FemaleRace1b.gif' style='height:400px;''></img>","","html-keyboard-response","52","514287","0.0-13.0-1.0","59128","ListA","man","chinese","CMA9","","","","null","","","","","",""
"null","正在表扬","","html-keyboard-response","53","517292","0.0-13.0-2.0","59128","ListA","man","chinese","CMA9","","","","null","","","","","",""
"11967.20000000298","","","survey-text","54","529264","0.0-13.0-3.0","59128","ListA","man","chinese","CMA9","","","","","{""Q0"":""凯特正在表扬露丝""}","<img src='gifs/FemaleRace1b.gif' style='height:400px;''></img>","表扬","正在表扬","chinese",""
"null","<div style=""font-size:60px;"">+</div>","","html-keyboard-response","55","529774","0.0-13.0-0.1","59128","ListA","man","chinese","CMA9","","","","null","","","","","",""
"null","<img src='gifs/ChineseGender4b.gif' style='height:400px;''></img>","","html-keyboard-response","56","531780","0.0-13.0-1.1","59128","ListA","man","chinese","CMA9","","","","null","","","","","",""
"null","正在陪伴","","html-keyboard-response","57","534785","0.0-13.0-2.1","59128","ListA","man","chinese","CMA9","","","","null","","","","","",""
"5500.10000000149","","","survey-text","58","540289","0.0-13.0-3.1","59128","ListA","man","chinese","CMA9","","","","","{""Q0"":""凯特正在陪伴麦克""}","<img src='gifs/ChineseGender4b.gif' style='height:400px;''></img>","陪伴","正在陪伴","chinese",""
"null","<div style=""font-size:60px;"">+</div>","","html-keyboard-response","59","540799","0.0-13.0-0.2","59128","ListA","man","chinese","CMA9","","","","null","","","","","",""
"null","<img src='gifs/ChineseGender4b.gif' style='height:400px;''></img>","","html-keyboard-response","60","542805","0.0-13.0-1.2","59128","ListA","man","chinese","CMA9","","","","null","","","","","",""
"null","正在聆听","","html-keyboard-response","61","545812","0.0-13.0-2.2","59128","ListA","man","chinese","CMA9","","","","null","","","","","",""
"6323","","","survey-text","62","552139","0.0-13.0-3.2","59128","ListA","man","chinese","CMA9","","","","","{""Q0"":""麦克正在聆听凯特""}","<img src='gifs/ChineseGender4b.gif' style='height:400px;''></img>","聆听","正在聆听","chinese",""
"null","<div style=""font-size:60px;"">+</div>","","html-keyboard-response","63","552644","0.0-13.0-0.3","59128","ListA","man","chinese","CMA9","","","","null","","","","","",""
"null","<img src='gifs/MaleRace4a.gif' style='height:400px;''></img>","","html-keyboard-response","64","554652","0.0-13.0-1.3","59128","ListA","man","chinese","CMA9","","","","null","","","","","",""
"null","正在触摸","","html-keyboard-response","65","557659","0.0-13.0-2.3","59128","ListA","man","chinese","CMA9","","","","null","","","","","",""
"8699.70000000298","","","survey-text","66","566363","0.0-13.0-3.3","59128","ListA","man","chinese","CMA9","","","","","{""Q0"":""麦克正在触摸戴夫""}","<img src='gifs/MaleRace4a.gif' style='height:400px;''></img>","触摸","正在触摸","chinese",""
"null","<div style=""font-size:60px;"">+</div>","","html-keyboard-response","67","566871","0.0-13.0-0.4","59128","ListA","man","chinese","CMA9","","","","null","","","","","",""
"null","<img src='gifs/BlackGender2b.gif' style='height:400px;''></img>","","html-keyboard-response","68","568876","0.0-13.0-1.4","59128","ListA","man","chinese","CMA9","","","","null","","","","","",""
"null","正在答应","","html-keyboard-response","69","571887","0.0-13.0-2.4","59128","ListA","man","chinese","CMA9","","","","null","","","","","",""
"6029.80000000447","","","survey-text","70","577921","0.0-13.0-3.4","59128","ListA","man","chinese","CMA9","","","","","{""Q0"":""戴夫正在答应露丝""}","<img src='gifs/BlackGender2b.gif' style='height:400px;''></img>","答应","正在答应","chinese",""
"null","<div style=""font-size:60px;"">+</div>","","html-keyboard-response","71","578430","0.0-13.0-0.5","59128","ListA","man","chinese","CMA9","","","","null","","","","","",""
"null","<img src='gifs/MaleRace2b.gif' style='height:400px;''></img>","","html-keyboard-response","72","580438","0.0-13.0-1.5","59128","ListA","man","chinese","CMA9","","","","null","","","","","",""
"null","正在说服","","html-keyboard-response","73","583443","0.0-13.0-2.5","59128","ListA","man","chinese","CMA9","","","","null","","","","","",""
"4414.79999999702","","","survey-text","74","587860","0.0-13.0-3.5","59128","ListA","man","chinese","CMA9","","","","","{""Q0"":""戴夫正在说服弗雷""}","<img src='gifs/MaleRace2b.gif' style='height:400px;''></img>","说服","正在说服","chinese",""
"null","<div style=""font-size:60px;"">+</div>","","html-keyboard-response","75","588366","0.0-13.0-0.6","59128","ListA","man","chinese","CMA9","","","","null","","","","","",""
"null","<img src='gifs/MaleRace4b.gif' style='height:400px;''></img>","","html-keyboard-response","76","590374","0.0-13.0-1.6","59128","ListA","man","chinese","CMA9","","","","null","","","","","",""
"null","正在聆听","","html-keyboard-response","77","593382","0.0-13.0-2.6","59128","ListA","man","chinese","CMA9","","","","null","","","","","",""
"4880.20000000298","","","survey-text","78","598266","0.0-13.0-3.6","59128","ListA","man","chinese","CMA9","","","","","{""Q0"":""戴夫正在聆听弗雷""}","<img src='gifs/MaleRace4b.gif' style='height:400px;''></img>","聆听","正在聆听","chinese",""
"null","<div style=""font-size:60px;"">+</div>","","html-keyboard-response","79","598771","0.0-13.0-0.7","59128","ListA","man","chinese","CMA9","","","","null","","","","","",""
"null","<img src='gifs/BlackGender1b.gif' style='height:400px;''></img>","","html-keyboard-response","80","600781","0.0-13.0-1.7","59128","ListA","man","chinese","CMA9","","","","null","","","","","",""
"null","正在提到","","html-keyboard-response","81","603790","0.0-13.0-2.7","59128","ListA","man","chinese","CMA9","","","","null","","","","","",""
"8961.10000000149","","","survey-text","82","612755","0.0-13.0-3.7","59128","ListA","man","chinese","CMA9","","","","","{""Q0"":""卢克正在提到霍普""}","<img src='gifs/BlackGender1b.gif' style='height:400px;''></img>","提到","正在提到","chinese",""
"null","<div style=""font-size:60px;"">+</div>","","html-keyboard-response","83","613257","0.0-13.0-0.8","59128","ListA","man","chinese","CMA9","","","","null","","","","","",""
"null","<img src='gifs/ChineseGender3a.gif' style='height:400px;''></img>","","html-keyboard-response","84","615264","0.0-13.0-1.8","59128","ListA","man","chinese","CMA9","","","","null","","","","","",""
"null","正在面向","","html-keyboard-response","85","618275","0.0-13.0-2.8","59128","ListA","man","chinese","CMA9","","","","null","","","","","",""
"17098.20000000298","","","survey-text","86","635377","0.0-13.0-3.8","59128","ListA","man","chinese","CMA9","","","","","{""Q0"":""麦克正在面向贝丝""}","<img src='gifs/ChineseGender3a.gif' style='height:400px;''></img>","面向","正在面向","chinese",""
"null","<div style=""font-size:60px;"">+</div>","","html-keyboard-response","87","635885","0.0-13.0-0.9","59128","ListA","man","chinese","CMA9","","","","null","","","","","",""
"null","<img src='gifs/MaleRace1b.gif' style='height:400px;''></img>","","html-keyboard-response","88","637893","0.0-13.0-1.9","59128","ListA","man","chinese","CMA9","","","","null","","","","","",""
"null","正在说服","","html-keyboard-response","89","640898","0.0-13.0-2.9","59128","ListA","man","chinese","CMA9","","","","null","","","","","",""
"10536.70000000298","","","survey-text","90","651439","0.0-13.0-3.9","59128","ListA","man","chinese","CMA9","","","","","{""Q0"":""卢克正在说服弗雷""}","<img src='gifs/MaleRace1b.gif' style='height:400px;''></img>","说服","正在说服","chinese",""
"null","<div style=""font-size:60px;"">+</div>","","html-keyboard-response","91","651944","0.0-13.0-0.10","59128","ListA","man","chinese","CMA9","","","","null","","","","","",""
"null","<img src='gifs/FemaleRace1a.gif' style='height:400px;''></img>","","html-keyboard-response","92","653955","0.0-13.0-1.10","59128","ListA","man","chinese","CMA9","","","","null","","","","","",""
"null","正在加入","","html-keyboard-response","93","656964","0.0-13.0-2.10","59128","ListA","man","chinese","CMA9","","","","null","","","","","",""
"4298.10000000149","","","survey-text","94","661266","0.0-13.0-3.10","59128","ListA","man","chinese","CMA9","","","","","{""Q0"":""霍普正在加入凯特""}","<img src='gifs/FemaleRace1a.gif' style='height:400px;''></img>","加入","正在加入","chinese",""
"null","<div style=""font-size:60px;"">+</div>","","html-keyboard-response","95","661772","0.0-13.0-0.11","59128","ListA","man","chinese","CMA9","","","","null","","","","","",""
"null","<img src='gifs/MaleRace3a.gif' style='height:400px;''></img>","","html-keyboard-response","96","663776","0.0-13.0-1.11","59128","ListA","man","chinese","CMA9","","","","null","","","","","",""
"null","正在聘用","","html-keyboard-response","97","666784","0.0-13.0-2.11","59128","ListA","man","chinese","CMA9","","","","null","","","","","",""
"7395.70000000298","","","survey-text","98","674184","0.0-13.0-3.11","59128","ListA","man","chinese","CMA9","","","","","{""Q0"":""麦克正在聘用卢克""}","<img src='gifs/MaleRace3a.gif' style='height:400px;''></img>","聘用","正在聘用","chinese",""
"null","<div style=""font-size:60px;"">+</div>","","html-keyboard-response","99","674690","0.0-13.0-0.12","59128","ListA","man","chinese","CMA9","","","","null","","","","","",""
"null","<img src='gifs/ChineseGender3b.gif' style='height:400px;''></img>","","html-keyboard-response","100","676697","0.0-13.0-1.12","59128","ListA","man","chinese","CMA9","","","","null","","","","","",""
"null","正在提到","","html-keyboard-response","101","679708","0.0-13.0-2.12","59128","ListA","man","chinese","CMA9","","","","null","","","","","",""
"6405.39999999851","","","survey-text","102","686117","0.0-13.0-3.12","59128","ListA","man","chinese","CMA9","","","","","{""Q0"":""贝丝正在提到麦克""}","<img src='gifs/ChineseGender3b.gif' style='height:400px;''></img>","提到","正在提到","chinese",""
"null","<div style=""font-size:60px;"">+</div>","","html-keyboard-response","103","686625","0.0-13.0-0.13","59128","ListA","man","chinese","CMA9","","","","null","","","","","",""
"null","<img src='gifs/ChineseGender4a.gif' style='height:400px;''></img>","","html-keyboard-response","104","688631","0.0-13.0-1.13","59128","ListA","man","chinese","CMA9","","","","null","","","","","",""
"null","正在聆听","","html-keyboard-response","105","691642","0.0-13.0-2.13","59128","ListA","man","chinese","CMA9","","","","null","","","","","",""
"5452.39999999851","","","survey-text","106","697097","0.0-13.0-3.13","59128","ListA","man","chinese","CMA9","","","","","{""Q0"":""麦克正在聆听凯特""}","<img src='gifs/ChineseGender4a.gif' style='height:400px;''></img>","聆听","正在聆听","chinese",""
"null","<div style=""font-size:60px;"">+</div>","","html-keyboard-response","107","697604","0.0-13.0-0.14","59128","ListA","man","chinese","CMA9","","","","null","","","","","",""
"null","<img src='gifs/MaleRace3b.gif' style='height:400px;''></img>","","html-keyboard-response","108","699617","0.0-13.0-1.14","59128","ListA","man","chinese","CMA9","","","","null","","","","","",""
"null","正在走向","","html-keyboard-response","109","702627","0.0-13.0-2.14","59128","ListA","man","chinese","CMA9","","","","null","","","","","",""
"4005.7999999970198","","","survey-text","110","706638","0.0-13.0-3.14","59128","ListA","man","chinese","CMA9","","","","","{""Q0"":""卢克正在走向麦克""}","<img src='gifs/MaleRace3b.gif' style='height:400px;''></img>","走向","正在走向","chinese",""
"null","<div style=""font-size:60px;"">+</div>","","html-keyboard-response","111","707147","0.0-13.0-0.15","59128","ListA","man","chinese","CMA9","","","","null","","","","","",""
"null","<img src='gifs/MaleRace2b.gif' style='height:400px;''></img>","","html-keyboard-response","112","709161","0.0-13.0-1.15","59128","ListA","man","chinese","CMA9","","","","null","","","","","",""
"null","正在联系","","html-keyboard-response","113","712167","0.0-13.0-2.15","59128","ListA","man","chinese","CMA9","","","","null","","","","","",""
"6470.60000000149","","","survey-text","114","718642","0.0-13.0-3.15","59128","ListA","man","chinese","CMA9","","","","","{""Q0"":""弗雷正在联系戴夫""}","<img src='gifs/MaleRace2b.gif' style='height:400px;''></img>","联系","正在联系","chinese",""
"null","<div style=""font-size:60px;"">+</div>","","html-keyboard-response","115","719146","0.0-13.0-0.16","59128","ListA","man","chinese","CMA9","","","","null","","","","","",""
"null","<img src='gifs/FemaleRace3b.gif' style='height:400px;''></img>","","html-keyboard-response","116","721154","0.0-13.0-1.16","59128","ListA","man","chinese","CMA9","","","","null","","","","","",""
"null","正在看着","","html-keyboard-response","117","724162","0.0-13.0-2.16","59128","ListA","man","chinese","CMA9","","","","null","","","","","",""
"5725.60000000149","","","survey-text","118","729892","0.0-13.0-3.16","59128","ListA","man","chinese","CMA9","","","","","{""Q0"":""贝丝正在看着霍普""}","<img src='gifs/FemaleRace3b.gif' style='height:400px;''></img>","看着","正在看着","chinese",""
"null","<div style=""font-size:60px;"">+</div>","","html-keyboard-response","119","730399","0.0-13.0-0.17","59128","ListA","man","chinese","CMA9","","","","null","","","","","",""
"null","<img src='gifs/MaleRace1a.gif' style='height:400px;''></img>","","html-keyboard-response","120","732410","0.0-13.0-1.17","59128","ListA","man","chinese","CMA9","","","","null","","","","","",""
"null","正在聆听","","html-keyboard-response","121","735417","0.0-13.0-2.17","59128","ListA","man","chinese","CMA9","","","","null","","","","","",""
"8287","","","survey-text","122","743707","0.0-13.0-3.17","59128","ListA","man","chinese","CMA9","","","","","{""Q0"":""弗雷正在聆听卢克""}","<img src='gifs/MaleRace1a.gif' style='height:400px;''></img>","聆听","正在聆听","chinese",""
"3899.5","<img src='img/portrait_matrix_listA_chinese.jpg' style='width:900px;height:500px;''></img><p>如果您已经记住了所有的人物和名字，请点击继续。</p><p><strong>请注意：您对先前记忆的面孔将在本实验中被测试5次。</strong></p>","0","html-button-response","123","747609","0.0-14.0-0.0","59128","ListA","man","chinese","CMA9","","","","","","","","","",""
"5122.5","<img src=""portrait/BM1.jpg""style=""height:400px;""></img>","4","html-button-response","124","753742","0.0-14.0-1.0","59128","ListA","man","chinese","CMA9","","true","4","","","","","","",""
"null","正确","","html-keyboard-response","125","755262","0.0-14.0-2.0-0.0","59128","ListA","man","chinese","CMA9","","","","null","","","","","",""
"1693.7000000029802","<img src=""portrait/WW2.jpg""style=""height:400px;""></img>","3","html-button-response","126","756958","0.0-14.0-4.0","59128","ListA","man","chinese","CMA9","","true","3","","","","","","",""
"null","正确","","html-keyboard-response","127","758479","0.0-14.0-5.0-0.0","59128","ListA","man","chinese","CMA9","","","","null","","","","","",""
"2310.5","<img src=""portrait/BM2.jpg""style=""height:400px;""></img>","5","html-button-response","128","760792","0.0-14.0-7.0","59128","ListA","man","chinese","CMA9","","true","5","","","","","","",""
"null","正确","","html-keyboard-response","129","762310","0.0-14.0-8.0-0.0","59128","ListA","man","chinese","CMA9","","","","null","","","","","",""
"10230","<img src=""portrait/BW2.jpg""style=""height:400px;""></img>","2","html-button-response","130","772542","0.0-14.0-10.0","59128","ListA","man","chinese","CMA9","","true","2","","","","","","",""
"null","正确","","html-keyboard-response","131","774065","0.0-14.0-11.0-0.0","59128","ListA","man","chinese","CMA9","","","","null","","","","","",""
"2257.5999999940395","<img src=""portrait/WW1.jpg""style=""height:400px;""></img>","1","html-button-response","132","776325","0.0-14.0-13.0","59128","ListA","man","chinese","CMA9","","true","1","","","","","","",""
"null","正确","","html-keyboard-response","133","777840","0.0-14.0-14.0-0.0","59128","ListA","man","chinese","CMA9","","","","null","","","","","",""
"2831.10000000149","<img src=""portrait/BW1.jpg""style=""height:400px;""></img>","0","html-button-response","134","780673","0.0-14.0-16.0","59128","ListA","man","chinese","CMA9","","true","0","","","","","","",""
"null","正确","","html-keyboard-response","135","782180","0.0-14.0-17.0-0.0","59128","ListA","man","chinese","CMA9","","","","null","","","","","",""
"6526.39999999851","<img src=""portrait/WM1.jpg""style=""height:400px;""></img>","6","html-button-response","136","788709","0.0-14.0-19.0","59128","ListA","man","chinese","CMA9","","true","6","","","","","","",""
"null","正确","","html-keyboard-response","137","790232","0.0-14.0-20.0-0.0","59128","ListA","man","chinese","CMA9","","","","null","","","","","",""
"2206.89999999851","<img src=""portrait/WM2.jpg""style=""height:400px;""></img>","7","html-button-response","138","792442","0.0-14.0-22.0","59128","ListA","man","chinese","CMA9","","true","7","","","","","","",""
"null","正确","","html-keyboard-response","139","793960","0.0-14.0-23.0-0.0","59128","ListA","man","chinese","CMA9","","","","null","","","","","",""
"2760.10000000149","<p>您第一次在8题里答对了 8 题。 请点击继续</p>","0","html-button-response","140","796723","0.0-14.0-25.0","59128","ListA","man","chinese","CMA9","","","","","","","","","",""
"null","<div style=""font-size:60px;"">+</div>","","html-keyboard-response","141","798238","0.0-15.0-0.0","59128","ListA","man","chinese","CMA9","","","","null","","","","","",""
"null","<img src='gifs/ChineseGender1b.gif' style='height:400px;''></img>","","html-keyboard-response","142","800247","0.0-15.0-1.0","59128","ListA","man","chinese","CMA9","","","","null","","","","","",""
"null","正在提到","","html-keyboard-response","143","803256","0.0-15.0-2.0","59128","ListA","man","chinese","CMA9","","","","null","","","","","",""
"7948.5999999940395","","","survey-text","144","811208","0.0-15.0-3.0","59128","ListA","man","chinese","CMA9","","","","","{""Q0"":""凯特正在提到弗雷""}","<img src='gifs/ChineseGender1b.gif' style='height:400px;''></img>","提到","正在提到","chinese",""
"null","<div style=""font-size:60px;"">+</div>","","html-keyboard-response","145","811720","0.0-15.0-0.1","59128","ListA","man","chinese","CMA9","","","","null","","","","","",""
"null","<img src='gifs/BlackGender3a.gif' style='height:400px;''></img>","","html-keyboard-response","146","813728","0.0-15.0-1.1","59128","ListA","man","chinese","CMA9","","","","null","","","","","",""
"null","正在接近","","html-keyboard-response","147","816732","0.0-15.0-2.1","59128","ListA","man","chinese","CMA9","","","","null","","","","","",""
"6078.29999999702","","","survey-text","148","822815","0.0-15.0-3.1","59128","ListA","man","chinese","CMA9","","","","","{""Q0"":""霍普正在接近卢克""}","<img src='gifs/BlackGender3a.gif' style='height:400px;''></img>","接近","正在接近","chinese",""
"null","<div style=""font-size:60px;"">+</div>","","html-keyboard-response","149","823319","0.0-15.0-0.2","59128","ListA","man","chinese","CMA9","","","","null","","","","","",""
"null","<img src='gifs/BlackGender1b.gif' style='height:400px;''></img>","","html-keyboard-response","150","825323","0.0-15.0-1.2","59128","ListA","man","chinese","CMA9","","","","null","","","","","",""
"null","正在走向","","html-keyboard-response","151","828331","0.0-15.0-2.2","59128","ListA","man","chinese","CMA9","","","","null","","","","","",""
"6163.19999999553","","","survey-text","152","834498","0.0-15.0-3.2","59128","ListA","man","chinese","CMA9","","","","","{""Q0"":""露丝正在走向卢克""}","<img src='gifs/BlackGender1b.gif' style='height:400px;''></img>","走向","正在走向","chinese",""
"null","<div style=""font-size:60px;"">+</div>","","html-keyboard-response","153","835003","0.0-15.0-0.3","59128","ListA","man","chinese","CMA9","","","","null","","","","","",""
"null","<img src='gifs/MaleRace2a.gif' style='height:400px;''></img>","","html-keyboard-response","154","837012","0.0-15.0-1.3","59128","ListA","man","chinese","CMA9","","","","null","","","","","",""
"null","正在表扬","","html-keyboard-response","155","840023","0.0-15.0-2.3","59128","ListA","man","chinese","CMA9","","","","null","","","","","",""
"4019.10000000149","","","survey-text","156","844045","0.0-15.0-3.3","59128","ListA","man","chinese","CMA9","","","","","{""Q0"":""弗雷正在表扬戴夫""}","<img src='gifs/MaleRace2a.gif' style='height:400px;''></img>","表扬","正在表扬","chinese",""
"null","<div style=""font-size:60px;"">+</div>","","html-keyboard-response","157","844550","0.0-15.0-0.4","59128","ListA","man","chinese","CMA9","","","","null","","","","","",""
"null","<img src='gifs/BlackGender1a.gif' style='height:400px;''></img>","","html-keyboard-response","158","846557","0.0-15.0-1.4","59128","ListA","man","chinese","CMA9","","","","null","","","","","",""
"null","正在加入","","html-keyboard-response","159","849567","0.0-15.0-2.4","59128","ListA","man","chinese","CMA9","","","","null","","","","","",""
"4246.39999999851","","","survey-text","160","853817","0.0-15.0-3.4","59128","ListA","man","chinese","CMA9","","","","","{""Q0"":""露丝正在加入卢克""}","<img src='gifs/BlackGender1a.gif' style='height:400px;''></img>","加入","正在加入","chinese",""
"null","<div style=""font-size:60px;"">+</div>","","html-keyboard-response","161","854327","0.0-15.0-0.5","59128","ListA","man","chinese","CMA9","","","","null","","","","","",""
"null","<img src='gifs/BlackGender4b.gif' style='height:400px;''></img>","","html-keyboard-response","162","856335","0.0-15.0-1.5","59128","ListA","man","chinese","CMA9","","","","null","","","","","",""
"null","正在表扬","","html-keyboard-response","163","859341","0.0-15.0-2.5","59128","ListA","man","chinese","CMA9","","","","null","","","","","",""
"18309.89999999851","","","survey-text","164","877654","0.0-15.0-3.5","59128","ListA","man","chinese","CMA9","","","","","{""Q0"":""戴夫正在表扬霍普""}","<img src='gifs/BlackGender4b.gif' style='height:400px;''></img>","表扬","正在表扬","chinese",""
"null","<div style=""font-size:60px;"">+</div>","","html-keyboard-response","165","878166","0.0-15.0-0.6","59128","ListA","man","chinese","CMA9","","","","null","","","","","",""
"null","<img src='gifs/BlackGender4a.gif' style='height:400px;''></img>","","html-keyboard-response","166","880172","0.0-15.0-1.6","59128","ListA","man","chinese","CMA9","","","","null","","","","","",""
"null","正在加入","","html-keyboard-response","167","883181","0.0-15.0-2.6","59128","ListA","man","chinese","CMA9","","","","null","","","","","",""
"5765.5","","","survey-text","168","888951","0.0-15.0-3.6","59128","ListA","man","chinese","CMA9","","","","","{""Q0"":""霍普正在加入戴夫""}","<img src='gifs/BlackGender4a.gif' style='height:400px;''></img>","加入","正在加入","chinese",""
"null","<div style=""font-size:60px;"">+</div>","","html-keyboard-response","169","889459","0.0-15.0-0.7","59128","ListA","man","chinese","CMA9","","","","null","","","","","",""
"null","<img src='gifs/BlackGender2a.gif' style='height:400px;''></img>","","html-keyboard-response","170","891470","0.0-15.0-1.7","59128","ListA","man","chinese","CMA9","","","","null","","","","","",""
"null","正在触摸","","html-keyboard-response","171","894476","0.0-15.0-2.7","59128","ListA","man","chinese","CMA9","","","","null","","","","","",""
"4624","","","survey-text","172","899105","0.0-15.0-3.7","59128","ListA","man","chinese","CMA9","","","","","{""Q0"":""露丝正在触摸戴夫""}","<img src='gifs/BlackGender2a.gif' style='height:400px;''></img>","触摸","正在触摸","chinese",""
"null","<div style=""font-size:60px;"">+</div>","","html-keyboard-response","173","899614","0.0-15.0-0.8","59128","ListA","man","chinese","CMA9","","","","null","","","","","",""
"null","<img src='gifs/BlackGender3a.gif' style='height:400px;''></img>","","html-keyboard-response","174","901622","0.0-15.0-1.8","59128","ListA","man","chinese","CMA9","","","","null","","","","","",""
"null","正在介绍","","html-keyboard-response","175","904626","0.0-15.0-2.8","59128","ListA","man","chinese","CMA9","","","","null","","","","","",""
"3740.10000000149","","","survey-text","176","908371","0.0-15.0-3.8","59128","ListA","man","chinese","CMA9","","","","","{""Q0"":""卢克正在介绍霍普""}","<img src='gifs/BlackGender3a.gif' style='height:400px;''></img>","介绍","正在介绍","chinese",""
"null","<div style=""font-size:60px;"">+</div>","","html-keyboard-response","177","908876","0.0-15.0-0.9","59128","ListA","man","chinese","CMA9","","","","null","","","","","",""
"null","<img src='gifs/FemaleRace2b.gif' style='height:400px;''></img>","","html-keyboard-response","178","910886","0.0-15.0-1.9","59128","ListA","man","chinese","CMA9","","","","null","","","","","",""
"null","正在面向","","html-keyboard-response","179","913893","0.0-15.0-2.9","59128","ListA","man","chinese","CMA9","","","","null","","","","","",""
"3726.2999999970198","","","survey-text","180","917623","0.0-15.0-3.9","59128","ListA","man","chinese","CMA9","","","","","{""Q0"":""凯特正在面向霍普""}","<img src='gifs/FemaleRace2b.gif' style='height:400px;''></img>","面向","正在面向","chinese",""
"null","<div style=""font-size:60px;"">+</div>","","html-keyboard-response","181","918134","0.0-15.0-0.10","59128","ListA","man","chinese","CMA9","","","","null","","","","","",""
"null","<img src='gifs/MaleRace1a.gif' style='height:400px;''></img>","","html-keyboard-response","182","920149","0.0-15.0-1.10","59128","ListA","man","chinese","CMA9","","","","null","","","","","",""
"null","正在聘用","","html-keyboard-response","183","923156","0.0-15.0-2.10","59128","ListA","man","chinese","CMA9","","","","null","","","","","",""
"3417.39999999851","","","survey-text","184","926578","0.0-15.0-3.10","59128","ListA","man","chinese","CMA9","","","","","{""Q0"":""卢克正在聘用弗雷""}","<img src='gifs/MaleRace1a.gif' style='height:400px;''></img>","聘用","正在聘用","chinese",""
"null","<div style=""font-size:60px;"">+</div>","","html-keyboard-response","185","927082","0.0-15.0-0.11","59128","ListA","man","chinese","CMA9","","","","null","","","","","",""
"null","<img src='gifs/MaleRace2a.gif' style='height:400px;''></img>","","html-keyboard-response","186","929093","0.0-15.0-1.11","59128","ListA","man","chinese","CMA9","","","","null","","","","","",""
"null","正在表扬","","html-keyboard-response","187","932098","0.0-15.0-2.11","59128","ListA","man","chinese","CMA9","","","","null","","","","","",""
"3838.60000000149","","","survey-text","188","935941","0.0-15.0-3.11","59128","ListA","man","chinese","CMA9","","","","","{""Q0"":""戴夫正在表扬弗雷""}","<img src='gifs/MaleRace2a.gif' style='height:400px;''></img>","表扬","正在表扬","chinese",""
"null","<div style=""font-size:60px;"">+</div>","","html-keyboard-response","189","936453","0.0-15.0-0.12","59128","ListA","man","chinese","CMA9","","","","null","","","","","",""
"null","<img src='gifs/FemaleRace3b.gif' style='height:400px;''></img>","","html-keyboard-response","190","938461","0.0-15.0-1.12","59128","ListA","man","chinese","CMA9","","","","null","","","","","",""
"null","正在陪伴","","html-keyboard-response","191","941464","0.0-15.0-2.12","59128","ListA","man","chinese","CMA9","","","","null","","","","","",""
"4191.69999999553","","","survey-text","192","945660","0.0-15.0-3.12","59128","ListA","man","chinese","CMA9","","","","","{""Q0"":""露丝正在陪伴贝丝""}","<img src='gifs/FemaleRace3b.gif' style='height:400px;''></img>","陪伴","正在陪伴","chinese",""
"null","<div style=""font-size:60px;"">+</div>","","html-keyboard-response","193","946165","0.0-15.0-0.13","59128","ListA","man","chinese","CMA9","","","","null","","","","","",""
"null","<img src='gifs/MaleRace3b.gif' style='height:400px;''></img>","","html-keyboard-response","194","948173","0.0-15.0-1.13","59128","ListA","man","chinese","CMA9","","","","null","","","","","",""
"null","正在看着","","html-keyboard-response","195","951177","0.0-15.0-2.13","59128","ListA","man","chinese","CMA9","","","","null","","","","","",""
"4916","","","survey-text","196","956097","0.0-15.0-3.13","59128","ListA","man","chinese","CMA9","","","","","{""Q0"":""麦克正在看着卢克""}","<img src='gifs/MaleRace3b.gif' style='height:400px;''></img>","看着","正在看着","chinese",""
"null","<div style=""font-size:60px;"">+</div>","","html-keyboard-response","197","956603","0.0-15.0-0.14","59128","ListA","man","chinese","CMA9","","","","null","","","","","",""
"null","<img src='gifs/ChineseGender3a.gif' style='height:400px;''></img>","","html-keyboard-response","198","958608","0.0-15.0-1.14","59128","ListA","man","chinese","CMA9","","","","null","","","","","",""
"null","正在看着","","html-keyboard-response","199","961619","0.0-15.0-2.14","59128","ListA","man","chinese","CMA9","","","","null","","","","","",""
"4863.60000000149","","","survey-text","200","966486","0.0-15.0-3.14","59128","ListA","man","chinese","CMA9","","","","","{""Q0"":""贝丝正在看着麦克""}","<img src='gifs/ChineseGender3a.gif' style='height:400px;''></img>","看着","正在看着","chinese",""
"null","<div style=""font-size:60px;"">+</div>","","html-keyboard-response","201","966991","0.0-15.0-0.15","59128","ListA","man","chinese","CMA9","","","","null","","","","","",""
"null","<img src='gifs/BlackGender3b.gif' style='height:400px;''></img>","","html-keyboard-response","202","969000","0.0-15.0-1.15","59128","ListA","man","chinese","CMA9","","","","null","","","","","",""
"null","正在陪伴","","html-keyboard-response","203","972008","0.0-15.0-2.15","59128","ListA","man","chinese","CMA9","","","","null","","","","","",""
"3751.7999999970198","","","survey-text","204","975763","0.0-15.0-3.15","59128","ListA","man","chinese","CMA9","","","","","{""Q0"":""卢克正在陪伴霍普""}","<img src='gifs/BlackGender3b.gif' style='height:400px;''></img>","陪伴","正在陪伴","chinese",""
"null","<div style=""font-size:60px;"">+</div>","","html-keyboard-response","205","976268","0.0-15.0-0.16","59128","ListA","man","chinese","CMA9","","","","null","","","","","",""
"null","<img src='gifs/ChineseGender2a.gif' style='height:400px;''></img>","","html-keyboard-response","206","978271","0.0-15.0-1.16","59128","ListA","man","chinese","CMA9","","","","null","","","","","",""
"null","正在陪伴","","html-keyboard-response","207","981283","0.0-15.0-2.16","59128","ListA","man","chinese","CMA9","","","","null","","","","","",""
"3620.1999999955297","","","survey-text","208","984908","0.0-15.0-3.16","59128","ListA","man","chinese","CMA9","","","","","{""Q0"":""弗雷正在陪伴贝丝""}","<img src='gifs/ChineseGender2a.gif' style='height:400px;''></img>","陪伴","正在陪伴","chinese",""
"null","<div style=""font-size:60px;"">+</div>","","html-keyboard-response","209","985417","0.0-15.0-0.17","59128","ListA","man","chinese","CMA9","","","","null","","","","","",""
"null","<img src='gifs/ChineseGender2b.gif' style='height:400px;''></img>","","html-keyboard-response","210","987426","0.0-15.0-1.17","59128","ListA","man","chinese","CMA9","","","","null","","","","","",""
"null","正在介绍","","html-keyboard-response","211","990432","0.0-15.0-2.17","59128","ListA","man","chinese","CMA9","","","","null","","","","","",""
"3502.60000000149","","","survey-text","212","993939","0.0-15.0-3.17","59128","ListA","man","chinese","CMA9","","","","","{""Q0"":""贝丝正在介绍弗雷""}","<img src='gifs/ChineseGender2b.gif' style='height:400px;''></img>","介绍","正在介绍","chinese",""
"14166.89999999851","<img src='img/portrait_matrix_listA_chinese.jpg' style='width:900px;height:500px;''></img><p>如果您已经记住了所有的人物和名字，请点击继续。</p><p><strong>请注意：您对先前记忆的面孔将在本实验中被测试5次。</strong></p>","0","html-button-response","213","1008108","0.0-16.0-0.0","59128","ListA","man","chinese","CMA9","","","","","","","","","",""
"3060.5","<img src=""portrait/BM1.jpg""style=""height:400px;""></img>","4","html-button-response","214","1012174","0.0-16.0-1.0","59128","ListA","man","chinese","CMA9","","true","4","","","","","","",""
"null","正确","","html-keyboard-response","215","1013694","0.0-16.0-2.0-0.0","59128","ListA","man","chinese","CMA9","","","","null","","","","","",""
"1941.7999999970198","<img src=""portrait/WW1.jpg""style=""height:400px;""></img>","1","html-button-response","216","1015639","0.0-16.0-4.0","59128","ListA","man","chinese","CMA9","","true","1","","","","","","",""
"null","正确","","html-keyboard-response","217","1017152","0.0-16.0-5.0-0.0","59128","ListA","man","chinese","CMA9","","","","null","","","","","",""
"3450.3000000044703","<img src=""portrait/BW1.jpg""style=""height:400px;""></img>","0","html-button-response","218","1020605","0.0-16.0-7.0","59128","ListA","man","chinese","CMA9","","true","0","","","","","","",""
"null","正确","","html-keyboard-response","219","1022111","0.0-16.0-8.0-0.0","59128","ListA","man","chinese","CMA9","","","","null","","","","","",""
"1709.5","<img src=""portrait/WM2.jpg""style=""height:400px;""></img>","7","html-button-response","220","1023824","0.0-16.0-10.0","59128","ListA","man","chinese","CMA9","","true","7","","","","","","",""
"null","正确","","html-keyboard-response","221","1025345","0.0-16.0-11.0-0.0","59128","ListA","man","chinese","CMA9","","","","null","","","","","",""
"2525.7000000029802","<img src=""portrait/WW2.jpg""style=""height:400px;""></img>","3","html-button-response","222","1027874","0.0-16.0-13.0","59128","ListA","man","chinese","CMA9","","true","3","","","","","","",""
"null","正确","","html-keyboard-response","223","1029382","0.0-16.0-14.0-0.0","59128","ListA","man","chinese","CMA9","","","","null","","","","","",""
"4503.70000000298","<img src=""portrait/WM1.jpg""style=""height:400px;""></img>","6","html-button-response","224","1033889","0.0-16.0-16.0","59128","ListA","man","chinese","CMA9","","true","6","","","","","","",""
"null","正确","","html-keyboard-response","225","1035407","0.0-16.0-17.0-0.0","59128","ListA","man","chinese","CMA9","","","","null","","","","","",""
"3312.10000000149","<img src=""portrait/BM2.jpg""style=""height:400px;""></img>","5","html-button-response","226","1038722","0.0-16.0-19.0","59128","ListA","man","chinese","CMA9","","true","5","","","","","","",""
"null","正确","","html-keyboard-response","227","1040234","0.0-16.0-20.0-0.0","59128","ListA","man","chinese","CMA9","","","","null","","","","","",""
"4553.89999999851","<img src=""portrait/BW2.jpg""style=""height:400px;""></img>","2","html-button-response","228","1044790","0.0-16.0-22.0","59128","ListA","man","chinese","CMA9","","true","2","","","","","","",""
"null","正确","","html-keyboard-response","229","1046314","0.0-16.0-23.0-0.0","59128","ListA","man","chinese","CMA9","","","","null","","","","","",""
"1005.8000000044703","<p>您第一次在8题里答对了 8 题。 请点击继续</p>","0","html-button-response","230","1047322","0.0-16.0-25.0","59128","ListA","man","chinese","CMA9","","","","","","","","","",""
"null","<div style=""font-size:60px;"">+</div>","","html-keyboard-response","231","1048832","0.0-17.0-0.0","59128","ListA","man","chinese","CMA9","","","","null","","","","","",""
"null","<img src='gifs/ChineseGender4a.gif' style='height:400px;''></img>","","html-keyboard-response","232","1050838","0.0-17.0-1.0","59128","ListA","man","chinese","CMA9","","","","null","","","","","",""
"null","正在答应","","html-keyboard-response","233","1053849","0.0-17.0-2.0","59128","ListA","man","chinese","CMA9","","","","null","","","","","",""
"4868","","","survey-text","234","1058721","0.0-17.0-3.0","59128","ListA","man","chinese","CMA9","","","","","{""Q0"":""凯特正在答应麦克""}","<img src='gifs/ChineseGender4a.gif' style='height:400px;''></img>","答应","正在答应","chinese",""
"null","<div style=""font-size:60px;"">+</div>","","html-keyboard-response","235","1059230","0.0-17.0-0.1","59128","ListA","man","chinese","CMA9","","","","null","","","","","",""
"null","<img src='gifs/FemaleRace2a.gif' style='height:400px;''></img>","","html-keyboard-response","236","1061242","0.0-17.0-1.1","59128","ListA","man","chinese","CMA9","","","","null","","","","","",""
"null","正在答应","","html-keyboard-response","237","1064249","0.0-17.0-2.1","59128","ListA","man","chinese","CMA9","","","","null","","","","","",""
"4303.60000000149","","","survey-text","238","1068557","0.0-17.0-3.1","59128","ListA","man","chinese","CMA9","","","","","{""Q0"":""霍普正在答应凯特""}","<img src='gifs/FemaleRace2a.gif' style='height:400px;''></img>","答应","正在答应","chinese",""
"null","<div style=""font-size:60px;"">+</div>","","html-keyboard-response","239","1069061","0.0-17.0-0.2","59128","ListA","man","chinese","CMA9","","","","null","","","","","",""
"null","<img src='gifs/MaleRace1b.gif' style='height:400px;''></img>","","html-keyboard-response","240","1071073","0.0-17.0-1.2","59128","ListA","man","chinese","CMA9","","","","null","","","","","",""
"null","正在跟随","","html-keyboard-response","241","1074078","0.0-17.0-2.2","59128","ListA","man","chinese","CMA9","","","","null","","","","","",""
"3313.6999999955297","","","survey-text","242","1077394","0.0-17.0-3.2","59128","ListA","man","chinese","CMA9","","","","","{""Q0"":""弗雷正在跟随卢克""}","<img src='gifs/MaleRace1b.gif' style='height:400px;''></img>","跟随","正在跟随","chinese",""
"null","<div style=""font-size:60px;"">+</div>","","html-keyboard-response","243","1077905","0.0-17.0-0.3","59128","ListA","man","chinese","CMA9","","","","null","","","","","",""
"null","<img src='gifs/MaleRace4b.gif' style='height:400px;''></img>","","html-keyboard-response","244","1079910","0.0-17.0-1.3","59128","ListA","man","chinese","CMA9","","","","null","","","","","",""
"null","正在介绍","","html-keyboard-response","245","1082917","0.0-17.0-2.3","59128","ListA","man","chinese","CMA9","","","","null","","","","","",""
"3479.7000000029802","","","survey-text","246","1086400","0.0-17.0-3.3","59128","ListA","man","chinese","CMA9","","","","","{""Q0"":""麦克正在介绍戴夫""}","<img src='gifs/MaleRace4b.gif' style='height:400px;''></img>","介绍","正在介绍","chinese",""
"null","<div style=""font-size:60px;"">+</div>","","html-keyboard-response","247","1086911","0.0-17.0-0.4","59128","ListA","man","chinese","CMA9","","","","null","","","","","",""
"null","<img src='gifs/BlackGender3b.gif' style='height:400px;''></img>","","html-keyboard-response","248","1088921","0.0-17.0-1.4","59128","ListA","man","chinese","CMA9","","","","null","","","","","",""
"null","正在跟随","","html-keyboard-response","249","1091924","0.0-17.0-2.4","59128","ListA","man","chinese","CMA9","","","","null","","","","","",""
"3108.8000000044703","","","survey-text","250","1095037","0.0-17.0-3.4","59128","ListA","man","chinese","CMA9","","","","","{""Q0"":""霍普正在跟随卢克""}","<img src='gifs/BlackGender3b.gif' style='height:400px;''></img>","跟随","正在跟随","chinese",""
"null","<div style=""font-size:60px;"">+</div>","","html-keyboard-response","251","1095543","0.0-17.0-0.5","59128","ListA","man","chinese","CMA9","","","","null","","","","","",""
"null","<img src='gifs/BlackGender1a.gif' style='height:400px;''></img>","","html-keyboard-response","252","1097551","0.0-17.0-1.5","59128","ListA","man","chinese","CMA9","","","","null","","","","","",""
"null","正在说服","","html-keyboard-response","253","1100557","0.0-17.0-2.5","59128","ListA","man","chinese","CMA9","","","","null","","","","","",""
"5080.19999999553","","","survey-text","254","1105641","0.0-17.0-3.5","59128","ListA","man","chinese","CMA9","","","","","{""Q0"":""卢克正在说服露丝""}","<img src='gifs/BlackGender1a.gif' style='height:400px;''></img>","说服","正在说服","chinese",""
"null","<div style=""font-size:60px;"">+</div>","","html-keyboard-response","255","1106152","0.0-17.0-0.6","59128","ListA","man","chinese","CMA9","","","","null","","","","","",""
"null","<img src='gifs/MaleRace3a.gif' style='height:400px;''></img>","","html-keyboard-response","256","1108160","0.0-17.0-1.6","59128","ListA","man","chinese","CMA9","","","","null","","","","","",""
"null","正在触摸","","html-keyboard-response","257","1111166","0.0-17.0-2.6","59128","ListA","man","chinese","CMA9","","","","null","","","","","",""
"6291.39999999851","","","survey-text","258","1117462","0.0-17.0-3.6","59128","ListA","man","chinese","CMA9","","","","","{""Q0"":""卢克正在触摸麦克""}","<img src='gifs/MaleRace3a.gif' style='height:400px;''></img>","触摸","正在触摸","chinese",""
"null","<div style=""font-size:60px;"">+</div>","","html-keyboard-response","259","1117964","0.0-17.0-0.7","59128","ListA","man","chinese","CMA9","","","","null","","","","","",""
"null","<img src='gifs/FemaleRace4a.gif' style='height:400px;''></img>","","html-keyboard-response","260","1119971","0.0-17.0-1.7","59128","ListA","man","chinese","CMA9","","","","null","","","","","",""
"null","正在面向","","html-keyboard-response","261","1122982","0.0-17.0-2.7","59128","ListA","man","chinese","CMA9","","","","null","","","","","",""
"4321.4000000059605","","","survey-text","262","1127308","0.0-17.0-3.7","59128","ListA","man","chinese","CMA9","","","","","{""Q0"":""霍普正在面向贝斯""}","<img src='gifs/FemaleRace4a.gif' style='height:400px;''></img>","面向","正在面向","chinese",""
"null","<div style=""font-size:60px;"">+</div>","","html-keyboard-response","263","1127811","0.0-17.0-0.8","59128","ListA","man","chinese","CMA9","","","","null","","","","","",""
"null","<img src='gifs/FemaleRace4b.gif' style='height:400px;''></img>","","html-keyboard-response","264","1129824","0.0-17.0-1.8","59128","ListA","man","chinese","CMA9","","","","null","","","","","",""
"null","正在联系","","html-keyboard-response","265","1132827","0.0-17.0-2.8","59128","ListA","man","chinese","CMA9","","","","null","","","","","",""
"6235.30000000447","","","survey-text","266","1139067","0.0-17.0-3.8","59128","ListA","man","chinese","CMA9","","","","","{""Q0"":""贝斯正在联系霍普""}","<img src='gifs/FemaleRace4b.gif' style='height:400px;''></img>","联系","正在联系","chinese",""
"null","<div style=""font-size:60px;"">+</div>","","html-keyboard-response","267","1139572","0.0-17.0-0.9","59128","ListA","man","chinese","CMA9","","","","null","","","","","",""
"null","<img src='gifs/FemaleRace3a.gif' style='height:400px;''></img>","","html-keyboard-response","268","1141579","0.0-17.0-1.9","59128","ListA","man","chinese","CMA9","","","","null","","","","","",""
"null","正在跟随","","html-keyboard-response","269","1144587","0.0-17.0-2.9","59128","ListA","man","chinese","CMA9","","","","null","","","","","",""
"5188.20000000298","","","survey-text","270","1149779","0.0-17.0-3.9","59128","ListA","man","chinese","CMA9","","","","","{""Q0"":""露丝正在跟随贝斯""}","<img src='gifs/FemaleRace3a.gif' style='height:400px;''></img>","跟随","正在跟随","chinese",""
"null","<div style=""font-size:60px;"">+</div>","","html-keyboard-response","271","1150287","0.0-17.0-0.10","59128","ListA","man","chinese","CMA9","","","","null","","","","","",""
"null","<img src='gifs/BlackGender2a.gif' style='height:400px;''></img>","","html-keyboard-response","272","1152299","0.0-17.0-1.10","59128","ListA","man","chinese","CMA9","","","","null","","","","","",""
"null","正在触摸","","html-keyboard-response","273","1155310","0.0-17.0-2.10","59128","ListA","man","chinese","CMA9","","","","null","","","","","",""
"5231","","","survey-text","274","1160546","0.0-17.0-3.10","59128","ListA","man","chinese","CMA9","","","","","{""Q0"":""戴夫正在触摸露丝""}","<img src='gifs/BlackGender2a.gif' style='height:400px;''></img>","触摸","正在触摸","chinese",""
"null","<div style=""font-size:60px;"">+</div>","","html-keyboard-response","275","1161052","0.0-17.0-0.11","59128","ListA","man","chinese","CMA9","","","","null","","","","","",""
"null","<img src='gifs/FemaleRace2b.gif' style='height:400px;''></img>","","html-keyboard-response","276","1163063","0.0-17.0-1.11","59128","ListA","man","chinese","CMA9","","","","null","","","","","",""
"null","正在看着","","html-keyboard-response","277","1166067","0.0-17.0-2.11","59128","ListA","man","chinese","CMA9","","","","null","","","","","",""
"4515.70000000298","","","survey-text","278","1170587","0.0-17.0-3.11","59128","ListA","man","chinese","CMA9","","","","","{""Q0"":""霍普正在看着凯特""}","<img src='gifs/FemaleRace2b.gif' style='height:400px;''></img>","看着","正在看着","chinese",""
"null","<div style=""font-size:60px;"">+</div>","","html-keyboard-response","279","1171095","0.0-17.0-0.12","59128","ListA","man","chinese","CMA9","","","","null","","","","","",""
"null","<img src='gifs/ChineseGender1b.gif' style='height:400px;''></img>","","html-keyboard-response","280","1173111","0.0-17.0-1.12","59128","ListA","man","chinese","CMA9","","","","null","","","","","",""
"null","正在聘用","","html-keyboard-response","281","1176118","0.0-17.0-2.12","59128","ListA","man","chinese","CMA9","","","","null","","","","","",""
"5164","","","survey-text","282","1181286","0.0-17.0-3.12","59128","ListA","man","chinese","CMA9","","","","","{""Q0"":""弗雷正在聘用凯特""}","<img src='gifs/ChineseGender1b.gif' style='height:400px;''></img>","聘用","正在聘用","chinese",""
"null","<div style=""font-size:60px;"">+</div>","","html-keyboard-response","283","1181798","0.0-17.0-0.13","59128","ListA","man","chinese","CMA9","","","","null","","","","","",""
"null","<img src='gifs/MaleRace4a.gif' style='height:400px;''></img>","","html-keyboard-response","284","1183806","0.0-17.0-1.13","59128","ListA","man","chinese","CMA9","","","","null","","","","","",""
"null","正在接近","","html-keyboard-response","285","1186810","0.0-17.0-2.13","59128","ListA","man","chinese","CMA9","","","","null","","","","","",""
"3906.89999999851","","","survey-text","286","1190720","0.0-17.0-3.13","59128","ListA","man","chinese","CMA9","","","","","{""Q0"":""戴夫正在接近麦克""}","<img src='gifs/MaleRace4a.gif' style='height:400px;''></img>","接近","正在接近","chinese",""
"null","<div style=""font-size:60px;"">+</div>","","html-keyboard-response","287","1191230","0.0-17.0-0.14","59128","ListA","man","chinese","CMA9","","","","null","","","","","",""
"null","<img src='gifs/ChineseGender3b.gif' style='height:400px;''></img>","","html-keyboard-response","288","1193238","0.0-17.0-1.14","59128","ListA","man","chinese","CMA9","","","","null","","","","","",""
"null","正在走向","","html-keyboard-response","289","1196246","0.0-17.0-2.14","59128","ListA","man","chinese","CMA9","","","","null","","","","","",""
"6503.20000000298","","","survey-text","290","1202752","0.0-17.0-3.14","59128","ListA","man","chinese","CMA9","","","","","{""Q0"":""麦克正在走向贝斯""}","<img src='gifs/ChineseGender3b.gif' style='height:400px;''></img>","走向","正在走向","chinese",""
"null","<div style=""font-size:60px;"">+</div>","","html-keyboard-response","291","1203262","0.0-17.0-0.15","59128","ListA","man","chinese","CMA9","","","","null","","","","","",""
"null","<img src='gifs/FemaleRace1b.gif' style='height:400px;''></img>","","html-keyboard-response","292","1205268","0.0-17.0-1.15","59128","ListA","man","chinese","CMA9","","","","null","","","","","",""
"null","正在提到","","html-keyboard-response","293","1208277","0.0-17.0-2.15","59128","ListA","man","chinese","CMA9","","","","null","","","","","",""
"3204","","","survey-text","294","1211485","0.0-17.0-3.15","59128","ListA","man","chinese","CMA9","","","","","{""Q0"":""露丝正在提到凯特""}","<img src='gifs/FemaleRace1b.gif' style='height:400px;''></img>","提到","正在提到","chinese",""
"null","<div style=""font-size:60px;"">+</div>","","html-keyboard-response","295","1211995","0.0-17.0-0.16","59128","ListA","man","chinese","CMA9","","","","null","","","","","",""
"null","<img src='gifs/FemaleRace4b.gif' style='height:400px;''></img>","","html-keyboard-response","296","1214001","0.0-17.0-1.16","59128","ListA","man","chinese","CMA9","","","","null","","","","","",""
"null","正在介绍","","html-keyboard-response","297","1217013","0.0-17.0-2.16","59128","ListA","man","chinese","CMA9","","","","null","","","","","",""
"4864.39999999851","","","survey-text","298","1221882","0.0-17.0-3.16","59128","ListA","man","chinese","CMA9","","","","","{""Q0"":""霍普正在介绍贝斯""}","<img src='gifs/FemaleRace4b.gif' style='height:400px;''></img>","介绍","正在介绍","chinese",""
"null","<div style=""font-size:60px;"">+</div>","","html-keyboard-response","299","1222387","0.0-17.0-0.17","59128","ListA","man","chinese","CMA9","","","","null","","","","","",""
"null","<img src='gifs/ChineseGender2b.gif' style='height:400px;''></img>","","html-keyboard-response","300","1224397","0.0-17.0-1.17","59128","ListA","man","chinese","CMA9","","","","null","","","","","",""
"null","正在答应","","html-keyboard-response","301","1227405","0.0-17.0-2.17","59128","ListA","man","chinese","CMA9","","","","null","","","","","",""
"3620.7999999970198","","","survey-text","302","1231030","0.0-17.0-3.17","59128","ListA","man","chinese","CMA9","","","","","{""Q0"":""弗雷正在答应贝斯""}","<img src='gifs/ChineseGender2b.gif' style='height:400px;''></img>","答应","正在答应","chinese",""
"3740.5","<p>Thank you for completing that task.</p><p>The final part of this session is a short questionnaire.</p><p>Press Continue.</p>","0","html-button-response","303","1234772","0.0-18.0","59128","ListA","man","chinese","CMA9","","","","","","","","","",""
"41223.5","","","survey-text","304","1277007","0.0-19.0","59128","ListA","man","chinese","CMA9","","","","","{""Q0"":""22"",""Q1"":""Cantonese"",""Q2"":""Mandarin"",""Q3"":""U.K"",""Q4"":""China"",""Q5"":""Chinese"",""Q6"":""Male""}","","","","","demographics"
"7293.29999999702","<p>Have you lived in the UK for the last 5 years or more?</p>","1","html-button-response","305","1284303","0.0-20.0","59128","ListA","man","chinese","CMA9","","","","","","","","","","fiveyears"
"81724.70000000298","","","external-html","306","1367153","0.0-21.0","59128","ListA","man","chinese","CMA9","debrief.html","","","","","","","","",""
"62052.09999999404","","","survey-text","307","1429208","0.0-22.0","59128","ListA","man","chinese","CMA9","","","","","{""ptpt_id"":""CMA9""}","","","","","worker_id"
