"rt","stimulus","button_pressed","trial_type","trial_index","time_elapsed","internal_node_id","subject","list","ppt_gender","ppt_language","ptptID","url","first_guess","correct","key_press","responses","image","verb","phrase","condition","test_part"
"1475","Welcome to the experiment. Press Continue to begin.","0","html-button-response","0","1478","0.0-0.0","60527","ListB","man","english","SW_E_M_B3","","","","","","","","","",""
"3395","","","external-html","1","5899","0.0-1.0","60527","ListB","man","english","SW_E_M_B3","consent.html","","","","","","","","",""
"997","<p>On the next page, you will see portraits of 8 people and their names.</p><p>Your first task is to take a few minutes to memorise the names of these people.</p><p>You will have to recall their names during the rest of the experiment, so it is</p><p>essential that you try to memorise these people and their names as best as you can.</p><p><strong>You will then be tested on your memory of these names and portraits.</strong></p><p>The experiment will start after you have completed this memory test.</p><p>Ready?</p>","0","html-button-response","2","6897","0.0-2.0","60527","ListB","man","english","SW_E_M_B3","","","","","","","","","",""
"80583","<img src='img/portrait_matrix_listB.jpg' style='width:900px;height:500px;''></img><p>If you have memorised all the portraits and names and are ready to start, press Continue.</p><p><strong>Please note: Your memory of these faces will be tested 5 times during this experiment.</strong></p>","0","html-button-response","3","88490","0.0-3.0-0.0","60527","ListB","man","english","SW_E_M_B3","","","","","","","","","",""
"5107","<img src=""portrait/BW1.jpg""style=""height:400px;""></img>","0","html-button-response","4","94602","0.0-3.0-1.0","60527","ListB","man","english","SW_E_M_B3","","true","0","","","","","","",""
"null","CORRECT","","html-keyboard-response","5","96124","0.0-3.0-2.0-0.0","60527","ListB","man","english","SW_E_M_B3","","","","null","","","","","",""
"19050","<img src=""portrait/WW1.jpg""style=""height:400px;""></img>","1","html-button-response","6","115175","0.0-3.0-4.0","60527","ListB","man","english","SW_E_M_B3","","true","1","","","","","","",""
"null","CORRECT","","html-keyboard-response","7","116684","0.0-3.0-5.0-0.0","60527","ListB","man","english","SW_E_M_B3","","","","null","","","","","",""
"3038","<img src=""portrait/WW2.jpg""style=""height:400px;""></img>","3","html-button-response","8","119722","0.0-3.0-7.0","60527","ListB","man","english","SW_E_M_B3","","true","3","","","","","","",""
"null","CORRECT","","html-keyboard-response","9","121236","0.0-3.0-8.0-0.0","60527","ListB","man","english","SW_E_M_B3","","","","null","","","","","",""
"2546","<img src=""portrait/BM2.jpg""style=""height:400px;""></img>","5","html-button-response","10","123783","0.0-3.0-10.0","60527","ListB","man","english","SW_E_M_B3","","true","5","","","","","","",""
"null","CORRECT","","html-keyboard-response","11","125297","0.0-3.0-11.0-0.0","60527","ListB","man","english","SW_E_M_B3","","","","null","","","","","",""
"4432","<img src=""portrait/BW2.jpg""style=""height:400px;""></img>","2","html-button-response","12","129731","0.0-3.0-13.0","60527","ListB","man","english","SW_E_M_B3","","true","2","","","","","","",""
"null","CORRECT","","html-keyboard-response","13","131249","0.0-3.0-14.0-0.0","60527","ListB","man","english","SW_E_M_B3","","","","null","","","","","",""
"2185","<img src=""portrait/WM2.jpg""style=""height:400px;""></img>","7","html-button-response","14","133436","0.0-3.0-16.0","60527","ListB","man","english","SW_E_M_B3","","true","7","","","","","","",""
"null","CORRECT","","html-keyboard-response","15","134949","0.0-3.0-17.0-0.0","60527","ListB","man","english","SW_E_M_B3","","","","null","","","","","",""
"3840","<img src=""portrait/BM1.jpg""style=""height:400px;""></img>","4","html-button-response","16","138791","0.0-3.0-19.0","60527","ListB","man","english","SW_E_M_B3","","true","4","","","","","","",""
"null","CORRECT","","html-keyboard-response","17","140310","0.0-3.0-20.0-0.0","60527","ListB","man","english","SW_E_M_B3","","","","null","","","","","",""
"2700","<img src=""portrait/WM1.jpg""style=""height:400px;""></img>","6","html-button-response","18","143010","0.0-3.0-22.0","60527","ListB","man","english","SW_E_M_B3","","true","6","","","","","","",""
"null","CORRECT","","html-keyboard-response","19","144526","0.0-3.0-23.0-0.0","60527","ListB","man","english","SW_E_M_B3","","","","null","","","","","",""
"1245","<p>You got 8 out of 8 right first time. Press Continue.</p>","0","html-button-response","20","145772","0.0-3.0-25.0","60527","ListB","man","english","SW_E_M_B3","","","","","","","","","",""
"1760","<p>In this experiment, you will view photographs of the people from the memory game.</p><p>By using the <strong>exact</strong> phrase given <i>after</i> the photograph appears and recalling the correct names of the people in the photographs, form a sentence describing an interaction. You do not need to capitalise names.</p><p>Type your answer in the space provided. Please complete every sentence before moving onto the next trial.</p><p>You will only have a few seconds to memorise each given photograph and phrase before you can respond, so try your best to focus.</p><p>An example is given below. Press 'Continue' when you are ready.</p><img src='img/speaking_example.jpg' style='width:800px;height:460px;''></img>","0","html-button-response","21","148543","0.0-4.0","60527","ListB","man","english","SW_E_M_B3","","","","","","","","","",""
"998","<p>Before the experiment starts, you will watch two example trials. Press 'Continue'.</p>","0","html-button-response","22","150543","0.0-5.0","60527","ListB","man","english","SW_E_M_B3","","","","","","","","","",""
"null","<img src='img/meet.gif' style='height:400px;''></img>","","html-keyboard-response","23","153560","0.0-6.0","60527","ListB","man","english","SW_E_M_B3","","","","null","","","","","",""
"null","<p>is meeting</p>","","html-keyboard-response","24","155564","0.0-7.0","60527","ListB","man","english","SW_E_M_B3","","","","null","","","","","",""
"8425","<p><b>Answer:</b> jane is meeting ruth</p>","0","html-button-response","25","163989","0.0-8.0","60527","ListB","man","english","SW_E_M_B3","","","","","","","","","",""
"null","<img src='img/spy.gif' style='height:400px;''></img>","","html-keyboard-response","26","167006","0.0-9.0","60527","ListB","man","english","SW_E_M_B3","","","","null","","","","","",""
"null","<p>is being spied on by</p>","","html-keyboard-response","27","169021","0.0-10.0","60527","ListB","man","english","SW_E_M_B3","","","","null","","","","","",""
"1057","<p><b>Answer:</b> fred is being spied on by mike</p>","0","html-button-response","28","170077","0.0-11.0","60527","ListB","man","english","SW_E_M_B3","","","","","","","","","",""
"1221","<p>Ready to start the experiment?</p><br><p><strong>Remember to describe the picture using a full sentence,</strong></p><p><strong>that combines the names of the people with the <i>exact</i> phrase given.</strong></p><p><strong>To receive full payment you must do this correctly.</strong></p><p><strong> You do not need to capitalise names or use punctuation.</strong></p><br><p>Press 'Continue' to begin.</p>","0","html-button-response","29","172301","0.0-12.0","60527","ListB","man","english","SW_E_M_B3","","","","","","","","","",""
"null","<div style=""font-size:60px;"">+</div>","","html-keyboard-response","30","173811","0.0-13.0-0.0","60527","ListB","man","english","SW_E_M_B3","","","","null","","","","","",""
"null","<img src='gifs/MaleRace1a.gif' style='height:400px;''></img>","","html-keyboard-response","31","175816","0.0-13.0-1.0","60527","ListB","man","english","SW_E_M_B3","","","","null","","","","","",""
"null","is looking at","","html-keyboard-response","32","178816","0.0-13.0-2.0","60527","ListB","man","english","SW_E_M_B3","","","","null","","","","","",""
"51723","","","survey-text","33","230541","0.0-13.0-3.0","60527","ListB","man","english","SW_E_M_B3","","","","","{""Q0"":""luck is looking at ruth""}","<img src='gifs/MaleRace1a.gif' style='height:400px;''></img>","looking at","is looking at","english",""
"null","<div style=""font-size:60px;"">+</div>","","html-keyboard-response","34","231046","0.0-13.0-0.1","60527","ListB","man","english","SW_E_M_B3","","","","null","","","","","",""
"null","<img src='gifs/BlackGender1b.gif' style='height:400px;''></img>","","html-keyboard-response","35","233058","0.0-13.0-1.1","60527","ListB","man","english","SW_E_M_B3","","","","null","","","","","",""
"null","is walking towards","","html-keyboard-response","36","236072","0.0-13.0-2.1","60527","ListB","man","english","SW_E_M_B3","","","","null","","","","","",""
"56500","","","survey-text","37","292575","0.0-13.0-3.1","60527","ListB","man","english","SW_E_M_B3","","","","","{""Q0"":""beth is  walking towards fred""}","<img src='gifs/BlackGender1b.gif' style='height:400px;''></img>","walking towards","is walking towards","english",""
"null","<div style=""font-size:60px;"">+</div>","","html-keyboard-response","38","293076","0.0-13.0-0.2","60527","ListB","man","english","SW_E_M_B3","","","","null","","","","","",""
"null","<img src='gifs/MaleRace1b.gif' style='height:400px;''></img>","","html-keyboard-response","39","295087","0.0-13.0-1.2","60527","ListB","man","english","SW_E_M_B3","","","","null","","","","","",""
"null","is contacting","","html-keyboard-response","40","298099","0.0-13.0-2.2","60527","ListB","man","english","SW_E_M_B3","","","","null","","","","","",""
"43163","","","survey-text","41","341264","0.0-13.0-3.2","60527","ListB","man","english","SW_E_M_B3","","","","","{""Q0"":""fred is contacting luke""}","<img src='gifs/MaleRace1b.gif' style='height:400px;''></img>","contacting","is contacting","english",""
"null","<div style=""font-size:60px;"">+</div>","","html-keyboard-response","42","341768","0.0-13.0-0.3","60527","ListB","man","english","SW_E_M_B3","","","","null","","","","","",""
"null","<img src='gifs/BlackGender1b.gif' style='height:400px;''></img>","","html-keyboard-response","43","343780","0.0-13.0-1.3","60527","ListB","man","english","SW_E_M_B3","","","","null","","","","","",""
"null","is walking towards","","html-keyboard-response","44","346782","0.0-13.0-2.3","60527","ListB","man","english","SW_E_M_B3","","","","null","","","","","",""
"25045","","","survey-text","45","371828","0.0-13.0-3.3","60527","ListB","man","english","SW_E_M_B3","","","","","{""Q0"":""beth is walking towards fred""}","<img src='gifs/BlackGender1b.gif' style='height:400px;''></img>","walking towards","is walking towards","english",""
"null","<div style=""font-size:60px;"">+</div>","","html-keyboard-response","46","372330","0.0-13.0-0.4","60527","ListB","man","english","SW_E_M_B3","","","","null","","","","","",""
"null","<img src='gifs/BlackGender4b.gif' style='height:400px;''></img>","","html-keyboard-response","47","374342","0.0-13.0-1.4","60527","ListB","man","english","SW_E_M_B3","","","","null","","","","","",""
"null","is employing","","html-keyboard-response","48","377352","0.0-13.0-2.4","60527","ListB","man","english","SW_E_M_B3","","","","null","","","","","",""
"20341","","","survey-text","49","397696","0.0-13.0-3.4","60527","ListB","man","english","SW_E_M_B3","","","","","{""Q0"":""mike is employing kate""}","<img src='gifs/BlackGender4b.gif' style='height:400px;''></img>","employing","is employing","english",""
"null","<div style=""font-size:60px;"">+</div>","","html-keyboard-response","50","398212","0.0-13.0-0.5","60527","ListB","man","english","SW_E_M_B3","","","","null","","","","","",""
"null","<img src='gifs/MaleRace3a.gif' style='height:400px;''></img>","","html-keyboard-response","51","400223","0.0-13.0-1.5","60527","ListB","man","english","SW_E_M_B3","","","","null","","","","","",""
"null","is praising","","html-keyboard-response","52","403226","0.0-13.0-2.5","60527","ListB","man","english","SW_E_M_B3","","","","null","","","","","",""
"17783","","","survey-text","53","421011","0.0-13.0-3.5","60527","ListB","man","english","SW_E_M_B3","","","","","{""Q0"":""dave is praising fred""}","<img src='gifs/MaleRace3a.gif' style='height:400px;''></img>","praising","is praising","english",""
"null","<div style=""font-size:60px;"">+</div>","","html-keyboard-response","54","421527","0.0-13.0-0.6","60527","ListB","man","english","SW_E_M_B3","","","","null","","","","","",""
"null","<img src='gifs/BlackGender2a.gif' style='height:400px;''></img>","","html-keyboard-response","55","423530","0.0-13.0-1.6","60527","ListB","man","english","SW_E_M_B3","","","","null","","","","","",""
"null","is contacting","","html-keyboard-response","56","426534","0.0-13.0-2.6","60527","ListB","man","english","SW_E_M_B3","","","","null","","","","","",""
"19436","","","survey-text","57","445973","0.0-13.0-3.6","60527","ListB","man","english","SW_E_M_B3","","","","","{""Q0"":""beth is contacting mike""}","<img src='gifs/BlackGender2a.gif' style='height:400px;''></img>","contacting","is contacting","english",""
"null","<div style=""font-size:60px;"">+</div>","","html-keyboard-response","58","446489","0.0-13.0-0.7","60527","ListB","man","english","SW_E_M_B3","","","","null","","","","","",""
"null","<img src='gifs/ChineseGender3a.gif' style='height:400px;''></img>","","html-keyboard-response","59","448500","0.0-13.0-1.7","60527","ListB","man","english","SW_E_M_B3","","","","null","","","","","",""
"null","is mentioning","","html-keyboard-response","60","451514","0.0-13.0-2.7","60527","ListB","man","english","SW_E_M_B3","","","","null","","","","","",""
"13601","","","survey-text","61","465117","0.0-13.0-3.7","60527","ListB","man","english","SW_E_M_B3","","","","","{""Q0"":""ruth is mentioning dave""}","<img src='gifs/ChineseGender3a.gif' style='height:400px;''></img>","mention","is mentioning","english",""
"null","<div style=""font-size:60px;"">+</div>","","html-keyboard-response","62","465618","0.0-13.0-0.8","60527","ListB","man","english","SW_E_M_B3","","","","null","","","","","",""
"null","<img src='gifs/BlackGender2a.gif' style='height:400px;''></img>","","html-keyboard-response","63","467621","0.0-13.0-1.8","60527","ListB","man","english","SW_E_M_B3","","","","null","","","","","",""
"null","is promising","","html-keyboard-response","64","470626","0.0-13.0-2.8","60527","ListB","man","english","SW_E_M_B3","","","","null","","","","","",""
"12665","","","survey-text","65","483294","0.0-13.0-3.8","60527","ListB","man","english","SW_E_M_B3","","","","","{""Q0"":""mike is promising beth""}","<img src='gifs/BlackGender2a.gif' style='height:400px;''></img>","promising","is promising","english",""
"null","<div style=""font-size:60px;"">+</div>","","html-keyboard-response","66","483796","0.0-13.0-0.9","60527","ListB","man","english","SW_E_M_B3","","","","null","","","","","",""
"null","<img src='gifs/ChineseGender3b.gif' style='height:400px;''></img>","","html-keyboard-response","67","485805","0.0-13.0-1.9","60527","ListB","man","english","SW_E_M_B3","","","","null","","","","","",""
"null","is employing","","html-keyboard-response","68","488811","0.0-13.0-2.9","60527","ListB","man","english","SW_E_M_B3","","","","null","","","","","",""
"13550","","","survey-text","69","502365","0.0-13.0-3.9","60527","ListB","man","english","SW_E_M_B3","","","","","{""Q0"":""dave is employing ruth""}","<img src='gifs/ChineseGender3b.gif' style='height:400px;''></img>","employing","is employing","english",""
"null","<div style=""font-size:60px;"">+</div>","","html-keyboard-response","70","502872","0.0-13.0-0.10","60527","ListB","man","english","SW_E_M_B3","","","","null","","","","","",""
"null","<img src='gifs/MaleRace4b.gif' style='height:400px;''></img>","","html-keyboard-response","71","504880","0.0-13.0-1.10","60527","ListB","man","english","SW_E_M_B3","","","","null","","","","","",""
"null","is introducing","","html-keyboard-response","72","507889","0.0-13.0-2.10","60527","ListB","man","english","SW_E_M_B3","","","","null","","","","","",""
"50557","","","survey-text","73","558448","0.0-13.0-3.10","60527","ListB","man","english","SW_E_M_B3","","","","","{""Q0"":""dave is introuducing mike""}","<img src='gifs/MaleRace4b.gif' style='height:400px;''></img>","introducing","is introducing","english",""
"null","<div style=""font-size:60px;"">+</div>","","html-keyboard-response","74","558950","0.0-13.0-0.11","60527","ListB","man","english","SW_E_M_B3","","","","null","","","","","",""
"null","<img src='gifs/FemaleRace1b.gif' style='height:400px;''></img>","","html-keyboard-response","75","560962","0.0-13.0-1.11","60527","ListB","man","english","SW_E_M_B3","","","","null","","","","","",""
"null","is accompanying","","html-keyboard-response","76","563976","0.0-13.0-2.11","60527","ListB","man","english","SW_E_M_B3","","","","null","","","","","",""
"16970","","","survey-text","77","580947","0.0-13.0-3.11","60527","ListB","man","english","SW_E_M_B3","","","","","{""Q0"":""beth is accompanying jane""}","<img src='gifs/FemaleRace1b.gif' style='height:400px;''></img>","accompanying","is accompanying","english",""
"null","<div style=""font-size:60px;"">+</div>","","html-keyboard-response","78","581463","0.0-13.0-0.12","60527","ListB","man","english","SW_E_M_B3","","","","null","","","","","",""
"null","<img src='gifs/FemaleRace2b.gif' style='height:400px;''></img>","","html-keyboard-response","79","583479","0.0-13.0-1.12","60527","ListB","man","english","SW_E_M_B3","","","","null","","","","","",""
"null","is convincing","","html-keyboard-response","80","586490","0.0-13.0-2.12","60527","ListB","man","english","SW_E_M_B3","","","","null","","","","","",""
"20215","","","survey-text","81","606707","0.0-13.0-3.12","60527","ListB","man","english","SW_E_M_B3","","","","","{""Q0"":""kate is convincing jane""}","<img src='gifs/FemaleRace2b.gif' style='height:400px;''></img>","convincing","is convincing","english",""
"null","<div style=""font-size:60px;"">+</div>","","html-keyboard-response","82","607223","0.0-13.0-0.13","60527","ListB","man","english","SW_E_M_B3","","","","null","","","","","",""
"null","<img src='gifs/BlackGender4a.gif' style='height:400px;''></img>","","html-keyboard-response","83","609226","0.0-13.0-1.13","60527","ListB","man","english","SW_E_M_B3","","","","null","","","","","",""
"null","is following","","html-keyboard-response","84","612229","0.0-13.0-2.13","60527","ListB","man","english","SW_E_M_B3","","","","null","","","","","",""
"9806","","","survey-text","85","622037","0.0-13.0-3.13","60527","ListB","man","english","SW_E_M_B3","","","","","{""Q0"":""mike is fokkowing kate""}","<img src='gifs/BlackGender4a.gif' style='height:400px;''></img>","following","is following","english",""
"null","<div style=""font-size:60px;"">+</div>","","html-keyboard-response","86","622544","0.0-13.0-0.14","60527","ListB","man","english","SW_E_M_B3","","","","null","","","","","",""
"null","<img src='gifs/BlackGender4b.gif' style='height:400px;''></img>","","html-keyboard-response","87","624551","0.0-13.0-1.14","60527","ListB","man","english","SW_E_M_B3","","","","null","","","","","",""
"null","is employing","","html-keyboard-response","88","627557","0.0-13.0-2.14","60527","ListB","man","english","SW_E_M_B3","","","","null","","","","","",""
"11606","","","survey-text","89","639165","0.0-13.0-3.14","60527","ListB","man","english","SW_E_M_B3","","","","","{""Q0"":""kate is employing mike""}","<img src='gifs/BlackGender4b.gif' style='height:400px;''></img>","employing","is employing","english",""
"null","<div style=""font-size:60px;"">+</div>","","html-keyboard-response","90","639671","0.0-13.0-0.15","60527","ListB","man","english","SW_E_M_B3","","","","null","","","","","",""
"null","<img src='gifs/FemaleRace4a.gif' style='height:400px;''></img>","","html-keyboard-response","91","641678","0.0-13.0-1.15","60527","ListB","man","english","SW_E_M_B3","","","","null","","","","","",""
"null","is convincing","","html-keyboard-response","92","644679","0.0-13.0-2.15","60527","ListB","man","english","SW_E_M_B3","","","","null","","","","","",""
"16101","","","survey-text","93","660783","0.0-13.0-3.15","60527","ListB","man","english","SW_E_M_B3","","","","","{""Q0"":""kate is convincing ruth""}","<img src='gifs/FemaleRace4a.gif' style='height:400px;''></img>","convincing","is convincing","english",""
"null","<div style=""font-size:60px;"">+</div>","","html-keyboard-response","94","661285","0.0-13.0-0.16","60527","ListB","man","english","SW_E_M_B3","","","","null","","","","","",""
"null","<img src='gifs/ChineseGender4b.gif' style='height:400px;''></img>","","html-keyboard-response","95","663288","0.0-13.0-1.16","60527","ListB","man","english","SW_E_M_B3","","","","null","","","","","",""
"null","is looking at","","html-keyboard-response","96","666290","0.0-13.0-2.16","60527","ListB","man","english","SW_E_M_B3","","","","null","","","","","",""
"13643","","","survey-text","97","679934","0.0-13.0-3.16","60527","ListB","man","english","SW_E_M_B3","","","","","{""Q0"":""jane is looking at dave""}","<img src='gifs/ChineseGender4b.gif' style='height:400px;''></img>","looking at","is looking at","english",""
"null","<div style=""font-size:60px;"">+</div>","","html-keyboard-response","98","680435","0.0-13.0-0.17","60527","ListB","man","english","SW_E_M_B3","","","","null","","","","","",""
"null","<img src='gifs/ChineseGender3b.gif' style='height:400px;''></img>","","html-keyboard-response","99","682441","0.0-13.0-1.17","60527","ListB","man","english","SW_E_M_B3","","","","null","","","","","",""
"null","is praising","","html-keyboard-response","100","685455","0.0-13.0-2.17","60527","ListB","man","english","SW_E_M_B3","","","","null","","","","","",""
"23094","","","survey-text","101","708550","0.0-13.0-3.17","60527","ListB","man","english","SW_E_M_B3","","","","","{""Q0"":""dave is praising ruth""}","<img src='gifs/ChineseGender3b.gif' style='height:400px;''></img>","praising","is praising","english",""
"3869","<img src='img/portrait_matrix_listB.jpg' style='width:900px;height:500px;''></img><p>If you have memorised all the portraits and names and are ready to start, press Continue.</p><p><strong>Please note: Your memory of these faces will be tested 5 times during this experiment.</strong></p>","0","html-button-response","102","712421","0.0-14.0-0.0","60527","ListB","man","english","SW_E_M_B3","","","","","","","","","",""
"3095","<img src=""portrait/WW2.jpg""style=""height:400px;""></img>","3","html-button-response","103","716523","0.0-14.0-1.0","60527","ListB","man","english","SW_E_M_B3","","true","3","","","","","","",""
"null","CORRECT","","html-keyboard-response","104","718038","0.0-14.0-2.0-0.0","60527","ListB","man","english","SW_E_M_B3","","","","null","","","","","",""
"2493","<img src=""portrait/BW2.jpg""style=""height:400px;""></img>","2","html-button-response","105","720532","0.0-14.0-4.0","60527","ListB","man","english","SW_E_M_B3","","true","2","","","","","","",""
"null","CORRECT","","html-keyboard-response","106","722039","0.0-14.0-5.0-0.0","60527","ListB","man","english","SW_E_M_B3","","","","null","","","","","",""
"3287","<img src=""portrait/BM2.jpg""style=""height:400px;""></img>","5","html-button-response","107","725329","0.0-14.0-7.0","60527","ListB","man","english","SW_E_M_B3","","true","5","","","","","","",""
"null","CORRECT","","html-keyboard-response","108","726841","0.0-14.0-8.0-0.0","60527","ListB","man","english","SW_E_M_B3","","","","null","","","","","",""
"2670","<img src=""portrait/BM1.jpg""style=""height:400px;""></img>","4","html-button-response","109","729511","0.0-14.0-10.0","60527","ListB","man","english","SW_E_M_B3","","true","4","","","","","","",""
"null","CORRECT","","html-keyboard-response","110","731033","0.0-14.0-11.0-0.0","60527","ListB","man","english","SW_E_M_B3","","","","null","","","","","",""
"3564","<img src=""portrait/WW1.jpg""style=""height:400px;""></img>","1","html-button-response","111","734599","0.0-14.0-13.0","60527","ListB","man","english","SW_E_M_B3","","true","1","","","","","","",""
"null","CORRECT","","html-keyboard-response","112","736117","0.0-14.0-14.0-0.0","60527","ListB","man","english","SW_E_M_B3","","","","null","","","","","",""
"2953","<img src=""portrait/WM1.jpg""style=""height:400px;""></img>","6","html-button-response","113","739071","0.0-14.0-16.0","60527","ListB","man","english","SW_E_M_B3","","true","6","","","","","","",""
"null","CORRECT","","html-keyboard-response","114","740587","0.0-14.0-17.0-0.0","60527","ListB","man","english","SW_E_M_B3","","","","null","","","","","",""
"3360","<img src=""portrait/BW1.jpg""style=""height:400px;""></img>","0","html-button-response","115","743947","0.0-14.0-19.0","60527","ListB","man","english","SW_E_M_B3","","true","0","","","","","","",""
"null","CORRECT","","html-keyboard-response","116","745464","0.0-14.0-20.0-0.0","60527","ListB","man","english","SW_E_M_B3","","","","null","","","","","",""
"1814","<img src=""portrait/WM2.jpg""style=""height:400px;""></img>","7","html-button-response","117","747278","0.0-14.0-22.0","60527","ListB","man","english","SW_E_M_B3","","true","7","","","","","","",""
"null","CORRECT","","html-keyboard-response","118","748802","0.0-14.0-23.0-0.0","60527","ListB","man","english","SW_E_M_B3","","","","null","","","","","",""
"3158","<p>You got 8 out of 8 right first time. Press Continue.</p>","0","html-button-response","119","751960","0.0-14.0-25.0","60527","ListB","man","english","SW_E_M_B3","","","","","","","","","",""
"null","<div style=""font-size:60px;"">+</div>","","html-keyboard-response","120","753477","0.0-15.0-0.0","60527","ListB","man","english","SW_E_M_B3","","","","null","","","","","",""
"null","<img src='gifs/ChineseGender4a.gif' style='height:400px;''></img>","","html-keyboard-response","121","755484","0.0-15.0-1.0","60527","ListB","man","english","SW_E_M_B3","","","","null","","","","","",""
"null","is employing","","html-keyboard-response","122","758499","0.0-15.0-2.0","60527","ListB","man","english","SW_E_M_B3","","","","null","","","","","",""
"20808","","","survey-text","123","779310","0.0-15.0-3.0","60527","ListB","man","english","SW_E_M_B3","","","","","{""Q0"":""jane is employing dave""}","<img src='gifs/ChineseGender4a.gif' style='height:400px;''></img>","employing","is employing","english",""
"null","<div style=""font-size:60px;"">+</div>","","html-keyboard-response","124","779813","0.0-15.0-0.1","60527","ListB","man","english","SW_E_M_B3","","","","null","","","","","",""
"null","<img src='gifs/ChineseGender1a.gif' style='height:400px;''></img>","","html-keyboard-response","125","781825","0.0-15.0-1.1","60527","ListB","man","english","SW_E_M_B3","","","","null","","","","","",""
"null","is touching","","html-keyboard-response","126","784836","0.0-15.0-2.1","60527","ListB","man","english","SW_E_M_B3","","","","null","","","","","",""
"20122","","","survey-text","127","804961","0.0-15.0-3.1","60527","ListB","man","english","SW_E_M_B3","","","","","{""Q0"":""luke is touching jane""}","<img src='gifs/ChineseGender1a.gif' style='height:400px;''></img>","touching","is touching","english",""
"null","<div style=""font-size:60px;"">+</div>","","html-keyboard-response","128","805476","0.0-15.0-0.2","60527","ListB","man","english","SW_E_M_B3","","","","null","","","","","",""
"null","<img src='gifs/FemaleRace4b.gif' style='height:400px;''></img>","","html-keyboard-response","129","807489","0.0-15.0-1.2","60527","ListB","man","english","SW_E_M_B3","","","","null","","","","","",""
"null","is touching","","html-keyboard-response","130","810494","0.0-15.0-2.2","60527","ListB","man","english","SW_E_M_B3","","","","null","","","","","",""
"19658","","","survey-text","131","830155","0.0-15.0-3.2","60527","ListB","man","english","SW_E_M_B3","","","","","{""Q0"":""ruch is touching kate""}","<img src='gifs/FemaleRace4b.gif' style='height:400px;''></img>","touching","is touching","english",""
"null","<div style=""font-size:60px;"">+</div>","","html-keyboard-response","132","830658","0.0-15.0-0.3","60527","ListB","man","english","SW_E_M_B3","","","","null","","","","","",""
"null","<img src='gifs/ChineseGender4b.gif' style='height:400px;''></img>","","html-keyboard-response","133","832671","0.0-15.0-1.3","60527","ListB","man","english","SW_E_M_B3","","","","null","","","","","",""
"null","is touching","","html-keyboard-response","134","835684","0.0-15.0-2.3","60527","ListB","man","english","SW_E_M_B3","","","","null","","","","","",""
"12907","","","survey-text","135","848594","0.0-15.0-3.3","60527","ListB","man","english","SW_E_M_B3","","","","","{""Q0"":""dave is touching jane""}","<img src='gifs/ChineseGender4b.gif' style='height:400px;''></img>","touching","is touching","english",""
"null","<div style=""font-size:60px;"">+</div>","","html-keyboard-response","136","849102","0.0-15.0-0.4","60527","ListB","man","english","SW_E_M_B3","","","","null","","","","","",""
"null","<img src='gifs/FemaleRace4b.gif' style='height:400px;''></img>","","html-keyboard-response","137","851116","0.0-15.0-1.4","60527","ListB","man","english","SW_E_M_B3","","","","null","","","","","",""
"null","is touching","","html-keyboard-response","138","854128","0.0-15.0-2.4","60527","ListB","man","english","SW_E_M_B3","","","","null","","","","","",""
"14508","","","survey-text","139","868639","0.0-15.0-3.4","60527","ListB","man","english","SW_E_M_B3","","","","","{""Q0"":""kate is touching ruth""}","<img src='gifs/FemaleRace4b.gif' style='height:400px;''></img>","touching","is touching","english",""
"null","<div style=""font-size:60px;"">+</div>","","html-keyboard-response","140","869151","0.0-15.0-0.5","60527","ListB","man","english","SW_E_M_B3","","","","null","","","","","",""
"null","<img src='gifs/MaleRace2b.gif' style='height:400px;''></img>","","html-keyboard-response","141","871163","0.0-15.0-1.5","60527","ListB","man","english","SW_E_M_B3","","","","null","","","","","",""
"null","is looking at","","html-keyboard-response","142","874172","0.0-15.0-2.5","60527","ListB","man","english","SW_E_M_B3","","","","null","","","","","",""
"12803","","","survey-text","143","886976","0.0-15.0-3.5","60527","ListB","man","english","SW_E_M_B3","","","","","{""Q0"":""mike is looking at luke""}","<img src='gifs/MaleRace2b.gif' style='height:400px;''></img>","looking at","is looking at","english",""
"null","<div style=""font-size:60px;"">+</div>","","html-keyboard-response","144","887480","0.0-15.0-0.6","60527","ListB","man","english","SW_E_M_B3","","","","null","","","","","",""
"null","<img src='gifs/FemaleRace1b.gif' style='height:400px;''></img>","","html-keyboard-response","145","889486","0.0-15.0-1.6","60527","ListB","man","english","SW_E_M_B3","","","","null","","","","","",""
"null","is mentioning","","html-keyboard-response","146","892490","0.0-15.0-2.6","60527","ListB","man","english","SW_E_M_B3","","","","null","","","","","",""
"19387","","","survey-text","147","911879","0.0-15.0-3.6","60527","ListB","man","english","SW_E_M_B3","","","","","{""Q0"":""jane is mentioning beth""}","<img src='gifs/FemaleRace1b.gif' style='height:400px;''></img>","mention","is mentioning","english",""
"null","<div style=""font-size:60px;"">+</div>","","html-keyboard-response","148","912392","0.0-15.0-0.7","60527","ListB","man","english","SW_E_M_B3","","","","null","","","","","",""
"null","<img src='gifs/BlackGender4a.gif' style='height:400px;''></img>","","html-keyboard-response","149","914394","0.0-15.0-1.7","60527","ListB","man","english","SW_E_M_B3","","","","null","","","","","",""
"null","is mentioning","","html-keyboard-response","150","917400","0.0-15.0-2.7","60527","ListB","man","english","SW_E_M_B3","","","","null","","","","","",""
"13865","","","survey-text","151","931267","0.0-15.0-3.7","60527","ListB","man","english","SW_E_M_B3","","","","","{""Q0"":""mike is mentioning kate""}","<img src='gifs/BlackGender4a.gif' style='height:400px;''></img>","mention","is mentioning","english",""
"null","<div style=""font-size:60px;"">+</div>","","html-keyboard-response","152","931778","0.0-15.0-0.8","60527","ListB","man","english","SW_E_M_B3","","","","null","","","","","",""
"null","<img src='gifs/FemaleRace3b.gif' style='height:400px;''></img>","","html-keyboard-response","153","933794","0.0-15.0-1.8","60527","ListB","man","english","SW_E_M_B3","","","","null","","","","","",""
"null","is approaching","","html-keyboard-response","154","936798","0.0-15.0-2.8","60527","ListB","man","english","SW_E_M_B3","","","","null","","","","","",""
"24604","","","survey-text","155","961404","0.0-15.0-3.8","60527","ListB","man","english","SW_E_M_B3","","","","","{""Q0"":""ruth is approaching beth""}","<img src='gifs/FemaleRace3b.gif' style='height:400px;''></img>","approaching","is approaching","english",""
"null","<div style=""font-size:60px;"">+</div>","","html-keyboard-response","156","961905","0.0-15.0-0.9","60527","ListB","man","english","SW_E_M_B3","","","","null","","","","","",""
"null","<img src='gifs/MaleRace3a.gif' style='height:400px;''></img>","","html-keyboard-response","157","963906","0.0-15.0-1.9","60527","ListB","man","english","SW_E_M_B3","","","","null","","","","","",""
"null","is accompanying","","html-keyboard-response","158","966921","0.0-15.0-2.9","60527","ListB","man","english","SW_E_M_B3","","","","null","","","","","",""
"27569","","","survey-text","159","994494","0.0-15.0-3.9","60527","ListB","man","english","SW_E_M_B3","","","","","{""Q0"":""fred is accompanying dave""}","<img src='gifs/MaleRace3a.gif' style='height:400px;''></img>","accompanying","is accompanying","english",""
"null","<div style=""font-size:60px;"">+</div>","","html-keyboard-response","160","995004","0.0-15.0-0.10","60527","ListB","man","english","SW_E_M_B3","","","","null","","","","","",""
"null","<img src='gifs/MaleRace1a.gif' style='height:400px;''></img>","","html-keyboard-response","161","997007","0.0-15.0-1.10","60527","ListB","man","english","SW_E_M_B3","","","","null","","","","","",""
"null","is promising","","html-keyboard-response","162","1000021","0.0-15.0-2.10","60527","ListB","man","english","SW_E_M_B3","","","","null","","","","","",""
"14102","","","survey-text","163","1014126","0.0-15.0-3.10","60527","ListB","man","english","SW_E_M_B3","","","","","{""Q0"":""fred is promising luke""}","<img src='gifs/MaleRace1a.gif' style='height:400px;''></img>","promising","is promising","english",""
"null","<div style=""font-size:60px;"">+</div>","","html-keyboard-response","164","1014636","0.0-15.0-0.11","60527","ListB","man","english","SW_E_M_B3","","","","null","","","","","",""
"null","<img src='gifs/MaleRace4a.gif' style='height:400px;''></img>","","html-keyboard-response","165","1016650","0.0-15.0-1.11","60527","ListB","man","english","SW_E_M_B3","","","","null","","","","","",""
"null","is promising","","html-keyboard-response","166","1019656","0.0-15.0-2.11","60527","ListB","man","english","SW_E_M_B3","","","","null","","","","","",""
"15436","","","survey-text","167","1035096","0.0-15.0-3.11","60527","ListB","man","english","SW_E_M_B3","","","","","{""Q0"":""mike is promising dave""}","<img src='gifs/MaleRace4a.gif' style='height:400px;''></img>","promising","is promising","english",""
"null","<div style=""font-size:60px;"">+</div>","","html-keyboard-response","168","1035604","0.0-15.0-0.12","60527","ListB","man","english","SW_E_M_B3","","","","null","","","","","",""
"null","<img src='gifs/MaleRace4a.gif' style='height:400px;''></img>","","html-keyboard-response","169","1037618","0.0-15.0-1.12","60527","ListB","man","english","SW_E_M_B3","","","","null","","","","","",""
"null","is convincing","","html-keyboard-response","170","1040624","0.0-15.0-2.12","60527","ListB","man","english","SW_E_M_B3","","","","null","","","","","",""
"11658","","","survey-text","171","1052284","0.0-15.0-3.12","60527","ListB","man","english","SW_E_M_B3","","","","","{""Q0"":""mike is comvincing dave""}","<img src='gifs/MaleRace4a.gif' style='height:400px;''></img>","convincing","is convincing","english",""
"null","<div style=""font-size:60px;"">+</div>","","html-keyboard-response","172","1052788","0.0-15.0-0.13","60527","ListB","man","english","SW_E_M_B3","","","","null","","","","","",""
"null","<img src='gifs/BlackGender1a.gif' style='height:400px;''></img>","","html-keyboard-response","173","1054803","0.0-15.0-1.13","60527","ListB","man","english","SW_E_M_B3","","","","null","","","","","",""
"null","is listening to","","html-keyboard-response","174","1057804","0.0-15.0-2.13","60527","ListB","man","english","SW_E_M_B3","","","","null","","","","","",""
"16393","","","survey-text","175","1074200","0.0-15.0-3.13","60527","ListB","man","english","SW_E_M_B3","","","","","{""Q0"":""beth is listening to fred""}","<img src='gifs/BlackGender1a.gif' style='height:400px;''></img>","listening to","is listening to","english",""
"null","<div style=""font-size:60px;"">+</div>","","html-keyboard-response","176","1074712","0.0-15.0-0.14","60527","ListB","man","english","SW_E_M_B3","","","","null","","","","","",""
"null","<img src='gifs/ChineseGender2a.gif' style='height:400px;''></img>","","html-keyboard-response","177","1076719","0.0-15.0-1.14","60527","ListB","man","english","SW_E_M_B3","","","","null","","","","","",""
"null","is convincing","","html-keyboard-response","178","1079731","0.0-15.0-2.14","60527","ListB","man","english","SW_E_M_B3","","","","null","","","","","",""
"18493","","","survey-text","179","1098226","0.0-15.0-3.14","60527","ListB","man","english","SW_E_M_B3","","","","","{""Q0"":""luke is convincing ruth""}","<img src='gifs/ChineseGender2a.gif' style='height:400px;''></img>","convincing","is convincing","english",""
"null","<div style=""font-size:60px;"">+</div>","","html-keyboard-response","180","1098737","0.0-15.0-0.15","60527","ListB","man","english","SW_E_M_B3","","","","null","","","","","",""
"null","<img src='gifs/BlackGender2b.gif' style='height:400px;''></img>","","html-keyboard-response","181","1100746","0.0-15.0-1.15","60527","ListB","man","english","SW_E_M_B3","","","","null","","","","","",""
"null","is following","","html-keyboard-response","182","1103747","0.0-15.0-2.15","60527","ListB","man","english","SW_E_M_B3","","","","null","","","","","",""
"11768","","","survey-text","183","1115517","0.0-15.0-3.15","60527","ListB","man","english","SW_E_M_B3","","","","","{""Q0"":""mike is following beth""}","<img src='gifs/BlackGender2b.gif' style='height:400px;''></img>","following","is following","english",""
"null","<div style=""font-size:60px;"">+</div>","","html-keyboard-response","184","1116021","0.0-15.0-0.16","60527","ListB","man","english","SW_E_M_B3","","","","null","","","","","",""
"null","<img src='gifs/ChineseGender2b.gif' style='height:400px;''></img>","","html-keyboard-response","185","1118024","0.0-15.0-1.16","60527","ListB","man","english","SW_E_M_B3","","","","null","","","","","",""
"null","is accompanying","","html-keyboard-response","186","1121031","0.0-15.0-2.16","60527","ListB","man","english","SW_E_M_B3","","","","null","","","","","",""
"17992","","","survey-text","187","1139025","0.0-15.0-3.16","60527","ListB","man","english","SW_E_M_B3","","","","","{""Q0"":""ruth is accompanying luke""}","<img src='gifs/ChineseGender2b.gif' style='height:400px;''></img>","accompanying","is accompanying","english",""
"null","<div style=""font-size:60px;"">+</div>","","html-keyboard-response","188","1139535","0.0-15.0-0.17","60527","ListB","man","english","SW_E_M_B3","","","","null","","","","","",""
"null","<img src='gifs/FemaleRace2a.gif' style='height:400px;''></img>","","html-keyboard-response","189","1141543","0.0-15.0-1.17","60527","ListB","man","english","SW_E_M_B3","","","","null","","","","","",""
"null","is joining","","html-keyboard-response","190","1144547","0.0-15.0-2.17","60527","ListB","man","english","SW_E_M_B3","","","","null","","","","","",""
"10622","","","survey-text","191","1155172","0.0-15.0-3.17","60527","ListB","man","english","SW_E_M_B3","","","","","{""Q0"":""jane is joining kate""}","<img src='gifs/FemaleRace2a.gif' style='height:400px;''></img>","join","is joining","english",""
"2126","<img src='img/portrait_matrix_listB.jpg' style='width:900px;height:500px;''></img><p>If you have memorised all the portraits and names and are ready to start, press Continue.</p><p><strong>Please note: Your memory of these faces will be tested 5 times during this experiment.</strong></p>","0","html-button-response","192","1157298","0.0-16.0-0.0","60527","ListB","man","english","SW_E_M_B3","","","","","","","","","",""
"4013","<img src=""portrait/BW2.jpg""style=""height:400px;""></img>","2","html-button-response","193","1162319","0.0-16.0-1.0","60527","ListB","man","english","SW_E_M_B3","","true","2","","","","","","",""
"null","CORRECT","","html-keyboard-response","194","1163832","0.0-16.0-2.0-0.0","60527","ListB","man","english","SW_E_M_B3","","","","null","","","","","",""
"3382","<img src=""portrait/BM1.jpg""style=""height:400px;""></img>","4","html-button-response","195","1167215","0.0-16.0-4.0","60527","ListB","man","english","SW_E_M_B3","","true","4","","","","","","",""
"null","CORRECT","","html-keyboard-response","196","1168719","0.0-16.0-5.0-0.0","60527","ListB","man","english","SW_E_M_B3","","","","null","","","","","",""
"3724","<img src=""portrait/WM1.jpg""style=""height:400px;""></img>","6","html-button-response","197","1172444","0.0-16.0-7.0","60527","ListB","man","english","SW_E_M_B3","","true","6","","","","","","",""
"null","CORRECT","","html-keyboard-response","198","1173967","0.0-16.0-8.0-0.0","60527","ListB","man","english","SW_E_M_B3","","","","null","","","","","",""
"2954","<img src=""portrait/BW1.jpg""style=""height:400px;""></img>","0","html-button-response","199","1176921","0.0-16.0-10.0","60527","ListB","man","english","SW_E_M_B3","","true","0","","","","","","",""
"null","CORRECT","","html-keyboard-response","200","1178443","0.0-16.0-11.0-0.0","60527","ListB","man","english","SW_E_M_B3","","","","null","","","","","",""
"1835","<img src=""portrait/WM2.jpg""style=""height:400px;""></img>","7","html-button-response","201","1180278","0.0-16.0-13.0","60527","ListB","man","english","SW_E_M_B3","","true","7","","","","","","",""
"null","CORRECT","","html-keyboard-response","202","1181792","0.0-16.0-14.0-0.0","60527","ListB","man","english","SW_E_M_B3","","","","null","","","","","",""
"1827","<img src=""portrait/BM2.jpg""style=""height:400px;""></img>","5","html-button-response","203","1183621","0.0-16.0-16.0","60527","ListB","man","english","SW_E_M_B3","","true","5","","","","","","",""
"null","CORRECT","","html-keyboard-response","204","1185133","0.0-16.0-17.0-0.0","60527","ListB","man","english","SW_E_M_B3","","","","null","","","","","",""
"2034","<img src=""portrait/WW2.jpg""style=""height:400px;""></img>","3","html-button-response","205","1187166","0.0-16.0-19.0","60527","ListB","man","english","SW_E_M_B3","","true","3","","","","","","",""
"null","CORRECT","","html-keyboard-response","206","1188688","0.0-16.0-20.0-0.0","60527","ListB","man","english","SW_E_M_B3","","","","null","","","","","",""
"6560","<img src=""portrait/WW1.jpg""style=""height:400px;""></img>","1","html-button-response","207","1195250","0.0-16.0-22.0","60527","ListB","man","english","SW_E_M_B3","","true","1","","","","","","",""
"null","CORRECT","","html-keyboard-response","208","1196771","0.0-16.0-23.0-0.0","60527","ListB","man","english","SW_E_M_B3","","","","null","","","","","",""
"4215","<p>You got 8 out of 8 right first time. Press Continue.</p>","0","html-button-response","209","1200987","0.0-16.0-25.0","60527","ListB","man","english","SW_E_M_B3","","","","","","","","","",""
"null","<div style=""font-size:60px;"">+</div>","","html-keyboard-response","210","1202498","0.0-17.0-0.0","60527","ListB","man","english","SW_E_M_B3","","","","null","","","","","",""
"null","<img src='gifs/FemaleRace3a.gif' style='height:400px;''></img>","","html-keyboard-response","211","1204503","0.0-17.0-1.0","60527","ListB","man","english","SW_E_M_B3","","","","null","","","","","",""
"null","is listening to","","html-keyboard-response","212","1207516","0.0-17.0-2.0","60527","ListB","man","english","SW_E_M_B3","","","","null","","","","","",""
"21720","","","survey-text","213","1229238","0.0-17.0-3.0","60527","ListB","man","english","SW_E_M_B3","","","","","{""Q0"":""ruth is listening to beth""}","<img src='gifs/FemaleRace3a.gif' style='height:400px;''></img>","listening to","is listening to","english",""
"null","<div style=""font-size:60px;"">+</div>","","html-keyboard-response","214","1229747","0.0-17.0-0.1","60527","ListB","man","english","SW_E_M_B3","","","","null","","","","","",""
"null","<img src='gifs/FemaleRace4a.gif' style='height:400px;''></img>","","html-keyboard-response","215","1231759","0.0-17.0-1.1","60527","ListB","man","english","SW_E_M_B3","","","","null","","","","","",""
"null","is approaching","","html-keyboard-response","216","1234773","0.0-17.0-2.1","60527","ListB","man","english","SW_E_M_B3","","","","null","","","","","",""
"15673","","","survey-text","217","1250446","0.0-17.0-3.1","60527","ListB","man","english","SW_E_M_B3","","","","","{""Q0"":""ruth is approaching kate""}","<img src='gifs/FemaleRace4a.gif' style='height:400px;''></img>","approaching","is approaching","english",""
"null","<div style=""font-size:60px;"">+</div>","","html-keyboard-response","218","1250948","0.0-17.0-0.2","60527","ListB","man","english","SW_E_M_B3","","","","null","","","","","",""
"null","<img src='gifs/ChineseGender2b.gif' style='height:400px;''></img>","","html-keyboard-response","219","1252957","0.0-17.0-1.2","60527","ListB","man","english","SW_E_M_B3","","","","null","","","","","",""
"null","is introducing","","html-keyboard-response","220","1255960","0.0-17.0-2.2","60527","ListB","man","english","SW_E_M_B3","","","","null","","","","","",""
"34750","","","survey-text","221","1290713","0.0-17.0-3.2","60527","ListB","man","english","SW_E_M_B3","","","","","{""Q0"":""luke is introducing tuth""}","<img src='gifs/ChineseGender2b.gif' style='height:400px;''></img>","introducing","is introducing","english",""
"null","<div style=""font-size:60px;"">+</div>","","html-keyboard-response","222","1291228","0.0-17.0-0.3","60527","ListB","man","english","SW_E_M_B3","","","","null","","","","","",""
"null","<img src='gifs/ChineseGender4a.gif' style='height:400px;''></img>","","html-keyboard-response","223","1293239","0.0-17.0-1.3","60527","ListB","man","english","SW_E_M_B3","","","","null","","","","","",""
"null","is contacting","","html-keyboard-response","224","1296241","0.0-17.0-2.3","60527","ListB","man","english","SW_E_M_B3","","","","null","","","","","",""
"16757","","","survey-text","225","1313000","0.0-17.0-3.3","60527","ListB","man","english","SW_E_M_B3","","","","","{""Q0"":""jane is contacting dave""}","<img src='gifs/ChineseGender4a.gif' style='height:400px;''></img>","contacting","is contacting","english",""
"null","<div style=""font-size:60px;"">+</div>","","html-keyboard-response","226","1313504","0.0-17.0-0.4","60527","ListB","man","english","SW_E_M_B3","","","","null","","","","","",""
"null","<img src='gifs/MaleRace3b.gif' style='height:400px;''></img>","","html-keyboard-response","227","1315505","0.0-17.0-1.4","60527","ListB","man","english","SW_E_M_B3","","","","null","","","","","",""
"null","is walking towards","","html-keyboard-response","228","1318512","0.0-17.0-2.4","60527","ListB","man","english","SW_E_M_B3","","","","null","","","","","",""
"18325","","","survey-text","229","1336839","0.0-17.0-3.4","60527","ListB","man","english","SW_E_M_B3","","","","","{""Q0"":""fred is walking towards dave""}","<img src='gifs/MaleRace3b.gif' style='height:400px;''></img>","walking towards","is walking towards","english",""
"null","<div style=""font-size:60px;"">+</div>","","html-keyboard-response","230","1337341","0.0-17.0-0.5","60527","ListB","man","english","SW_E_M_B3","","","","null","","","","","",""
"null","<img src='gifs/FemaleRace2a.gif' style='height:400px;''></img>","","html-keyboard-response","231","1339344","0.0-17.0-1.5","60527","ListB","man","english","SW_E_M_B3","","","","null","","","","","",""
"null","is listening to","","html-keyboard-response","232","1342359","0.0-17.0-2.5","60527","ListB","man","english","SW_E_M_B3","","","","null","","","","","",""
"16741","","","survey-text","233","1359100","0.0-17.0-3.5","60527","ListB","man","english","SW_E_M_B3","","","","","{""Q0"":""jane is listening to kate""}","<img src='gifs/FemaleRace2a.gif' style='height:400px;''></img>","listening to","is listening to","english",""
"null","<div style=""font-size:60px;"">+</div>","","html-keyboard-response","234","1359612","0.0-17.0-0.6","60527","ListB","man","english","SW_E_M_B3","","","","null","","","","","",""
"null","<img src='gifs/BlackGender3a.gif' style='height:400px;''></img>","","html-keyboard-response","235","1361614","0.0-17.0-1.6","60527","ListB","man","english","SW_E_M_B3","","","","null","","","","","",""
"null","is facing","","html-keyboard-response","236","1364619","0.0-17.0-2.6","60527","ListB","man","english","SW_E_M_B3","","","","null","","","","","",""
"13956","","","survey-text","237","1378577","0.0-17.0-3.6","60527","ListB","man","english","SW_E_M_B3","","","","","{""Q0"":""beth is facing kate""}","<img src='gifs/BlackGender3a.gif' style='height:400px;''></img>","facing","is facing","english",""
"null","<div style=""font-size:60px;"">+</div>","","html-keyboard-response","238","1379079","0.0-17.0-0.7","60527","ListB","man","english","SW_E_M_B3","","","","null","","","","","",""
"null","<img src='gifs/FemaleRace2b.gif' style='height:400px;''></img>","","html-keyboard-response","239","1381090","0.0-17.0-1.7","60527","ListB","man","english","SW_E_M_B3","","","","null","","","","","",""
"null","is mentioning","","html-keyboard-response","240","1384105","0.0-17.0-2.7","60527","ListB","man","english","SW_E_M_B3","","","","null","","","","","",""
"20281","","","survey-text","241","1404388","0.0-17.0-3.7","60527","ListB","man","english","SW_E_M_B3","","","","","{""Q0"":""kate is mentioning jane""}","<img src='gifs/FemaleRace2b.gif' style='height:400px;''></img>","mention","is mentioning","english",""
"null","<div style=""font-size:60px;"">+</div>","","html-keyboard-response","242","1404890","0.0-17.0-0.8","60527","ListB","man","english","SW_E_M_B3","","","","null","","","","","",""
"null","<img src='gifs/BlackGender2b.gif' style='height:400px;''></img>","","html-keyboard-response","243","1406897","0.0-17.0-1.8","60527","ListB","man","english","SW_E_M_B3","","","","null","","","","","",""
"null","is joining","","html-keyboard-response","244","1409904","0.0-17.0-2.8","60527","ListB","man","english","SW_E_M_B3","","","","null","","","","","",""
"16899","","","survey-text","245","1426805","0.0-17.0-3.8","60527","ListB","man","english","SW_E_M_B3","","","","","{""Q0"":""mike is joining beth""}","<img src='gifs/BlackGender2b.gif' style='height:400px;''></img>","join","is joining","english",""
"null","<div style=""font-size:60px;"">+</div>","","html-keyboard-response","246","1427319","0.0-17.0-0.9","60527","ListB","man","english","SW_E_M_B3","","","","null","","","","","",""
"null","<img src='gifs/ChineseGender1b.gif' style='height:400px;''></img>","","html-keyboard-response","247","1429323","0.0-17.0-1.9","60527","ListB","man","english","SW_E_M_B3","","","","null","","","","","",""
"null","is facing","","html-keyboard-response","248","1432330","0.0-17.0-2.9","60527","ListB","man","english","SW_E_M_B3","","","","null","","","","","",""
"10195","","","survey-text","249","1442526","0.0-17.0-3.9","60527","ListB","man","english","SW_E_M_B3","","","","","{""Q0"":""luke is facing jane""}","<img src='gifs/ChineseGender1b.gif' style='height:400px;''></img>","facing","is facing","english",""
"null","<div style=""font-size:60px;"">+</div>","","html-keyboard-response","250","1443032","0.0-17.0-0.10","60527","ListB","man","english","SW_E_M_B3","","","","null","","","","","",""
"null","<img src='gifs/BlackGender3b.gif' style='height:400px;''></img>","","html-keyboard-response","251","1445043","0.0-17.0-1.10","60527","ListB","man","english","SW_E_M_B3","","","","null","","","","","",""
"null","is approaching","","html-keyboard-response","252","1448047","0.0-17.0-2.10","60527","ListB","man","english","SW_E_M_B3","","","","null","","","","","",""
"16237","","","survey-text","253","1464287","0.0-17.0-3.10","60527","ListB","man","english","SW_E_M_B3","","","","","{""Q0"":""kate is approaching fred""}","<img src='gifs/BlackGender3b.gif' style='height:400px;''></img>","approaching","is approaching","english",""
"null","<div style=""font-size:60px;"">+</div>","","html-keyboard-response","254","1464795","0.0-17.0-0.11","60527","ListB","man","english","SW_E_M_B3","","","","null","","","","","",""
"null","<img src='gifs/ChineseGender2a.gif' style='height:400px;''></img>","","html-keyboard-response","255","1466808","0.0-17.0-1.11","60527","ListB","man","english","SW_E_M_B3","","","","null","","","","","",""
"null","is introducing","","html-keyboard-response","256","1469816","0.0-17.0-2.11","60527","ListB","man","english","SW_E_M_B3","","","","null","","","","","",""
"24620","","","survey-text","257","1494438","0.0-17.0-3.11","60527","ListB","man","english","SW_E_M_B3","","","","","{""Q0"":""ruth is introducing luke""}","<img src='gifs/ChineseGender2a.gif' style='height:400px;''></img>","introducing","is introducing","english",""
"null","<div style=""font-size:60px;"">+</div>","","html-keyboard-response","258","1494945","0.0-17.0-0.12","60527","ListB","man","english","SW_E_M_B3","","","","null","","","","","",""
"null","<img src='gifs/BlackGender3a.gif' style='height:400px;''></img>","","html-keyboard-response","259","1496949","0.0-17.0-1.12","60527","ListB","man","english","SW_E_M_B3","","","","null","","","","","",""
"null","is facing","","html-keyboard-response","260","1499955","0.0-17.0-2.12","60527","ListB","man","english","SW_E_M_B3","","","","null","","","","","",""
"7524","","","survey-text","261","1507481","0.0-17.0-3.12","60527","ListB","man","english","SW_E_M_B3","","","","","{""Q0"":""fred is facing kate""}","<img src='gifs/BlackGender3a.gif' style='height:400px;''></img>","facing","is facing","english",""
"null","<div style=""font-size:60px;"">+</div>","","html-keyboard-response","262","1507984","0.0-17.0-0.13","60527","ListB","man","english","SW_E_M_B3","","","","null","","","","","",""
"null","<img src='gifs/BlackGender1a.gif' style='height:400px;''></img>","","html-keyboard-response","263","1509986","0.0-17.0-1.13","60527","ListB","man","english","SW_E_M_B3","","","","null","","","","","",""
"null","is introducing","","html-keyboard-response","264","1512993","0.0-17.0-2.13","60527","ListB","man","english","SW_E_M_B3","","","","null","","","","","",""
"21559","","","survey-text","265","1534554","0.0-17.0-3.13","60527","ListB","man","english","SW_E_M_B3","","","","","{""Q0"":""beth is introducing fred""}","<img src='gifs/BlackGender1a.gif' style='height:400px;''></img>","introducing","is introducing","english",""
"null","<div style=""font-size:60px;"">+</div>","","html-keyboard-response","266","1535060","0.0-17.0-0.14","60527","ListB","man","english","SW_E_M_B3","","","","null","","","","","",""
"null","<img src='gifs/FemaleRace1a.gif' style='height:400px;''></img>","","html-keyboard-response","267","1537069","0.0-17.0-1.14","60527","ListB","man","english","SW_E_M_B3","","","","null","","","","","",""
"null","is facing","","html-keyboard-response","268","1540077","0.0-17.0-2.14","60527","ListB","man","english","SW_E_M_B3","","","","null","","","","","",""
"7380","","","survey-text","269","1547459","0.0-17.0-3.14","60527","ListB","man","english","SW_E_M_B3","","","","","{""Q0"":""beth is facing jane""}","<img src='gifs/FemaleRace1a.gif' style='height:400px;''></img>","facing","is facing","english",""
"null","<div style=""font-size:60px;"">+</div>","","html-keyboard-response","270","1547961","0.0-17.0-0.15","60527","ListB","man","english","SW_E_M_B3","","","","null","","","","","",""
"null","<img src='gifs/MaleRace2a.gif' style='height:400px;''></img>","","html-keyboard-response","271","1549964","0.0-17.0-1.15","60527","ListB","man","english","SW_E_M_B3","","","","null","","","","","",""
"null","is praising","","html-keyboard-response","272","1552978","0.0-17.0-2.15","60527","ListB","man","english","SW_E_M_B3","","","","null","","","","","",""
"16476","","","survey-text","273","1569456","0.0-17.0-3.15","60527","ListB","man","english","SW_E_M_B3","","","","","{""Q0"":""mike is praising  luke""}","<img src='gifs/MaleRace2a.gif' style='height:400px;''></img>","praising","is praising","english",""
"null","<div style=""font-size:60px;"">+</div>","","html-keyboard-response","274","1569957","0.0-17.0-0.16","60527","ListB","man","english","SW_E_M_B3","","","","null","","","","","",""
"null","<img src='gifs/ChineseGender3a.gif' style='height:400px;''></img>","","html-keyboard-response","275","1571964","0.0-17.0-1.16","60527","ListB","man","english","SW_E_M_B3","","","","null","","","","","",""
"null","is promising","","html-keyboard-response","276","1574972","0.0-17.0-2.16","60527","ListB","man","english","SW_E_M_B3","","","","null","","","","","",""
"20443","","","survey-text","277","1595416","0.0-17.0-3.16","60527","ListB","man","english","SW_E_M_B3","","","","","{""Q0"":""dave is promising ruth""}","<img src='gifs/ChineseGender3a.gif' style='height:400px;''></img>","promising","is promising","english",""
"null","<div style=""font-size:60px;"">+</div>","","html-keyboard-response","278","1595921","0.0-17.0-0.17","60527","ListB","man","english","SW_E_M_B3","","","","null","","","","","",""
"null","<img src='gifs/FemaleRace3a.gif' style='height:400px;''></img>","","html-keyboard-response","279","1597922","0.0-17.0-1.17","60527","ListB","man","english","SW_E_M_B3","","","","null","","","","","",""
"null","is praising","","html-keyboard-response","280","1600932","0.0-17.0-2.17","60527","ListB","man","english","SW_E_M_B3","","","","null","","","","","",""
"17376","","","survey-text","281","1618311","0.0-17.0-3.17","60527","ListB","man","english","SW_E_M_B3","","","","","{""Q0"":""ruth is prsising beth""}","<img src='gifs/FemaleRace3a.gif' style='height:400px;''></img>","praising","is praising","english",""
"2312","<p>Thank you for completing that task.</p><p>The final part of this session is a short questionnaire.</p><p>Press Continue.</p>","0","html-button-response","282","1620623","0.0-18.0","60527","ListB","man","english","SW_E_M_B3","","","","","","","","","",""
"57494","","","survey-text","283","1679128","0.0-19.0","60527","ListB","man","english","SW_E_M_B3","","","","","{""Q0"":""21"",""Q1"":""Chinese"",""Q2"":""Chinese"",""Q3"":""澳大利亚"",""Q4"":""China"",""Q5"":""English"",""Q6"":""Man""}","","","","","demographics"
"1210","<p>Have you lived in the UK for the last 5 years or more?</p>","1","html-button-response","284","1680338","0.0-20.0","60527","ListB","man","english","SW_E_M_B3","","","","","","","","","","fiveyears"
"1752","","","external-html","285","1683100","0.0-21.0","60527","ListB","man","english","SW_E_M_B3","debrief.html","","","","","","","","",""
"18432","","","survey-text","286","1701532","0.0-22.0","60527","ListB","man","english","SW_E_M_B3","","","","","{""ptpt_id"":""SW_E_M_B3""}","","","","","worker_id"
