"rt","stimulus","button_pressed","trial_type","trial_index","time_elapsed","internal_node_id","subject","list","ppt_gender","ppt_language","ptptID","url","first_guess","correct","key_press","responses","image","verb","phrase","condition","test_part"
"9270.799999982119","Welcome to the experiment. Press Continue to begin.","0","html-button-response","0","9273","0.0-0.0","65703","ListA","woman","chinese","SW_C_F_A6","","","","","","","","","",""
"24910.40000000596","","","external-html","1","35357","0.0-1.0","65703","ListA","woman","chinese","SW_C_F_A6","consent.html","","","","","","","","",""
"13580.300000011921","<p>在下一页中，您将看到8个人物肖像和他们各自的名字。</p><p>请花费几分钟的时间记住这些人物及其所对应的名字。</p><p>之后的实验中需要您对人物的名字做出回忆，</p><p>因此在实验开始前请确保您已 经完全记住这些人物及其所对应的名字。</p><p><strong>然后您将完成一个测试以检验您对人物和名字的记忆。</strong></p><p>完成此记忆测试后，您将正式进入实验。</p><p>准备好了吗？</p>","0","html-button-response","2","48938","0.0-2.0","65703","ListA","woman","chinese","SW_C_F_A6","","","","","","","","","",""
"84393.10000002384","<img src='img/portrait_matrix_listA_chinese.jpg' style='width:900px;height:500px;''></img><p>如果您已经记住了所有的人物和名字，请点击继续。</p><p><strong>请注意：您对先前记忆的面孔将在本实验中被测试5次。</strong></p>","0","html-button-response","3","134340","0.0-3.0-0.0","65703","ListA","woman","chinese","SW_C_F_A6","","","","","","","","","",""
"3438.5","<img src=""portrait/BM2.jpg""style=""height:400px;""></img>","5","html-button-response","4","138788","0.0-3.0-1.0","65703","ListA","woman","chinese","SW_C_F_A6","","true","5","","","","","","",""
"null","正确","","html-keyboard-response","5","140297","0.0-3.0-2.0-0.0","65703","ListA","woman","chinese","SW_C_F_A6","","","","null","","","","","",""
"3537.399999976158","<img src=""portrait/WM2.jpg""style=""height:400px;""></img>","7","html-button-response","6","143838","0.0-3.0-4.0","65703","ListA","woman","chinese","SW_C_F_A6","","true","7","","","","","","",""
"null","正确","","html-keyboard-response","7","145362","0.0-3.0-5.0-0.0","65703","ListA","woman","chinese","SW_C_F_A6","","","","null","","","","","",""
"3690.2000000178814","<img src=""portrait/WM1.jpg""style=""height:400px;""></img>","6","html-button-response","8","149055","0.0-3.0-7.0","65703","ListA","woman","chinese","SW_C_F_A6","","true","6","","","","","","",""
"null","正确","","html-keyboard-response","9","150570","0.0-3.0-8.0-0.0","65703","ListA","woman","chinese","SW_C_F_A6","","","","null","","","","","",""
"2298.699999988079","<img src=""portrait/BW2.jpg""style=""height:400px;""></img>","2","html-button-response","10","152871","0.0-3.0-10.0","65703","ListA","woman","chinese","SW_C_F_A6","","true","2","","","","","","",""
"null","正确","","html-keyboard-response","11","154393","0.0-3.0-11.0-0.0","65703","ListA","woman","chinese","SW_C_F_A6","","","","null","","","","","",""
"1893.5999999940395","<img src=""portrait/BM1.jpg""style=""height:400px;""></img>","4","html-button-response","12","156288","0.0-3.0-13.0","65703","ListA","woman","chinese","SW_C_F_A6","","true","4","","","","","","",""
"null","正确","","html-keyboard-response","13","157802","0.0-3.0-14.0-0.0","65703","ListA","woman","chinese","SW_C_F_A6","","","","null","","","","","",""
"2383.4000000059605","<img src=""portrait/WW1.jpg""style=""height:400px;""></img>","1","html-button-response","14","160188","0.0-3.0-16.0","65703","ListA","woman","chinese","SW_C_F_A6","","true","1","","","","","","",""
"null","正确","","html-keyboard-response","15","161709","0.0-3.0-17.0-0.0","65703","ListA","woman","chinese","SW_C_F_A6","","","","null","","","","","",""
"5242.5","<img src=""portrait/BW1.jpg""style=""height:400px;""></img>","0","html-button-response","16","166954","0.0-3.0-19.0","65703","ListA","woman","chinese","SW_C_F_A6","","true","0","","","","","","",""
"null","正确","","html-keyboard-response","17","168469","0.0-3.0-20.0-0.0","65703","ListA","woman","chinese","SW_C_F_A6","","","","null","","","","","",""
"1865.8999999761581","<img src=""portrait/WW2.jpg""style=""height:400px;""></img>","3","html-button-response","18","170337","0.0-3.0-22.0","65703","ListA","woman","chinese","SW_C_F_A6","","true","3","","","","","","",""
"null","正确","","html-keyboard-response","19","171857","0.0-3.0-23.0-0.0","65703","ListA","woman","chinese","SW_C_F_A6","","","","null","","","","","",""
"1409","<p>您第一次在8题里答对了 8 题。 请点击继续</p>","0","html-button-response","20","173269","0.0-3.0-25.0","65703","ListA","woman","chinese","SW_C_F_A6","","","","","","","","","",""
"15522.100000023842","<p>此次实验您将会看到先前记忆任务里的人物照片。</p><p>人物照片消失后您将看到一个动词短语，请正确回忆人物的名字并用特定的 动词短语组成一句完整的句子。</p><p>请在指定的框内输入您的答案。在进入下一题之前请确保您填写了完整的句子。</p><p>人物照片和动词短语只会在屏幕上出现几秒钟，因此请您答题时尽量集中注意力。</p><p>以下是例子。请您在准备好后按下“继续”。</p><img src='img/chinese_speaking_example.jpg' style='width:800px;height:460px;''></img>","0","html-button-response","21","189803","0.0-4.0","65703","ListA","woman","chinese","SW_C_F_A6","","","","","","","","","",""
"1674.800000011921","<p>在实验开始前，将为您展示两个示例实验。</p>","0","html-button-response","22","192488","0.0-5.0","65703","ListA","woman","chinese","SW_C_F_A6","","","","","","","","","",""
"null","<img src='img/meet.gif' style='height:400px;''></img>","","html-keyboard-response","23","195504","0.0-6.0","65703","ListA","woman","chinese","SW_C_F_A6","","","","null","","","","","",""
"null","<p>正在约见</p>","","html-keyboard-response","24","197510","0.0-7.0","65703","ListA","woman","chinese","SW_C_F_A6","","","","null","","","","","",""
"6775.200000017881","<p><b>答案:</b> 凯特正在约见贝斯</p>","0","html-button-response","25","204287","0.0-8.0","65703","ListA","woman","chinese","SW_C_F_A6","","","","","","","","","",""
"null","<img src='img/spy.gif' style='height:400px;''></img>","","html-keyboard-response","26","207299","0.0-9.0","65703","ListA","woman","chinese","SW_C_F_A6","","","","null","","","","","",""
"null","<p>正在监视</p>","","html-keyboard-response","27","209310","0.0-10.0","65703","ListA","woman","chinese","SW_C_F_A6","","","","null","","","","","",""
"1907.699999988079","<p><b>答案:</b> 卢克正在监视戴夫</p>","0","html-button-response","28","211219","0.0-11.0","65703","ListA","woman","chinese","SW_C_F_A6","","","","","","","","","",""
"1822.199999988079","<p>准备好开始了吗？</p><br><p><strong>请记住，您的答案需是一句完整的句子</strong></p><p><strong>，并用给到的图片人物和动词短语作答。</strong></p><p><strong>只有正确并完整完成实验才可获得报酬。</strong></p><p><strong> 您不需要加入任何标点符号。</strong></p><br><p>请按 ‘继续’ 键开始。</p>","0","html-button-response","29","214053","0.0-12.0","65703","ListA","woman","chinese","SW_C_F_A6","","","","","","","","","",""
"null","<div style=""font-size:60px;"">+</div>","","html-keyboard-response","30","215575","0.0-13.0-0.0","65703","ListA","woman","chinese","SW_C_F_A6","","","","null","","","","","",""
"null","<img src='gifs/ChineseGender1b.gif' style='height:400px;''></img>","","html-keyboard-response","31","217580","0.0-13.0-1.0","65703","ListA","woman","chinese","SW_C_F_A6","","","","null","","","","","",""
"null","正在走向","","html-keyboard-response","32","220588","0.0-13.0-2.0","65703","ListA","woman","chinese","SW_C_F_A6","","","","null","","","","","",""
"14346.09999999404","","","survey-text","33","234939","0.0-13.0-3.0","65703","ListA","woman","chinese","SW_C_F_A6","","","","","{""Q0"":""凯特正在走向弗雷""}","<img src='gifs/ChineseGender1b.gif' style='height:400px;''></img>","走向","正在走向","chinese",""
"null","<div style=""font-size:60px;"">+</div>","","html-keyboard-response","34","235447","0.0-13.0-0.1","65703","ListA","woman","chinese","SW_C_F_A6","","","","null","","","","","",""
"null","<img src='gifs/FemaleRace1a.gif' style='height:400px;''></img>","","html-keyboard-response","35","237450","0.0-13.0-1.1","65703","ListA","woman","chinese","SW_C_F_A6","","","","null","","","","","",""
"null","正在陪伴","","html-keyboard-response","36","240462","0.0-13.0-2.1","65703","ListA","woman","chinese","SW_C_F_A6","","","","null","","","","","",""
"6671.9000000059605","","","survey-text","37","247137","0.0-13.0-3.1","65703","ListA","woman","chinese","SW_C_F_A6","","","","","{""Q0"":""露丝正在陪伴凯特""}","<img src='gifs/FemaleRace1a.gif' style='height:400px;''></img>","陪伴","正在陪伴","chinese",""
"null","<div style=""font-size:60px;"">+</div>","","html-keyboard-response","38","247647","0.0-13.0-0.2","65703","ListA","woman","chinese","SW_C_F_A6","","","","null","","","","","",""
"null","<img src='gifs/FemaleRace4b.gif' style='height:400px;''></img>","","html-keyboard-response","39","249663","0.0-13.0-1.2","65703","ListA","woman","chinese","SW_C_F_A6","","","","null","","","","","",""
"null","正在陪伴","","html-keyboard-response","40","252670","0.0-13.0-2.2","65703","ListA","woman","chinese","SW_C_F_A6","","","","null","","","","","",""
"7780.9000000059605","","","survey-text","41","260455","0.0-13.0-3.2","65703","ListA","woman","chinese","SW_C_F_A6","","","","","{""Q0"":""贝斯正在陪伴霍普""}","<img src='gifs/FemaleRace4b.gif' style='height:400px;''></img>","陪伴","正在陪伴","chinese",""
"null","<div style=""font-size:60px;"">+</div>","","html-keyboard-response","42","260966","0.0-13.0-0.3","65703","ListA","woman","chinese","SW_C_F_A6","","","","null","","","","","",""
"null","<img src='gifs/BlackGender2a.gif' style='height:400px;''></img>","","html-keyboard-response","43","262982","0.0-13.0-1.3","65703","ListA","woman","chinese","SW_C_F_A6","","","","null","","","","","",""
"null","正在接近","","html-keyboard-response","44","265984","0.0-13.0-2.3","65703","ListA","woman","chinese","SW_C_F_A6","","","","null","","","","","",""
"15819.600000023842","","","survey-text","45","281807","0.0-13.0-3.3","65703","ListA","woman","chinese","SW_C_F_A6","","","","","{""Q0"":""露丝正在接近戴夫""}","<img src='gifs/BlackGender2a.gif' style='height:400px;''></img>","接近","正在接近","chinese",""
"null","<div style=""font-size:60px;"">+</div>","","html-keyboard-response","46","282313","0.0-13.0-0.4","65703","ListA","woman","chinese","SW_C_F_A6","","","","null","","","","","",""
"null","<img src='gifs/ChineseGender2b.gif' style='height:400px;''></img>","","html-keyboard-response","47","284324","0.0-13.0-1.4","65703","ListA","woman","chinese","SW_C_F_A6","","","","null","","","","","",""
"null","正在加入","","html-keyboard-response","48","287328","0.0-13.0-2.4","65703","ListA","woman","chinese","SW_C_F_A6","","","","null","","","","","",""
"10406.199999988079","","","survey-text","49","297738","0.0-13.0-3.4","65703","ListA","woman","chinese","SW_C_F_A6","","","","","{""Q0"":""贝斯正在接近弗雷""}","<img src='gifs/ChineseGender2b.gif' style='height:400px;''></img>","加入","正在加入","chinese",""
"null","<div style=""font-size:60px;"">+</div>","","html-keyboard-response","50","298249","0.0-13.0-0.5","65703","ListA","woman","chinese","SW_C_F_A6","","","","null","","","","","",""
"null","<img src='gifs/ChineseGender2a.gif' style='height:400px;''></img>","","html-keyboard-response","51","300257","0.0-13.0-1.5","65703","ListA","woman","chinese","SW_C_F_A6","","","","null","","","","","",""
"null","正在跟随","","html-keyboard-response","52","303266","0.0-13.0-2.5","65703","ListA","woman","chinese","SW_C_F_A6","","","","null","","","","","",""
"7567.600000023842","","","survey-text","53","310837","0.0-13.0-3.5","65703","ListA","woman","chinese","SW_C_F_A6","","","","","{""Q0"":""弗雷正在跟随贝斯""}","<img src='gifs/ChineseGender2a.gif' style='height:400px;''></img>","跟随","正在跟随","chinese",""
"null","<div style=""font-size:60px;"">+</div>","","html-keyboard-response","54","311345","0.0-13.0-0.6","65703","ListA","woman","chinese","SW_C_F_A6","","","","null","","","","","",""
"null","<img src='gifs/BlackGender3b.gif' style='height:400px;''></img>","","html-keyboard-response","55","313348","0.0-13.0-1.6","65703","ListA","woman","chinese","SW_C_F_A6","","","","null","","","","","",""
"null","正在答应","","html-keyboard-response","56","316354","0.0-13.0-2.6","65703","ListA","woman","chinese","SW_C_F_A6","","","","null","","","","","",""
"9878.59999999404","","","survey-text","57","326237","0.0-13.0-3.6","65703","ListA","woman","chinese","SW_C_F_A6","","","","","{""Q0"":""卢克正在答应霍普""}","<img src='gifs/BlackGender3b.gif' style='height:400px;''></img>","答应","正在答应","chinese",""
"null","<div style=""font-size:60px;"">+</div>","","html-keyboard-response","58","326744","0.0-13.0-0.7","65703","ListA","woman","chinese","SW_C_F_A6","","","","null","","","","","",""
"null","<img src='gifs/ChineseGender3b.gif' style='height:400px;''></img>","","html-keyboard-response","59","328755","0.0-13.0-1.7","65703","ListA","woman","chinese","SW_C_F_A6","","","","null","","","","","",""
"null","正在面向","","html-keyboard-response","60","331759","0.0-13.0-2.7","65703","ListA","woman","chinese","SW_C_F_A6","","","","null","","","","","",""
"6773.5","","","survey-text","61","338536","0.0-13.0-3.7","65703","ListA","woman","chinese","SW_C_F_A6","","","","","{""Q0"":""贝斯正在面向麦克""}","<img src='gifs/ChineseGender3b.gif' style='height:400px;''></img>","面向","正在面向","chinese",""
"null","<div style=""font-size:60px;"">+</div>","","html-keyboard-response","62","339039","0.0-13.0-0.8","65703","ListA","woman","chinese","SW_C_F_A6","","","","null","","","","","",""
"null","<img src='gifs/FemaleRace2b.gif' style='height:400px;''></img>","","html-keyboard-response","63","341050","0.0-13.0-1.8","65703","ListA","woman","chinese","SW_C_F_A6","","","","null","","","","","",""
"null","正在加入","","html-keyboard-response","64","344055","0.0-13.0-2.8","65703","ListA","woman","chinese","SW_C_F_A6","","","","null","","","","","",""
"7061.4000000059605","","","survey-text","65","351120","0.0-13.0-3.8","65703","ListA","woman","chinese","SW_C_F_A6","","","","","{""Q0"":""凯特正在加入霍普""}","<img src='gifs/FemaleRace2b.gif' style='height:400px;''></img>","加入","正在加入","chinese",""
"null","<div style=""font-size:60px;"">+</div>","","html-keyboard-response","66","351633","0.0-13.0-0.9","65703","ListA","woman","chinese","SW_C_F_A6","","","","null","","","","","",""
"null","<img src='gifs/BlackGender1a.gif' style='height:400px;''></img>","","html-keyboard-response","67","353643","0.0-13.0-1.9","65703","ListA","woman","chinese","SW_C_F_A6","","","","null","","","","","",""
"null","正在聘用","","html-keyboard-response","68","356649","0.0-13.0-2.9","65703","ListA","woman","chinese","SW_C_F_A6","","","","null","","","","","",""
"14202.200000017881","","","survey-text","69","370855","0.0-13.0-3.9","65703","ListA","woman","chinese","SW_C_F_A6","","","","","{""Q0"":""露丝正在聘用卢克""}","<img src='gifs/BlackGender1a.gif' style='height:400px;''></img>","聘用","正在聘用","chinese",""
"null","<div style=""font-size:60px;"">+</div>","","html-keyboard-response","70","371357","0.0-13.0-0.10","65703","ListA","woman","chinese","SW_C_F_A6","","","","null","","","","","",""
"null","<img src='gifs/BlackGender1a.gif' style='height:400px;''></img>","","html-keyboard-response","71","373369","0.0-13.0-1.10","65703","ListA","woman","chinese","SW_C_F_A6","","","","null","","","","","",""
"null","正在跟随","","html-keyboard-response","72","376374","0.0-13.0-2.10","65703","ListA","woman","chinese","SW_C_F_A6","","","","null","","","","","",""
"5778.600000023842","","","survey-text","73","382155","0.0-13.0-3.10","65703","ListA","woman","chinese","SW_C_F_A6","","","","","{""Q0"":""卢克正在跟随露丝""}","<img src='gifs/BlackGender1a.gif' style='height:400px;''></img>","跟随","正在跟随","chinese",""
"null","<div style=""font-size:60px;"">+</div>","","html-keyboard-response","74","382664","0.0-13.0-0.11","65703","ListA","woman","chinese","SW_C_F_A6","","","","null","","","","","",""
"null","<img src='gifs/MaleRace1a.gif' style='height:400px;''></img>","","html-keyboard-response","75","384672","0.0-13.0-1.11","65703","ListA","woman","chinese","SW_C_F_A6","","","","null","","","","","",""
"null","正在提到","","html-keyboard-response","76","387676","0.0-13.0-2.11","65703","ListA","woman","chinese","SW_C_F_A6","","","","null","","","","","",""
"8639.299999982119","","","survey-text","77","396319","0.0-13.0-3.11","65703","ListA","woman","chinese","SW_C_F_A6","","","","","{""Q0"":""弗雷正在提到卢克""}","<img src='gifs/MaleRace1a.gif' style='height:400px;''></img>","提到","正在提到","chinese",""
"null","<div style=""font-size:60px;"">+</div>","","html-keyboard-response","78","396821","0.0-13.0-0.12","65703","ListA","woman","chinese","SW_C_F_A6","","","","null","","","","","",""
"null","<img src='gifs/ChineseGender2b.gif' style='height:400px;''></img>","","html-keyboard-response","79","398833","0.0-13.0-1.12","65703","ListA","woman","chinese","SW_C_F_A6","","","","null","","","","","",""
"null","正在面向","","html-keyboard-response","80","401838","0.0-13.0-2.12","65703","ListA","woman","chinese","SW_C_F_A6","","","","null","","","","","",""
"5710.700000017881","","","survey-text","81","407553","0.0-13.0-3.12","65703","ListA","woman","chinese","SW_C_F_A6","","","","","{""Q0"":""弗雷正在面向贝斯""}","<img src='gifs/ChineseGender2b.gif' style='height:400px;''></img>","面向","正在面向","chinese",""
"null","<div style=""font-size:60px;"">+</div>","","html-keyboard-response","82","408060","0.0-13.0-0.13","65703","ListA","woman","chinese","SW_C_F_A6","","","","null","","","","","",""
"null","<img src='gifs/FemaleRace2a.gif' style='height:400px;''></img>","","html-keyboard-response","83","410072","0.0-13.0-1.13","65703","ListA","woman","chinese","SW_C_F_A6","","","","null","","","","","",""
"null","正在加入","","html-keyboard-response","84","413080","0.0-13.0-2.13","65703","ListA","woman","chinese","SW_C_F_A6","","","","null","","","","","",""
"9835.100000023842","","","survey-text","85","422919","0.0-13.0-3.13","65703","ListA","woman","chinese","SW_C_F_A6","","","","","{""Q0"":""霍普正在加入凯特""}","<img src='gifs/FemaleRace2a.gif' style='height:400px;''></img>","加入","正在加入","chinese",""
"null","<div style=""font-size:60px;"">+</div>","","html-keyboard-response","86","423432","0.0-13.0-0.14","65703","ListA","woman","chinese","SW_C_F_A6","","","","null","","","","","",""
"null","<img src='gifs/MaleRace3b.gif' style='height:400px;''></img>","","html-keyboard-response","87","425439","0.0-13.0-1.14","65703","ListA","woman","chinese","SW_C_F_A6","","","","null","","","","","",""
"null","正在跟随","","html-keyboard-response","88","428447","0.0-13.0-2.14","65703","ListA","woman","chinese","SW_C_F_A6","","","","null","","","","","",""
"6536.300000011921","","","survey-text","89","434987","0.0-13.0-3.14","65703","ListA","woman","chinese","SW_C_F_A6","","","","","{""Q0"":""卢克正在跟随麦克""}","<img src='gifs/MaleRace3b.gif' style='height:400px;''></img>","跟随","正在跟随","chinese",""
"null","<div style=""font-size:60px;"">+</div>","","html-keyboard-response","90","435493","0.0-13.0-0.15","65703","ListA","woman","chinese","SW_C_F_A6","","","","null","","","","","",""
"null","<img src='gifs/MaleRace3a.gif' style='height:400px;''></img>","","html-keyboard-response","91","437499","0.0-13.0-1.15","65703","ListA","woman","chinese","SW_C_F_A6","","","","null","","","","","",""
"null","正在触摸","","html-keyboard-response","92","440508","0.0-13.0-2.15","65703","ListA","woman","chinese","SW_C_F_A6","","","","null","","","","","",""
"7073.0999999940395","","","survey-text","93","447585","0.0-13.0-3.15","65703","ListA","woman","chinese","SW_C_F_A6","","","","","{""Q0"":""卢克正在触摸麦克""}","<img src='gifs/MaleRace3a.gif' style='height:400px;''></img>","触摸","正在触摸","chinese",""
"null","<div style=""font-size:60px;"">+</div>","","html-keyboard-response","94","448093","0.0-13.0-0.16","65703","ListA","woman","chinese","SW_C_F_A6","","","","null","","","","","",""
"null","<img src='gifs/MaleRace1b.gif' style='height:400px;''></img>","","html-keyboard-response","95","450101","0.0-13.0-1.16","65703","ListA","woman","chinese","SW_C_F_A6","","","","null","","","","","",""
"null","正在走向","","html-keyboard-response","96","453110","0.0-13.0-2.16","65703","ListA","woman","chinese","SW_C_F_A6","","","","null","","","","","",""
"10071.199999988079","","","survey-text","97","463185","0.0-13.0-3.16","65703","ListA","woman","chinese","SW_C_F_A6","","","","","{""Q0"":""卢克正在走向弗雷""}","<img src='gifs/MaleRace1b.gif' style='height:400px;''></img>","走向","正在走向","chinese",""
"null","<div style=""font-size:60px;"">+</div>","","html-keyboard-response","98","463694","0.0-13.0-0.17","65703","ListA","woman","chinese","SW_C_F_A6","","","","null","","","","","",""
"null","<img src='gifs/ChineseGender1b.gif' style='height:400px;''></img>","","html-keyboard-response","99","465702","0.0-13.0-1.17","65703","ListA","woman","chinese","SW_C_F_A6","","","","null","","","","","",""
"null","正在加入","","html-keyboard-response","100","468710","0.0-13.0-2.17","65703","ListA","woman","chinese","SW_C_F_A6","","","","null","","","","","",""
"10605.5","","","survey-text","101","479319","0.0-13.0-3.17","65703","ListA","woman","chinese","SW_C_F_A6","","","","","{""Q0"":""弗雷正在加入凯特""}","<img src='gifs/ChineseGender1b.gif' style='height:400px;''></img>","加入","正在加入","chinese",""
"7179.899999976158","<img src='img/portrait_matrix_listA_chinese.jpg' style='width:900px;height:500px;''></img><p>如果您已经记住了所有的人物和名字，请点击继续。</p><p><strong>请注意：您对先前记忆的面孔将在本实验中被测试5次。</strong></p>","0","html-button-response","102","486502","0.0-14.0-0.0","65703","ListA","woman","chinese","SW_C_F_A6","","","","","","","","","",""
"1595.4000000059605","<img src=""portrait/BW2.jpg""style=""height:400px;""></img>","2","html-button-response","103","489104","0.0-14.0-1.0","65703","ListA","woman","chinese","SW_C_F_A6","","true","2","","","","","","",""
"null","正确","","html-keyboard-response","104","490628","0.0-14.0-2.0-0.0","65703","ListA","woman","chinese","SW_C_F_A6","","","","null","","","","","",""
"1571.9000000059605","<img src=""portrait/WW1.jpg""style=""height:400px;""></img>","1","html-button-response","105","492203","0.0-14.0-4.0","65703","ListA","woman","chinese","SW_C_F_A6","","true","1","","","","","","",""
"null","正确","","html-keyboard-response","106","493724","0.0-14.0-5.0-0.0","65703","ListA","woman","chinese","SW_C_F_A6","","","","null","","","","","",""
"1857.5","<img src=""portrait/WM1.jpg""style=""height:400px;""></img>","7","html-button-response","107","495584","0.0-14.0-7.0","65703","ListA","woman","chinese","SW_C_F_A6","","true","6","","","","","","",""
"1577","<img src=""portrait/WM1.jpg""style=""height:400px;""></img>","7","html-button-response","108","498169","0.0-14.0-9.0-0.0","65703","ListA","woman","chinese","SW_C_F_A6","","false","6","","","","","","",""
"null","不正确","","html-keyboard-response","109","499692","0.0-14.0-9.0-2.0-0.0","65703","ListA","woman","chinese","SW_C_F_A6","","","","null","","","","","",""
"2873.899999976158","<img src=""portrait/BM1.jpg""style=""height:400px;""></img>","4","html-button-response","110","502569","0.0-14.0-10.0","65703","ListA","woman","chinese","SW_C_F_A6","","true","4","","","","","","",""
"null","正确","","html-keyboard-response","111","504084","0.0-14.0-11.0-0.0","65703","ListA","woman","chinese","SW_C_F_A6","","","","null","","","","","",""
"1498","<img src=""portrait/WW2.jpg""style=""height:400px;""></img>","3","html-button-response","112","505585","0.0-14.0-13.0","65703","ListA","woman","chinese","SW_C_F_A6","","true","3","","","","","","",""
"null","正确","","html-keyboard-response","113","507099","0.0-14.0-14.0-0.0","65703","ListA","woman","chinese","SW_C_F_A6","","","","null","","","","","",""
"3283.2999999821186","<img src=""portrait/BM2.jpg""style=""height:400px;""></img>","5","html-button-response","114","510384","0.0-14.0-16.0","65703","ListA","woman","chinese","SW_C_F_A6","","true","5","","","","","","",""
"null","正确","","html-keyboard-response","115","511905","0.0-14.0-17.0-0.0","65703","ListA","woman","chinese","SW_C_F_A6","","","","null","","","","","",""
"2143.199999988079","<img src=""portrait/WM2.jpg""style=""height:400px;""></img>","7","html-button-response","116","514051","0.0-14.0-19.0","65703","ListA","woman","chinese","SW_C_F_A6","","true","7","","","","","","",""
"null","正确","","html-keyboard-response","117","515572","0.0-14.0-20.0-0.0","65703","ListA","woman","chinese","SW_C_F_A6","","","","null","","","","","",""
"1976.9000000059605","<img src=""portrait/BW1.jpg""style=""height:400px;""></img>","0","html-button-response","118","517552","0.0-14.0-22.0","65703","ListA","woman","chinese","SW_C_F_A6","","true","0","","","","","","",""
"null","正确","","html-keyboard-response","119","519075","0.0-14.0-23.0-0.0","65703","ListA","woman","chinese","SW_C_F_A6","","","","null","","","","","",""
"1371.2999999821186","<p>您第一次在8题里答对了 7 题。 请点击继续</p>","0","html-button-response","120","520451","0.0-14.0-25.0","65703","ListA","woman","chinese","SW_C_F_A6","","","","","","","","","",""
"2574.199999988079","因为您没有全部答对，记忆游戏将重新开始。请点击继续。","0","html-button-response","121","524034","0.0-14.0-26.0-0.0","65703","ListA","woman","chinese","SW_C_F_A6","","","","","","","","","",""
"1655.9000000059605","<img src='img/portrait_matrix_listA_chinese.jpg' style='width:900px;height:500px;''></img><p>如果您已经记住了所有的人物和名字，请点击继续。</p><p><strong>请注意：您对先前记忆的面孔将在本实验中被测试5次。</strong></p>","0","html-button-response","122","526701","0.0-14.1-0.1","65703","ListA","woman","chinese","SW_C_F_A6","","","","","","","","","",""
"2025.5999999940395","<img src=""portrait/BW2.jpg""style=""height:400px;""></img>","2","html-button-response","123","529734","0.0-14.1-1.1","65703","ListA","woman","chinese","SW_C_F_A6","","true","2","","","","","","",""
"null","正确","","html-keyboard-response","124","531259","0.0-14.1-2.1-0.1","65703","ListA","woman","chinese","SW_C_F_A6","","","","null","","","","","",""
"1288.800000011921","<img src=""portrait/WW1.jpg""style=""height:400px;""></img>","1","html-button-response","125","532550","0.0-14.1-4.1","65703","ListA","woman","chinese","SW_C_F_A6","","true","1","","","","","","",""
"null","正确","","html-keyboard-response","126","534068","0.0-14.1-5.1-0.1","65703","ListA","woman","chinese","SW_C_F_A6","","","","null","","","","","",""
"1263.2999999821186","<img src=""portrait/WM1.jpg""style=""height:400px;""></img>","6","html-button-response","127","535333","0.0-14.1-7.1","65703","ListA","woman","chinese","SW_C_F_A6","","true","6","","","","","","",""
"null","正确","","html-keyboard-response","128","536855","0.0-14.1-8.1-0.1","65703","ListA","woman","chinese","SW_C_F_A6","","","","null","","","","","",""
"1410.5","<img src=""portrait/BM1.jpg""style=""height:400px;""></img>","4","html-button-response","129","538268","0.0-14.1-10.1","65703","ListA","woman","chinese","SW_C_F_A6","","true","4","","","","","","",""
"null","正确","","html-keyboard-response","130","539775","0.0-14.1-11.1-0.1","65703","ListA","woman","chinese","SW_C_F_A6","","","","null","","","","","",""
"1373.5","<img src=""portrait/WW2.jpg""style=""height:400px;""></img>","3","html-button-response","131","541150","0.0-14.1-13.1","65703","ListA","woman","chinese","SW_C_F_A6","","true","3","","","","","","",""
"null","正确","","html-keyboard-response","132","542667","0.0-14.1-14.1-0.1","65703","ListA","woman","chinese","SW_C_F_A6","","","","null","","","","","",""
"1480.5","<img src=""portrait/BM2.jpg""style=""height:400px;""></img>","5","html-button-response","133","544150","0.0-14.1-16.1","65703","ListA","woman","chinese","SW_C_F_A6","","true","5","","","","","","",""
"null","正确","","html-keyboard-response","134","545675","0.0-14.1-17.1-0.1","65703","ListA","woman","chinese","SW_C_F_A6","","","","null","","","","","",""
"1823.1000000238419","<img src=""portrait/WM2.jpg""style=""height:400px;""></img>","7","html-button-response","135","547501","0.0-14.1-19.1","65703","ListA","woman","chinese","SW_C_F_A6","","true","7","","","","","","",""
"null","正确","","html-keyboard-response","136","549027","0.0-14.1-20.1-0.1","65703","ListA","woman","chinese","SW_C_F_A6","","","","null","","","","","",""
"1837.800000011921","<img src=""portrait/BW1.jpg""style=""height:400px;""></img>","0","html-button-response","137","550867","0.0-14.1-22.1","65703","ListA","woman","chinese","SW_C_F_A6","","true","0","","","","","","",""
"null","正确","","html-keyboard-response","138","552387","0.0-14.1-23.1-0.1","65703","ListA","woman","chinese","SW_C_F_A6","","","","null","","","","","",""
"1428.0999999940395","<p>您第一次在8题里答对了 8 题。 请点击继续</p>","0","html-button-response","139","553817","0.0-14.1-25.1","65703","ListA","woman","chinese","SW_C_F_A6","","","","","","","","","",""
"null","<div style=""font-size:60px;"">+</div>","","html-keyboard-response","140","555335","0.0-15.0-0.0","65703","ListA","woman","chinese","SW_C_F_A6","","","","null","","","","","",""
"null","<img src='gifs/MaleRace4b.gif' style='height:400px;''></img>","","html-keyboard-response","141","557345","0.0-15.0-1.0","65703","ListA","woman","chinese","SW_C_F_A6","","","","null","","","","","",""
"null","正在接近","","html-keyboard-response","142","560352","0.0-15.0-2.0","65703","ListA","woman","chinese","SW_C_F_A6","","","","null","","","","","",""
"5035.200000017881","","","survey-text","143","565391","0.0-15.0-3.0","65703","ListA","woman","chinese","SW_C_F_A6","","","","","{""Q0"":""戴夫正在接近麦克""}","<img src='gifs/MaleRace4b.gif' style='height:400px;''></img>","接近","正在接近","chinese",""
"null","<div style=""font-size:60px;"">+</div>","","html-keyboard-response","144","565893","0.0-15.0-0.1","65703","ListA","woman","chinese","SW_C_F_A6","","","","null","","","","","",""
"null","<img src='gifs/FemaleRace1a.gif' style='height:400px;''></img>","","html-keyboard-response","145","567905","0.0-15.0-1.1","65703","ListA","woman","chinese","SW_C_F_A6","","","","null","","","","","",""
"null","正在介绍","","html-keyboard-response","146","570913","0.0-15.0-2.1","65703","ListA","woman","chinese","SW_C_F_A6","","","","null","","","","","",""
"5737.700000017881","","","survey-text","147","576655","0.0-15.0-3.1","65703","ListA","woman","chinese","SW_C_F_A6","","","","","{""Q0"":""凯特正在介绍露丝""}","<img src='gifs/FemaleRace1a.gif' style='height:400px;''></img>","介绍","正在介绍","chinese",""
"null","<div style=""font-size:60px;"">+</div>","","html-keyboard-response","148","577162","0.0-15.0-0.2","65703","ListA","woman","chinese","SW_C_F_A6","","","","null","","","","","",""
"null","<img src='gifs/ChineseGender4a.gif' style='height:400px;''></img>","","html-keyboard-response","149","579178","0.0-15.0-1.2","65703","ListA","woman","chinese","SW_C_F_A6","","","","null","","","","","",""
"null","正在触摸","","html-keyboard-response","150","582186","0.0-15.0-2.2","65703","ListA","woman","chinese","SW_C_F_A6","","","","null","","","","","",""
"5740.300000011921","","","survey-text","151","587930","0.0-15.0-3.2","65703","ListA","woman","chinese","SW_C_F_A6","","","","","{""Q0"":""麦克正在触摸凯特""}","<img src='gifs/ChineseGender4a.gif' style='height:400px;''></img>","触摸","正在触摸","chinese",""
"null","<div style=""font-size:60px;"">+</div>","","html-keyboard-response","152","588433","0.0-15.0-0.3","65703","ListA","woman","chinese","SW_C_F_A6","","","","null","","","","","",""
"null","<img src='gifs/MaleRace3b.gif' style='height:400px;''></img>","","html-keyboard-response","153","590441","0.0-15.0-1.3","65703","ListA","woman","chinese","SW_C_F_A6","","","","null","","","","","",""
"null","正在介绍","","html-keyboard-response","154","593449","0.0-15.0-2.3","65703","ListA","woman","chinese","SW_C_F_A6","","","","null","","","","","",""
"6613.5999999940395","","","survey-text","155","600067","0.0-15.0-3.3","65703","ListA","woman","chinese","SW_C_F_A6","","","","","{""Q0"":""麦克正在介绍卢克""}","<img src='gifs/MaleRace3b.gif' style='height:400px;''></img>","介绍","正在介绍","chinese",""
"null","<div style=""font-size:60px;"">+</div>","","html-keyboard-response","156","600574","0.0-15.0-0.4","65703","ListA","woman","chinese","SW_C_F_A6","","","","null","","","","","",""
"null","<img src='gifs/MaleRace4a.gif' style='height:400px;''></img>","","html-keyboard-response","157","602584","0.0-15.0-1.4","65703","ListA","woman","chinese","SW_C_F_A6","","","","null","","","","","",""
"null","正在聘用","","html-keyboard-response","158","605593","0.0-15.0-2.4","65703","ListA","woman","chinese","SW_C_F_A6","","","","null","","","","","",""
"4645.699999988079","","","survey-text","159","610243","0.0-15.0-3.4","65703","ListA","woman","chinese","SW_C_F_A6","","","","","{""Q0"":""麦克正在介绍戴夫""}","<img src='gifs/MaleRace4a.gif' style='height:400px;''></img>","聘用","正在聘用","chinese",""
"null","<div style=""font-size:60px;"">+</div>","","html-keyboard-response","160","610752","0.0-15.0-0.5","65703","ListA","woman","chinese","SW_C_F_A6","","","","null","","","","","",""
"null","<img src='gifs/ChineseGender4a.gif' style='height:400px;''></img>","","html-keyboard-response","161","612761","0.0-15.0-1.5","65703","ListA","woman","chinese","SW_C_F_A6","","","","null","","","","","",""
"null","正在联系","","html-keyboard-response","162","615765","0.0-15.0-2.5","65703","ListA","woman","chinese","SW_C_F_A6","","","","null","","","","","",""
"4174.299999982119","","","survey-text","163","619944","0.0-15.0-3.5","65703","ListA","woman","chinese","SW_C_F_A6","","","","","{""Q0"":""凯特正在联系麦克""}","<img src='gifs/ChineseGender4a.gif' style='height:400px;''></img>","联系","正在联系","chinese",""
"null","<div style=""font-size:60px;"">+</div>","","html-keyboard-response","164","620449","0.0-15.0-0.6","65703","ListA","woman","chinese","SW_C_F_A6","","","","null","","","","","",""
"null","<img src='gifs/BlackGender1b.gif' style='height:400px;''></img>","","html-keyboard-response","165","622465","0.0-15.0-1.6","65703","ListA","woman","chinese","SW_C_F_A6","","","","null","","","","","",""
"null","正在答应","","html-keyboard-response","166","625472","0.0-15.0-2.6","65703","ListA","woman","chinese","SW_C_F_A6","","","","null","","","","","",""
"6097.300000011921","","","survey-text","167","631574","0.0-15.0-3.6","65703","ListA","woman","chinese","SW_C_F_A6","","","","","{""Q0"":""卢克正在答应露丝""}","<img src='gifs/BlackGender1b.gif' style='height:400px;''></img>","答应","正在答应","chinese",""
"null","<div style=""font-size:60px;"">+</div>","","html-keyboard-response","168","632085","0.0-15.0-0.7","65703","ListA","woman","chinese","SW_C_F_A6","","","","null","","","","","",""
"null","<img src='gifs/ChineseGender3a.gif' style='height:400px;''></img>","","html-keyboard-response","169","634092","0.0-15.0-1.7","65703","ListA","woman","chinese","SW_C_F_A6","","","","null","","","","","",""
"null","正在提到","","html-keyboard-response","170","637102","0.0-15.0-2.7","65703","ListA","woman","chinese","SW_C_F_A6","","","","null","","","","","",""
"7167.0999999940395","","","survey-text","171","644336","0.0-15.0-3.7","65703","ListA","woman","chinese","SW_C_F_A6","","","","","{""Q0"":""麦克正在提到贝斯""}","<img src='gifs/ChineseGender3a.gif' style='height:400px;''></img>","提到","正在提到","chinese",""
"null","<div style=""font-size:60px;"">+</div>","","html-keyboard-response","172","644846","0.0-15.0-0.8","65703","ListA","woman","chinese","SW_C_F_A6","","","","null","","","","","",""
"null","<img src='gifs/FemaleRace1b.gif' style='height:400px;''></img>","","html-keyboard-response","173","646862","0.0-15.0-1.8","65703","ListA","woman","chinese","SW_C_F_A6","","","","null","","","","","",""
"null","正在看着","","html-keyboard-response","174","649864","0.0-15.0-2.8","65703","ListA","woman","chinese","SW_C_F_A6","","","","null","","","","","",""
"6104.0999999940395","","","survey-text","175","655971","0.0-15.0-3.8","65703","ListA","woman","chinese","SW_C_F_A6","","","","","{""Q0"":""露丝正在看着凯特""}","<img src='gifs/FemaleRace1b.gif' style='height:400px;''></img>","看着","正在看着","chinese",""
"null","<div style=""font-size:60px;"">+</div>","","html-keyboard-response","176","656478","0.0-15.0-0.9","65703","ListA","woman","chinese","SW_C_F_A6","","","","null","","","","","",""
"null","<img src='gifs/BlackGender4b.gif' style='height:400px;''></img>","","html-keyboard-response","177","658494","0.0-15.0-1.9","65703","ListA","woman","chinese","SW_C_F_A6","","","","null","","","","","",""
"null","正在介绍","","html-keyboard-response","178","661500","0.0-15.0-2.9","65703","ListA","woman","chinese","SW_C_F_A6","","","","null","","","","","",""
"4340.5999999940395","","","survey-text","179","665845","0.0-15.0-3.9","65703","ListA","woman","chinese","SW_C_F_A6","","","","","{""Q0"":""戴夫正在介绍霍普""}","<img src='gifs/BlackGender4b.gif' style='height:400px;''></img>","介绍","正在介绍","chinese",""
"null","<div style=""font-size:60px;"">+</div>","","html-keyboard-response","180","666353","0.0-15.0-0.10","65703","ListA","woman","chinese","SW_C_F_A6","","","","null","","","","","",""
"null","<img src='gifs/ChineseGender3a.gif' style='height:400px;''></img>","","html-keyboard-response","181","668366","0.0-15.0-1.10","65703","ListA","woman","chinese","SW_C_F_A6","","","","null","","","","","",""
"null","正在表扬","","html-keyboard-response","182","671373","0.0-15.0-2.10","65703","ListA","woman","chinese","SW_C_F_A6","","","","null","","","","","",""
"6032.5999999940395","","","survey-text","183","677410","0.0-15.0-3.10","65703","ListA","woman","chinese","SW_C_F_A6","","","","","{""Q0"":""贝斯正在表扬麦克""}","<img src='gifs/ChineseGender3a.gif' style='height:400px;''></img>","表扬","正在表扬","chinese",""
"null","<div style=""font-size:60px;"">+</div>","","html-keyboard-response","184","677913","0.0-15.0-0.11","65703","ListA","woman","chinese","SW_C_F_A6","","","","null","","","","","",""
"null","<img src='gifs/BlackGender2b.gif' style='height:400px;''></img>","","html-keyboard-response","185","679924","0.0-15.0-1.11","65703","ListA","woman","chinese","SW_C_F_A6","","","","null","","","","","",""
"null","正在接近","","html-keyboard-response","186","682929","0.0-15.0-2.11","65703","ListA","woman","chinese","SW_C_F_A6","","","","null","","","","","",""
"4525.699999988079","","","survey-text","187","687459","0.0-15.0-3.11","65703","ListA","woman","chinese","SW_C_F_A6","","","","","{""Q0"":""戴夫正在接近露丝""}","<img src='gifs/BlackGender2b.gif' style='height:400px;''></img>","接近","正在接近","chinese",""
"null","<div style=""font-size:60px;"">+</div>","","html-keyboard-response","188","687961","0.0-15.0-0.12","65703","ListA","woman","chinese","SW_C_F_A6","","","","null","","","","","",""
"null","<img src='gifs/ChineseGender4b.gif' style='height:400px;''></img>","","html-keyboard-response","189","689970","0.0-15.0-1.12","65703","ListA","woman","chinese","SW_C_F_A6","","","","null","","","","","",""
"null","正在陪伴","","html-keyboard-response","190","692980","0.0-15.0-2.12","65703","ListA","woman","chinese","SW_C_F_A6","","","","null","","","","","",""
"5075.300000011921","","","survey-text","191","698060","0.0-15.0-3.12","65703","ListA","woman","chinese","SW_C_F_A6","","","","","{""Q0"":""凯特正在陪伴麦克""}","<img src='gifs/ChineseGender4b.gif' style='height:400px;''></img>","陪伴","正在陪伴","chinese",""
"null","<div style=""font-size:60px;"">+</div>","","html-keyboard-response","192","698564","0.0-15.0-0.13","65703","ListA","woman","chinese","SW_C_F_A6","","","","null","","","","","",""
"null","<img src='gifs/ChineseGender3b.gif' style='height:400px;''></img>","","html-keyboard-response","193","700572","0.0-15.0-1.13","65703","ListA","woman","chinese","SW_C_F_A6","","","","null","","","","","",""
"null","正在表扬","","html-keyboard-response","194","703580","0.0-15.0-2.13","65703","ListA","woman","chinese","SW_C_F_A6","","","","null","","","","","",""
"4068.5999999940395","","","survey-text","195","707654","0.0-15.0-3.13","65703","ListA","woman","chinese","SW_C_F_A6","","","","","{""Q0"":""麦克正在表扬贝斯""}","<img src='gifs/ChineseGender3b.gif' style='height:400px;''></img>","表扬","正在表扬","chinese",""
"null","<div style=""font-size:60px;"">+</div>","","html-keyboard-response","196","708164","0.0-15.0-0.14","65703","ListA","woman","chinese","SW_C_F_A6","","","","null","","","","","",""
"null","<img src='gifs/FemaleRace4b.gif' style='height:400px;''></img>","","html-keyboard-response","197","710172","0.0-15.0-1.14","65703","ListA","woman","chinese","SW_C_F_A6","","","","null","","","","","",""
"null","正在联系","","html-keyboard-response","198","713181","0.0-15.0-2.14","65703","ListA","woman","chinese","SW_C_F_A6","","","","null","","","","","",""
"5472.300000011921","","","survey-text","199","718658","0.0-15.0-3.14","65703","ListA","woman","chinese","SW_C_F_A6","","","","","{""Q0"":""霍普正在联系贝斯""}","<img src='gifs/FemaleRace4b.gif' style='height:400px;''></img>","联系","正在联系","chinese",""
"null","<div style=""font-size:60px;"">+</div>","","html-keyboard-response","200","719164","0.0-15.0-0.15","65703","ListA","woman","chinese","SW_C_F_A6","","","","null","","","","","",""
"null","<img src='gifs/MaleRace4a.gif' style='height:400px;''></img>","","html-keyboard-response","201","721180","0.0-15.0-1.15","65703","ListA","woman","chinese","SW_C_F_A6","","","","null","","","","","",""
"null","正在看着","","html-keyboard-response","202","724188","0.0-15.0-2.15","65703","ListA","woman","chinese","SW_C_F_A6","","","","null","","","","","",""
"5312.699999988079","","","survey-text","203","729504","0.0-15.0-3.15","65703","ListA","woman","chinese","SW_C_F_A6","","","","","{""Q0"":""戴夫正在看着麦克""}","<img src='gifs/MaleRace4a.gif' style='height:400px;''></img>","看着","正在看着","chinese",""
"null","<div style=""font-size:60px;"">+</div>","","html-keyboard-response","204","730012","0.0-15.0-0.16","65703","ListA","woman","chinese","SW_C_F_A6","","","","null","","","","","",""
"null","<img src='gifs/FemaleRace4a.gif' style='height:400px;''></img>","","html-keyboard-response","205","732028","0.0-15.0-1.16","65703","ListA","woman","chinese","SW_C_F_A6","","","","null","","","","","",""
"null","正在面向","","html-keyboard-response","206","735033","0.0-15.0-2.16","65703","ListA","woman","chinese","SW_C_F_A6","","","","null","","","","","",""
"4509.200000017881","","","survey-text","207","739546","0.0-15.0-3.16","65703","ListA","woman","chinese","SW_C_F_A6","","","","","{""Q0"":""霍普正在面向贝斯""}","<img src='gifs/FemaleRace4a.gif' style='height:400px;''></img>","面向","正在面向","chinese",""
"null","<div style=""font-size:60px;"">+</div>","","html-keyboard-response","208","740051","0.0-15.0-0.17","65703","ListA","woman","chinese","SW_C_F_A6","","","","null","","","","","",""
"null","<img src='gifs/MaleRace2b.gif' style='height:400px;''></img>","","html-keyboard-response","209","742057","0.0-15.0-1.17","65703","ListA","woman","chinese","SW_C_F_A6","","","","null","","","","","",""
"null","正在触摸","","html-keyboard-response","210","745065","0.0-15.0-2.17","65703","ListA","woman","chinese","SW_C_F_A6","","","","null","","","","","",""
"6673.199999988079","","","survey-text","211","751743","0.0-15.0-3.17","65703","ListA","woman","chinese","SW_C_F_A6","","","","","{""Q0"":""戴夫正在触摸弗雷""}","<img src='gifs/MaleRace2b.gif' style='height:400px;''></img>","触摸","正在触摸","chinese",""
"2367.9000000059605","<img src='img/portrait_matrix_listA_chinese.jpg' style='width:900px;height:500px;''></img><p>如果您已经记住了所有的人物和名字，请点击继续。</p><p><strong>请注意：您对先前记忆的面孔将在本实验中被测试5次。</strong></p>","0","html-button-response","212","754114","0.0-16.0-0.0","65703","ListA","woman","chinese","SW_C_F_A6","","","","","","","","","",""
"4055","<img src=""portrait/WW1.jpg""style=""height:400px;""></img>","1","html-button-response","213","759181","0.0-16.0-1.0","65703","ListA","woman","chinese","SW_C_F_A6","","true","1","","","","","","",""
"null","正确","","html-keyboard-response","214","760695","0.0-16.0-2.0-0.0","65703","ListA","woman","chinese","SW_C_F_A6","","","","null","","","","","",""
"1931.9000000059605","<img src=""portrait/BM1.jpg""style=""height:400px;""></img>","4","html-button-response","215","762630","0.0-16.0-4.0","65703","ListA","woman","chinese","SW_C_F_A6","","true","4","","","","","","",""
"null","正确","","html-keyboard-response","216","764155","0.0-16.0-5.0-0.0","65703","ListA","woman","chinese","SW_C_F_A6","","","","null","","","","","",""
"1754.4000000059605","<img src=""portrait/WM1.jpg""style=""height:400px;""></img>","6","html-button-response","217","765913","0.0-16.0-7.0","65703","ListA","woman","chinese","SW_C_F_A6","","true","6","","","","","","",""
"null","正确","","html-keyboard-response","218","767431","0.0-16.0-8.0-0.0","65703","ListA","woman","chinese","SW_C_F_A6","","","","null","","","","","",""
"1679","<img src=""portrait/BW2.jpg""style=""height:400px;""></img>","2","html-button-response","219","769113","0.0-16.0-10.0","65703","ListA","woman","chinese","SW_C_F_A6","","true","2","","","","","","",""
"null","正确","","html-keyboard-response","220","770632","0.0-16.0-11.0-0.0","65703","ListA","woman","chinese","SW_C_F_A6","","","","null","","","","","",""
"1778.199999988079","<img src=""portrait/BW1.jpg""style=""height:400px;""></img>","0","html-button-response","221","772412","0.0-16.0-13.0","65703","ListA","woman","chinese","SW_C_F_A6","","true","0","","","","","","",""
"null","正确","","html-keyboard-response","222","773922","0.0-16.0-14.0-0.0","65703","ListA","woman","chinese","SW_C_F_A6","","","","null","","","","","",""
"1958.199999988079","<img src=""portrait/WW2.jpg""style=""height:400px;""></img>","3","html-button-response","223","775882","0.0-16.0-16.0","65703","ListA","woman","chinese","SW_C_F_A6","","true","3","","","","","","",""
"null","正确","","html-keyboard-response","224","777403","0.0-16.0-17.0-0.0","65703","ListA","woman","chinese","SW_C_F_A6","","","","null","","","","","",""
"2057.800000011921","<img src=""portrait/BM2.jpg""style=""height:400px;""></img>","5","html-button-response","225","779463","0.0-16.0-19.0","65703","ListA","woman","chinese","SW_C_F_A6","","true","5","","","","","","",""
"null","正确","","html-keyboard-response","226","780977","0.0-16.0-20.0-0.0","65703","ListA","woman","chinese","SW_C_F_A6","","","","null","","","","","",""
"1369.4000000059605","<img src=""portrait/WM2.jpg""style=""height:400px;""></img>","7","html-button-response","227","782349","0.0-16.0-22.0","65703","ListA","woman","chinese","SW_C_F_A6","","true","7","","","","","","",""
"null","正确","","html-keyboard-response","228","783872","0.0-16.0-23.0-0.0","65703","ListA","woman","chinese","SW_C_F_A6","","","","null","","","","","",""
"1287.7999999821186","<p>您第一次在8题里答对了 8 题。 请点击继续</p>","0","html-button-response","229","785163","0.0-16.0-25.0","65703","ListA","woman","chinese","SW_C_F_A6","","","","","","","","","",""
"null","<div style=""font-size:60px;"">+</div>","","html-keyboard-response","230","786680","0.0-17.0-0.0","65703","ListA","woman","chinese","SW_C_F_A6","","","","null","","","","","",""
"null","<img src='gifs/FemaleRace3b.gif' style='height:400px;''></img>","","html-keyboard-response","231","788690","0.0-17.0-1.0","65703","ListA","woman","chinese","SW_C_F_A6","","","","null","","","","","",""
"null","正在聆听","","html-keyboard-response","232","791697","0.0-17.0-2.0","65703","ListA","woman","chinese","SW_C_F_A6","","","","null","","","","","",""
"5958.799999982119","","","survey-text","233","797660","0.0-17.0-3.0","65703","ListA","woman","chinese","SW_C_F_A6","","","","","{""Q0"":""贝斯正在聆听露丝""}","<img src='gifs/FemaleRace3b.gif' style='height:400px;''></img>","聆听","正在聆听","chinese",""
"null","<div style=""font-size:60px;"">+</div>","","html-keyboard-response","234","798170","0.0-17.0-0.1","65703","ListA","woman","chinese","SW_C_F_A6","","","","null","","","","","",""
"null","<img src='gifs/FemaleRace4a.gif' style='height:400px;''></img>","","html-keyboard-response","235","800186","0.0-17.0-1.1","65703","ListA","woman","chinese","SW_C_F_A6","","","","null","","","","","",""
"null","正在答应","","html-keyboard-response","236","803190","0.0-17.0-2.1","65703","ListA","woman","chinese","SW_C_F_A6","","","","null","","","","","",""
"4211.399999976158","","","survey-text","237","807405","0.0-17.0-3.1","65703","ListA","woman","chinese","SW_C_F_A6","","","","","{""Q0"":""贝斯正在答应霍特""}","<img src='gifs/FemaleRace4a.gif' style='height:400px;''></img>","答应","正在答应","chinese",""
"null","<div style=""font-size:60px;"">+</div>","","html-keyboard-response","238","807914","0.0-17.0-0.2","65703","ListA","woman","chinese","SW_C_F_A6","","","","null","","","","","",""
"null","<img src='gifs/FemaleRace1b.gif' style='height:400px;''></img>","","html-keyboard-response","239","809922","0.0-17.0-1.2","65703","ListA","woman","chinese","SW_C_F_A6","","","","null","","","","","",""
"null","正在聘用","","html-keyboard-response","240","812930","0.0-17.0-2.2","65703","ListA","woman","chinese","SW_C_F_A6","","","","null","","","","","",""
"4736.4000000059605","","","survey-text","241","817671","0.0-17.0-3.2","65703","ListA","woman","chinese","SW_C_F_A6","","","","","{""Q0"":""露丝正在聘用凯特""}","<img src='gifs/FemaleRace1b.gif' style='height:400px;''></img>","聘用","正在聘用","chinese",""
"null","<div style=""font-size:60px;"">+</div>","","html-keyboard-response","242","818178","0.0-17.0-0.3","65703","ListA","woman","chinese","SW_C_F_A6","","","","null","","","","","",""
"null","<img src='gifs/FemaleRace3a.gif' style='height:400px;''></img>","","html-keyboard-response","243","820185","0.0-17.0-1.3","65703","ListA","woman","chinese","SW_C_F_A6","","","","null","","","","","",""
"null","正在聆听","","html-keyboard-response","244","823194","0.0-17.0-2.3","65703","ListA","woman","chinese","SW_C_F_A6","","","","null","","","","","",""
"6133.399999976158","","","survey-text","245","829331","0.0-17.0-3.3","65703","ListA","woman","chinese","SW_C_F_A6","","","","","{""Q0"":""露丝正在聆听贝斯""}","<img src='gifs/FemaleRace3a.gif' style='height:400px;''></img>","聆听","正在聆听","chinese",""
"null","<div style=""font-size:60px;"">+</div>","","html-keyboard-response","246","829842","0.0-17.0-0.4","65703","ListA","woman","chinese","SW_C_F_A6","","","","null","","","","","",""
"null","<img src='gifs/FemaleRace2b.gif' style='height:400px;''></img>","","html-keyboard-response","247","831855","0.0-17.0-1.4","65703","ListA","woman","chinese","SW_C_F_A6","","","","null","","","","","",""
"null","正在跟随","","html-keyboard-response","248","834864","0.0-17.0-2.4","65703","ListA","woman","chinese","SW_C_F_A6","","","","null","","","","","",""
"7029.699999988079","","","survey-text","249","841895","0.0-17.0-3.4","65703","ListA","woman","chinese","SW_C_F_A6","","","","","{""Q0"":""霍普正在跟随凯特""}","<img src='gifs/FemaleRace2b.gif' style='height:400px;''></img>","跟随","正在跟随","chinese",""
"null","<div style=""font-size:60px;"">+</div>","","html-keyboard-response","250","842402","0.0-17.0-0.5","65703","ListA","woman","chinese","SW_C_F_A6","","","","null","","","","","",""
"null","<img src='gifs/FemaleRace3b.gif' style='height:400px;''></img>","","html-keyboard-response","251","844414","0.0-17.0-1.5","65703","ListA","woman","chinese","SW_C_F_A6","","","","null","","","","","",""
"null","正在说服","","html-keyboard-response","252","847425","0.0-17.0-2.5","65703","ListA","woman","chinese","SW_C_F_A6","","","","null","","","","","",""
"4535.9000000059605","","","survey-text","253","851965","0.0-17.0-3.5","65703","ListA","woman","chinese","SW_C_F_A6","","","","","{""Q0"":""露丝正在说服贝斯""}","<img src='gifs/FemaleRace3b.gif' style='height:400px;''></img>","说服","正在说服","chinese",""
"null","<div style=""font-size:60px;"">+</div>","","html-keyboard-response","254","852473","0.0-17.0-0.6","65703","ListA","woman","chinese","SW_C_F_A6","","","","null","","","","","",""
"null","<img src='gifs/BlackGender2b.gif' style='height:400px;''></img>","","html-keyboard-response","255","854485","0.0-17.0-1.6","65703","ListA","woman","chinese","SW_C_F_A6","","","","null","","","","","",""
"null","正在说服","","html-keyboard-response","256","857496","0.0-17.0-2.6","65703","ListA","woman","chinese","SW_C_F_A6","","","","null","","","","","",""
"5027.0999999940395","","","survey-text","257","862527","0.0-17.0-3.6","65703","ListA","woman","chinese","SW_C_F_A6","","","","","{""Q0"":""露丝正在说服戴夫""}","<img src='gifs/BlackGender2b.gif' style='height:400px;''></img>","说服","正在说服","chinese",""
"null","<div style=""font-size:60px;"">+</div>","","html-keyboard-response","258","863033","0.0-17.0-0.7","65703","ListA","woman","chinese","SW_C_F_A6","","","","null","","","","","",""
"null","<img src='gifs/MaleRace2a.gif' style='height:400px;''></img>","","html-keyboard-response","259","865049","0.0-17.0-1.7","65703","ListA","woman","chinese","SW_C_F_A6","","","","null","","","","","",""
"null","正在陪伴","","html-keyboard-response","260","868056","0.0-17.0-2.7","65703","ListA","woman","chinese","SW_C_F_A6","","","","null","","","","","",""
"10934.09999999404","","","survey-text","261","878994","0.0-17.0-3.7","65703","ListA","woman","chinese","SW_C_F_A6","","","","","{""Q0"":""弗雷正在陪伴戴夫""}","<img src='gifs/MaleRace2a.gif' style='height:400px;''></img>","陪伴","正在陪伴","chinese",""
"null","<div style=""font-size:60px;"">+</div>","","html-keyboard-response","262","879504","0.0-17.0-0.8","65703","ListA","woman","chinese","SW_C_F_A6","","","","null","","","","","",""
"null","<img src='gifs/ChineseGender1a.gif' style='height:400px;''></img>","","html-keyboard-response","263","881508","0.0-17.0-1.8","65703","ListA","woman","chinese","SW_C_F_A6","","","","null","","","","","",""
"null","正在聘用","","html-keyboard-response","264","884517","0.0-17.0-2.8","65703","ListA","woman","chinese","SW_C_F_A6","","","","null","","","","","",""
"6679.899999976158","","","survey-text","265","891201","0.0-17.0-3.8","65703","ListA","woman","chinese","SW_C_F_A6","","","","","{""Q0"":""弗雷正在聘用凯特""}","<img src='gifs/ChineseGender1a.gif' style='height:400px;''></img>","聘用","正在聘用","chinese",""
"null","<div style=""font-size:60px;"">+</div>","","html-keyboard-response","266","891712","0.0-17.0-0.9","65703","ListA","woman","chinese","SW_C_F_A6","","","","null","","","","","",""
"null","<img src='gifs/MaleRace4b.gif' style='height:400px;''></img>","","html-keyboard-response","267","893724","0.0-17.0-1.9","65703","ListA","woman","chinese","SW_C_F_A6","","","","null","","","","","",""
"null","正在看着","","html-keyboard-response","268","896732","0.0-17.0-2.9","65703","ListA","woman","chinese","SW_C_F_A6","","","","null","","","","","",""
"4074.300000011921","","","survey-text","269","900811","0.0-17.0-3.9","65703","ListA","woman","chinese","SW_C_F_A6","","","","","{""Q0"":""麦克正在看着戴夫""}","<img src='gifs/MaleRace4b.gif' style='height:400px;''></img>","看着","正在看着","chinese",""
"null","<div style=""font-size:60px;"">+</div>","","html-keyboard-response","270","901315","0.0-17.0-0.10","65703","ListA","woman","chinese","SW_C_F_A6","","","","null","","","","","",""
"null","<img src='gifs/BlackGender4a.gif' style='height:400px;''></img>","","html-keyboard-response","271","903328","0.0-17.0-1.10","65703","ListA","woman","chinese","SW_C_F_A6","","","","null","","","","","",""
"null","正在提到","","html-keyboard-response","272","906331","0.0-17.0-2.10","65703","ListA","woman","chinese","SW_C_F_A6","","","","null","","","","","",""
"10993.59999999404","","","survey-text","273","917329","0.0-17.0-3.10","65703","ListA","woman","chinese","SW_C_F_A6","","","","","{""Q0"":""霍普正在提到戴夫""}","<img src='gifs/BlackGender4a.gif' style='height:400px;''></img>","提到","正在提到","chinese",""
"null","<div style=""font-size:60px;"">+</div>","","html-keyboard-response","274","917837","0.0-17.0-0.11","65703","ListA","woman","chinese","SW_C_F_A6","","","","null","","","","","",""
"null","<img src='gifs/MaleRace1a.gif' style='height:400px;''></img>","","html-keyboard-response","275","919847","0.0-17.0-1.11","65703","ListA","woman","chinese","SW_C_F_A6","","","","null","","","","","",""
"null","正在聆听","","html-keyboard-response","276","922856","0.0-17.0-2.11","65703","ListA","woman","chinese","SW_C_F_A6","","","","null","","","","","",""
"5120.5","","","survey-text","277","927981","0.0-17.0-3.11","65703","ListA","woman","chinese","SW_C_F_A6","","","","","{""Q0"":""卢克正在聆听弗雷""}","<img src='gifs/MaleRace1a.gif' style='height:400px;''></img>","聆听","正在聆听","chinese",""
"null","<div style=""font-size:60px;"">+</div>","","html-keyboard-response","278","928488","0.0-17.0-0.12","65703","ListA","woman","chinese","SW_C_F_A6","","","","null","","","","","",""
"null","<img src='gifs/MaleRace3a.gif' style='height:400px;''></img>","","html-keyboard-response","279","930501","0.0-17.0-1.12","65703","ListA","woman","chinese","SW_C_F_A6","","","","null","","","","","",""
"null","正在走向","","html-keyboard-response","280","933508","0.0-17.0-2.12","65703","ListA","woman","chinese","SW_C_F_A6","","","","null","","","","","",""
"8488.90000000596","","","survey-text","281","942001","0.0-17.0-3.12","65703","ListA","woman","chinese","SW_C_F_A6","","","","","{""Q0"":""卢克正在走向麦克""}","<img src='gifs/MaleRace3a.gif' style='height:400px;''></img>","走向","正在走向","chinese",""
"null","<div style=""font-size:60px;"">+</div>","","html-keyboard-response","282","942511","0.0-17.0-0.13","65703","ListA","woman","chinese","SW_C_F_A6","","","","null","","","","","",""
"null","<img src='gifs/MaleRace2b.gif' style='height:400px;''></img>","","html-keyboard-response","283","944519","0.0-17.0-1.13","65703","ListA","woman","chinese","SW_C_F_A6","","","","null","","","","","",""
"null","正在触摸","","html-keyboard-response","284","947527","0.0-17.0-2.13","65703","ListA","woman","chinese","SW_C_F_A6","","","","null","","","","","",""
"5120","","","survey-text","285","952651","0.0-17.0-3.13","65703","ListA","woman","chinese","SW_C_F_A6","","","","","{""Q0"":""弗雷正在触摸戴夫""}","<img src='gifs/MaleRace2b.gif' style='height:400px;''></img>","触摸","正在触摸","chinese",""
"null","<div style=""font-size:60px;"">+</div>","","html-keyboard-response","286","953159","0.0-17.0-0.14","65703","ListA","woman","chinese","SW_C_F_A6","","","","null","","","","","",""
"null","<img src='gifs/BlackGender2a.gif' style='height:400px;''></img>","","html-keyboard-response","287","955175","0.0-17.0-1.14","65703","ListA","woman","chinese","SW_C_F_A6","","","","null","","","","","",""
"null","正在说服","","html-keyboard-response","288","958182","0.0-17.0-2.14","65703","ListA","woman","chinese","SW_C_F_A6","","","","null","","","","","",""
"4772.199999988079","","","survey-text","289","962959","0.0-17.0-3.14","65703","ListA","woman","chinese","SW_C_F_A6","","","","","{""Q0"":""戴夫正在说服露丝""}","<img src='gifs/BlackGender2a.gif' style='height:400px;''></img>","说服","正在说服","chinese",""
"null","<div style=""font-size:60px;"">+</div>","","html-keyboard-response","290","963471","0.0-17.0-0.15","65703","ListA","woman","chinese","SW_C_F_A6","","","","null","","","","","",""
"null","<img src='gifs/BlackGender3a.gif' style='height:400px;''></img>","","html-keyboard-response","291","965485","0.0-17.0-1.15","65703","ListA","woman","chinese","SW_C_F_A6","","","","null","","","","","",""
"null","正在联系","","html-keyboard-response","292","968494","0.0-17.0-2.15","65703","ListA","woman","chinese","SW_C_F_A6","","","","null","","","","","",""
"4625.5999999940395","","","survey-text","293","973124","0.0-17.0-3.15","65703","ListA","woman","chinese","SW_C_F_A6","","","","","{""Q0"":""霍普正在联系卢克""}","<img src='gifs/BlackGender3a.gif' style='height:400px;''></img>","联系","正在联系","chinese",""
"null","<div style=""font-size:60px;"">+</div>","","html-keyboard-response","294","973631","0.0-17.0-0.16","65703","ListA","woman","chinese","SW_C_F_A6","","","","null","","","","","",""
"null","<img src='gifs/BlackGender4b.gif' style='height:400px;''></img>","","html-keyboard-response","295","975644","0.0-17.0-1.16","65703","ListA","woman","chinese","SW_C_F_A6","","","","null","","","","","",""
"null","正在接近","","html-keyboard-response","296","978646","0.0-17.0-2.16","65703","ListA","woman","chinese","SW_C_F_A6","","","","null","","","","","",""
"4406.4000000059605","","","survey-text","297","983058","0.0-17.0-3.16","65703","ListA","woman","chinese","SW_C_F_A6","","","","","{""Q0"":""霍普正在接近戴夫""}","<img src='gifs/BlackGender4b.gif' style='height:400px;''></img>","接近","正在接近","chinese",""
"null","<div style=""font-size:60px;"">+</div>","","html-keyboard-response","298","983566","0.0-17.0-0.17","65703","ListA","woman","chinese","SW_C_F_A6","","","","null","","","","","",""
"null","<img src='gifs/ChineseGender2a.gif' style='height:400px;''></img>","","html-keyboard-response","299","985580","0.0-17.0-1.17","65703","ListA","woman","chinese","SW_C_F_A6","","","","null","","","","","",""
"null","正在表扬","","html-keyboard-response","300","988587","0.0-17.0-2.17","65703","ListA","woman","chinese","SW_C_F_A6","","","","null","","","","","",""
"5390.5","","","survey-text","301","993982","0.0-17.0-3.17","65703","ListA","woman","chinese","SW_C_F_A6","","","","","{""Q0"":""贝斯正在表扬弗雷""}","<img src='gifs/ChineseGender2a.gif' style='height:400px;''></img>","表扬","正在表扬","chinese",""
"2780.7000000178814","<p>Thank you for completing that task.</p><p>The final part of this session is a short questionnaire.</p><p>Press Continue.</p>","0","html-button-response","302","996764","0.0-18.0","65703","ListA","woman","chinese","SW_C_F_A6","","","","","","","","","",""
"24823.70000001788","","","survey-text","303","1022600","0.0-19.0","65703","ListA","woman","chinese","SW_C_F_A6","","","","","{""Q0"":""28"",""Q1"":""chinese"",""Q2"":""chinese"",""Q3"":""uk"",""Q4"":""china"",""Q5"":""chinese"",""Q6"":""female""}","","","","","demographics"
"3029.0999999940395","<p>Have you lived in the UK for the last 5 years or more?</p>","0","html-button-response","304","1025631","0.0-20.0","65703","ListA","woman","chinese","SW_C_F_A6","","","","","","","","","","fiveyears"
"4577.200000017881","","","external-html","305","1031381","0.0-21.0","65703","ListA","woman","chinese","SW_C_F_A6","debrief.html","","","","","","","","",""
"6013.199999988079","","","survey-text","306","1037399","0.0-22.0","65703","ListA","woman","chinese","SW_C_F_A6","","","","","{""ptpt_id"":""SW_C_F_A6""}","","","","","worker_id"
