"rt","stimulus","button_pressed","trial_type","trial_index","time_elapsed","internal_node_id","subject","list","ppt_gender","ppt_language","url","first_guess","correct","key_press","responses","image","verb","phrase","condition","test_part"
"13149","Welcome to the experiment. Press Continue to begin.","0","html-button-response","0","13155","0.0-0.0","69578","ListA","woman","english","","","","","","","","","",""
"23180.200000047684","","","external-html","1","37355","0.0-1.0","69578","ListA","woman","english","consent.html","","","","","","","","",""
"1318.7000000476837","<p>On the next page, you will see portraits of 8 people and their names.</p><p>Your first task is to take a few minutes to memorise the names of these people.</p><p>You will have to recall their names during the rest of the experiment, so it is</p><p>essential that you try to memorise these people and their names as best as you can.</p><p><strong>You will then be tested on your memory of these names and portraits.</strong></p><p>The experiment will start after you have completed this memory test.</p><p>Ready?</p>","0","html-button-response","2","38675","0.0-2.0","69578","ListA","woman","english","","","","","","","","","",""
"11974.799999952316","<img src='img/portrait_matrix_listA.jpg' style='width:900px;height:500px;''></img><p>If you have memorised all the portraits and names and are ready to start, press Continue.</p><p><strong>Please note: Your memory of these faces will be tested 5 times during this experiment.</strong></p>","0","html-button-response","3","51655","0.0-3.0-0.0","69578","ListA","woman","english","","","","","","","","","",""
"3537.7000000476837","<img src=""portrait/WM1.jpg""style=""height:400px;""></img>","6","html-button-response","4","56208","0.0-3.0-1.0","69578","ListA","woman","english","","true","6","","","","","","",""
"null","CORRECT","","html-keyboard-response","5","57733","0.0-3.0-2.0-0.0","69578","ListA","woman","english","","","","null","","","","","",""
"6499.900000095367","<img src=""portrait/BW1.jpg""style=""height:400px;""></img>","0","html-button-response","6","64236","0.0-3.0-4.0","69578","ListA","woman","english","","true","0","","","","","","",""
"null","CORRECT","","html-keyboard-response","7","65755","0.0-3.0-5.0-0.0","69578","ListA","woman","english","","","","null","","","","","",""
"2265.7999999523163","<img src=""portrait/WM2.jpg""style=""height:400px;""></img>","7","html-button-response","8","68026","0.0-3.0-7.0","69578","ListA","woman","english","","true","7","","","","","","",""
"null","CORRECT","","html-keyboard-response","9","69531","0.0-3.0-8.0-0.0","69578","ListA","woman","english","","","","null","","","","","",""
"2744","<img src=""portrait/BM1.jpg""style=""height:400px;""></img>","4","html-button-response","10","72280","0.0-3.0-10.0","69578","ListA","woman","english","","true","4","","","","","","",""
"null","CORRECT","","html-keyboard-response","11","73799","0.0-3.0-11.0-0.0","69578","ListA","woman","english","","","","null","","","","","",""
"4530.299999952316","<img src=""portrait/BM2.jpg""style=""height:400px;""></img>","5","html-button-response","12","78332","0.0-3.0-13.0","69578","ListA","woman","english","","true","5","","","","","","",""
"null","CORRECT","","html-keyboard-response","13","79853","0.0-3.0-14.0-0.0","69578","ListA","woman","english","","","","null","","","","","",""
"1751.8000001907349","<img src=""portrait/WW2.jpg""style=""height:400px;""></img>","3","html-button-response","14","81608","0.0-3.0-16.0","69578","ListA","woman","english","","true","3","","","","","","",""
"null","CORRECT","","html-keyboard-response","15","83125","0.0-3.0-17.0-0.0","69578","ListA","woman","english","","","","null","","","","","",""
"2630.9000000953674","<img src=""portrait/WW1.jpg""style=""height:400px;""></img>","1","html-button-response","16","85760","0.0-3.0-19.0","69578","ListA","woman","english","","true","1","","","","","","",""
"null","CORRECT","","html-keyboard-response","17","87280","0.0-3.0-20.0-0.0","69578","ListA","woman","english","","","","null","","","","","",""
"3149.5999999046326","<img src=""portrait/BW2.jpg""style=""height:400px;""></img>","2","html-button-response","18","90433","0.0-3.0-22.0","69578","ListA","woman","english","","true","2","","","","","","",""
"null","CORRECT","","html-keyboard-response","19","91948","0.0-3.0-23.0-0.0","69578","ListA","woman","english","","","","null","","","","","",""
"1192.2000000476837","<p>You got 8 out of 8 right first time. Press Continue.</p>","0","html-button-response","20","93142","0.0-3.0-25.0","69578","ListA","woman","english","","","","","","","","","",""
"2074","<p>In this experiment, you will view photographs of the people from the memory game.</p><p>By using the <strong>exact</strong> phrase given <i>after</i> the photograph appears and recalling the correct names of the people in the photographs, form a sentence describing an interaction. You do not need to capitalise names.</p><p>Type your answer in the space provided. Please complete every sentence before moving onto the next trial.</p><p>You will only have a few seconds to memorise each given photograph and phrase before you can respond, so try your best to focus.</p><p>An example is given below. Press 'Continue' when you are ready.</p><img src='img/speaking_example.jpg' style='width:800px;height:460px;''></img>","0","html-button-response","21","96239","0.0-4.0","69578","ListA","woman","english","","","","","","","","","",""
"1631","<p>Before the experiment starts, you will watch two example trials. Press 'Continue'.</p>","0","html-button-response","22","98875","0.0-5.0","69578","ListA","woman","english","","","","","","","","","",""
"null","<img src='img/meet.gif' style='height:400px;''></img>","","html-keyboard-response","23","101888","0.0-6.0","69578","ListA","woman","english","","","","null","","","","","",""
"null","<p>is meeting</p>","","html-keyboard-response","24","103894","0.0-7.0","69578","ListA","woman","english","","","","null","","","","","",""
"3416.5","<p><b>Answer:</b> kate is meeting beth</p>","0","html-button-response","25","107312","0.0-8.0","69578","ListA","woman","english","","","","","","","","","",""
"null","<img src='img/spy.gif' style='height:400px;''></img>","","html-keyboard-response","26","110332","0.0-9.0","69578","ListA","woman","english","","","","null","","","","","",""
"null","<p>is being spied on by</p>","","html-keyboard-response","27","112348","0.0-10.0","69578","ListA","woman","english","","","","null","","","","","",""
"5693.5","<p><b>Answer:</b> luke is being spied on by dave</p>","0","html-button-response","28","118043","0.0-11.0","69578","ListA","woman","english","","","","","","","","","",""
"24474.5","<p>Ready to start the experiment?</p><br><p><strong>Remember to describe the picture using a full sentence,</strong></p><p><strong>that combines the names of the people with the <i>exact</i> phrase given.</strong></p><p><strong>To receive full payment you must do this correctly.</strong></p><p><strong> You do not need to capitalise names or use punctuation.</strong></p><br><p>Press 'Continue' to begin.</p>","0","html-button-response","29","143522","0.0-12.0","69578","ListA","woman","english","","","","","","","","","",""
"null","<div style=""font-size:60px;"">+</div>","","html-keyboard-response","30","145041","0.0-13.0-0.0","69578","ListA","woman","english","","","","null","","","","","",""
"null","<img src='gifs/BlackGender3a.gif' style='height:400px;''></img>","","html-keyboard-response","31","147057","0.0-13.0-1.0","69578","ListA","woman","english","","","","null","","","","","",""
"null","is praising","","html-keyboard-response","32","150080","0.0-13.0-2.0","69578","ListA","woman","english","","","","null","","","","","",""
"31089.200000047684","","","survey-text","33","181173","0.0-13.0-3.0","69578","ListA","woman","english","","","","","{""Q0"":""Luke is praising Jane""}","<img src='gifs/BlackGender3a.gif' style='height:400px;''></img>","praising","is praising","english",""
"null","<div style=""font-size:60px;"">+</div>","","html-keyboard-response","34","181678","0.0-13.0-0.1","69578","ListA","woman","english","","","","null","","","","","",""
"null","<img src='gifs/MaleRace4a.gif' style='height:400px;''></img>","","html-keyboard-response","35","183695","0.0-13.0-1.1","69578","ListA","woman","english","","","","null","","","","","",""
"null","is approaching","","html-keyboard-response","36","186699","0.0-13.0-2.1","69578","ListA","woman","english","","","","null","","","","","",""
"13028.699999809265","","","survey-text","37","199738","0.0-13.0-3.1","69578","ListA","woman","english","","","","","{""Q0"":""Mike is approaching Dave""}","<img src='gifs/MaleRace4a.gif' style='height:400px;''></img>","approaching","is approaching","english",""
"null","<div style=""font-size:60px;"">+</div>","","html-keyboard-response","38","200252","0.0-13.0-0.2","69578","ListA","woman","english","","","","null","","","","","",""
"null","<img src='gifs/MaleRace4b.gif' style='height:400px;''></img>","","html-keyboard-response","39","202277","0.0-13.0-1.2","69578","ListA","woman","english","","","","null","","","","","",""
"null","is employing","","html-keyboard-response","40","205292","0.0-13.0-2.2","69578","ListA","woman","english","","","","null","","","","","",""
"21516","","","survey-text","41","226813","0.0-13.0-3.2","69578","ListA","woman","english","","","","","{""Q0"":""Dave is employing Mike""}","<img src='gifs/MaleRace4b.gif' style='height:400px;''></img>","employing","is employing","english",""
"null","<div style=""font-size:60px;"">+</div>","","html-keyboard-response","42","227328","0.0-13.0-0.3","69578","ListA","woman","english","","","","null","","","","","",""
"null","<img src='gifs/FemaleRace4b.gif' style='height:400px;''></img>","","html-keyboard-response","43","229339","0.0-13.0-1.3","69578","ListA","woman","english","","","","null","","","","","",""
"null","is contacting","","html-keyboard-response","44","232345","0.0-13.0-2.3","69578","ListA","woman","english","","","","null","","","","","",""
"38741.90000009537","","","survey-text","45","271098","0.0-13.0-3.3","69578","ListA","woman","english","","","","","{""Q0"":""Beth is contacting Jane""}","<img src='gifs/FemaleRace4b.gif' style='height:400px;''></img>","contacting","is contacting","english",""
"null","<div style=""font-size:60px;"">+</div>","","html-keyboard-response","46","271608","0.0-13.0-0.4","69578","ListA","woman","english","","","","null","","","","","",""
"null","<img src='gifs/MaleRace2b.gif' style='height:400px;''></img>","","html-keyboard-response","47","273616","0.0-13.0-1.4","69578","ListA","woman","english","","","","null","","","","","",""
"null","is mentioning","","html-keyboard-response","48","276621","0.0-13.0-2.4","69578","ListA","woman","english","","","","null","","","","","",""
"18262.400000095367","","","survey-text","49","294891","0.0-13.0-3.4","69578","ListA","woman","english","","","","","{""Q0"":""Fred is mentioning Dave""}","<img src='gifs/MaleRace2b.gif' style='height:400px;''></img>","mention","is mentioning","english",""
"null","<div style=""font-size:60px;"">+</div>","","html-keyboard-response","50","295399","0.0-13.0-0.5","69578","ListA","woman","english","","","","null","","","","","",""
"null","<img src='gifs/ChineseGender2a.gif' style='height:400px;''></img>","","html-keyboard-response","51","297408","0.0-13.0-1.5","69578","ListA","woman","english","","","","null","","","","","",""
"null","is looking at","","html-keyboard-response","52","300424","0.0-13.0-2.5","69578","ListA","woman","english","","","","null","","","","","",""
"18083.599999904633","","","survey-text","53","318519","0.0-13.0-3.5","69578","ListA","woman","english","","","","","{""Q0"":""Fred is looking at Beth""}","<img src='gifs/ChineseGender2a.gif' style='height:400px;''></img>","looking at","is looking at","english",""
"null","<div style=""font-size:60px;"">+</div>","","html-keyboard-response","54","319033","0.0-13.0-0.6","69578","ListA","woman","english","","","","null","","","","","",""
"null","<img src='gifs/ChineseGender4a.gif' style='height:400px;''></img>","","html-keyboard-response","55","321039","0.0-13.0-1.6","69578","ListA","woman","english","","","","null","","","","","",""
"null","is contacting","","html-keyboard-response","56","324042","0.0-13.0-2.6","69578","ListA","woman","english","","","","null","","","","","",""
"52722","","","survey-text","57","376772","0.0-13.0-3.6","69578","ListA","woman","english","","","","","{""Q0"":""Mike is contacting Kate""}","<img src='gifs/ChineseGender4a.gif' style='height:400px;''></img>","contacting","is contacting","english",""
"null","<div style=""font-size:60px;"">+</div>","","html-keyboard-response","58","377274","0.0-13.0-0.7","69578","ListA","woman","english","","","","null","","","","","",""
"null","<img src='gifs/ChineseGender3a.gif' style='height:400px;''></img>","","html-keyboard-response","59","379290","0.0-13.0-1.7","69578","ListA","woman","english","","","","null","","","","","",""
"null","is touching","","html-keyboard-response","60","382294","0.0-13.0-2.7","69578","ListA","woman","english","","","","null","","","","","",""
"27236.099999904633","","","survey-text","61","409544","0.0-13.0-3.7","69578","ListA","woman","english","","","","","{""Q0"":""Mike is touching Beth""}","<img src='gifs/ChineseGender3a.gif' style='height:400px;''></img>","touching","is touching","english",""
"null","<div style=""font-size:60px;"">+</div>","","html-keyboard-response","62","410058","0.0-13.0-0.8","69578","ListA","woman","english","","","","null","","","","","",""
"null","<img src='gifs/FemaleRace1a.gif' style='height:400px;''></img>","","html-keyboard-response","63","412063","0.0-13.0-1.8","69578","ListA","woman","english","","","","null","","","","","",""
"null","is praising","","html-keyboard-response","64","415088","0.0-13.0-2.8","69578","ListA","woman","english","","","","null","","","","","",""
"37616.59999990463","","","survey-text","65","452714","0.0-13.0-3.8","69578","ListA","woman","english","","","","","{""Q0"":""Ruth is praising Kate""}","<img src='gifs/FemaleRace1a.gif' style='height:400px;''></img>","praising","is praising","english",""
"null","<div style=""font-size:60px;"">+</div>","","html-keyboard-response","66","453225","0.0-13.0-0.9","69578","ListA","woman","english","","","","null","","","","","",""
"null","<img src='gifs/FemaleRace4a.gif' style='height:400px;''></img>","","html-keyboard-response","67","455237","0.0-13.0-1.9","69578","ListA","woman","english","","","","null","","","","","",""
"null","is listening to","","html-keyboard-response","68","458242","0.0-13.0-2.9","69578","ListA","woman","english","","","","null","","","","","",""
"33202.300000190735","","","survey-text","69","491451","0.0-13.0-3.9","69578","ListA","woman","english","","","","","{""Q0"":""Beth is listening to Jane""}","<img src='gifs/FemaleRace4a.gif' style='height:400px;''></img>","listening to","is listening to","english",""
"null","<div style=""font-size:60px;"">+</div>","","html-keyboard-response","70","491961","0.0-13.0-0.10","69578","ListA","woman","english","","","","null","","","","","",""
"null","<img src='gifs/ChineseGender1a.gif' style='height:400px;''></img>","","html-keyboard-response","71","493974","0.0-13.0-1.10","69578","ListA","woman","english","","","","null","","","","","",""
"null","is listening to","","html-keyboard-response","72","496992","0.0-13.0-2.10","69578","ListA","woman","english","","","","null","","","","","",""
"20655.099999904633","","","survey-text","73","517657","0.0-13.0-3.10","69578","ListA","woman","english","","","","","{""Q0"":""Kate is listening to Fred""}","<img src='gifs/ChineseGender1a.gif' style='height:400px;''></img>","listening to","is listening to","english",""
"null","<div style=""font-size:60px;"">+</div>","","html-keyboard-response","74","518171","0.0-13.0-0.11","69578","ListA","woman","english","","","","null","","","","","",""
"null","<img src='gifs/MaleRace3b.gif' style='height:400px;''></img>","","html-keyboard-response","75","520187","0.0-13.0-1.11","69578","ListA","woman","english","","","","null","","","","","",""
"null","is listening to","","html-keyboard-response","76","523201","0.0-13.0-2.11","69578","ListA","woman","english","","","","null","","","","","",""
"49486.700000047684","","","survey-text","77","572696","0.0-13.0-3.11","69578","ListA","woman","english","","","","","{""Q0"":""Mike is listening to Luke""}","<img src='gifs/MaleRace3b.gif' style='height:400px;''></img>","listening to","is listening to","english",""
"null","<div style=""font-size:60px;"">+</div>","","html-keyboard-response","78","573210","0.0-13.0-0.12","69578","ListA","woman","english","","","","null","","","","","",""
"null","<img src='gifs/ChineseGender1b.gif' style='height:400px;''></img>","","html-keyboard-response","79","575213","0.0-13.0-1.12","69578","ListA","woman","english","","","","null","","","","","",""
"null","is following","","html-keyboard-response","80","578222","0.0-13.0-2.12","69578","ListA","woman","english","","","","null","","","","","",""
"16358.099999904633","","","survey-text","81","594585","0.0-13.0-3.12","69578","ListA","woman","english","","","","","{""Q0"":""Fred is following Kate""}","<img src='gifs/ChineseGender1b.gif' style='height:400px;''></img>","following","is following","english",""
"null","<div style=""font-size:60px;"">+</div>","","html-keyboard-response","82","595109","0.0-13.0-0.13","69578","ListA","woman","english","","","","null","","","","","",""
"null","<img src='gifs/MaleRace1b.gif' style='height:400px;''></img>","","html-keyboard-response","83","597126","0.0-13.0-1.13","69578","ListA","woman","english","","","","null","","","","","",""
"null","is facing","","html-keyboard-response","84","600142","0.0-13.0-2.13","69578","ListA","woman","english","","","","null","","","","","",""
"50975.800000190735","","","survey-text","85","651121","0.0-13.0-3.13","69578","ListA","woman","english","","","","","{""Q0"":""Fred is facing Luke""}","<img src='gifs/MaleRace1b.gif' style='height:400px;''></img>","facing","is facing","english",""
"null","<div style=""font-size:60px;"">+</div>","","html-keyboard-response","86","651634","0.0-13.0-0.14","69578","ListA","woman","english","","","","null","","","","","",""
"null","<img src='gifs/FemaleRace4a.gif' style='height:400px;''></img>","","html-keyboard-response","87","653644","0.0-13.0-1.14","69578","ListA","woman","english","","","","null","","","","","",""
"null","is contacting","","html-keyboard-response","88","656657","0.0-13.0-2.14","69578","ListA","woman","english","","","","null","","","","","",""
"28178","","","survey-text","89","684841","0.0-13.0-3.14","69578","ListA","woman","english","","","","","{""Q0"":""Beth is contacting Jane""}","<img src='gifs/FemaleRace4a.gif' style='height:400px;''></img>","contacting","is contacting","english",""
"null","<div style=""font-size:60px;"">+</div>","","html-keyboard-response","90","685355","0.0-13.0-0.15","69578","ListA","woman","english","","","","null","","","","","",""
"null","<img src='gifs/FemaleRace1b.gif' style='height:400px;''></img>","","html-keyboard-response","91","687373","0.0-13.0-1.15","69578","ListA","woman","english","","","","null","","","","","",""
"null","is accompanying","","html-keyboard-response","92","690376","0.0-13.0-2.15","69578","ListA","woman","english","","","","null","","","","","",""
"27657.5","","","survey-text","93","718035","0.0-13.0-3.15","69578","ListA","woman","english","","","","","{""Q0"":""Kate is accompanying Ruth""}","<img src='gifs/FemaleRace1b.gif' style='height:400px;''></img>","accompanying","is accompanying","english",""
"null","<div style=""font-size:60px;"">+</div>","","html-keyboard-response","94","718542","0.0-13.0-0.16","69578","ListA","woman","english","","","","null","","","","","",""
"null","<img src='gifs/MaleRace4b.gif' style='height:400px;''></img>","","html-keyboard-response","95","720558","0.0-13.0-1.16","69578","ListA","woman","english","","","","null","","","","","",""
"null","is employing","","html-keyboard-response","96","723569","0.0-13.0-2.16","69578","ListA","woman","english","","","","null","","","","","",""
"29495.799999952316","","","survey-text","97","753073","0.0-13.0-3.16","69578","ListA","woman","english","","","","","{""Q0"":""Fred is employing Dave""}","<img src='gifs/MaleRace4b.gif' style='height:400px;''></img>","employing","is employing","english",""
"null","<div style=""font-size:60px;"">+</div>","","html-keyboard-response","98","753581","0.0-13.0-0.17","69578","ListA","woman","english","","","","null","","","","","",""
"null","<img src='gifs/MaleRace3a.gif' style='height:400px;''></img>","","html-keyboard-response","99","755597","0.0-13.0-1.17","69578","ListA","woman","english","","","","null","","","","","",""
"null","is approaching","","html-keyboard-response","100","758617","0.0-13.0-2.17","69578","ListA","woman","english","","","","null","","","","","",""
"34829.60000014305","","","survey-text","101","793452","0.0-13.0-3.17","69578","ListA","woman","english","","","","","{""Q0"":""Mike is approaching Luke""}","<img src='gifs/MaleRace3a.gif' style='height:400px;''></img>","approaching","is approaching","english",""
"20348.200000047684","<img src='img/portrait_matrix_listA.jpg' style='width:900px;height:500px;''></img><p>If you have memorised all the portraits and names and are ready to start, press Continue.</p><p><strong>Please note: Your memory of these faces will be tested 5 times during this experiment.</strong></p>","0","html-button-response","102","813810","0.0-14.0-0.0","69578","ListA","woman","english","","","","","","","","","",""
"4526.5","<img src=""portrait/WW1.jpg""style=""height:400px;""></img>","1","html-button-response","103","819353","0.0-14.0-1.0","69578","ListA","woman","english","","true","1","","","","","","",""
"null","CORRECT","","html-keyboard-response","104","820871","0.0-14.0-2.0-0.0","69578","ListA","woman","english","","","","null","","","","","",""
"3788.0999999046326","<img src=""portrait/BW2.jpg""style=""height:400px;""></img>","2","html-button-response","105","824663","0.0-14.0-4.0","69578","ListA","woman","english","","true","2","","","","","","",""
"null","CORRECT","","html-keyboard-response","106","826174","0.0-14.0-5.0-0.0","69578","ListA","woman","english","","","","null","","","","","",""
"2466.800000190735","<img src=""portrait/WM2.jpg""style=""height:400px;""></img>","7","html-button-response","107","828642","0.0-14.0-7.0","69578","ListA","woman","english","","true","7","","","","","","",""
"null","CORRECT","","html-keyboard-response","108","830172","0.0-14.0-8.0-0.0","69578","ListA","woman","english","","","","null","","","","","",""
"2085.9000000953674","<img src=""portrait/BM2.jpg""style=""height:400px;""></img>","5","html-button-response","109","832263","0.0-14.0-10.0","69578","ListA","woman","english","","true","5","","","","","","",""
"null","CORRECT","","html-keyboard-response","110","833789","0.0-14.0-11.0-0.0","69578","ListA","woman","english","","","","null","","","","","",""
"3692","<img src=""portrait/BM1.jpg""style=""height:400px;""></img>","4","html-button-response","111","837488","0.0-14.0-13.0","69578","ListA","woman","english","","true","4","","","","","","",""
"null","CORRECT","","html-keyboard-response","112","839027","0.0-14.0-14.0-0.0","69578","ListA","woman","english","","","","null","","","","","",""
"1760.0999999046326","<img src=""portrait/WW2.jpg""style=""height:400px;""></img>","3","html-button-response","113","840792","0.0-14.0-16.0","69578","ListA","woman","english","","true","3","","","","","","",""
"null","CORRECT","","html-keyboard-response","114","842298","0.0-14.0-17.0-0.0","69578","ListA","woman","english","","","","null","","","","","",""
"2618","<img src=""portrait/BW1.jpg""style=""height:400px;""></img>","1","html-button-response","115","844919","0.0-14.0-19.0","69578","ListA","woman","english","","true","0","","","","","","",""
"3608.600000143051","<img src=""portrait/BW1.jpg""style=""height:400px;""></img>","0","html-button-response","116","849536","0.0-14.0-21.0-0.0","69578","ListA","woman","english","","false","0","","","","","","",""
"null","CORRECT","","html-keyboard-response","117","851064","0.0-14.0-21.0-1.0-0.0","69578","ListA","woman","english","","","","null","","","","","",""
"4464.700000047684","<img src=""portrait/WM1.jpg""style=""height:400px;""></img>","6","html-button-response","118","855530","0.0-14.0-22.0","69578","ListA","woman","english","","true","6","","","","","","",""
"null","CORRECT","","html-keyboard-response","119","857050","0.0-14.0-23.0-0.0","69578","ListA","woman","english","","","","null","","","","","",""
"1194.1999998092651","<p>You got 7 out of 8 right first time. Press Continue.</p>","0","html-button-response","120","858247","0.0-14.0-25.0","69578","ListA","woman","english","","","","","","","","","",""
"7367.599999904633","As you did not score 100%, the memory game will repeat. Press Continue.","0","html-button-response","121","866626","0.0-14.0-26.0-0.0","69578","ListA","woman","english","","","","","","","","","",""
"2997.300000190735","<img src='img/portrait_matrix_listA.jpg' style='width:900px;height:500px;''></img><p>If you have memorised all the portraits and names and are ready to start, press Continue.</p><p><strong>Please note: Your memory of these faces will be tested 5 times during this experiment.</strong></p>","0","html-button-response","122","870632","0.0-14.1-0.1","69578","ListA","woman","english","","","","","","","","","",""
"1536.8999998569489","<img src=""portrait/WW1.jpg""style=""height:400px;""></img>","1","html-button-response","123","873177","0.0-14.1-1.1","69578","ListA","woman","english","","true","1","","","","","","",""
"null","CORRECT","","html-keyboard-response","124","874679","0.0-14.1-2.1-0.1","69578","ListA","woman","english","","","","null","","","","","",""
"1602.6999998092651","<img src=""portrait/BW2.jpg""style=""height:400px;""></img>","2","html-button-response","125","876287","0.0-14.1-4.1","69578","ListA","woman","english","","true","2","","","","","","",""
"null","CORRECT","","html-keyboard-response","126","877812","0.0-14.1-5.1-0.1","69578","ListA","woman","english","","","","null","","","","","",""
"1856.7000000476837","<img src=""portrait/WM2.jpg""style=""height:400px;""></img>","7","html-button-response","127","879671","0.0-14.1-7.1","69578","ListA","woman","english","","true","7","","","","","","",""
"null","CORRECT","","html-keyboard-response","128","881194","0.0-14.1-8.1-0.1","69578","ListA","woman","english","","","","null","","","","","",""
"3250.100000143051","<img src=""portrait/BM2.jpg""style=""height:400px;""></img>","5","html-button-response","129","884449","0.0-14.1-10.1","69578","ListA","woman","english","","true","5","","","","","","",""
"null","CORRECT","","html-keyboard-response","130","885967","0.0-14.1-11.1-0.1","69578","ListA","woman","english","","","","null","","","","","",""
"3925.5","<img src=""portrait/BM1.jpg""style=""height:400px;""></img>","7","html-button-response","131","889896","0.0-14.1-13.1","69578","ListA","woman","english","","true","4","","","","","","",""
"1834.2999999523163","<img src=""portrait/BM1.jpg""style=""height:400px;""></img>","4","html-button-response","132","892746","0.0-14.1-15.1-0.1","69578","ListA","woman","english","","false","4","","","","","","",""
"null","CORRECT","","html-keyboard-response","133","894256","0.0-14.1-15.1-1.1-0.1","69578","ListA","woman","english","","","","null","","","","","",""
"1251.2000000476837","<img src=""portrait/WW2.jpg""style=""height:400px;""></img>","3","html-button-response","134","895510","0.0-14.1-16.1","69578","ListA","woman","english","","true","3","","","","","","",""
"null","CORRECT","","html-keyboard-response","135","897018","0.0-14.1-17.1-0.1","69578","ListA","woman","english","","","","null","","","","","",""
"2087.7000000476837","<img src=""portrait/BW1.jpg""style=""height:400px;""></img>","0","html-button-response","136","899111","0.0-14.1-19.1","69578","ListA","woman","english","","true","0","","","","","","",""
"null","CORRECT","","html-keyboard-response","137","900626","0.0-14.1-20.1-0.1","69578","ListA","woman","english","","","","null","","","","","",""
"2513.600000143051","<img src=""portrait/WM1.jpg""style=""height:400px;""></img>","6","html-button-response","138","903144","0.0-14.1-22.1","69578","ListA","woman","english","","true","6","","","","","","",""
"null","CORRECT","","html-keyboard-response","139","904649","0.0-14.1-23.1-0.1","69578","ListA","woman","english","","","","null","","","","","",""
"1112.7000000476837","<p>You got 7 out of 8 right first time. Press Continue.</p>","0","html-button-response","140","905767","0.0-14.1-25.1","69578","ListA","woman","english","","","","","","","","","",""
"1810.7999999523163","As you did not score 100%, the memory game will repeat. Press Continue.","0","html-button-response","141","908582","0.0-14.1-26.1-0.1","69578","ListA","woman","english","","","","","","","","","",""
"14929.699999809265","<img src='img/portrait_matrix_listA.jpg' style='width:900px;height:500px;''></img><p>If you have memorised all the portraits and names and are ready to start, press Continue.</p><p><strong>Please note: Your memory of these faces will be tested 5 times during this experiment.</strong></p>","0","html-button-response","142","924532","0.0-14.2-0.2","69578","ListA","woman","english","","","","","","","","","",""
"1749.5","<img src=""portrait/WW1.jpg""style=""height:400px;""></img>","1","html-button-response","143","927301","0.0-14.2-1.2","69578","ListA","woman","english","","true","1","","","","","","",""
"null","CORRECT","","html-keyboard-response","144","928831","0.0-14.2-2.2-0.2","69578","ListA","woman","english","","","","null","","","","","",""
"2249.800000190735","<img src=""portrait/BW2.jpg""style=""height:400px;""></img>","2","html-button-response","145","931087","0.0-14.2-4.2","69578","ListA","woman","english","","true","2","","","","","","",""
"null","CORRECT","","html-keyboard-response","146","932599","0.0-14.2-5.2-0.2","69578","ListA","woman","english","","","","null","","","","","",""
"2402.7999999523163","<img src=""portrait/WM2.jpg""style=""height:400px;""></img>","7","html-button-response","147","935007","0.0-14.2-7.2","69578","ListA","woman","english","","true","7","","","","","","",""
"null","CORRECT","","html-keyboard-response","148","936531","0.0-14.2-8.2-0.2","69578","ListA","woman","english","","","","null","","","","","",""
"1952.4000000953674","<img src=""portrait/BM2.jpg""style=""height:400px;""></img>","5","html-button-response","149","938489","0.0-14.2-10.2","69578","ListA","woman","english","","true","5","","","","","","",""
"null","CORRECT","","html-keyboard-response","150","940017","0.0-14.2-11.2-0.2","69578","ListA","woman","english","","","","null","","","","","",""
"2384.699999809265","<img src=""portrait/BM1.jpg""style=""height:400px;""></img>","4","html-button-response","151","942406","0.0-14.2-13.2","69578","ListA","woman","english","","true","4","","","","","","",""
"null","CORRECT","","html-keyboard-response","152","943924","0.0-14.2-14.2-0.2","69578","ListA","woman","english","","","","null","","","","","",""
"2018.5","<img src=""portrait/WW2.jpg""style=""height:400px;""></img>","3","html-button-response","153","945946","0.0-14.2-16.2","69578","ListA","woman","english","","true","3","","","","","","",""
"null","CORRECT","","html-keyboard-response","154","947472","0.0-14.2-17.2-0.2","69578","ListA","woman","english","","","","null","","","","","",""
"12966.199999809265","<img src=""portrait/BW1.jpg""style=""height:400px;""></img>","0","html-button-response","155","960441","0.0-14.2-19.2","69578","ListA","woman","english","","true","0","","","","","","",""
"null","CORRECT","","html-keyboard-response","156","961960","0.0-14.2-20.2-0.2","69578","ListA","woman","english","","","","null","","","","","",""
"2222.2000000476837","<img src=""portrait/WM1.jpg""style=""height:400px;""></img>","6","html-button-response","157","964186","0.0-14.2-22.2","69578","ListA","woman","english","","true","6","","","","","","",""
"null","CORRECT","","html-keyboard-response","158","965719","0.0-14.2-23.2-0.2","69578","ListA","woman","english","","","","null","","","","","",""
"1332.2999999523163","<p>You got 8 out of 8 right first time. Press Continue.</p>","0","html-button-response","159","967054","0.0-14.2-25.2","69578","ListA","woman","english","","","","","","","","","",""
"null","<div style=""font-size:60px;"">+</div>","","html-keyboard-response","160","968563","0.0-15.0-0.0","69578","ListA","woman","english","","","","null","","","","","",""
"null","<img src='gifs/FemaleRace2b.gif' style='height:400px;''></img>","","html-keyboard-response","161","970580","0.0-15.0-1.0","69578","ListA","woman","english","","","","null","","","","","",""
"null","is mentioning","","html-keyboard-response","162","973593","0.0-15.0-2.0","69578","ListA","woman","english","","","","null","","","","","",""
"8778.699999809265","","","survey-text","163","982376","0.0-15.0-3.0","69578","ListA","woman","english","","","","","{""Q0"":""Jane is mentioning Kate""}","<img src='gifs/FemaleRace2b.gif' style='height:400px;''></img>","mention","is mentioning","english",""
"null","<div style=""font-size:60px;"">+</div>","","html-keyboard-response","164","982891","0.0-15.0-0.1","69578","ListA","woman","english","","","","null","","","","","",""
"null","<img src='gifs/BlackGender1a.gif' style='height:400px;''></img>","","html-keyboard-response","165","984905","0.0-15.0-1.1","69578","ListA","woman","english","","","","null","","","","","",""
"null","is mentioning","","html-keyboard-response","166","987929","0.0-15.0-2.1","69578","ListA","woman","english","","","","null","","","","","",""
"8253","","","survey-text","167","996190","0.0-15.0-3.1","69578","ListA","woman","english","","","","","{""Q0"":""Ruth is mentioning Luke""}","<img src='gifs/BlackGender1a.gif' style='height:400px;''></img>","mention","is mentioning","english",""
"null","<div style=""font-size:60px;"">+</div>","","html-keyboard-response","168","996700","0.0-15.0-0.2","69578","ListA","woman","english","","","","null","","","","","",""
"null","<img src='gifs/MaleRace4a.gif' style='height:400px;''></img>","","html-keyboard-response","169","998708","0.0-15.0-1.2","69578","ListA","woman","english","","","","null","","","","","",""
"null","is convincing","","html-keyboard-response","170","1001722","0.0-15.0-2.2","69578","ListA","woman","english","","","","null","","","","","",""
"7272","","","survey-text","171","1009003","0.0-15.0-3.2","69578","ListA","woman","english","","","","","{""Q0"":""Dave is convincing Mike""}","<img src='gifs/MaleRace4a.gif' style='height:400px;''></img>","convincing","is convincing","english",""
"null","<div style=""font-size:60px;"">+</div>","","html-keyboard-response","172","1009517","0.0-15.0-0.3","69578","ListA","woman","english","","","","null","","","","","",""
"null","<img src='gifs/BlackGender1b.gif' style='height:400px;''></img>","","html-keyboard-response","173","1011525","0.0-15.0-1.3","69578","ListA","woman","english","","","","null","","","","","",""
"null","is touching","","html-keyboard-response","174","1014538","0.0-15.0-2.3","69578","ListA","woman","english","","","","null","","","","","",""
"11178.700000047684","","","survey-text","175","1025720","0.0-15.0-3.3","69578","ListA","woman","english","","","","","{""Q0"":""Luke is touching Ruth""}","<img src='gifs/BlackGender1b.gif' style='height:400px;''></img>","touching","is touching","english",""
"null","<div style=""font-size:60px;"">+</div>","","html-keyboard-response","176","1026240","0.0-15.0-0.4","69578","ListA","woman","english","","","","null","","","","","",""
"null","<img src='gifs/FemaleRace1a.gif' style='height:400px;''></img>","","html-keyboard-response","177","1028254","0.0-15.0-1.4","69578","ListA","woman","english","","","","null","","","","","",""
"null","is promising","","html-keyboard-response","178","1031260","0.0-15.0-2.4","69578","ListA","woman","english","","","","null","","","","","",""
"12734","","","survey-text","179","1044002","0.0-15.0-3.4","69578","ListA","woman","english","","","","","{""Q0"":""Kate is promising Ruth""}","<img src='gifs/FemaleRace1a.gif' style='height:400px;''></img>","promising","is promising","english",""
"null","<div style=""font-size:60px;"">+</div>","","html-keyboard-response","180","1044507","0.0-15.0-0.5","69578","ListA","woman","english","","","","null","","","","","",""
"null","<img src='gifs/ChineseGender3a.gif' style='height:400px;''></img>","","html-keyboard-response","181","1046516","0.0-15.0-1.5","69578","ListA","woman","english","","","","null","","","","","",""
"null","is convincing","","html-keyboard-response","182","1049534","0.0-15.0-2.5","69578","ListA","woman","english","","","","null","","","","","",""
"8939.800000190735","","","survey-text","183","1058484","0.0-15.0-3.5","69578","ListA","woman","english","","","","","{""Q0"":""Kate is convincing Mike""}","<img src='gifs/ChineseGender3a.gif' style='height:400px;''></img>","convincing","is convincing","english",""
"null","<div style=""font-size:60px;"">+</div>","","html-keyboard-response","184","1058989","0.0-15.0-0.6","69578","ListA","woman","english","","","","null","","","","","",""
"null","<img src='gifs/BlackGender3a.gif' style='height:400px;''></img>","","html-keyboard-response","185","1061007","0.0-15.0-1.6","69578","ListA","woman","english","","","","null","","","","","",""
"null","is introducing","","html-keyboard-response","186","1064018","0.0-15.0-2.6","69578","ListA","woman","english","","","","null","","","","","",""
"23293.200000047684","","","survey-text","187","1087319","0.0-15.0-3.6","69578","ListA","woman","english","","","","","{""Q0"":""Luke is introducing Jane""}","<img src='gifs/BlackGender3a.gif' style='height:400px;''></img>","introducing","is introducing","english",""
"null","<div style=""font-size:60px;"">+</div>","","html-keyboard-response","188","1087828","0.0-15.0-0.7","69578","ListA","woman","english","","","","null","","","","","",""
"null","<img src='gifs/ChineseGender4b.gif' style='height:400px;''></img>","","html-keyboard-response","189","1089846","0.0-15.0-1.7","69578","ListA","woman","english","","","","null","","","","","",""
"null","is praising","","html-keyboard-response","190","1092852","0.0-15.0-2.7","69578","ListA","woman","english","","","","null","","","","","",""
"7171","","","survey-text","191","1100032","0.0-15.0-3.7","69578","ListA","woman","english","","","","","{""Q0"":""Kate is praising Mike""}","<img src='gifs/ChineseGender4b.gif' style='height:400px;''></img>","praising","is praising","english",""
"null","<div style=""font-size:60px;"">+</div>","","html-keyboard-response","192","1100547","0.0-15.0-0.8","69578","ListA","woman","english","","","","null","","","","","",""
"null","<img src='gifs/BlackGender4b.gif' style='height:400px;''></img>","","html-keyboard-response","193","1102572","0.0-15.0-1.8","69578","ListA","woman","english","","","","null","","","","","",""
"null","is walking towards","","html-keyboard-response","194","1105590","0.0-15.0-2.8","69578","ListA","woman","english","","","","null","","","","","",""
"11539.099999904633","","","survey-text","195","1117132","0.0-15.0-3.8","69578","ListA","woman","english","","","","","{""Q0"":""Dave is walking toward Ruth""}","<img src='gifs/BlackGender4b.gif' style='height:400px;''></img>","walking towards","is walking towards","english",""
"null","<div style=""font-size:60px;"">+</div>","","html-keyboard-response","196","1117636","0.0-15.0-0.9","69578","ListA","woman","english","","","","null","","","","","",""
"null","<img src='gifs/FemaleRace1b.gif' style='height:400px;''></img>","","html-keyboard-response","197","1119642","0.0-15.0-1.9","69578","ListA","woman","english","","","","null","","","","","",""
"null","is convincing","","html-keyboard-response","198","1122658","0.0-15.0-2.9","69578","ListA","woman","english","","","","null","","","","","",""
"5855","","","survey-text","199","1128524","0.0-15.0-3.9","69578","ListA","woman","english","","","","","{""Q0"":""Ruth is convincing Kate""}","<img src='gifs/FemaleRace1b.gif' style='height:400px;''></img>","convincing","is convincing","english",""
"null","<div style=""font-size:60px;"">+</div>","","html-keyboard-response","200","1129039","0.0-15.0-0.10","69578","ListA","woman","english","","","","null","","","","","",""
"null","<img src='gifs/BlackGender2b.gif' style='height:400px;''></img>","","html-keyboard-response","201","1131042","0.0-15.0-1.10","69578","ListA","woman","english","","","","null","","","","","",""
"null","is accompanying","","html-keyboard-response","202","1134057","0.0-15.0-2.10","69578","ListA","woman","english","","","","null","","","","","",""
"9989.700000047684","","","survey-text","203","1144056","0.0-15.0-3.10","69578","ListA","woman","english","","","","","{""Q0"":""Dave is accompanying Ruth""}","<img src='gifs/BlackGender2b.gif' style='height:400px;''></img>","accompanying","is accompanying","english",""
"null","<div style=""font-size:60px;"">+</div>","","html-keyboard-response","204","1144567","0.0-15.0-0.11","69578","ListA","woman","english","","","","null","","","","","",""
"null","<img src='gifs/FemaleRace3b.gif' style='height:400px;''></img>","","html-keyboard-response","205","1146577","0.0-15.0-1.11","69578","ListA","woman","english","","","","null","","","","","",""
"null","is introducing","","html-keyboard-response","206","1149583","0.0-15.0-2.11","69578","ListA","woman","english","","","","null","","","","","",""
"8094.400000095367","","","survey-text","207","1157687","0.0-15.0-3.11","69578","ListA","woman","english","","","","","{""Q0"":""Ruth is introducing Beth""}","<img src='gifs/FemaleRace3b.gif' style='height:400px;''></img>","introducing","is introducing","english",""
"null","<div style=""font-size:60px;"">+</div>","","html-keyboard-response","208","1158199","0.0-15.0-0.12","69578","ListA","woman","english","","","","null","","","","","",""
"null","<img src='gifs/MaleRace2b.gif' style='height:400px;''></img>","","html-keyboard-response","209","1160216","0.0-15.0-1.12","69578","ListA","woman","english","","","","null","","","","","",""
"null","is praising","","html-keyboard-response","210","1163235","0.0-15.0-2.12","69578","ListA","woman","english","","","","null","","","","","",""
"13129","","","survey-text","211","1176376","0.0-15.0-3.12","69578","ListA","woman","english","","","","","{""Q0"":""Fred is introducing dave""}","<img src='gifs/MaleRace2b.gif' style='height:400px;''></img>","praising","is praising","english",""
"null","<div style=""font-size:60px;"">+</div>","","html-keyboard-response","212","1176896","0.0-15.0-0.13","69578","ListA","woman","english","","","","null","","","","","",""
"null","<img src='gifs/BlackGender2a.gif' style='height:400px;''></img>","","html-keyboard-response","213","1178908","0.0-15.0-1.13","69578","ListA","woman","english","","","","null","","","","","",""
"null","is promising","","html-keyboard-response","214","1181920","0.0-15.0-2.13","69578","ListA","woman","english","","","","null","","","","","",""
"8801.299999952316","","","survey-text","215","1190731","0.0-15.0-3.13","69578","ListA","woman","english","","","","","{""Q0"":""Dave is promising Ruth""}","<img src='gifs/BlackGender2a.gif' style='height:400px;''></img>","promising","is promising","english",""
"null","<div style=""font-size:60px;"">+</div>","","html-keyboard-response","216","1191246","0.0-15.0-0.14","69578","ListA","woman","english","","","","null","","","","","",""
"null","<img src='gifs/MaleRace2a.gif' style='height:400px;''></img>","","html-keyboard-response","217","1193254","0.0-15.0-1.14","69578","ListA","woman","english","","","","null","","","","","",""
"null","is convincing","","html-keyboard-response","218","1196257","0.0-15.0-2.14","69578","ListA","woman","english","","","","null","","","","","",""
"6366.899999856949","","","survey-text","219","1202631","0.0-15.0-3.14","69578","ListA","woman","english","","","","","{""Q0"":""Fred is convincing Dave""}","<img src='gifs/MaleRace2a.gif' style='height:400px;''></img>","convincing","is convincing","english",""
"null","<div style=""font-size:60px;"">+</div>","","html-keyboard-response","220","1203141","0.0-15.0-0.15","69578","ListA","woman","english","","","","null","","","","","",""
"null","<img src='gifs/BlackGender1a.gif' style='height:400px;''></img>","","html-keyboard-response","221","1205148","0.0-15.0-1.15","69578","ListA","woman","english","","","","null","","","","","",""
"null","is walking towards","","html-keyboard-response","222","1208162","0.0-15.0-2.15","69578","ListA","woman","english","","","","null","","","","","",""
"7759.100000143051","","","survey-text","223","1215932","0.0-15.0-3.15","69578","ListA","woman","english","","","","","{""Q0"":""Luke is walking toward Ruth""}","<img src='gifs/BlackGender1a.gif' style='height:400px;''></img>","walking towards","is walking towards","english",""
"null","<div style=""font-size:60px;"">+</div>","","html-keyboard-response","224","1216444","0.0-15.0-0.16","69578","ListA","woman","english","","","","null","","","","","",""
"null","<img src='gifs/ChineseGender4b.gif' style='height:400px;''></img>","","html-keyboard-response","225","1218452","0.0-15.0-1.16","69578","ListA","woman","english","","","","null","","","","","",""
"null","is looking at","","html-keyboard-response","226","1221467","0.0-15.0-2.16","69578","ListA","woman","english","","","","null","","","","","",""
"5291.099999904633","","","survey-text","227","1226764","0.0-15.0-3.16","69578","ListA","woman","english","","","","","{""Q0"":""Kate is looking at Mike""}","<img src='gifs/ChineseGender4b.gif' style='height:400px;''></img>","looking at","is looking at","english",""
"null","<div style=""font-size:60px;"">+</div>","","html-keyboard-response","228","1227267","0.0-15.0-0.17","69578","ListA","woman","english","","","","null","","","","","",""
"null","<img src='gifs/BlackGender4a.gif' style='height:400px;''></img>","","html-keyboard-response","229","1229274","0.0-15.0-1.17","69578","ListA","woman","english","","","","null","","","","","",""
"null","is following","","html-keyboard-response","230","1232286","0.0-15.0-2.17","69578","ListA","woman","english","","","","null","","","","","",""
"10714","","","survey-text","231","1243015","0.0-15.0-3.17","69578","ListA","woman","english","","","","","{""Q0"":""Dave is following Jane""}","<img src='gifs/BlackGender4a.gif' style='height:400px;''></img>","following","is following","english",""
"2488.5","<img src='img/portrait_matrix_listA.jpg' style='width:900px;height:500px;''></img><p>If you have memorised all the portraits and names and are ready to start, press Continue.</p><p><strong>Please note: Your memory of these faces will be tested 5 times during this experiment.</strong></p>","0","html-button-response","232","1245510","0.0-16.0-0.0","69578","ListA","woman","english","","","","","","","","","",""
"2626.4000000953674","<img src=""portrait/WM1.jpg""style=""height:400px;""></img>","6","html-button-response","233","1249168","0.0-16.0-1.0","69578","ListA","woman","english","","true","6","","","","","","",""
"null","CORRECT","","html-keyboard-response","234","1250701","0.0-16.0-2.0-0.0","69578","ListA","woman","english","","","","null","","","","","",""
"1595.7999999523163","<img src=""portrait/BM1.jpg""style=""height:400px;""></img>","4","html-button-response","235","1252303","0.0-16.0-4.0","69578","ListA","woman","english","","true","4","","","","","","",""
"null","CORRECT","","html-keyboard-response","236","1253820","0.0-16.0-5.0-0.0","69578","ListA","woman","english","","","","null","","","","","",""
"8180.700000047684","<img src=""portrait/BM2.jpg""style=""height:400px;""></img>","5","html-button-response","237","1262002","0.0-16.0-7.0","69578","ListA","woman","english","","true","5","","","","","","",""
"null","CORRECT","","html-keyboard-response","238","1263528","0.0-16.0-8.0-0.0","69578","ListA","woman","english","","","","null","","","","","",""
"1521.5","<img src=""portrait/WW2.jpg""style=""height:400px;""></img>","3","html-button-response","239","1265056","0.0-16.0-10.0","69578","ListA","woman","english","","true","3","","","","","","",""
"null","CORRECT","","html-keyboard-response","240","1266588","0.0-16.0-11.0-0.0","69578","ListA","woman","english","","","","null","","","","","",""
"4044.5","<img src=""portrait/BW1.jpg""style=""height:400px;""></img>","0","html-button-response","241","1270637","0.0-16.0-13.0","69578","ListA","woman","english","","true","0","","","","","","",""
"null","CORRECT","","html-keyboard-response","242","1272146","0.0-16.0-14.0-0.0","69578","ListA","woman","english","","","","null","","","","","",""
"3828.7000000476837","<img src=""portrait/WM2.jpg""style=""height:400px;""></img>","7","html-button-response","243","1275978","0.0-16.0-16.0","69578","ListA","woman","english","","true","7","","","","","","",""
"null","CORRECT","","html-keyboard-response","244","1277488","0.0-16.0-17.0-0.0","69578","ListA","woman","english","","","","null","","","","","",""
"2033.9000000953674","<img src=""portrait/WW1.jpg""style=""height:400px;""></img>","1","html-button-response","245","1279529","0.0-16.0-19.0","69578","ListA","woman","english","","true","1","","","","","","",""
"null","CORRECT","","html-keyboard-response","246","1281046","0.0-16.0-20.0-0.0","69578","ListA","woman","english","","","","null","","","","","",""
"1308","<img src=""portrait/BW2.jpg""style=""height:400px;""></img>","2","html-button-response","247","1282360","0.0-16.0-22.0","69578","ListA","woman","english","","true","2","","","","","","",""
"null","CORRECT","","html-keyboard-response","248","1283863","0.0-16.0-23.0-0.0","69578","ListA","woman","english","","","","null","","","","","",""
"1066.7999999523163","<p>You got 8 out of 8 right first time. Press Continue.</p>","0","html-button-response","249","1284935","0.0-16.0-25.0","69578","ListA","woman","english","","","","","","","","","",""
"null","<div style=""font-size:60px;"">+</div>","","html-keyboard-response","250","1286454","0.0-17.0-0.0","69578","ListA","woman","english","","","","null","","","","","",""
"null","<img src='gifs/MaleRace1a.gif' style='height:400px;''></img>","","html-keyboard-response","251","1288465","0.0-17.0-1.0","69578","ListA","woman","english","","","","null","","","","","",""
"null","is mentioning","","html-keyboard-response","252","1291491","0.0-17.0-2.0","69578","ListA","woman","english","","","","null","","","","","",""
"6026","","","survey-text","253","1297530","0.0-17.0-3.0","69578","ListA","woman","english","","","","","{""Q0"":""Fred is mentioning Luke""}","<img src='gifs/MaleRace1a.gif' style='height:400px;''></img>","mention","is mentioning","english",""
"null","<div style=""font-size:60px;"">+</div>","","html-keyboard-response","254","1298039","0.0-17.0-0.1","69578","ListA","woman","english","","","","null","","","","","",""
"null","<img src='gifs/BlackGender4b.gif' style='height:400px;''></img>","","html-keyboard-response","255","1300045","0.0-17.0-1.1","69578","ListA","woman","english","","","","null","","","","","",""
"null","is facing","","html-keyboard-response","256","1303054","0.0-17.0-2.1","69578","ListA","woman","english","","","","null","","","","","",""
"12650","","","survey-text","257","1315713","0.0-17.0-3.1","69578","ListA","woman","english","","","","","{""Q0"":""Jane is facing Dave""}","<img src='gifs/BlackGender4b.gif' style='height:400px;''></img>","facing","is facing","english",""
"null","<div style=""font-size:60px;"">+</div>","","html-keyboard-response","258","1316225","0.0-17.0-0.2","69578","ListA","woman","english","","","","null","","","","","",""
"null","<img src='gifs/ChineseGender1a.gif' style='height:400px;''></img>","","html-keyboard-response","259","1318252","0.0-17.0-1.2","69578","ListA","woman","english","","","","null","","","","","",""
"null","is promising","","html-keyboard-response","260","1321261","0.0-17.0-2.2","69578","ListA","woman","english","","","","null","","","","","",""
"17697.89999985695","","","survey-text","261","1338965","0.0-17.0-3.2","69578","ListA","woman","english","","","","","{""Q0"":""Kate is promising Fred""}","<img src='gifs/ChineseGender1a.gif' style='height:400px;''></img>","promising","is promising","english",""
"null","<div style=""font-size:60px;"">+</div>","","html-keyboard-response","262","1339497","0.0-17.0-0.3","69578","ListA","woman","english","","","","null","","","","","",""
"null","<img src='gifs/ChineseGender2b.gif' style='height:400px;''></img>","","html-keyboard-response","263","1341516","0.0-17.0-1.3","69578","ListA","woman","english","","","","null","","","","","",""
"null","is touching","","html-keyboard-response","264","1344527","0.0-17.0-2.3","69578","ListA","woman","english","","","","null","","","","","",""
"17419.700000047684","","","survey-text","265","1361955","0.0-17.0-3.3","69578","ListA","woman","english","","","","","{""Q0"":""Beth is touching Fred""}","<img src='gifs/ChineseGender2b.gif' style='height:400px;''></img>","touching","is touching","english",""
"null","<div style=""font-size:60px;"">+</div>","","html-keyboard-response","266","1362467","0.0-17.0-0.4","69578","ListA","woman","english","","","","null","","","","","",""
"null","<img src='gifs/BlackGender1b.gif' style='height:400px;''></img>","","html-keyboard-response","267","1364478","0.0-17.0-1.4","69578","ListA","woman","english","","","","null","","","","","",""
"null","is introducing","","html-keyboard-response","268","1367492","0.0-17.0-2.4","69578","ListA","woman","english","","","","null","","","","","",""
"10504.700000047684","","","survey-text","269","1378006","0.0-17.0-3.4","69578","ListA","woman","english","","","","","{""Q0"":""Ruth is introducing Luke""}","<img src='gifs/BlackGender1b.gif' style='height:400px;''></img>","introducing","is introducing","english",""
"null","<div style=""font-size:60px;"">+</div>","","html-keyboard-response","270","1378518","0.0-17.0-0.5","69578","ListA","woman","english","","","","null","","","","","",""
"null","<img src='gifs/ChineseGender1b.gif' style='height:400px;''></img>","","html-keyboard-response","271","1380544","0.0-17.0-1.5","69578","ListA","woman","english","","","","null","","","","","",""
"null","is joining","","html-keyboard-response","272","1383563","0.0-17.0-2.5","69578","ListA","woman","english","","","","null","","","","","",""
"8721.299999952316","","","survey-text","273","1392294","0.0-17.0-3.5","69578","ListA","woman","english","","","","","{""Q0"":""Fred is joining Kate""}","<img src='gifs/ChineseGender1b.gif' style='height:400px;''></img>","join","is joining","english",""
"null","<div style=""font-size:60px;"">+</div>","","html-keyboard-response","274","1392805","0.0-17.0-0.6","69578","ListA","woman","english","","","","null","","","","","",""
"null","<img src='gifs/BlackGender3b.gif' style='height:400px;''></img>","","html-keyboard-response","275","1394816","0.0-17.0-1.6","69578","ListA","woman","english","","","","null","","","","","",""
"null","is joining","","html-keyboard-response","276","1397820","0.0-17.0-2.6","69578","ListA","woman","english","","","","null","","","","","",""
"5917.5","","","survey-text","277","1403747","0.0-17.0-3.6","69578","ListA","woman","english","","","","","{""Q0"":""Jane is joining Luke""}","<img src='gifs/BlackGender3b.gif' style='height:400px;''></img>","join","is joining","english",""
"null","<div style=""font-size:60px;"">+</div>","","html-keyboard-response","278","1404251","0.0-17.0-0.7","69578","ListA","woman","english","","","","null","","","","","",""
"null","<img src='gifs/MaleRace2a.gif' style='height:400px;''></img>","","html-keyboard-response","279","1406259","0.0-17.0-1.7","69578","ListA","woman","english","","","","null","","","","","",""
"null","is facing","","html-keyboard-response","280","1409281","0.0-17.0-2.7","69578","ListA","woman","english","","","","null","","","","","",""
"7250.400000095367","","","survey-text","281","1416536","0.0-17.0-3.7","69578","ListA","woman","english","","","","","{""Q0"":""Fred is facing Dave""}","<img src='gifs/MaleRace2a.gif' style='height:400px;''></img>","facing","is facing","english",""
"null","<div style=""font-size:60px;"">+</div>","","html-keyboard-response","282","1417044","0.0-17.0-0.8","69578","ListA","woman","english","","","","null","","","","","",""
"null","<img src='gifs/ChineseGender3b.gif' style='height:400px;''></img>","","html-keyboard-response","283","1419047","0.0-17.0-1.8","69578","ListA","woman","english","","","","null","","","","","",""
"null","is touching","","html-keyboard-response","284","1422050","0.0-17.0-2.8","69578","ListA","woman","english","","","","null","","","","","",""
"4682.400000095367","","","survey-text","285","1426737","0.0-17.0-3.8","69578","ListA","woman","english","","","","","{""Q0"":""Beth is touching Mike""}","<img src='gifs/ChineseGender3b.gif' style='height:400px;''></img>","touching","is touching","english",""
"null","<div style=""font-size:60px;"">+</div>","","html-keyboard-response","286","1427253","0.0-17.0-0.9","69578","ListA","woman","english","","","","null","","","","","",""
"null","<img src='gifs/FemaleRace2a.gif' style='height:400px;''></img>","","html-keyboard-response","287","1429272","0.0-17.0-1.9","69578","ListA","woman","english","","","","null","","","","","",""
"null","is looking at","","html-keyboard-response","288","1432287","0.0-17.0-2.9","69578","ListA","woman","english","","","","null","","","","","",""
"5718.400000095367","","","survey-text","289","1438015","0.0-17.0-3.9","69578","ListA","woman","english","","","","","{""Q0"":""Jane is looking at Kate""}","<img src='gifs/FemaleRace2a.gif' style='height:400px;''></img>","looking at","is looking at","english",""
"null","<div style=""font-size:60px;"">+</div>","","html-keyboard-response","290","1438526","0.0-17.0-0.10","69578","ListA","woman","english","","","","null","","","","","",""
"null","<img src='gifs/ChineseGender2b.gif' style='height:400px;''></img>","","html-keyboard-response","291","1440532","0.0-17.0-1.10","69578","ListA","woman","english","","","","null","","","","","",""
"null","is promising","","html-keyboard-response","292","1443543","0.0-17.0-2.10","69578","ListA","woman","english","","","","null","","","","","",""
"5878.299999952316","","","survey-text","293","1449429","0.0-17.0-3.10","69578","ListA","woman","english","","","","","{""Q0"":""Fred is promising Beth""}","<img src='gifs/ChineseGender2b.gif' style='height:400px;''></img>","promising","is promising","english",""
"null","<div style=""font-size:60px;"">+</div>","","html-keyboard-response","294","1449942","0.0-17.0-0.11","69578","ListA","woman","english","","","","null","","","","","",""
"null","<img src='gifs/BlackGender2a.gif' style='height:400px;''></img>","","html-keyboard-response","295","1451961","0.0-17.0-1.11","69578","ListA","woman","english","","","","null","","","","","",""
"null","is introducing","","html-keyboard-response","296","1454976","0.0-17.0-2.11","69578","ListA","woman","english","","","","null","","","","","",""
"6391.900000095367","","","survey-text","297","1461372","0.0-17.0-3.11","69578","ListA","woman","english","","","","","{""Q0"":""Dave is introducing Ruth""}","<img src='gifs/BlackGender2a.gif' style='height:400px;''></img>","introducing","is introducing","english",""
"null","<div style=""font-size:60px;"">+</div>","","html-keyboard-response","298","1461878","0.0-17.0-0.12","69578","ListA","woman","english","","","","null","","","","","",""
"null","<img src='gifs/MaleRace1b.gif' style='height:400px;''></img>","","html-keyboard-response","299","1463899","0.0-17.0-1.12","69578","ListA","woman","english","","","","null","","","","","",""
"null","is listening to","","html-keyboard-response","300","1466913","0.0-17.0-2.12","69578","ListA","woman","english","","","","null","","","","","",""
"9197.699999809265","","","survey-text","301","1476120","0.0-17.0-3.12","69578","ListA","woman","english","","","","","{""Q0"":""Fred is listening to Luke""}","<img src='gifs/MaleRace1b.gif' style='height:400px;''></img>","listening to","is listening to","english",""
"null","<div style=""font-size:60px;"">+</div>","","html-keyboard-response","302","1476645","0.0-17.0-0.13","69578","ListA","woman","english","","","","null","","","","","",""
"null","<img src='gifs/ChineseGender3b.gif' style='height:400px;''></img>","","html-keyboard-response","303","1478650","0.0-17.0-1.13","69578","ListA","woman","english","","","","null","","","","","",""
"null","is employing","","html-keyboard-response","304","1481668","0.0-17.0-2.13","69578","ListA","woman","english","","","","null","","","","","",""
"5189.5","","","survey-text","305","1486867","0.0-17.0-3.13","69578","ListA","woman","english","","","","","{""Q0"":""Mike is employing Beth""}","<img src='gifs/ChineseGender3b.gif' style='height:400px;''></img>","employing","is employing","english",""
"null","<div style=""font-size:60px;"">+</div>","","html-keyboard-response","306","1487374","0.0-17.0-0.14","69578","ListA","woman","english","","","","null","","","","","",""
"null","<img src='gifs/MaleRace1a.gif' style='height:400px;''></img>","","html-keyboard-response","307","1489385","0.0-17.0-1.14","69578","ListA","woman","english","","","","null","","","","","",""
"null","is approaching","","html-keyboard-response","308","1492395","0.0-17.0-2.14","69578","ListA","woman","english","","","","null","","","","","",""
"6817.600000143051","","","survey-text","309","1499222","0.0-17.0-3.14","69578","ListA","woman","english","","","","","{""Q0"":""Luke is approaching Fred""}","<img src='gifs/MaleRace1a.gif' style='height:400px;''></img>","approaching","is approaching","english",""
"null","<div style=""font-size:60px;"">+</div>","","html-keyboard-response","310","1499741","0.0-17.0-0.15","69578","ListA","woman","english","","","","null","","","","","",""
"null","<img src='gifs/BlackGender2b.gif' style='height:400px;''></img>","","html-keyboard-response","311","1501756","0.0-17.0-1.15","69578","ListA","woman","english","","","","null","","","","","",""
"null","is facing","","html-keyboard-response","312","1504769","0.0-17.0-2.15","69578","ListA","woman","english","","","","null","","","","","",""
"4997.200000047684","","","survey-text","313","1509774","0.0-17.0-3.15","69578","ListA","woman","english","","","","","{""Q0"":""Ruth is facing Dave""}","<img src='gifs/BlackGender2b.gif' style='height:400px;''></img>","facing","is facing","english",""
"null","<div style=""font-size:60px;"">+</div>","","html-keyboard-response","314","1510281","0.0-17.0-0.16","69578","ListA","woman","english","","","","null","","","","","",""
"null","<img src='gifs/ChineseGender2a.gif' style='height:400px;''></img>","","html-keyboard-response","315","1512288","0.0-17.0-1.16","69578","ListA","woman","english","","","","null","","","","","",""
"null","is approaching","","html-keyboard-response","316","1515296","0.0-17.0-2.16","69578","ListA","woman","english","","","","null","","","","","",""
"6624.900000095367","","","survey-text","317","1521936","0.0-17.0-3.16","69578","ListA","woman","english","","","","","{""Q0"":""Beth is approaching Fred""}","<img src='gifs/ChineseGender2a.gif' style='height:400px;''></img>","approaching","is approaching","english",""
"null","<div style=""font-size:60px;"">+</div>","","html-keyboard-response","318","1522443","0.0-17.0-0.17","69578","ListA","woman","english","","","","null","","","","","",""
"null","<img src='gifs/BlackGender4a.gif' style='height:400px;''></img>","","html-keyboard-response","319","1524457","0.0-17.0-1.17","69578","ListA","woman","english","","","","null","","","","","",""
"null","is following","","html-keyboard-response","320","1527476","0.0-17.0-2.17","69578","ListA","woman","english","","","","null","","","","","",""
"6463.5","","","survey-text","321","1533945","0.0-17.0-3.17","69578","ListA","woman","english","","","","","{""Q0"":""Dave is following Jane""}","<img src='gifs/BlackGender4a.gif' style='height:400px;''></img>","following","is following","english",""
"4113.700000047684","<p>Thank you for completing that task.</p><p>The final part of this session is a short questionnaire.</p><p>Press Continue.</p>","0","html-button-response","322","1538064","0.0-18.0","69578","ListA","woman","english","","","","","","","","","",""
"33276.299999952316","","","survey-text","323","1572369","0.0-19.0","69578","ListA","woman","english","","","","","{""Q0"":""28"",""Q1"":""Cantonese"",""Q2"":""Mandarin"",""Q3"":""U.K."",""Q4"":""China"",""Q5"":""Han"",""Q6"":""Female""}","","","","","demographics"
"3673.5999999046326","","","external-html","324","1576289","0.0-20.0","69578","ListA","woman","english","debrief.html","","","","","","","","",""
"38695.40000009537","","","survey-text","325","1614991","0.0-21.0","69578","ListA","woman","english","","","","","{""Q0"":""SW_E_F_A2""}","","","","","worker_id"
