"rt","stimulus","button_pressed","trial_type","trial_index","time_elapsed","internal_node_id","subject","list","ppt_gender","ppt_language","ptptID","url","first_guess","correct","key_press","responses","image","verb","phrase","condition","test_part"
"707.8999999985099","Welcome to the experiment. Press Continue to begin.","0","html-button-response","0","709","0.0-0.0","75748","ListA","man","english","SW_E_M_A4","","","","","","","","","",""
"4340.89999999851","","","external-html","1","6053","0.0-1.0","75748","ListA","man","english","SW_E_M_A4","consent.html","","","","","","","","",""
"1527.2000000029802","<p>On the next page, you will see portraits of 8 people and their names.</p><p>Your first task is to take a few minutes to memorise the names of these people.</p><p>You will have to recall their names during the rest of the experiment, so it is</p><p>essential that you try to memorise these people and their names as best as you can.</p><p><strong>You will then be tested on your memory of these names and portraits.</strong></p><p>The experiment will start after you have completed this memory test.</p><p>Ready?</p>","0","html-button-response","2","7581","0.0-2.0","75748","ListA","man","english","SW_E_M_A4","","","","","","","","","",""
"4246.5","<img src='img/portrait_matrix_listA.jpg' style='width:900px;height:500px;''></img><p>If you have memorised all the portraits and names and are ready to start, press Continue.</p><p><strong>Please note: Your memory of these faces will be tested 5 times during this experiment.</strong></p>","0","html-button-response","3","12828","0.0-3.0-0.0","75748","ListA","man","english","SW_E_M_A4","","","","","","","","","",""
"45637.5","<img src=""portrait/BW2.jpg""style=""height:400px;""></img>","2","html-button-response","4","59477","0.0-3.0-1.0","75748","ListA","man","english","SW_E_M_A4","","true","2","","","","","","",""
"null","CORRECT","","html-keyboard-response","5","60979","0.0-3.0-2.0-0.0","75748","ListA","man","english","SW_E_M_A4","","","","null","","","","","",""
"4033","<img src=""portrait/WW1.jpg""style=""height:400px;""></img>","1","html-button-response","6","65013","0.0-3.0-4.0","75748","ListA","man","english","SW_E_M_A4","","true","1","","","","","","",""
"null","CORRECT","","html-keyboard-response","7","66518","0.0-3.0-5.0-0.0","75748","ListA","man","english","SW_E_M_A4","","","","null","","","","","",""
"3046.3000000044703","<img src=""portrait/BM1.jpg""style=""height:400px;""></img>","4","html-button-response","8","69565","0.0-3.0-7.0","75748","ListA","man","english","SW_E_M_A4","","true","4","","","","","","",""
"null","CORRECT","","html-keyboard-response","9","71069","0.0-3.0-8.0-0.0","75748","ListA","man","english","SW_E_M_A4","","","","null","","","","","",""
"3623.39999999851","<img src=""portrait/BW1.jpg""style=""height:400px;""></img>","0","html-button-response","10","74693","0.0-3.0-10.0","75748","ListA","man","english","SW_E_M_A4","","true","0","","","","","","",""
"null","CORRECT","","html-keyboard-response","11","76199","0.0-3.0-11.0-0.0","75748","ListA","man","english","SW_E_M_A4","","","","null","","","","","",""
"3693.39999999851","<img src=""portrait/BM2.jpg""style=""height:400px;""></img>","5","html-button-response","12","79893","0.0-3.0-13.0","75748","ListA","man","english","SW_E_M_A4","","true","5","","","","","","",""
"null","CORRECT","","html-keyboard-response","13","81395","0.0-3.0-14.0-0.0","75748","ListA","man","english","SW_E_M_A4","","","","null","","","","","",""
"3146.10000000149","<img src=""portrait/WM1.jpg""style=""height:400px;""></img>","6","html-button-response","14","84541","0.0-3.0-16.0","75748","ListA","man","english","SW_E_M_A4","","true","6","","","","","","",""
"null","CORRECT","","html-keyboard-response","15","86066","0.0-3.0-17.0-0.0","75748","ListA","man","english","SW_E_M_A4","","","","null","","","","","",""
"3066.8000000044703","<img src=""portrait/WW2.jpg""style=""height:400px;""></img>","3","html-button-response","16","89133","0.0-3.0-19.0","75748","ListA","man","english","SW_E_M_A4","","true","3","","","","","","",""
"null","CORRECT","","html-keyboard-response","17","90635","0.0-3.0-20.0-0.0","75748","ListA","man","english","SW_E_M_A4","","","","null","","","","","",""
"3057.1999999955297","<img src=""portrait/WM2.jpg""style=""height:400px;""></img>","7","html-button-response","18","93693","0.0-3.0-22.0","75748","ListA","man","english","SW_E_M_A4","","true","7","","","","","","",""
"null","CORRECT","","html-keyboard-response","19","95195","0.0-3.0-23.0-0.0","75748","ListA","man","english","SW_E_M_A4","","","","null","","","","","",""
"2121.39999999851","<p>You got 8 out of 8 right first time. Press Continue.</p>","0","html-button-response","20","97317","0.0-3.0-25.0","75748","ListA","man","english","SW_E_M_A4","","","","","","","","","",""
"15104","<p>In this experiment, you will view photographs of the people from the memory game.</p><p>By using the <strong>exact</strong> phrase given <i>after</i> the photograph appears and recalling the correct names of the people in the photographs, form a sentence describing an interaction. You do not need to capitalise names.</p><p>Type your answer in the space provided. Please complete every sentence before moving onto the next trial.</p><p>You will only have a few seconds to memorise each given photograph and phrase before you can respond, so try your best to focus.</p><p>An example is given below. Press 'Continue' when you are ready.</p><img src='img/speaking_example.jpg' style='width:800px;height:460px;''></img>","0","html-button-response","21","113430","0.0-4.0","75748","ListA","man","english","SW_E_M_A4","","","","","","","","","",""
"1005.7999999970198","<p>Before the experiment starts, you will watch two example trials. Press 'Continue'.</p>","0","html-button-response","22","115437","0.0-5.0","75748","ListA","man","english","SW_E_M_A4","","","","","","","","","",""
"null","<img src='img/meet.gif' style='height:400px;''></img>","","html-keyboard-response","23","118439","0.0-6.0","75748","ListA","man","english","SW_E_M_A4","","","","null","","","","","",""
"null","<p>is meeting</p>","","html-keyboard-response","24","120442","0.0-7.0","75748","ListA","man","english","SW_E_M_A4","","","","null","","","","","",""
"1378.3000000044703","<p><b>Answer:</b> kate is meeting beth</p>","0","html-button-response","25","121821","0.0-8.0","75748","ListA","man","english","SW_E_M_A4","","","","","","","","","",""
"null","<img src='img/spy.gif' style='height:400px;''></img>","","html-keyboard-response","26","124823","0.0-9.0","75748","ListA","man","english","SW_E_M_A4","","","","null","","","","","",""
"null","<p>is being spied on by</p>","","html-keyboard-response","27","126826","0.0-10.0","75748","ListA","man","english","SW_E_M_A4","","","","null","","","","","",""
"1722.7999999970198","<p><b>Answer:</b> luke is being spied on by dave</p>","0","html-button-response","28","128549","0.0-11.0","75748","ListA","man","english","SW_E_M_A4","","","","","","","","","",""
"2103.7999999970198","<p>Ready to start the experiment?</p><br><p><strong>Remember to describe the picture using a full sentence,</strong></p><p><strong>that combines the names of the people with the <i>exact</i> phrase given.</strong></p><p><strong>To receive full payment you must do this correctly.</strong></p><p><strong> You do not need to capitalise names or use punctuation.</strong></p><br><p>Press 'Continue' to begin.</p>","0","html-button-response","29","131654","0.0-12.0","75748","ListA","man","english","SW_E_M_A4","","","","","","","","","",""
"null","<div style=""font-size:60px;"">+</div>","","html-keyboard-response","30","133155","0.0-13.0-0.0","75748","ListA","man","english","SW_E_M_A4","","","","null","","","","","",""
"null","<img src='gifs/ChineseGender1b.gif' style='height:400px;''></img>","","html-keyboard-response","31","135156","0.0-13.0-1.0","75748","ListA","man","english","SW_E_M_A4","","","","null","","","","","",""
"null","is contacting","","html-keyboard-response","32","138157","0.0-13.0-2.0","75748","ListA","man","english","SW_E_M_A4","","","","null","","","","","",""
"13103.20000000298","","","survey-text","33","151261","0.0-13.0-3.0","75748","ListA","man","english","SW_E_M_A4","","","","","{""Q0"":""fredis contactingkate""}","<img src='gifs/ChineseGender1b.gif' style='height:400px;''></img>","contacting","is contacting","english",""
"null","<div style=""font-size:60px;"">+</div>","","html-keyboard-response","34","151763","0.0-13.0-0.1","75748","ListA","man","english","SW_E_M_A4","","","","null","","","","","",""
"null","<img src='gifs/MaleRace4a.gif' style='height:400px;''></img>","","html-keyboard-response","35","153764","0.0-13.0-1.1","75748","ListA","man","english","SW_E_M_A4","","","","null","","","","","",""
"null","is praising","","html-keyboard-response","36","156766","0.0-13.0-2.1","75748","ListA","man","english","SW_E_M_A4","","","","null","","","","","",""
"10103.60000000149","","","survey-text","37","166870","0.0-13.0-3.1","75748","ListA","man","english","SW_E_M_A4","","","","","{""Q0"":""daveis praisingmike""}","<img src='gifs/MaleRace4a.gif' style='height:400px;''></img>","praising","is praising","english",""
"null","<div style=""font-size:60px;"">+</div>","","html-keyboard-response","38","167384","0.0-13.0-0.2","75748","ListA","man","english","SW_E_M_A4","","","","null","","","","","",""
"null","<img src='gifs/FemaleRace3b.gif' style='height:400px;''></img>","","html-keyboard-response","39","169399","0.0-13.0-1.2","75748","ListA","man","english","SW_E_M_A4","","","","null","","","","","",""
"null","is listening to","","html-keyboard-response","40","172400","0.0-13.0-2.2","75748","ListA","man","english","SW_E_M_A4","","","","null","","","","","",""
"11291.5","","","survey-text","41","183693","0.0-13.0-3.2","75748","ListA","man","english","SW_E_M_A4","","","","","{""Q0"":""ruthis listening tobeth""}","<img src='gifs/FemaleRace3b.gif' style='height:400px;''></img>","listening to","is listening to","english",""
"null","<div style=""font-size:60px;"">+</div>","","html-keyboard-response","42","184194","0.0-13.0-0.3","75748","ListA","man","english","SW_E_M_A4","","","","null","","","","","",""
"null","<img src='gifs/ChineseGender3a.gif' style='height:400px;''></img>","","html-keyboard-response","43","186196","0.0-13.0-1.3","75748","ListA","man","english","SW_E_M_A4","","","","null","","","","","",""
"null","is looking at","","html-keyboard-response","44","189198","0.0-13.0-2.3","75748","ListA","man","english","SW_E_M_A4","","","","null","","","","","",""
"22406.10000000149","","","survey-text","45","211605","0.0-13.0-3.3","75748","ListA","man","english","SW_E_M_A4","","","","","{""Q0"":""mikeis looking atbeth""}","<img src='gifs/ChineseGender3a.gif' style='height:400px;''></img>","looking at","is looking at","english",""
"null","<div style=""font-size:60px;"">+</div>","","html-keyboard-response","46","212106","0.0-13.0-0.4","75748","ListA","man","english","SW_E_M_A4","","","","null","","","","","",""
"null","<img src='gifs/MaleRace1a.gif' style='height:400px;''></img>","","html-keyboard-response","47","214107","0.0-13.0-1.4","75748","ListA","man","english","SW_E_M_A4","","","","null","","","","","",""
"null","is walking towards","","html-keyboard-response","48","217108","0.0-13.0-2.4","75748","ListA","man","english","SW_E_M_A4","","","","null","","","","","",""
"10712.29999999702","","","survey-text","49","227821","0.0-13.0-3.4","75748","ListA","man","english","SW_E_M_A4","","","","","{""Q0"":""luckis walking towardsfred""}","<img src='gifs/MaleRace1a.gif' style='height:400px;''></img>","walking towards","is walking towards","english",""
"null","<div style=""font-size:60px;"">+</div>","","html-keyboard-response","50","228322","0.0-13.0-0.5","75748","ListA","man","english","SW_E_M_A4","","","","null","","","","","",""
"null","<img src='gifs/BlackGender4a.gif' style='height:400px;''></img>","","html-keyboard-response","51","230338","0.0-13.0-1.5","75748","ListA","man","english","SW_E_M_A4","","","","null","","","","","",""
"null","is mentioning","","html-keyboard-response","52","233339","0.0-13.0-2.5","75748","ListA","man","english","SW_E_M_A4","","","","null","","","","","",""
"12272","","","survey-text","53","245613","0.0-13.0-3.5","75748","ListA","man","english","SW_E_M_A4","","","","","{""Q0"":""daveis mentioningjane""}","<img src='gifs/BlackGender4a.gif' style='height:400px;''></img>","mention","is mentioning","english",""
"null","<div style=""font-size:60px;"">+</div>","","html-keyboard-response","54","246125","0.0-13.0-0.6","75748","ListA","man","english","SW_E_M_A4","","","","null","","","","","",""
"null","<img src='gifs/ChineseGender1b.gif' style='height:400px;''></img>","","html-keyboard-response","55","248138","0.0-13.0-1.6","75748","ListA","man","english","SW_E_M_A4","","","","null","","","","","",""
"null","is looking at","","html-keyboard-response","56","251139","0.0-13.0-2.6","75748","ListA","man","english","SW_E_M_A4","","","","null","","","","","",""
"9642","","","survey-text","57","260782","0.0-13.0-3.6","75748","ListA","man","english","SW_E_M_A4","","","","","{""Q0"":""kateis looking atfred""}","<img src='gifs/ChineseGender1b.gif' style='height:400px;''></img>","looking at","is looking at","english",""
"null","<div style=""font-size:60px;"">+</div>","","html-keyboard-response","58","261282","0.0-13.0-0.7","75748","ListA","man","english","SW_E_M_A4","","","","null","","","","","",""
"null","<img src='gifs/MaleRace1a.gif' style='height:400px;''></img>","","html-keyboard-response","59","263283","0.0-13.0-1.7","75748","ListA","man","english","SW_E_M_A4","","","","null","","","","","",""
"null","is following","","html-keyboard-response","60","266284","0.0-13.0-2.7","75748","ListA","man","english","SW_E_M_A4","","","","null","","","","","",""
"14223.10000000149","","","survey-text","61","280509","0.0-13.0-3.7","75748","ListA","man","english","SW_E_M_A4","","","","","{""Q0"":""fredis followingluke""}","<img src='gifs/MaleRace1a.gif' style='height:400px;''></img>","following","is following","english",""
"null","<div style=""font-size:60px;"">+</div>","","html-keyboard-response","62","281010","0.0-13.0-0.8","75748","ListA","man","english","SW_E_M_A4","","","","null","","","","","",""
"null","<img src='gifs/FemaleRace2a.gif' style='height:400px;''></img>","","html-keyboard-response","63","283012","0.0-13.0-1.8","75748","ListA","man","english","SW_E_M_A4","","","","null","","","","","",""
"null","is following","","html-keyboard-response","64","286013","0.0-13.0-2.8","75748","ListA","man","english","SW_E_M_A4","","","","null","","","","","",""
"9030.29999999702","","","survey-text","65","295045","0.0-13.0-3.8","75748","ListA","man","english","SW_E_M_A4","","","","","{""Q0"":""kateis followingjane""}","<img src='gifs/FemaleRace2a.gif' style='height:400px;''></img>","following","is following","english",""
"null","<div style=""font-size:60px;"">+</div>","","html-keyboard-response","66","295548","0.0-13.0-0.9","75748","ListA","man","english","SW_E_M_A4","","","","null","","","","","",""
"null","<img src='gifs/FemaleRace4a.gif' style='height:400px;''></img>","","html-keyboard-response","67","297550","0.0-13.0-1.9","75748","ListA","man","english","SW_E_M_A4","","","","null","","","","","",""
"null","is introducing","","html-keyboard-response","68","300560","0.0-13.0-2.9","75748","ListA","man","english","SW_E_M_A4","","","","null","","","","","",""
"8220.69999999553","","","survey-text","69","308782","0.0-13.0-3.9","75748","ListA","man","english","SW_E_M_A4","","","","","{""Q0"":""janeis introducingbeth""}","<img src='gifs/FemaleRace4a.gif' style='height:400px;''></img>","introducing","is introducing","english",""
"null","<div style=""font-size:60px;"">+</div>","","html-keyboard-response","70","309293","0.0-13.0-0.10","75748","ListA","man","english","SW_E_M_A4","","","","null","","","","","",""
"null","<img src='gifs/BlackGender2a.gif' style='height:400px;''></img>","","html-keyboard-response","71","311294","0.0-13.0-1.10","75748","ListA","man","english","SW_E_M_A4","","","","null","","","","","",""
"null","is joining","","html-keyboard-response","72","314300","0.0-13.0-2.10","75748","ListA","man","english","SW_E_M_A4","","","","null","","","","","",""
"26200","","","survey-text","73","340501","0.0-13.0-3.10","75748","ListA","man","english","SW_E_M_A4","","","","","{""Q0"":""ruthis joiningdave""}","<img src='gifs/BlackGender2a.gif' style='height:400px;''></img>","join","is joining","english",""
"null","<div style=""font-size:60px;"">+</div>","","html-keyboard-response","74","341012","0.0-13.0-0.11","75748","ListA","man","english","SW_E_M_A4","","","","null","","","","","",""
"null","<img src='gifs/ChineseGender1a.gif' style='height:400px;''></img>","","html-keyboard-response","75","343013","0.0-13.0-1.11","75748","ListA","man","english","SW_E_M_A4","","","","null","","","","","",""
"null","is promising","","html-keyboard-response","76","346014","0.0-13.0-2.11","75748","ListA","man","english","SW_E_M_A4","","","","null","","","","","",""
"13269.89999999851","","","survey-text","77","359285","0.0-13.0-3.11","75748","ListA","man","english","SW_E_M_A4","","","","","{""Q0"":""fredis promisingkate""}","<img src='gifs/ChineseGender1a.gif' style='height:400px;''></img>","promising","is promising","english",""
"null","<div style=""font-size:60px;"">+</div>","","html-keyboard-response","78","359786","0.0-13.0-0.12","75748","ListA","man","english","SW_E_M_A4","","","","null","","","","","",""
"null","<img src='gifs/BlackGender3b.gif' style='height:400px;''></img>","","html-keyboard-response","79","361786","0.0-13.0-1.12","75748","ListA","man","english","SW_E_M_A4","","","","null","","","","","",""
"null","is listening to","","html-keyboard-response","80","364787","0.0-13.0-2.12","75748","ListA","man","english","SW_E_M_A4","","","","null","","","","","",""
"2330.2999999970198","","","survey-text","81","367119","0.0-13.0-3.12","75748","ListA","man","english","SW_E_M_A4","","","","","{""Q0"":""jave""}","<img src='gifs/BlackGender3b.gif' style='height:400px;''></img>","listening to","is listening to","english",""
"null","<div style=""font-size:60px;"">+</div>","","html-keyboard-response","82","367622","0.0-13.0-0.13","75748","ListA","man","english","SW_E_M_A4","","","","null","","","","","",""
"null","<img src='gifs/FemaleRace1a.gif' style='height:400px;''></img>","","html-keyboard-response","83","369622","0.0-13.0-1.13","75748","ListA","man","english","SW_E_M_A4","","","","null","","","","","",""
"null","is approaching","","html-keyboard-response","84","372623","0.0-13.0-2.13","75748","ListA","man","english","SW_E_M_A4","","","","null","","","","","",""
"7148.60000000149","","","survey-text","85","379773","0.0-13.0-3.13","75748","ListA","man","english","SW_E_M_A4","","","","","{""Q0"":""ruthis approachingkate""}","<img src='gifs/FemaleRace1a.gif' style='height:400px;''></img>","approaching","is approaching","english",""
"null","<div style=""font-size:60px;"">+</div>","","html-keyboard-response","86","380277","0.0-13.0-0.14","75748","ListA","man","english","SW_E_M_A4","","","","null","","","","","",""
"null","<img src='gifs/FemaleRace2a.gif' style='height:400px;''></img>","","html-keyboard-response","87","382278","0.0-13.0-1.14","75748","ListA","man","english","SW_E_M_A4","","","","null","","","","","",""
"null","is mentioning","","html-keyboard-response","88","385279","0.0-13.0-2.14","75748","ListA","man","english","SW_E_M_A4","","","","null","","","","","",""
"10493.20000000298","","","survey-text","89","395773","0.0-13.0-3.14","75748","ListA","man","english","SW_E_M_A4","","","","","{""Q0"":""kateis mentioningjane""}","<img src='gifs/FemaleRace2a.gif' style='height:400px;''></img>","mention","is mentioning","english",""
"null","<div style=""font-size:60px;"">+</div>","","html-keyboard-response","90","396274","0.0-13.0-0.15","75748","ListA","man","english","SW_E_M_A4","","","","null","","","","","",""
"null","<img src='gifs/ChineseGender3a.gif' style='height:400px;''></img>","","html-keyboard-response","91","398275","0.0-13.0-1.15","75748","ListA","man","english","SW_E_M_A4","","","","null","","","","","",""
"null","is promising","","html-keyboard-response","92","401276","0.0-13.0-2.15","75748","ListA","man","english","SW_E_M_A4","","","","null","","","","","",""
"5863.80000000447","","","survey-text","93","407141","0.0-13.0-3.15","75748","ListA","man","english","SW_E_M_A4","","","","","{""Q0"":""bethis promisingmike""}","<img src='gifs/ChineseGender3a.gif' style='height:400px;''></img>","promising","is promising","english",""
"null","<div style=""font-size:60px;"">+</div>","","html-keyboard-response","94","407642","0.0-13.0-0.16","75748","ListA","man","english","SW_E_M_A4","","","","null","","","","","",""
"null","<img src='gifs/ChineseGender1a.gif' style='height:400px;''></img>","","html-keyboard-response","95","409644","0.0-13.0-1.16","75748","ListA","man","english","SW_E_M_A4","","","","null","","","","","",""
"null","is accompanying","","html-keyboard-response","96","412645","0.0-13.0-2.16","75748","ListA","man","english","SW_E_M_A4","","","","null","","","","","",""
"7471.30000000447","","","survey-text","97","420117","0.0-13.0-3.16","75748","ListA","man","english","SW_E_M_A4","","","","","{""Q0"":""fredis accompanyingkate""}","<img src='gifs/ChineseGender1a.gif' style='height:400px;''></img>","accompanying","is accompanying","english",""
"null","<div style=""font-size:60px;"">+</div>","","html-keyboard-response","98","420618","0.0-13.0-0.17","75748","ListA","man","english","SW_E_M_A4","","","","null","","","","","",""
"null","<img src='gifs/MaleRace4b.gif' style='height:400px;''></img>","","html-keyboard-response","99","422620","0.0-13.0-1.17","75748","ListA","man","english","SW_E_M_A4","","","","null","","","","","",""
"null","is accompanying","","html-keyboard-response","100","425621","0.0-13.0-2.17","75748","ListA","man","english","SW_E_M_A4","","","","null","","","","","",""
"7087.60000000149","","","survey-text","101","432709","0.0-13.0-3.17","75748","ListA","man","english","SW_E_M_A4","","","","","{""Q0"":""daveis accompanyingmike""}","<img src='gifs/MaleRace4b.gif' style='height:400px;''></img>","accompanying","is accompanying","english",""
"24016.10000000149","<img src='img/portrait_matrix_listA.jpg' style='width:900px;height:500px;''></img><p>If you have memorised all the portraits and names and are ready to start, press Continue.</p><p><strong>Please note: Your memory of these faces will be tested 5 times during this experiment.</strong></p>","0","html-button-response","102","456726","0.0-14.0-0.0","75748","ListA","man","english","SW_E_M_A4","","","","","","","","","",""
"4286.29999999702","<img src=""portrait/BM2.jpg""style=""height:400px;""></img>","5","html-button-response","103","462013","0.0-14.0-1.0","75748","ListA","man","english","SW_E_M_A4","","true","5","","","","","","",""
"null","CORRECT","","html-keyboard-response","104","463514","0.0-14.0-2.0-0.0","75748","ListA","man","english","SW_E_M_A4","","","","null","","","","","",""
"2114.0999999940395","<img src=""portrait/WM2.jpg""style=""height:400px;""></img>","7","html-button-response","105","465629","0.0-14.0-4.0","75748","ListA","man","english","SW_E_M_A4","","true","7","","","","","","",""
"null","CORRECT","","html-keyboard-response","106","467131","0.0-14.0-5.0-0.0","75748","ListA","man","english","SW_E_M_A4","","","","null","","","","","",""
"4481.5","<img src=""portrait/BW1.jpg""style=""height:400px;""></img>","0","html-button-response","107","471613","0.0-14.0-7.0","75748","ListA","man","english","SW_E_M_A4","","true","0","","","","","","",""
"null","CORRECT","","html-keyboard-response","108","473116","0.0-14.0-8.0-0.0","75748","ListA","man","english","SW_E_M_A4","","","","null","","","","","",""
"1744.6999999955297","<img src=""portrait/WW2.jpg""style=""height:400px;""></img>","3","html-button-response","109","474861","0.0-14.0-10.0","75748","ListA","man","english","SW_E_M_A4","","true","3","","","","","","",""
"null","CORRECT","","html-keyboard-response","110","476371","0.0-14.0-11.0-0.0","75748","ListA","man","english","SW_E_M_A4","","","","null","","","","","",""
"1873.2999999970198","<img src=""portrait/WW1.jpg""style=""height:400px;""></img>","1","html-button-response","111","478245","0.0-14.0-13.0","75748","ListA","man","english","SW_E_M_A4","","true","1","","","","","","",""
"null","CORRECT","","html-keyboard-response","112","479747","0.0-14.0-14.0-0.0","75748","ListA","man","english","SW_E_M_A4","","","","null","","","","","",""
"2561.89999999851","<img src=""portrait/BW2.jpg""style=""height:400px;""></img>","2","html-button-response","113","482309","0.0-14.0-16.0","75748","ListA","man","english","SW_E_M_A4","","true","2","","","","","","",""
"null","CORRECT","","html-keyboard-response","114","483813","0.0-14.0-17.0-0.0","75748","ListA","man","english","SW_E_M_A4","","","","null","","","","","",""
"3207.5999999940395","<img src=""portrait/WM1.jpg""style=""height:400px;""></img>","6","html-button-response","115","487021","0.0-14.0-19.0","75748","ListA","man","english","SW_E_M_A4","","true","6","","","","","","",""
"null","CORRECT","","html-keyboard-response","116","488523","0.0-14.0-20.0-0.0","75748","ListA","man","english","SW_E_M_A4","","","","null","","","","","",""
"3761.0999999940395","<img src=""portrait/BM1.jpg""style=""height:400px;""></img>","4","html-button-response","117","492285","0.0-14.0-22.0","75748","ListA","man","english","SW_E_M_A4","","true","4","","","","","","",""
"null","CORRECT","","html-keyboard-response","118","493786","0.0-14.0-23.0-0.0","75748","ListA","man","english","SW_E_M_A4","","","","null","","","","","",""
"2706.89999999851","<p>You got 8 out of 8 right first time. Press Continue.</p>","0","html-button-response","119","496493","0.0-14.0-25.0","75748","ListA","man","english","SW_E_M_A4","","","","","","","","","",""
"null","<div style=""font-size:60px;"">+</div>","","html-keyboard-response","120","497995","0.0-15.0-0.0","75748","ListA","man","english","SW_E_M_A4","","","","null","","","","","",""
"null","<img src='gifs/ChineseGender3b.gif' style='height:400px;''></img>","","html-keyboard-response","121","499997","0.0-15.0-1.0","75748","ListA","man","english","SW_E_M_A4","","","","null","","","","","",""
"null","is employing","","html-keyboard-response","122","502998","0.0-15.0-2.0","75748","ListA","man","english","SW_E_M_A4","","","","null","","","","","",""
"6918.5","","","survey-text","123","509917","0.0-15.0-3.0","75748","ListA","man","english","SW_E_M_A4","","","","","{""Q0"":""bethis employingmike""}","<img src='gifs/ChineseGender3b.gif' style='height:400px;''></img>","employing","is employing","english",""
"null","<div style=""font-size:60px;"">+</div>","","html-keyboard-response","124","510420","0.0-15.0-0.1","75748","ListA","man","english","SW_E_M_A4","","","","null","","","","","",""
"null","<img src='gifs/FemaleRace2b.gif' style='height:400px;''></img>","","html-keyboard-response","125","512421","0.0-15.0-1.1","75748","ListA","man","english","SW_E_M_A4","","","","null","","","","","",""
"null","is walking towards","","html-keyboard-response","126","515421","0.0-15.0-2.1","75748","ListA","man","english","SW_E_M_A4","","","","null","","","","","",""
"9239.20000000298","","","survey-text","127","524661","0.0-15.0-3.1","75748","ListA","man","english","SW_E_M_A4","","","","","{""Q0"":""kateis walking towardsjane""}","<img src='gifs/FemaleRace2b.gif' style='height:400px;''></img>","walking towards","is walking towards","english",""
"null","<div style=""font-size:60px;"">+</div>","","html-keyboard-response","128","525163","0.0-15.0-0.2","75748","ListA","man","english","SW_E_M_A4","","","","null","","","","","",""
"null","<img src='gifs/MaleRace3b.gif' style='height:400px;''></img>","","html-keyboard-response","129","527165","0.0-15.0-1.2","75748","ListA","man","english","SW_E_M_A4","","","","null","","","","","",""
"null","is listening to","","html-keyboard-response","130","530165","0.0-15.0-2.2","75748","ListA","man","english","SW_E_M_A4","","","","null","","","","","",""
"7078.79999999702","","","survey-text","131","537245","0.0-15.0-3.2","75748","ListA","man","english","SW_E_M_A4","","","","","{""Q0"":""lukeis listening tomike""}","<img src='gifs/MaleRace3b.gif' style='height:400px;''></img>","listening to","is listening to","english",""
"null","<div style=""font-size:60px;"">+</div>","","html-keyboard-response","132","537746","0.0-15.0-0.3","75748","ListA","man","english","SW_E_M_A4","","","","null","","","","","",""
"null","<img src='gifs/MaleRace4a.gif' style='height:400px;''></img>","","html-keyboard-response","133","539749","0.0-15.0-1.3","75748","ListA","man","english","SW_E_M_A4","","","","null","","","","","",""
"null","is looking at","","html-keyboard-response","134","542749","0.0-15.0-2.3","75748","ListA","man","english","SW_E_M_A4","","","","null","","","","","",""
"5703","","","survey-text","135","548452","0.0-15.0-3.3","75748","ListA","man","english","SW_E_M_A4","","","","","{""Q0"":""daveis looking atmike""}","<img src='gifs/MaleRace4a.gif' style='height:400px;''></img>","looking at","is looking at","english",""
"null","<div style=""font-size:60px;"">+</div>","","html-keyboard-response","136","548953","0.0-15.0-0.4","75748","ListA","man","english","SW_E_M_A4","","","","null","","","","","",""
"null","<img src='gifs/BlackGender3b.gif' style='height:400px;''></img>","","html-keyboard-response","137","550955","0.0-15.0-1.4","75748","ListA","man","english","SW_E_M_A4","","","","null","","","","","",""
"null","is walking towards","","html-keyboard-response","138","553967","0.0-15.0-2.4","75748","ListA","man","english","SW_E_M_A4","","","","null","","","","","",""
"9828.69999999553","","","survey-text","139","563796","0.0-15.0-3.4","75748","ListA","man","english","SW_E_M_A4","","","","","{""Q0"":""lukeis walking towardsjan""}","<img src='gifs/BlackGender3b.gif' style='height:400px;''></img>","walking towards","is walking towards","english",""
"null","<div style=""font-size:60px;"">+</div>","","html-keyboard-response","140","564297","0.0-15.0-0.5","75748","ListA","man","english","SW_E_M_A4","","","","null","","","","","",""
"null","<img src='gifs/FemaleRace4a.gif' style='height:400px;''></img>","","html-keyboard-response","141","566299","0.0-15.0-1.5","75748","ListA","man","english","SW_E_M_A4","","","","null","","","","","",""
"null","is introducing","","html-keyboard-response","142","569301","0.0-15.0-2.5","75748","ListA","man","english","SW_E_M_A4","","","","null","","","","","",""
"7870.70000000298","","","survey-text","143","577172","0.0-15.0-3.5","75748","ListA","man","english","SW_E_M_A4","","","","","{""Q0"":""bethis introducingjane""}","<img src='gifs/FemaleRace4a.gif' style='height:400px;''></img>","introducing","is introducing","english",""
"null","<div style=""font-size:60px;"">+</div>","","html-keyboard-response","144","577675","0.0-15.0-0.6","75748","ListA","man","english","SW_E_M_A4","","","","null","","","","","",""
"null","<img src='gifs/BlackGender2b.gif' style='height:400px;''></img>","","html-keyboard-response","145","579675","0.0-15.0-1.6","75748","ListA","man","english","SW_E_M_A4","","","","null","","","","","",""
"null","is listening to","","html-keyboard-response","146","582676","0.0-15.0-2.6","75748","ListA","man","english","SW_E_M_A4","","","","null","","","","","",""
"6215.30000000447","","","survey-text","147","588892","0.0-15.0-3.6","75748","ListA","man","english","SW_E_M_A4","","","","","{""Q0"":""ruthis listening todave""}","<img src='gifs/BlackGender2b.gif' style='height:400px;''></img>","listening to","is listening to","english",""
"null","<div style=""font-size:60px;"">+</div>","","html-keyboard-response","148","589394","0.0-15.0-0.7","75748","ListA","man","english","SW_E_M_A4","","","","null","","","","","",""
"null","<img src='gifs/FemaleRace1a.gif' style='height:400px;''></img>","","html-keyboard-response","149","591395","0.0-15.0-1.7","75748","ListA","man","english","SW_E_M_A4","","","","null","","","","","",""
"null","is touching","","html-keyboard-response","150","594396","0.0-15.0-2.7","75748","ListA","man","english","SW_E_M_A4","","","","null","","","","","",""
"6463.39999999851","","","survey-text","151","600861","0.0-15.0-3.7","75748","ListA","man","english","SW_E_M_A4","","","","","{""Q0"":""ruthis touchingkate""}","<img src='gifs/FemaleRace1a.gif' style='height:400px;''></img>","touching","is touching","english",""
"null","<div style=""font-size:60px;"">+</div>","","html-keyboard-response","152","601378","0.0-15.0-0.8","75748","ListA","man","english","SW_E_M_A4","","","","null","","","","","",""
"null","<img src='gifs/ChineseGender2a.gif' style='height:400px;''></img>","","html-keyboard-response","153","603380","0.0-15.0-1.8","75748","ListA","man","english","SW_E_M_A4","","","","null","","","","","",""
"null","is contacting","","html-keyboard-response","154","606380","0.0-15.0-2.8","75748","ListA","man","english","SW_E_M_A4","","","","null","","","","","",""
"11551.29999999702","","","survey-text","155","617933","0.0-15.0-3.8","75748","ListA","man","english","SW_E_M_A4","","","","","{""Q0"":""bethis touchingfred""}","<img src='gifs/ChineseGender2a.gif' style='height:400px;''></img>","contacting","is contacting","english",""
"null","<div style=""font-size:60px;"">+</div>","","html-keyboard-response","156","618440","0.0-15.0-0.9","75748","ListA","man","english","SW_E_M_A4","","","","null","","","","","",""
"null","<img src='gifs/MaleRace2a.gif' style='height:400px;''></img>","","html-keyboard-response","157","620442","0.0-15.0-1.9","75748","ListA","man","english","SW_E_M_A4","","","","null","","","","","",""
"null","is employing","","html-keyboard-response","158","623443","0.0-15.0-2.9","75748","ListA","man","english","SW_E_M_A4","","","","null","","","","","",""
"7624.80000000447","","","survey-text","159","631069","0.0-15.0-3.9","75748","ListA","man","english","SW_E_M_A4","","","","","{""Q0"":""fredis employingdave""}","<img src='gifs/MaleRace2a.gif' style='height:400px;''></img>","employing","is employing","english",""
"null","<div style=""font-size:60px;"">+</div>","","html-keyboard-response","160","631570","0.0-15.0-0.10","75748","ListA","man","english","SW_E_M_A4","","","","null","","","","","",""
"null","<img src='gifs/MaleRace3a.gif' style='height:400px;''></img>","","html-keyboard-response","161","633571","0.0-15.0-1.10","75748","ListA","man","english","SW_E_M_A4","","","","null","","","","","",""
"null","is accompanying","","html-keyboard-response","162","636572","0.0-15.0-2.10","75748","ListA","man","english","SW_E_M_A4","","","","null","","","","","",""
"11048.09999999404","","","survey-text","163","647621","0.0-15.0-3.10","75748","ListA","man","english","SW_E_M_A4","","","","","{""Q0"":""lukeis accompanyingmike""}","<img src='gifs/MaleRace3a.gif' style='height:400px;''></img>","accompanying","is accompanying","english",""
"null","<div style=""font-size:60px;"">+</div>","","html-keyboard-response","164","648122","0.0-15.0-0.11","75748","ListA","man","english","SW_E_M_A4","","","","null","","","","","",""
"null","<img src='gifs/BlackGender1b.gif' style='height:400px;''></img>","","html-keyboard-response","165","650124","0.0-15.0-1.11","75748","ListA","man","english","SW_E_M_A4","","","","null","","","","","",""
"null","is joining","","html-keyboard-response","166","653125","0.0-15.0-2.11","75748","ListA","man","english","SW_E_M_A4","","","","null","","","","","",""
"5670.89999999851","","","survey-text","167","658797","0.0-15.0-3.11","75748","ListA","man","english","SW_E_M_A4","","","","","{""Q0"":""ruthis joiningluke""}","<img src='gifs/BlackGender1b.gif' style='height:400px;''></img>","join","is joining","english",""
"null","<div style=""font-size:60px;"">+</div>","","html-keyboard-response","168","659298","0.0-15.0-0.12","75748","ListA","man","english","SW_E_M_A4","","","","null","","","","","",""
"null","<img src='gifs/MaleRace2a.gif' style='height:400px;''></img>","","html-keyboard-response","169","661300","0.0-15.0-1.12","75748","ListA","man","english","SW_E_M_A4","","","","null","","","","","",""
"null","is introducing","","html-keyboard-response","170","664301","0.0-15.0-2.12","75748","ListA","man","english","SW_E_M_A4","","","","null","","","","","",""
"7751.10000000149","","","survey-text","171","672053","0.0-15.0-3.12","75748","ListA","man","english","SW_E_M_A4","","","","","{""Q0"":""daveis introducingfred""}","<img src='gifs/MaleRace2a.gif' style='height:400px;''></img>","introducing","is introducing","english",""
"null","<div style=""font-size:60px;"">+</div>","","html-keyboard-response","172","672553","0.0-15.0-0.13","75748","ListA","man","english","SW_E_M_A4","","","","null","","","","","",""
"null","<img src='gifs/FemaleRace3a.gif' style='height:400px;''></img>","","html-keyboard-response","173","674555","0.0-15.0-1.13","75748","ListA","man","english","SW_E_M_A4","","","","null","","","","","",""
"null","is promising","","html-keyboard-response","174","677556","0.0-15.0-2.13","75748","ListA","man","english","SW_E_M_A4","","","","null","","","","","",""
"7792.10000000149","","","survey-text","175","685349","0.0-15.0-3.13","75748","ListA","man","english","SW_E_M_A4","","","","","{""Q0"":""ruthis promisingbeth""}","<img src='gifs/FemaleRace3a.gif' style='height:400px;''></img>","promising","is promising","english",""
"null","<div style=""font-size:60px;"">+</div>","","html-keyboard-response","176","685859","0.0-15.0-0.14","75748","ListA","man","english","SW_E_M_A4","","","","null","","","","","",""
"null","<img src='gifs/BlackGender4a.gif' style='height:400px;''></img>","","html-keyboard-response","177","687861","0.0-15.0-1.14","75748","ListA","man","english","SW_E_M_A4","","","","null","","","","","",""
"null","is approaching","","html-keyboard-response","178","690862","0.0-15.0-2.14","75748","ListA","man","english","SW_E_M_A4","","","","null","","","","","",""
"6846.70000000298","","","survey-text","179","697709","0.0-15.0-3.14","75748","ListA","man","english","SW_E_M_A4","","","","","{""Q0"":""daveis approachingjane""}","<img src='gifs/BlackGender4a.gif' style='height:400px;''></img>","approaching","is approaching","english",""
"null","<div style=""font-size:60px;"">+</div>","","html-keyboard-response","180","698212","0.0-15.0-0.15","75748","ListA","man","english","SW_E_M_A4","","","","null","","","","","",""
"null","<img src='gifs/ChineseGender4a.gif' style='height:400px;''></img>","","html-keyboard-response","181","700219","0.0-15.0-1.15","75748","ListA","man","english","SW_E_M_A4","","","","null","","","","","",""
"null","is facing","","html-keyboard-response","182","703219","0.0-15.0-2.15","75748","ListA","man","english","SW_E_M_A4","","","","null","","","","","",""
"6904.89999999851","","","survey-text","183","710125","0.0-15.0-3.15","75748","ListA","man","english","SW_E_M_A4","","","","","{""Q0"":""kateis facingmike""}","<img src='gifs/ChineseGender4a.gif' style='height:400px;''></img>","facing","is facing","english",""
"null","<div style=""font-size:60px;"">+</div>","","html-keyboard-response","184","710626","0.0-15.0-0.16","75748","ListA","man","english","SW_E_M_A4","","","","null","","","","","",""
"null","<img src='gifs/BlackGender3a.gif' style='height:400px;''></img>","","html-keyboard-response","185","712628","0.0-15.0-1.16","75748","ListA","man","english","SW_E_M_A4","","","","null","","","","","",""
"null","is contacting","","html-keyboard-response","186","715629","0.0-15.0-2.16","75748","ListA","man","english","SW_E_M_A4","","","","null","","","","","",""
"11862.69999999553","","","survey-text","187","727493","0.0-15.0-3.16","75748","ListA","man","english","SW_E_M_A4","","","","","{""Q0"":""janeis contactingluke""}","<img src='gifs/BlackGender3a.gif' style='height:400px;''></img>","contacting","is contacting","english",""
"null","<div style=""font-size:60px;"">+</div>","","html-keyboard-response","188","728000","0.0-15.0-0.17","75748","ListA","man","english","SW_E_M_A4","","","","null","","","","","",""
"null","<img src='gifs/MaleRace2b.gif' style='height:400px;''></img>","","html-keyboard-response","189","730002","0.0-15.0-1.17","75748","ListA","man","english","SW_E_M_A4","","","","null","","","","","",""
"null","is following","","html-keyboard-response","190","733003","0.0-15.0-2.17","75748","ListA","man","english","SW_E_M_A4","","","","null","","","","","",""
"5361.70000000298","","","survey-text","191","738366","0.0-15.0-3.17","75748","ListA","man","english","SW_E_M_A4","","","","","{""Q0"":""fredis followingdave""}","<img src='gifs/MaleRace2b.gif' style='height:400px;''></img>","following","is following","english",""
"2990.39999999851","<img src='img/portrait_matrix_listA.jpg' style='width:900px;height:500px;''></img><p>If you have memorised all the portraits and names and are ready to start, press Continue.</p><p><strong>Please note: Your memory of these faces will be tested 5 times during this experiment.</strong></p>","0","html-button-response","192","741357","0.0-16.0-0.0","75748","ListA","man","english","SW_E_M_A4","","","","","","","","","",""
"2330.2000000029802","<img src=""portrait/WW2.jpg""style=""height:400px;""></img>","3","html-button-response","193","744693","0.0-16.0-1.0","75748","ListA","man","english","SW_E_M_A4","","true","3","","","","","","",""
"null","CORRECT","","html-keyboard-response","194","746202","0.0-16.0-2.0-0.0","75748","ListA","man","english","SW_E_M_A4","","","","null","","","","","",""
"5914.30000000447","<img src=""portrait/BM1.jpg""style=""height:400px;""></img>","4","html-button-response","195","752117","0.0-16.0-4.0","75748","ListA","man","english","SW_E_M_A4","","true","4","","","","","","",""
"null","CORRECT","","html-keyboard-response","196","753618","0.0-16.0-5.0-0.0","75748","ListA","man","english","SW_E_M_A4","","","","null","","","","","",""
"2922.39999999851","<img src=""portrait/BM2.jpg""style=""height:400px;""></img>","5","html-button-response","197","756541","0.0-16.0-7.0","75748","ListA","man","english","SW_E_M_A4","","true","5","","","","","","",""
"null","CORRECT","","html-keyboard-response","198","758043","0.0-16.0-8.0-0.0","75748","ListA","man","english","SW_E_M_A4","","","","null","","","","","",""
"3281.39999999851","<img src=""portrait/WM1.jpg""style=""height:400px;""></img>","6","html-button-response","199","761325","0.0-16.0-10.0","75748","ListA","man","english","SW_E_M_A4","","true","6","","","","","","",""
"null","CORRECT","","html-keyboard-response","200","762827","0.0-16.0-11.0-0.0","75748","ListA","man","english","SW_E_M_A4","","","","null","","","","","",""
"2609.5","<img src=""portrait/BW2.jpg""style=""height:400px;""></img>","2","html-button-response","201","765437","0.0-16.0-13.0","75748","ListA","man","english","SW_E_M_A4","","true","2","","","","","","",""
"null","CORRECT","","html-keyboard-response","202","766941","0.0-16.0-14.0-0.0","75748","ListA","man","english","SW_E_M_A4","","","","null","","","","","",""
"2743.5999999940395","<img src=""portrait/WM2.jpg""style=""height:400px;""></img>","7","html-button-response","203","769685","0.0-16.0-16.0","75748","ListA","man","english","SW_E_M_A4","","true","7","","","","","","",""
"null","CORRECT","","html-keyboard-response","204","771187","0.0-16.0-17.0-0.0","75748","ListA","man","english","SW_E_M_A4","","","","null","","","","","",""
"4944.9000000059605","<img src=""portrait/BW1.jpg""style=""height:400px;""></img>","0","html-button-response","205","776133","0.0-16.0-19.0","75748","ListA","man","english","SW_E_M_A4","","true","0","","","","","","",""
"null","CORRECT","","html-keyboard-response","206","777636","0.0-16.0-20.0-0.0","75748","ListA","man","english","SW_E_M_A4","","","","null","","","","","",""
"2744.7000000029802","<img src=""portrait/WW1.jpg""style=""height:400px;""></img>","1","html-button-response","207","780381","0.0-16.0-22.0","75748","ListA","man","english","SW_E_M_A4","","true","1","","","","","","",""
"null","CORRECT","","html-keyboard-response","208","781883","0.0-16.0-23.0-0.0","75748","ListA","man","english","SW_E_M_A4","","","","null","","","","","",""
"6433.10000000149","<p>You got 8 out of 8 right first time. Press Continue.</p>","0","html-button-response","209","788317","0.0-16.0-25.0","75748","ListA","man","english","SW_E_M_A4","","","","","","","","","",""
"null","<div style=""font-size:60px;"">+</div>","","html-keyboard-response","210","789826","0.0-17.0-0.0","75748","ListA","man","english","SW_E_M_A4","","","","null","","","","","",""
"null","<img src='gifs/FemaleRace4b.gif' style='height:400px;''></img>","","html-keyboard-response","211","791835","0.0-17.0-1.0","75748","ListA","man","english","SW_E_M_A4","","","","null","","","","","",""
"null","is praising","","html-keyboard-response","212","794836","0.0-17.0-2.0","75748","ListA","man","english","SW_E_M_A4","","","","null","","","","","",""
"7176.19999999553","","","survey-text","213","802013","0.0-17.0-3.0","75748","ListA","man","english","SW_E_M_A4","","","","","{""Q0"":""bethis praisingjane""}","<img src='gifs/FemaleRace4b.gif' style='height:400px;''></img>","praising","is praising","english",""
"null","<div style=""font-size:60px;"">+</div>","","html-keyboard-response","214","802514","0.0-17.0-0.1","75748","ListA","man","english","SW_E_M_A4","","","","null","","","","","",""
"null","<img src='gifs/FemaleRace1b.gif' style='height:400px;''></img>","","html-keyboard-response","215","804516","0.0-17.0-1.1","75748","ListA","man","english","SW_E_M_A4","","","","null","","","","","",""
"null","is following","","html-keyboard-response","216","807518","0.0-17.0-2.1","75748","ListA","man","english","SW_E_M_A4","","","","null","","","","","",""
"6694.79999999702","","","survey-text","217","814213","0.0-17.0-3.1","75748","ListA","man","english","SW_E_M_A4","","","","","{""Q0"":""ruthis followingkate""}","<img src='gifs/FemaleRace1b.gif' style='height:400px;''></img>","following","is following","english",""
"null","<div style=""font-size:60px;"">+</div>","","html-keyboard-response","218","814714","0.0-17.0-0.2","75748","ListA","man","english","SW_E_M_A4","","","","null","","","","","",""
"null","<img src='gifs/BlackGender4b.gif' style='height:400px;''></img>","","html-keyboard-response","219","816715","0.0-17.0-1.2","75748","ListA","man","english","SW_E_M_A4","","","","null","","","","","",""
"null","is touching","","html-keyboard-response","220","819716","0.0-17.0-2.2","75748","ListA","man","english","SW_E_M_A4","","","","null","","","","","",""
"11456.29999999702","","","survey-text","221","831173","0.0-17.0-3.2","75748","ListA","man","english","SW_E_M_A4","","","","","{""Q0"":""daveis touchingjane""}","<img src='gifs/BlackGender4b.gif' style='height:400px;''></img>","touching","is touching","english",""
"null","<div style=""font-size:60px;"">+</div>","","html-keyboard-response","222","831675","0.0-17.0-0.3","75748","ListA","man","english","SW_E_M_A4","","","","null","","","","","",""
"null","<img src='gifs/ChineseGender3b.gif' style='height:400px;''></img>","","html-keyboard-response","223","833676","0.0-17.0-1.3","75748","ListA","man","english","SW_E_M_A4","","","","null","","","","","",""
"null","is praising","","html-keyboard-response","224","836677","0.0-17.0-2.3","75748","ListA","man","english","SW_E_M_A4","","","","null","","","","","",""
"6895.29999999702","","","survey-text","225","843572","0.0-17.0-3.3","75748","ListA","man","english","SW_E_M_A4","","","","","{""Q0"":""bethis praisingmike""}","<img src='gifs/ChineseGender3b.gif' style='height:400px;''></img>","praising","is praising","english",""
"null","<div style=""font-size:60px;"">+</div>","","html-keyboard-response","226","844073","0.0-17.0-0.4","75748","ListA","man","english","SW_E_M_A4","","","","null","","","","","",""
"null","<img src='gifs/BlackGender3a.gif' style='height:400px;''></img>","","html-keyboard-response","227","846084","0.0-17.0-1.4","75748","ListA","man","english","SW_E_M_A4","","","","null","","","","","",""
"null","is joining","","html-keyboard-response","228","849093","0.0-17.0-2.4","75748","ListA","man","english","SW_E_M_A4","","","","null","","","","","",""
"8463.20000000298","","","survey-text","229","857557","0.0-17.0-3.4","75748","ListA","man","english","SW_E_M_A4","","","","","{""Q0"":""janeis joiningluke""}","<img src='gifs/BlackGender3a.gif' style='height:400px;''></img>","join","is joining","english",""
"null","<div style=""font-size:60px;"">+</div>","","html-keyboard-response","230","858058","0.0-17.0-0.5","75748","ListA","man","english","SW_E_M_A4","","","","null","","","","","",""
"null","<img src='gifs/MaleRace3b.gif' style='height:400px;''></img>","","html-keyboard-response","231","860059","0.0-17.0-1.5","75748","ListA","man","english","SW_E_M_A4","","","","null","","","","","",""
"null","is contacting","","html-keyboard-response","232","863060","0.0-17.0-2.5","75748","ListA","man","english","SW_E_M_A4","","","","null","","","","","",""
"5655.5","","","survey-text","233","868716","0.0-17.0-3.5","75748","ListA","man","english","SW_E_M_A4","","","","","{""Q0"":""mikeis contactingluke""}","<img src='gifs/MaleRace3b.gif' style='height:400px;''></img>","contacting","is contacting","english",""
"null","<div style=""font-size:60px;"">+</div>","","html-keyboard-response","234","869217","0.0-17.0-0.6","75748","ListA","man","english","SW_E_M_A4","","","","null","","","","","",""
"null","<img src='gifs/BlackGender1a.gif' style='height:400px;''></img>","","html-keyboard-response","235","871218","0.0-17.0-1.6","75748","ListA","man","english","SW_E_M_A4","","","","null","","","","","",""
"null","is facing","","html-keyboard-response","236","874218","0.0-17.0-2.6","75748","ListA","man","english","SW_E_M_A4","","","","null","","","","","",""
"8488.89999999851","","","survey-text","237","882708","0.0-17.0-3.6","75748","ListA","man","english","SW_E_M_A4","","","","","{""Q0"":""ruthis facingluke""}","<img src='gifs/BlackGender1a.gif' style='height:400px;''></img>","facing","is facing","english",""
"null","<div style=""font-size:60px;"">+</div>","","html-keyboard-response","238","883209","0.0-17.0-0.7","75748","ListA","man","english","SW_E_M_A4","","","","null","","","","","",""
"null","<img src='gifs/BlackGender1b.gif' style='height:400px;''></img>","","html-keyboard-response","239","885210","0.0-17.0-1.7","75748","ListA","man","english","SW_E_M_A4","","","","null","","","","","",""
"null","is touching","","html-keyboard-response","240","888216","0.0-17.0-2.7","75748","ListA","man","english","SW_E_M_A4","","","","null","","","","","",""
"6339.60000000149","","","survey-text","241","894556","0.0-17.0-3.7","75748","ListA","man","english","SW_E_M_A4","","","","","{""Q0"":""ruthis touchingluke""}","<img src='gifs/BlackGender1b.gif' style='height:400px;''></img>","touching","is touching","english",""
"null","<div style=""font-size:60px;"">+</div>","","html-keyboard-response","242","895057","0.0-17.0-0.8","75748","ListA","man","english","SW_E_M_A4","","","","null","","","","","",""
"null","<img src='gifs/ChineseGender2a.gif' style='height:400px;''></img>","","html-keyboard-response","243","897058","0.0-17.0-1.8","75748","ListA","man","english","SW_E_M_A4","","","","null","","","","","",""
"null","is praising","","html-keyboard-response","244","900059","0.0-17.0-2.8","75748","ListA","man","english","SW_E_M_A4","","","","null","","","","","",""
"6624","","","survey-text","245","906685","0.0-17.0-3.8","75748","ListA","man","english","SW_E_M_A4","","","","","{""Q0"":""fredis praisingbeth""}","<img src='gifs/ChineseGender2a.gif' style='height:400px;''></img>","praising","is praising","english",""
"null","<div style=""font-size:60px;"">+</div>","","html-keyboard-response","246","907185","0.0-17.0-0.9","75748","ListA","man","english","SW_E_M_A4","","","","null","","","","","",""
"null","<img src='gifs/MaleRace4b.gif' style='height:400px;''></img>","","html-keyboard-response","247","909191","0.0-17.0-1.9","75748","ListA","man","english","SW_E_M_A4","","","","null","","","","","",""
"null","is approaching","","html-keyboard-response","248","912193","0.0-17.0-2.9","75748","ListA","man","english","SW_E_M_A4","","","","null","","","","","",""
"5682.5","","","survey-text","249","917877","0.0-17.0-3.9","75748","ListA","man","english","SW_E_M_A4","","","","","{""Q0"":""daveis approachingmike""}","<img src='gifs/MaleRace4b.gif' style='height:400px;''></img>","approaching","is approaching","english",""
"null","<div style=""font-size:60px;"">+</div>","","html-keyboard-response","250","918383","0.0-17.0-0.10","75748","ListA","man","english","SW_E_M_A4","","","","null","","","","","",""
"null","<img src='gifs/BlackGender1a.gif' style='height:400px;''></img>","","html-keyboard-response","251","920384","0.0-17.0-1.10","75748","ListA","man","english","SW_E_M_A4","","","","null","","","","","",""
"null","is accompanying","","html-keyboard-response","252","923385","0.0-17.0-2.10","75748","ListA","man","english","SW_E_M_A4","","","","null","","","","","",""
"7321.89999999851","","","survey-text","253","930709","0.0-17.0-3.10","75748","ListA","man","english","SW_E_M_A4","","","","","{""Q0"":""ruthis accompanyingluke""}","<img src='gifs/BlackGender1a.gif' style='height:400px;''></img>","accompanying","is accompanying","english",""
"null","<div style=""font-size:60px;"">+</div>","","html-keyboard-response","254","931210","0.0-17.0-0.11","75748","ListA","man","english","SW_E_M_A4","","","","null","","","","","",""
"null","<img src='gifs/MaleRace1b.gif' style='height:400px;''></img>","","html-keyboard-response","255","933212","0.0-17.0-1.11","75748","ListA","man","english","SW_E_M_A4","","","","null","","","","","",""
"null","is looking at","","html-keyboard-response","256","936212","0.0-17.0-2.11","75748","ListA","man","english","SW_E_M_A4","","","","null","","","","","",""
"6159.5","","","survey-text","257","942373","0.0-17.0-3.11","75748","ListA","man","english","SW_E_M_A4","","","","","{""Q0"":""fredis looking atluke""}","<img src='gifs/MaleRace1b.gif' style='height:400px;''></img>","looking at","is looking at","english",""
"null","<div style=""font-size:60px;"">+</div>","","html-keyboard-response","258","942873","0.0-17.0-0.12","75748","ListA","man","english","SW_E_M_A4","","","","null","","","","","",""
"null","<img src='gifs/MaleRace3a.gif' style='height:400px;''></img>","","html-keyboard-response","259","944874","0.0-17.0-1.12","75748","ListA","man","english","SW_E_M_A4","","","","null","","","","","",""
"null","is introducing","","html-keyboard-response","260","947876","0.0-17.0-2.12","75748","ListA","man","english","SW_E_M_A4","","","","null","","","","","",""
"6823.5","","","survey-text","261","954701","0.0-17.0-3.12","75748","ListA","man","english","SW_E_M_A4","","","","","{""Q0"":""lukeis introducingmike""}","<img src='gifs/MaleRace3a.gif' style='height:400px;''></img>","introducing","is introducing","english",""
"null","<div style=""font-size:60px;"">+</div>","","html-keyboard-response","262","955202","0.0-17.0-0.13","75748","ListA","man","english","SW_E_M_A4","","","","null","","","","","",""
"null","<img src='gifs/ChineseGender4a.gif' style='height:400px;''></img>","","html-keyboard-response","263","957204","0.0-17.0-1.13","75748","ListA","man","english","SW_E_M_A4","","","","null","","","","","",""
"null","is touching","","html-keyboard-response","264","960205","0.0-17.0-2.13","75748","ListA","man","english","SW_E_M_A4","","","","null","","","","","",""
"5111.0999999940395","","","survey-text","265","965317","0.0-17.0-3.13","75748","ListA","man","english","SW_E_M_A4","","","","","{""Q0"":""kateis touchingmike""}","<img src='gifs/ChineseGender4a.gif' style='height:400px;''></img>","touching","is touching","english",""
"null","<div style=""font-size:60px;"">+</div>","","html-keyboard-response","266","965817","0.0-17.0-0.14","75748","ListA","man","english","SW_E_M_A4","","","","null","","","","","",""
"null","<img src='gifs/ChineseGender2b.gif' style='height:400px;''></img>","","html-keyboard-response","267","967818","0.0-17.0-1.14","75748","ListA","man","english","SW_E_M_A4","","","","null","","","","","",""
"null","is convincing","","html-keyboard-response","268","970819","0.0-17.0-2.14","75748","ListA","man","english","SW_E_M_A4","","","","null","","","","","",""
"9304.70000000298","","","survey-text","269","980125","0.0-17.0-3.14","75748","ListA","man","english","SW_E_M_A4","","","","","{""Q0"":""fredis convincingbeth""}","<img src='gifs/ChineseGender2b.gif' style='height:400px;''></img>","convincing","is convincing","english",""
"null","<div style=""font-size:60px;"">+</div>","","html-keyboard-response","270","980632","0.0-17.0-0.15","75748","ListA","man","english","SW_E_M_A4","","","","null","","","","","",""
"null","<img src='gifs/ChineseGender4b.gif' style='height:400px;''></img>","","html-keyboard-response","271","982633","0.0-17.0-1.15","75748","ListA","man","english","SW_E_M_A4","","","","null","","","","","",""
"null","is facing","","html-keyboard-response","272","985634","0.0-17.0-2.15","75748","ListA","man","english","SW_E_M_A4","","","","null","","","","","",""
"4995.39999999851","","","survey-text","273","990630","0.0-17.0-3.15","75748","ListA","man","english","SW_E_M_A4","","","","","{""Q0"":""kateis facingmike""}","<img src='gifs/ChineseGender4b.gif' style='height:400px;''></img>","facing","is facing","english",""
"null","<div style=""font-size:60px;"">+</div>","","html-keyboard-response","274","991140","0.0-17.0-0.16","75748","ListA","man","english","SW_E_M_A4","","","","null","","","","","",""
"null","<img src='gifs/ChineseGender4b.gif' style='height:400px;''></img>","","html-keyboard-response","275","993141","0.0-17.0-1.16","75748","ListA","man","english","SW_E_M_A4","","","","null","","","","","",""
"null","is facing","","html-keyboard-response","276","996142","0.0-17.0-2.16","75748","ListA","man","english","SW_E_M_A4","","","","null","","","","","",""
"5479.19999999553","","","survey-text","277","1001622","0.0-17.0-3.16","75748","ListA","man","english","SW_E_M_A4","","","","","{""Q0"":""kateis facingmike""}","<img src='gifs/ChineseGender4b.gif' style='height:400px;''></img>","facing","is facing","english",""
"null","<div style=""font-size:60px;"">+</div>","","html-keyboard-response","278","1002124","0.0-17.0-0.17","75748","ListA","man","english","SW_E_M_A4","","","","null","","","","","",""
"null","<img src='gifs/MaleRace2b.gif' style='height:400px;''></img>","","html-keyboard-response","279","1004125","0.0-17.0-1.17","75748","ListA","man","english","SW_E_M_A4","","","","null","","","","","",""
"null","is approaching","","html-keyboard-response","280","1007126","0.0-17.0-2.17","75748","ListA","man","english","SW_E_M_A4","","","","null","","","","","",""
"6677.39999999851","","","survey-text","281","1013804","0.0-17.0-3.17","75748","ListA","man","english","SW_E_M_A4","","","","","{""Q0"":""fredis approachingdave""}","<img src='gifs/MaleRace2b.gif' style='height:400px;''></img>","approaching","is approaching","english",""
"14513","<p>Thank you for completing that task.</p><p>The final part of this session is a short questionnaire.</p><p>Press Continue.</p>","0","html-button-response","282","1028318","0.0-18.0","75748","ListA","man","english","SW_E_M_A4","","","","","","","","","",""
"275580.1000000015","","","survey-text","283","1304901","0.0-19.0","75748","ListA","man","english","SW_E_M_A4","","","","","{""Q0"":""21 years old"",""Q1"":""Chinese"",""Q2"":""English"",""Q3"":""America"",""Q4"":""China"",""Q5"":""English"",""Q6"":""man""}","","","","","demographics"
"42179.79999999702","","","external-html","284","1347748","0.0-20.0","75748","ListA","man","english","SW_E_M_A4","debrief.html","","","","","","","","",""
"15127.10000000149","","","survey-text","285","1362877","0.0-21.0","75748","ListA","man","english","SW_E_M_A4","","","","","{""ptpt_id"":""SW_E_M_A4""}","","","","","worker_id"
