"rt","stimulus","button_pressed","trial_type","trial_index","time_elapsed","internal_node_id","subject","list","ppt_gender","ppt_language","url","first_guess","correct","key_press","responses","image","verb","phrase","condition","test_part"
"1028.800000011921","Welcome to the experiment. Press Continue to begin.","0","html-button-response","0","1031","0.0-0.0","76693","ListB","woman","english","","","","","","","","","",""
"245708.90000000596","","","external-html","1","247781","0.0-1.0","76693","ListB","woman","english","consent.html","","","","","","","","",""
"27781.29999998212","<p>On the next page, you will see portraits of 8 people and their names.</p><p>Your first task is to take a few minutes to memorise the names of these people.</p><p>You will have to recall their names during the rest of the experiment, so it is</p><p>essential that you try to memorise these people and their names as best as you can.</p><p><strong>You will then be tested on your memory of these names and portraits.</strong></p><p>The experiment will start after you have completed this memory test.</p><p>Ready?</p>","0","html-button-response","2","275563","0.0-2.0","76693","ListB","woman","english","","","","","","","","","",""
"356967","<img src='img/portrait_matrix_listB.jpg' style='width:900px;height:500px;''></img><p>If you have memorised all the portraits and names and are ready to start, press Continue.</p><p><strong>Please note: Your memory of these faces will be tested 5 times during this experiment.</strong></p>","0","html-button-response","3","633528","0.0-3.0-0.0","76693","ListB","woman","english","","","","","","","","","",""
"8524.59999999404","<img src=""portrait/WW1.jpg""style=""height:400px;""></img>","1","html-button-response","4","643062","0.0-3.0-1.0","76693","ListB","woman","english","","true","1","","","","","","",""
"null","CORRECT","","html-keyboard-response","5","644581","0.0-3.0-2.0-0.0","76693","ListB","woman","english","","","","null","","","","","",""
"12929.40000000596","<img src=""portrait/BM1.jpg""style=""height:400px;""></img>","4","html-button-response","6","657512","0.0-3.0-4.0","76693","ListB","woman","english","","true","4","","","","","","",""
"null","CORRECT","","html-keyboard-response","7","659023","0.0-3.0-5.0-0.0","76693","ListB","woman","english","","","","null","","","","","",""
"2870.800000011921","<img src=""portrait/BM2.jpg""style=""height:400px;""></img>","5","html-button-response","8","661895","0.0-3.0-7.0","76693","ListB","woman","english","","true","5","","","","","","",""
"null","CORRECT","","html-keyboard-response","9","663411","0.0-3.0-8.0-0.0","76693","ListB","woman","english","","","","null","","","","","",""
"3049.5999999940395","<img src=""portrait/WM2.jpg""style=""height:400px;""></img>","7","html-button-response","10","666462","0.0-3.0-10.0","76693","ListB","woman","english","","true","7","","","","","","",""
"null","CORRECT","","html-keyboard-response","11","667980","0.0-3.0-11.0-0.0","76693","ListB","woman","english","","","","null","","","","","",""
"2780.5999999940395","<img src=""portrait/WW2.jpg""style=""height:400px;""></img>","3","html-button-response","12","670762","0.0-3.0-13.0","76693","ListB","woman","english","","true","3","","","","","","",""
"null","CORRECT","","html-keyboard-response","13","672286","0.0-3.0-14.0-0.0","76693","ListB","woman","english","","","","null","","","","","",""
"3426.300000011921","<img src=""portrait/BW1.jpg""style=""height:400px;""></img>","0","html-button-response","14","675714","0.0-3.0-16.0","76693","ListB","woman","english","","true","0","","","","","","",""
"null","CORRECT","","html-keyboard-response","15","677228","0.0-3.0-17.0-0.0","76693","ListB","woman","english","","","","null","","","","","",""
"2648.100000023842","<img src=""portrait/BW2.jpg""style=""height:400px;""></img>","2","html-button-response","16","679878","0.0-3.0-19.0","76693","ListB","woman","english","","true","2","","","","","","",""
"null","CORRECT","","html-keyboard-response","17","681398","0.0-3.0-20.0-0.0","76693","ListB","woman","english","","","","null","","","","","",""
"2932.4000000059605","<img src=""portrait/WM1.jpg""style=""height:400px;""></img>","6","html-button-response","18","684332","0.0-3.0-22.0","76693","ListB","woman","english","","true","6","","","","","","",""
"null","CORRECT","","html-keyboard-response","19","685843","0.0-3.0-23.0-0.0","76693","ListB","woman","english","","","","null","","","","","",""
"2433.2999999821186","<p>You got 8 out of 8 right first time. Press Continue.</p>","0","html-button-response","20","688278","0.0-3.0-25.0","76693","ListB","woman","english","","","","","","","","","",""
"87496.19999998808","<p>In this experiment, you will view photographs of the people from the memory game.</p><p>By using the <strong>exact</strong> phrase given <i>after</i> the photograph appears and recalling the correct names of the people in the photographs, form a sentence describing an interaction. You do not need to capitalise names.</p><p>Type your answer in the space provided. Please complete every sentence before moving onto the next trial.</p><p>You will only have a few seconds to memorise each given photograph and phrase before you can respond, so try your best to focus.</p><p>An example is given below. Press 'Continue' when you are ready.</p><img src='img/speaking_example.jpg' style='width:800px;height:460px;''></img>","0","html-button-response","21","776778","0.0-4.0","76693","ListB","woman","english","","","","","","","","","",""
"2795.699999988079","<p>Before the experiment starts, you will watch two example trials. Press 'Continue'.</p>","0","html-button-response","22","780579","0.0-5.0","76693","ListB","woman","english","","","","","","","","","",""
"null","<img src='img/meet.gif' style='height:400px;''></img>","","html-keyboard-response","23","783590","0.0-6.0","76693","ListB","woman","english","","","","null","","","","","",""
"null","<p>is meeting</p>","","html-keyboard-response","24","785603","0.0-7.0","76693","ListB","woman","english","","","","null","","","","","",""
"7125.5999999940395","<p><b>Answer:</b> jane is meeting ruth</p>","0","html-button-response","25","792729","0.0-8.0","76693","ListB","woman","english","","","","","","","","","",""
"null","<img src='img/spy.gif' style='height:400px;''></img>","","html-keyboard-response","26","795744","0.0-9.0","76693","ListB","woman","english","","","","null","","","","","",""
"null","<p>is being spied on by</p>","","html-keyboard-response","27","797750","0.0-10.0","76693","ListB","woman","english","","","","null","","","","","",""
"8042.800000011921","<p><b>Answer:</b> fred is being spied on by mike</p>","0","html-button-response","28","805794","0.0-11.0","76693","ListB","woman","english","","","","","","","","","",""
"22727.20000001788","<p>Ready to start the experiment?</p><br><p><strong>Remember to describe the picture using a full sentence,</strong></p><p><strong>that combines the names of the people with the <i>exact</i> phrase given.</strong></p><p><strong>To receive full payment you must do this correctly.</strong></p><p><strong> You do not need to capitalise names or use punctuation.</strong></p><br><p>Press 'Continue' to begin.</p>","0","html-button-response","29","829528","0.0-12.0","76693","ListB","woman","english","","","","","","","","","",""
"null","<div style=""font-size:60px;"">+</div>","","html-keyboard-response","30","831041","0.0-13.0-0.0","76693","ListB","woman","english","","","","null","","","","","",""
"null","<img src='gifs/FemaleRace3a.gif' style='height:400px;''></img>","","html-keyboard-response","31","832972","0.0-13.0-1.0","76693","ListB","woman","english","","","","null","","","","","",""
"null","is accompanying","","html-keyboard-response","32","835979","0.0-13.0-2.0","76693","ListB","woman","english","","","","null","","","","","",""
"21437.09999999404","","","survey-text","33","857418","0.0-13.0-3.0","76693","ListB","woman","english","","","","","{""Q0"":""ruth is accompanying with beth""}","<img src='gifs/FemaleRace3a.gif' style='height:400px;''></img>","accompanying","is accompanying","english",""
"null","<div style=""font-size:60px;"">+</div>","","html-keyboard-response","34","857933","0.0-13.0-0.1","76693","ListB","woman","english","","","","null","","","","","",""
"null","<img src='gifs/FemaleRace3a.gif' style='height:400px;''></img>","","html-keyboard-response","35","859939","0.0-13.0-1.1","76693","ListB","woman","english","","","","null","","","","","",""
"null","is praising","","html-keyboard-response","36","862944","0.0-13.0-2.1","76693","ListB","woman","english","","","","null","","","","","",""
"18722.90000000596","","","survey-text","37","881668","0.0-13.0-3.1","76693","ListB","woman","english","","","","","{""Q0"":""ruth is near beth""}","<img src='gifs/FemaleRace3a.gif' style='height:400px;''></img>","praising","is praising","english",""
"null","<div style=""font-size:60px;"">+</div>","","html-keyboard-response","38","882179","0.0-13.0-0.2","76693","ListB","woman","english","","","","null","","","","","",""
"null","<img src='gifs/MaleRace3b.gif' style='height:400px;''></img>","","html-keyboard-response","39","884186","0.0-13.0-1.2","76693","ListB","woman","english","","","","null","","","","","",""
"null","is introducing","","html-keyboard-response","40","887195","0.0-13.0-2.2","76693","ListB","woman","english","","","","null","","","","","",""
"10537.90000000596","","","survey-text","41","897734","0.0-13.0-3.2","76693","ListB","woman","english","","","","","{""Q0"":""dave is near the mike""}","<img src='gifs/MaleRace3b.gif' style='height:400px;''></img>","introducing","is introducing","english",""
"null","<div style=""font-size:60px;"">+</div>","","html-keyboard-response","42","898242","0.0-13.0-0.3","76693","ListB","woman","english","","","","null","","","","","",""
"null","<img src='gifs/MaleRace3a.gif' style='height:400px;''></img>","","html-keyboard-response","43","900248","0.0-13.0-1.3","76693","ListB","woman","english","","","","null","","","","","",""
"null","is listening to","","html-keyboard-response","44","903252","0.0-13.0-2.3","76693","ListB","woman","english","","","","null","","","","","",""
"17012.40000000596","","","survey-text","45","920267","0.0-13.0-3.3","76693","ListB","woman","english","","","","","{""Q0"":""fred is listening to dave""}","<img src='gifs/MaleRace3a.gif' style='height:400px;''></img>","listening to","is listening to","english",""
"null","<div style=""font-size:60px;"">+</div>","","html-keyboard-response","46","920774","0.0-13.0-0.4","76693","ListB","woman","english","","","","null","","","","","",""
"null","<img src='gifs/FemaleRace4b.gif' style='height:400px;''></img>","","html-keyboard-response","47","922784","0.0-13.0-1.4","76693","ListB","woman","english","","","","null","","","","","",""
"null","is accompanying","","html-keyboard-response","48","925790","0.0-13.0-2.4","76693","ListB","woman","english","","","","null","","","","","",""
"85078.29999998212","","","survey-text","49","1010865","0.0-13.0-3.4","76693","ListB","woman","english","","","","","{""Q0"":""kate is accompanying with ruth""}","<img src='gifs/FemaleRace4b.gif' style='height:400px;''></img>","accompanying","is accompanying","english",""
"null","<div style=""font-size:60px;"">+</div>","","html-keyboard-response","50","1011378","0.0-13.0-0.5","76693","ListB","woman","english","","","","null","","","","","",""
"null","<img src='gifs/ChineseGender1a.gif' style='height:400px;''></img>","","html-keyboard-response","51","1013387","0.0-13.0-1.5","76693","ListB","woman","english","","","","null","","","","","",""
"null","is following","","html-keyboard-response","52","1016391","0.0-13.0-2.5","76693","ListB","woman","english","","","","null","","","","","",""
"24621.40000000596","","","survey-text","53","1041014","0.0-13.0-3.5","76693","ListB","woman","english","","","","","{""Q0"":""jane is following luke""}","<img src='gifs/ChineseGender1a.gif' style='height:400px;''></img>","following","is following","english",""
"null","<div style=""font-size:60px;"">+</div>","","html-keyboard-response","54","1041518","0.0-13.0-0.6","76693","ListB","woman","english","","","","null","","","","","",""
"null","<img src='gifs/FemaleRace3b.gif' style='height:400px;''></img>","","html-keyboard-response","55","1043525","0.0-13.0-1.6","76693","ListB","woman","english","","","","null","","","","","",""
"null","is facing","","html-keyboard-response","56","1046529","0.0-13.0-2.6","76693","ListB","woman","english","","","","null","","","","","",""
"6364.9000000059605","","","survey-text","57","1052896","0.0-13.0-3.6","76693","ListB","woman","english","","","","","{""Q0"":""ruth is facing beth""}","<img src='gifs/FemaleRace3b.gif' style='height:400px;''></img>","facing","is facing","english",""
"null","<div style=""font-size:60px;"">+</div>","","html-keyboard-response","58","1053405","0.0-13.0-0.7","76693","ListB","woman","english","","","","null","","","","","",""
"null","<img src='gifs/MaleRace1a.gif' style='height:400px;''></img>","","html-keyboard-response","59","1055412","0.0-13.0-1.7","76693","ListB","woman","english","","","","null","","","","","",""
"null","is approaching","","html-keyboard-response","60","1058416","0.0-13.0-2.7","76693","ListB","woman","english","","","","null","","","","","",""
"6912.0999999940395","","","survey-text","61","1065330","0.0-13.0-3.7","76693","ListB","woman","english","","","","","{""Q0"":""fred is approaching luke""}","<img src='gifs/MaleRace1a.gif' style='height:400px;''></img>","approaching","is approaching","english",""
"null","<div style=""font-size:60px;"">+</div>","","html-keyboard-response","62","1065840","0.0-13.0-0.8","76693","ListB","woman","english","","","","null","","","","","",""
"null","<img src='gifs/BlackGender2a.gif' style='height:400px;''></img>","","html-keyboard-response","63","1067854","0.0-13.0-1.8","76693","ListB","woman","english","","","","null","","","","","",""
"null","is contacting","","html-keyboard-response","64","1070863","0.0-13.0-2.8","76693","ListB","woman","english","","","","null","","","","","",""
"9813.90000000596","","","survey-text","65","1080679","0.0-13.0-3.8","76693","ListB","woman","english","","","","","{""Q0"":""mike is contacting beth""}","<img src='gifs/BlackGender2a.gif' style='height:400px;''></img>","contacting","is contacting","english",""
"null","<div style=""font-size:60px;"">+</div>","","html-keyboard-response","66","1081190","0.0-13.0-0.9","76693","ListB","woman","english","","","","null","","","","","",""
"null","<img src='gifs/MaleRace2b.gif' style='height:400px;''></img>","","html-keyboard-response","67","1083199","0.0-13.0-1.9","76693","ListB","woman","english","","","","null","","","","","",""
"null","is walking towards","","html-keyboard-response","68","1086206","0.0-13.0-2.9","76693","ListB","woman","english","","","","null","","","","","",""
"9970","","","survey-text","69","1096179","0.0-13.0-3.9","76693","ListB","woman","english","","","","","{""Q0"":""luke is walking towards mike""}","<img src='gifs/MaleRace2b.gif' style='height:400px;''></img>","walking towards","is walking towards","english",""
"null","<div style=""font-size:60px;"">+</div>","","html-keyboard-response","70","1096682","0.0-13.0-0.10","76693","ListB","woman","english","","","","null","","","","","",""
"null","<img src='gifs/BlackGender4b.gif' style='height:400px;''></img>","","html-keyboard-response","71","1098692","0.0-13.0-1.10","76693","ListB","woman","english","","","","null","","","","","",""
"null","is joining","","html-keyboard-response","72","1101700","0.0-13.0-2.10","76693","ListB","woman","english","","","","null","","","","","",""
"9075.90000000596","","","survey-text","73","1110779","0.0-13.0-3.10","76693","ListB","woman","english","","","","","{""Q0"":""kate is joining luke""}","<img src='gifs/BlackGender4b.gif' style='height:400px;''></img>","join","is joining","english",""
"null","<div style=""font-size:60px;"">+</div>","","html-keyboard-response","74","1111284","0.0-13.0-0.11","76693","ListB","woman","english","","","","null","","","","","",""
"null","<img src='gifs/FemaleRace3b.gif' style='height:400px;''></img>","","html-keyboard-response","75","1113289","0.0-13.0-1.11","76693","ListB","woman","english","","","","null","","","","","",""
"null","is joining","","html-keyboard-response","76","1116291","0.0-13.0-2.11","76693","ListB","woman","english","","","","null","","","","","",""
"7302.9000000059605","","","survey-text","77","1123595","0.0-13.0-3.11","76693","ListB","woman","english","","","","","{""Q0"":""beth is joining ruth""}","<img src='gifs/FemaleRace3b.gif' style='height:400px;''></img>","join","is joining","english",""
"null","<div style=""font-size:60px;"">+</div>","","html-keyboard-response","78","1124105","0.0-13.0-0.12","76693","ListB","woman","english","","","","null","","","","","",""
"null","<img src='gifs/BlackGender3b.gif' style='height:400px;''></img>","","html-keyboard-response","79","1126114","0.0-13.0-1.12","76693","ListB","woman","english","","","","null","","","","","",""
"null","is facing","","html-keyboard-response","80","1129121","0.0-13.0-2.12","76693","ListB","woman","english","","","","null","","","","","",""
"8053.5","","","survey-text","81","1137177","0.0-13.0-3.12","76693","ListB","woman","english","","","","","{""Q0"":""kate is facing fred""}","<img src='gifs/BlackGender3b.gif' style='height:400px;''></img>","facing","is facing","english",""
"null","<div style=""font-size:60px;"">+</div>","","html-keyboard-response","82","1137690","0.0-13.0-0.13","76693","ListB","woman","english","","","","null","","","","","",""
"null","<img src='gifs/ChineseGender2b.gif' style='height:400px;''></img>","","html-keyboard-response","83","1139697","0.0-13.0-1.13","76693","ListB","woman","english","","","","null","","","","","",""
"null","is joining","","html-keyboard-response","84","1142706","0.0-13.0-2.13","76693","ListB","woman","english","","","","null","","","","","",""
"5251.4000000059605","","","survey-text","85","1147960","0.0-13.0-3.13","76693","ListB","woman","english","","","","","{""Q0"":""luke is joining ruth""}","<img src='gifs/ChineseGender2b.gif' style='height:400px;''></img>","join","is joining","english",""
"null","<div style=""font-size:60px;"">+</div>","","html-keyboard-response","86","1148464","0.0-13.0-0.14","76693","ListB","woman","english","","","","null","","","","","",""
"null","<img src='gifs/BlackGender2b.gif' style='height:400px;''></img>","","html-keyboard-response","87","1150474","0.0-13.0-1.14","76693","ListB","woman","english","","","","null","","","","","",""
"null","is employing","","html-keyboard-response","88","1153482","0.0-13.0-2.14","76693","ListB","woman","english","","","","null","","","","","",""
"10860.59999999404","","","survey-text","89","1164345","0.0-13.0-3.14","76693","ListB","woman","english","","","","","{""Q0"":""beth is employing mike""}","<img src='gifs/BlackGender2b.gif' style='height:400px;''></img>","employing","is employing","english",""
"null","<div style=""font-size:60px;"">+</div>","","html-keyboard-response","90","1164856","0.0-13.0-0.15","76693","ListB","woman","english","","","","null","","","","","",""
"null","<img src='gifs/ChineseGender4a.gif' style='height:400px;''></img>","","html-keyboard-response","91","1166862","0.0-13.0-1.15","76693","ListB","woman","english","","","","null","","","","","",""
"null","is convincing","","html-keyboard-response","92","1169873","0.0-13.0-2.15","76693","ListB","woman","english","","","","null","","","","","",""
"6917.700000017881","","","survey-text","93","1176794","0.0-13.0-3.15","76693","ListB","woman","english","","","","","{""Q0"":""jane is convincing dave""}","<img src='gifs/ChineseGender4a.gif' style='height:400px;''></img>","convincing","is convincing","english",""
"null","<div style=""font-size:60px;"">+</div>","","html-keyboard-response","94","1177305","0.0-13.0-0.16","76693","ListB","woman","english","","","","null","","","","","",""
"null","<img src='gifs/ChineseGender2a.gif' style='height:400px;''></img>","","html-keyboard-response","95","1179308","0.0-13.0-1.16","76693","ListB","woman","english","","","","null","","","","","",""
"null","is praising","","html-keyboard-response","96","1182321","0.0-13.0-2.16","76693","ListB","woman","english","","","","null","","","","","",""
"7453","","","survey-text","97","1189776","0.0-13.0-3.16","76693","ListB","woman","english","","","","","{""Q0"":""ruth is convincing luke""}","<img src='gifs/ChineseGender2a.gif' style='height:400px;''></img>","praising","is praising","english",""
"null","<div style=""font-size:60px;"">+</div>","","html-keyboard-response","98","1190286","0.0-13.0-0.17","76693","ListB","woman","english","","","","null","","","","","",""
"null","<img src='gifs/BlackGender4a.gif' style='height:400px;''></img>","","html-keyboard-response","99","1192297","0.0-13.0-1.17","76693","ListB","woman","english","","","","null","","","","","",""
"null","is looking at","","html-keyboard-response","100","1195301","0.0-13.0-2.17","76693","ListB","woman","english","","","","null","","","","","",""
"15022.799999982119","","","survey-text","101","1210326","0.0-13.0-3.17","76693","ListB","woman","english","","","","","{""Q0"":""mike is looking at jane""}","<img src='gifs/BlackGender4a.gif' style='height:400px;''></img>","looking at","is looking at","english",""
"100220.90000000596","<img src='img/portrait_matrix_listB.jpg' style='width:900px;height:500px;''></img><p>If you have memorised all the portraits and names and are ready to start, press Continue.</p><p><strong>Please note: Your memory of these faces will be tested 5 times during this experiment.</strong></p>","0","html-button-response","102","1310542","0.0-14.0-0.0","76693","ListB","woman","english","","","","","","","","","",""
"3569.5","<img src=""portrait/BM2.jpg""style=""height:400px;""></img>","5","html-button-response","103","1315125","0.0-14.0-1.0","76693","ListB","woman","english","","true","5","","","","","","",""
"null","CORRECT","","html-keyboard-response","104","1316639","0.0-14.0-2.0-0.0","76693","ListB","woman","english","","","","null","","","","","",""
"3783.5999999940395","<img src=""portrait/WW1.jpg""style=""height:400px;""></img>","1","html-button-response","105","1320424","0.0-14.0-4.0","76693","ListB","woman","english","","true","1","","","","","","",""
"null","CORRECT","","html-keyboard-response","106","1321940","0.0-14.0-5.0-0.0","76693","ListB","woman","english","","","","null","","","","","",""
"4181.899999976158","<img src=""portrait/BW2.jpg""style=""height:400px;""></img>","2","html-button-response","107","1326123","0.0-14.0-7.0","76693","ListB","woman","english","","true","2","","","","","","",""
"null","CORRECT","","html-keyboard-response","108","1327648","0.0-14.0-8.0-0.0","76693","ListB","woman","english","","","","null","","","","","",""
"2726.699999988079","<img src=""portrait/WM1.jpg""style=""height:400px;""></img>","6","html-button-response","109","1330376","0.0-14.0-10.0","76693","ListB","woman","english","","true","6","","","","","","",""
"null","CORRECT","","html-keyboard-response","110","1331885","0.0-14.0-11.0-0.0","76693","ListB","woman","english","","","","null","","","","","",""
"1554","<img src=""portrait/WW2.jpg""style=""height:400px;""></img>","3","html-button-response","111","1333441","0.0-14.0-13.0","76693","ListB","woman","english","","true","3","","","","","","",""
"null","CORRECT","","html-keyboard-response","112","1334956","0.0-14.0-14.0-0.0","76693","ListB","woman","english","","","","null","","","","","",""
"13149.59999999404","<img src=""portrait/WM2.jpg""style=""height:400px;""></img>","7","html-button-response","113","1348108","0.0-14.0-16.0","76693","ListB","woman","english","","true","7","","","","","","",""
"null","CORRECT","","html-keyboard-response","114","1349626","0.0-14.0-17.0-0.0","76693","ListB","woman","english","","","","null","","","","","",""
"9045.5","<img src=""portrait/BM1.jpg""style=""height:400px;""></img>","4","html-button-response","115","1358673","0.0-14.0-19.0","76693","ListB","woman","english","","true","4","","","","","","",""
"null","CORRECT","","html-keyboard-response","116","1360190","0.0-14.0-20.0-0.0","76693","ListB","woman","english","","","","null","","","","","",""
"2780.5","<img src=""portrait/BW1.jpg""style=""height:400px;""></img>","0","html-button-response","117","1362973","0.0-14.0-22.0","76693","ListB","woman","english","","true","0","","","","","","",""
"null","CORRECT","","html-keyboard-response","118","1364490","0.0-14.0-23.0-0.0","76693","ListB","woman","english","","","","null","","","","","",""
"2031.5999999940395","<p>You got 8 out of 8 right first time. Press Continue.</p>","0","html-button-response","119","1366523","0.0-14.0-25.0","76693","ListB","woman","english","","","","","","","","","",""
"null","<div style=""font-size:60px;"">+</div>","","html-keyboard-response","120","1368033","0.0-15.0-0.0","76693","ListB","woman","english","","","","null","","","","","",""
"null","<img src='gifs/BlackGender2b.gif' style='height:400px;''></img>","","html-keyboard-response","121","1370041","0.0-15.0-1.0","76693","ListB","woman","english","","","","null","","","","","",""
"null","is facing","","html-keyboard-response","122","1373048","0.0-15.0-2.0","76693","ListB","woman","english","","","","null","","","","","",""
"4936.9000000059605","","","survey-text","123","1377988","0.0-15.0-3.0","76693","ListB","woman","english","","","","","{""Q0"":""beth is facing mike""}","<img src='gifs/BlackGender2b.gif' style='height:400px;''></img>","facing","is facing","english",""
"null","<div style=""font-size:60px;"">+</div>","","html-keyboard-response","124","1378500","0.0-15.0-0.1","76693","ListB","woman","english","","","","null","","","","","",""
"null","<img src='gifs/ChineseGender2a.gif' style='height:400px;''></img>","","html-keyboard-response","125","1380505","0.0-15.0-1.1","76693","ListB","woman","english","","","","null","","","","","",""
"null","is listening to","","html-keyboard-response","126","1383508","0.0-15.0-2.1","76693","ListB","woman","english","","","","null","","","","","",""
"25112.40000000596","","","survey-text","127","1408621","0.0-15.0-3.1","76693","ListB","woman","english","","","","","{""Q0"":""ruth is listening to luke""}","<img src='gifs/ChineseGender2a.gif' style='height:400px;''></img>","listening to","is listening to","english",""
"null","<div style=""font-size:60px;"">+</div>","","html-keyboard-response","128","1409127","0.0-15.0-0.2","76693","ListB","woman","english","","","","null","","","","","",""
"null","<img src='gifs/MaleRace1a.gif' style='height:400px;''></img>","","html-keyboard-response","129","1411138","0.0-15.0-1.2","76693","ListB","woman","english","","","","null","","","","","",""
"null","is promising","","html-keyboard-response","130","1414146","0.0-15.0-2.2","76693","ListB","woman","english","","","","null","","","","","",""
"12422","","","survey-text","131","1426570","0.0-15.0-3.2","76693","ListB","woman","english","","","","","{""Q0"":""fred is promising luke""}","<img src='gifs/MaleRace1a.gif' style='height:400px;''></img>","promising","is promising","english",""
"null","<div style=""font-size:60px;"">+</div>","","html-keyboard-response","132","1427081","0.0-15.0-0.3","76693","ListB","woman","english","","","","null","","","","","",""
"null","<img src='gifs/BlackGender2a.gif' style='height:400px;''></img>","","html-keyboard-response","133","1429089","0.0-15.0-1.3","76693","ListB","woman","english","","","","null","","","","","",""
"null","is accompanying","","html-keyboard-response","134","1432098","0.0-15.0-2.3","76693","ListB","woman","english","","","","null","","","","","",""
"16719.90000000596","","","survey-text","135","1448820","0.0-15.0-3.3","76693","ListB","woman","english","","","","","{""Q0"":""mike is accompanying beth""}","<img src='gifs/BlackGender2a.gif' style='height:400px;''></img>","accompanying","is accompanying","english",""
"null","<div style=""font-size:60px;"">+</div>","","html-keyboard-response","136","1449329","0.0-15.0-0.4","76693","ListB","woman","english","","","","null","","","","","",""
"null","<img src='gifs/ChineseGender1b.gif' style='height:400px;''></img>","","html-keyboard-response","137","1451337","0.0-15.0-1.4","76693","ListB","woman","english","","","","null","","","","","",""
"null","is convincing","","html-keyboard-response","138","1454339","0.0-15.0-2.4","76693","ListB","woman","english","","","","null","","","","","",""
"6094.4000000059605","","","survey-text","139","1460436","0.0-15.0-3.4","76693","ListB","woman","english","","","","","{""Q0"":""luke is convincing jane""}","<img src='gifs/ChineseGender1b.gif' style='height:400px;''></img>","convincing","is convincing","english",""
"null","<div style=""font-size:60px;"">+</div>","","html-keyboard-response","140","1460943","0.0-15.0-0.5","76693","ListB","woman","english","","","","null","","","","","",""
"null","<img src='gifs/MaleRace1b.gif' style='height:400px;''></img>","","html-keyboard-response","141","1462948","0.0-15.0-1.5","76693","ListB","woman","english","","","","null","","","","","",""
"null","is walking towards","","html-keyboard-response","142","1465960","0.0-15.0-2.5","76693","ListB","woman","english","","","","null","","","","","",""
"11157.5","","","survey-text","143","1477119","0.0-15.0-3.5","76693","ListB","woman","english","","","","","{""Q0"":""luke is walking towards fred""}","<img src='gifs/MaleRace1b.gif' style='height:400px;''></img>","walking towards","is walking towards","english",""
"null","<div style=""font-size:60px;"">+</div>","","html-keyboard-response","144","1477629","0.0-15.0-0.6","76693","ListB","woman","english","","","","null","","","","","",""
"null","<img src='gifs/FemaleRace1b.gif' style='height:400px;''></img>","","html-keyboard-response","145","1479639","0.0-15.0-1.6","76693","ListB","woman","english","","","","null","","","","","",""
"null","is approaching","","html-keyboard-response","146","1482646","0.0-15.0-2.6","76693","ListB","woman","english","","","","null","","","","","",""
"6654.5","","","survey-text","147","1489302","0.0-15.0-3.6","76693","ListB","woman","english","","","","","{""Q0"":""beth is approaching jane""}","<img src='gifs/FemaleRace1b.gif' style='height:400px;''></img>","approaching","is approaching","english",""
"null","<div style=""font-size:60px;"">+</div>","","html-keyboard-response","148","1489810","0.0-15.0-0.7","76693","ListB","woman","english","","","","null","","","","","",""
"null","<img src='gifs/BlackGender1a.gif' style='height:400px;''></img>","","html-keyboard-response","149","1491823","0.0-15.0-1.7","76693","ListB","woman","english","","","","null","","","","","",""
"null","is looking at","","html-keyboard-response","150","1494831","0.0-15.0-2.7","76693","ListB","woman","english","","","","null","","","","","",""
"7384.799999982119","","","survey-text","151","1502218","0.0-15.0-3.7","76693","ListB","woman","english","","","","","{""Q0"":""fred is looking at beth""}","<img src='gifs/BlackGender1a.gif' style='height:400px;''></img>","looking at","is looking at","english",""
"null","<div style=""font-size:60px;"">+</div>","","html-keyboard-response","152","1502721","0.0-15.0-0.8","76693","ListB","woman","english","","","","null","","","","","",""
"null","<img src='gifs/ChineseGender2b.gif' style='height:400px;''></img>","","html-keyboard-response","153","1504733","0.0-15.0-1.8","76693","ListB","woman","english","","","","null","","","","","",""
"null","is employing","","html-keyboard-response","154","1507739","0.0-15.0-2.8","76693","ListB","woman","english","","","","null","","","","","",""
"12593.699999988079","","","survey-text","155","1520335","0.0-15.0-3.8","76693","ListB","woman","english","","","","","{""Q0"":""luke is employing ruth""}","<img src='gifs/ChineseGender2b.gif' style='height:400px;''></img>","employing","is employing","english",""
"null","<div style=""font-size:60px;"">+</div>","","html-keyboard-response","156","1520840","0.0-15.0-0.9","76693","ListB","woman","english","","","","null","","","","","",""
"null","<img src='gifs/FemaleRace1a.gif' style='height:400px;''></img>","","html-keyboard-response","157","1522852","0.0-15.0-1.9","76693","ListB","woman","english","","","","null","","","","","",""
"null","is employing","","html-keyboard-response","158","1525857","0.0-15.0-2.9","76693","ListB","woman","english","","","","null","","","","","",""
"9258.199999988079","","","survey-text","159","1535117","0.0-15.0-3.9","76693","ListB","woman","english","","","","","{""Q0"":""jane is employing beth""}","<img src='gifs/FemaleRace1a.gif' style='height:400px;''></img>","employing","is employing","english",""
"null","<div style=""font-size:60px;"">+</div>","","html-keyboard-response","160","1535628","0.0-15.0-0.10","76693","ListB","woman","english","","","","null","","","","","",""
"null","<img src='gifs/MaleRace2b.gif' style='height:400px;''></img>","","html-keyboard-response","161","1537633","0.0-15.0-1.10","76693","ListB","woman","english","","","","null","","","","","",""
"null","is facing","","html-keyboard-response","162","1540640","0.0-15.0-2.10","76693","ListB","woman","english","","","","null","","","","","",""
"5609.600000023842","","","survey-text","163","1546251","0.0-15.0-3.10","76693","ListB","woman","english","","","","","{""Q0"":""luke is facing mike""}","<img src='gifs/MaleRace2b.gif' style='height:400px;''></img>","facing","is facing","english",""
"null","<div style=""font-size:60px;"">+</div>","","html-keyboard-response","164","1546760","0.0-15.0-0.11","76693","ListB","woman","english","","","","null","","","","","",""
"null","<img src='gifs/BlackGender1b.gif' style='height:400px;''></img>","","html-keyboard-response","165","1548769","0.0-15.0-1.11","76693","ListB","woman","english","","","","null","","","","","",""
"null","is approaching","","html-keyboard-response","166","1551775","0.0-15.0-2.11","76693","ListB","woman","english","","","","null","","","","","",""
"12389.5","","","survey-text","167","1564167","0.0-15.0-3.11","76693","ListB","woman","english","","","","","{""Q0"":""beth is approaching fred""}","<img src='gifs/BlackGender1b.gif' style='height:400px;''></img>","approaching","is approaching","english",""
"null","<div style=""font-size:60px;"">+</div>","","html-keyboard-response","168","1564671","0.0-15.0-0.12","76693","ListB","woman","english","","","","null","","","","","",""
"null","<img src='gifs/FemaleRace2b.gif' style='height:400px;''></img>","","html-keyboard-response","169","1566681","0.0-15.0-1.12","76693","ListB","woman","english","","","","null","","","","","",""
"null","is promising","","html-keyboard-response","170","1569690","0.0-15.0-2.12","76693","ListB","woman","english","","","","null","","","","","",""
"6056.699999988079","","","survey-text","171","1575750","0.0-15.0-3.12","76693","ListB","woman","english","","","","","{""Q0"":""kate is promising jane""}","<img src='gifs/FemaleRace2b.gif' style='height:400px;''></img>","promising","is promising","english",""
"null","<div style=""font-size:60px;"">+</div>","","html-keyboard-response","172","1576255","0.0-15.0-0.13","76693","ListB","woman","english","","","","null","","","","","",""
"null","<img src='gifs/ChineseGender4b.gif' style='height:400px;''></img>","","html-keyboard-response","173","1578261","0.0-15.0-1.13","76693","ListB","woman","english","","","","null","","","","","",""
"null","is promising","","html-keyboard-response","174","1581271","0.0-15.0-2.13","76693","ListB","woman","english","","","","null","","","","","",""
"5009.100000023842","","","survey-text","175","1586282","0.0-15.0-3.13","76693","ListB","woman","english","","","","","{""Q0"":""dave is promising jane""}","<img src='gifs/ChineseGender4b.gif' style='height:400px;''></img>","promising","is promising","english",""
"null","<div style=""font-size:60px;"">+</div>","","html-keyboard-response","176","1586790","0.0-15.0-0.14","76693","ListB","woman","english","","","","null","","","","","",""
"null","<img src='gifs/ChineseGender4b.gif' style='height:400px;''></img>","","html-keyboard-response","177","1588797","0.0-15.0-1.14","76693","ListB","woman","english","","","","null","","","","","",""
"null","is walking towards","","html-keyboard-response","178","1591809","0.0-15.0-2.14","76693","ListB","woman","english","","","","null","","","","","",""
"7487.399999976158","","","survey-text","179","1599299","0.0-15.0-3.14","76693","ListB","woman","english","","","","","{""Q0"":""dave is walking towards jane""}","<img src='gifs/ChineseGender4b.gif' style='height:400px;''></img>","walking towards","is walking towards","english",""
"null","<div style=""font-size:60px;"">+</div>","","html-keyboard-response","180","1599805","0.0-15.0-0.15","76693","ListB","woman","english","","","","null","","","","","",""
"null","<img src='gifs/BlackGender1b.gif' style='height:400px;''></img>","","html-keyboard-response","181","1601812","0.0-15.0-1.15","76693","ListB","woman","english","","","","null","","","","","",""
"null","is contacting","","html-keyboard-response","182","1604823","0.0-15.0-2.15","76693","ListB","woman","english","","","","null","","","","","",""
"6923.800000011921","","","survey-text","183","1611749","0.0-15.0-3.15","76693","ListB","woman","english","","","","","{""Q0"":""beth is contecting fred""}","<img src='gifs/BlackGender1b.gif' style='height:400px;''></img>","contacting","is contacting","english",""
"null","<div style=""font-size:60px;"">+</div>","","html-keyboard-response","184","1612255","0.0-15.0-0.16","76693","ListB","woman","english","","","","null","","","","","",""
"null","<img src='gifs/BlackGender3a.gif' style='height:400px;''></img>","","html-keyboard-response","185","1614260","0.0-15.0-1.16","76693","ListB","woman","english","","","","null","","","","","",""
"null","is walking towards","","html-keyboard-response","186","1617269","0.0-15.0-2.16","76693","ListB","woman","english","","","","null","","","","","",""
"11410.399999976158","","","survey-text","187","1628682","0.0-15.0-3.16","76693","ListB","woman","english","","","","","{""Q0"":""fred is walking towards kate""}","<img src='gifs/BlackGender3a.gif' style='height:400px;''></img>","walking towards","is walking towards","english",""
"null","<div style=""font-size:60px;"">+</div>","","html-keyboard-response","188","1629187","0.0-15.0-0.17","76693","ListB","woman","english","","","","null","","","","","",""
"null","<img src='gifs/FemaleRace2a.gif' style='height:400px;''></img>","","html-keyboard-response","189","1631194","0.0-15.0-1.17","76693","ListB","woman","english","","","","null","","","","","",""
"null","is approaching","","html-keyboard-response","190","1634204","0.0-15.0-2.17","76693","ListB","woman","english","","","","null","","","","","",""
"4958","","","survey-text","191","1639165","0.0-15.0-3.17","76693","ListB","woman","english","","","","","{""Q0"":""jane is approaching kate""}","<img src='gifs/FemaleRace2a.gif' style='height:400px;''></img>","approaching","is approaching","english",""
"2400.5","<img src='img/portrait_matrix_listB.jpg' style='width:900px;height:500px;''></img><p>If you have memorised all the portraits and names and are ready to start, press Continue.</p><p><strong>Please note: Your memory of these faces will be tested 5 times during this experiment.</strong></p>","0","html-button-response","192","1641566","0.0-16.0-0.0","76693","ListB","woman","english","","","","","","","","","",""
"2995.800000011921","<img src=""portrait/BM1.jpg""style=""height:400px;""></img>","4","html-button-response","193","1645567","0.0-16.0-1.0","76693","ListB","woman","english","","true","4","","","","","","",""
"null","CORRECT","","html-keyboard-response","194","1647077","0.0-16.0-2.0-0.0","76693","ListB","woman","english","","","","null","","","","","",""
"5403.5999999940395","<img src=""portrait/BW2.jpg""style=""height:400px;""></img>","2","html-button-response","195","1652483","0.0-16.0-4.0","76693","ListB","woman","english","","true","2","","","","","","",""
"null","CORRECT","","html-keyboard-response","196","1654003","0.0-16.0-5.0-0.0","76693","ListB","woman","english","","","","null","","","","","",""
"1209.8999999761581","<img src=""portrait/WW2.jpg""style=""height:400px;""></img>","3","html-button-response","197","1655216","0.0-16.0-7.0","76693","ListB","woman","english","","true","3","","","","","","",""
"null","CORRECT","","html-keyboard-response","198","1656739","0.0-16.0-8.0-0.0","76693","ListB","woman","english","","","","null","","","","","",""
"5007.399999976158","<img src=""portrait/BW1.jpg""style=""height:400px;""></img>","0","html-button-response","199","1661748","0.0-16.0-10.0","76693","ListB","woman","english","","true","0","","","","","","",""
"null","CORRECT","","html-keyboard-response","200","1663260","0.0-16.0-11.0-0.0","76693","ListB","woman","english","","","","null","","","","","",""
"2570.300000011921","<img src=""portrait/BM2.jpg""style=""height:400px;""></img>","5","html-button-response","201","1665832","0.0-16.0-13.0","76693","ListB","woman","english","","true","5","","","","","","",""
"null","CORRECT","","html-keyboard-response","202","1667345","0.0-16.0-14.0-0.0","76693","ListB","woman","english","","","","null","","","","","",""
"6001.899999976158","<img src=""portrait/WM2.jpg""style=""height:400px;""></img>","7","html-button-response","203","1673349","0.0-16.0-16.0","76693","ListB","woman","english","","true","7","","","","","","",""
"null","CORRECT","","html-keyboard-response","204","1674859","0.0-16.0-17.0-0.0","76693","ListB","woman","english","","","","null","","","","","",""
"3338.7000000178814","<img src=""portrait/WM1.jpg""style=""height:400px;""></img>","6","html-button-response","205","1678200","0.0-16.0-19.0","76693","ListB","woman","english","","true","6","","","","","","",""
"null","CORRECT","","html-keyboard-response","206","1679713","0.0-16.0-20.0-0.0","76693","ListB","woman","english","","","","null","","","","","",""
"12568","<img src=""portrait/WW1.jpg""style=""height:400px;""></img>","1","html-button-response","207","1692282","0.0-16.0-22.0","76693","ListB","woman","english","","true","1","","","","","","",""
"null","CORRECT","","html-keyboard-response","208","1693792","0.0-16.0-23.0-0.0","76693","ListB","woman","english","","","","null","","","","","",""
"1203","<p>You got 8 out of 8 right first time. Press Continue.</p>","0","html-button-response","209","1694998","0.0-16.0-25.0","76693","ListB","woman","english","","","","","","","","","",""
"null","<div style=""font-size:60px;"">+</div>","","html-keyboard-response","210","1696519","0.0-17.0-0.0","76693","ListB","woman","english","","","","null","","","","","",""
"null","<img src='gifs/MaleRace4b.gif' style='height:400px;''></img>","","html-keyboard-response","211","1698527","0.0-17.0-1.0","76693","ListB","woman","english","","","","null","","","","","",""
"null","is praising","","html-keyboard-response","212","1701537","0.0-17.0-2.0","76693","ListB","woman","english","","","","null","","","","","",""
"4806.200000017881","","","survey-text","213","1706346","0.0-17.0-3.0","76693","ListB","woman","english","","","","","{""Q0"":""dave is praising mike""}","<img src='gifs/MaleRace4b.gif' style='height:400px;''></img>","praising","is praising","english",""
"null","<div style=""font-size:60px;"">+</div>","","html-keyboard-response","214","1706856","0.0-17.0-0.1","76693","ListB","woman","english","","","","null","","","","","",""
"null","<img src='gifs/MaleRace3b.gif' style='height:400px;''></img>","","html-keyboard-response","215","1708861","0.0-17.0-1.1","76693","ListB","woman","english","","","","null","","","","","",""
"null","is introducing","","html-keyboard-response","216","1711865","0.0-17.0-2.1","76693","ListB","woman","english","","","","null","","","","","",""
"6661.5999999940395","","","survey-text","217","1718529","0.0-17.0-3.1","76693","ListB","woman","english","","","","","{""Q0"":""dave is introducing fred""}","<img src='gifs/MaleRace3b.gif' style='height:400px;''></img>","introducing","is introducing","english",""
"null","<div style=""font-size:60px;"">+</div>","","html-keyboard-response","218","1719037","0.0-17.0-0.2","76693","ListB","woman","english","","","","null","","","","","",""
"null","<img src='gifs/FemaleRace4a.gif' style='height:400px;''></img>","","html-keyboard-response","219","1721045","0.0-17.0-1.2","76693","ListB","woman","english","","","","null","","","","","",""
"null","is looking at","","html-keyboard-response","220","1724052","0.0-17.0-2.2","76693","ListB","woman","english","","","","null","","","","","",""
"4590.5","","","survey-text","221","1728646","0.0-17.0-3.2","76693","ListB","woman","english","","","","","{""Q0"":""ruth is looking at kate""}","<img src='gifs/FemaleRace4a.gif' style='height:400px;''></img>","looking at","is looking at","english",""
"null","<div style=""font-size:60px;"">+</div>","","html-keyboard-response","222","1729151","0.0-17.0-0.3","76693","ListB","woman","english","","","","null","","","","","",""
"null","<img src='gifs/BlackGender4a.gif' style='height:400px;''></img>","","html-keyboard-response","223","1731158","0.0-17.0-1.3","76693","ListB","woman","english","","","","null","","","","","",""
"null","is introducing","","html-keyboard-response","224","1734165","0.0-17.0-2.3","76693","ListB","woman","english","","","","null","","","","","",""
"5328.600000023842","","","survey-text","225","1739550","0.0-17.0-3.3","76693","ListB","woman","english","","","","","{""Q0"":""mike is introducing kate""}","<img src='gifs/BlackGender4a.gif' style='height:400px;''></img>","introducing","is introducing","english",""
"null","<div style=""font-size:60px;"">+</div>","","html-keyboard-response","226","1740062","0.0-17.0-0.4","76693","ListB","woman","english","","","","null","","","","","",""
"null","<img src='gifs/ChineseGender4a.gif' style='height:400px;''></img>","","html-keyboard-response","227","1742070","0.0-17.0-1.4","76693","ListB","woman","english","","","","null","","","","","",""
"null","is contacting","","html-keyboard-response","228","1745075","0.0-17.0-2.4","76693","ListB","woman","english","","","","null","","","","","",""
"6189.299999982119","","","survey-text","229","1751267","0.0-17.0-3.4","76693","ListB","woman","english","","","","","{""Q0"":""jane is contacting dave""}","<img src='gifs/ChineseGender4a.gif' style='height:400px;''></img>","contacting","is contacting","english",""
"null","<div style=""font-size:60px;"">+</div>","","html-keyboard-response","230","1751772","0.0-17.0-0.5","76693","ListB","woman","english","","","","null","","","","","",""
"null","<img src='gifs/MaleRace4b.gif' style='height:400px;''></img>","","html-keyboard-response","231","1753781","0.0-17.0-1.5","76693","ListB","woman","english","","","","null","","","","","",""
"null","is looking at","","html-keyboard-response","232","1756790","0.0-17.0-2.5","76693","ListB","woman","english","","","","null","","","","","",""
"5490.4000000059605","","","survey-text","233","1762284","0.0-17.0-3.5","76693","ListB","woman","english","","","","","{""Q0"":""dave is looking at mike""}","<img src='gifs/MaleRace4b.gif' style='height:400px;''></img>","looking at","is looking at","english",""
"null","<div style=""font-size:60px;"">+</div>","","html-keyboard-response","234","1762795","0.0-17.0-0.6","76693","ListB","woman","english","","","","null","","","","","",""
"null","<img src='gifs/BlackGender4b.gif' style='height:400px;''></img>","","html-keyboard-response","235","1764802","0.0-17.0-1.6","76693","ListB","woman","english","","","","null","","","","","",""
"null","is employing","","html-keyboard-response","236","1767804","0.0-17.0-2.6","76693","ListB","woman","english","","","","null","","","","","",""
"6561.4000000059605","","","survey-text","237","1774367","0.0-17.0-3.6","76693","ListB","woman","english","","","","","{""Q0"":""kate is employing mike""}","<img src='gifs/BlackGender4b.gif' style='height:400px;''></img>","employing","is employing","english",""
"null","<div style=""font-size:60px;"">+</div>","","html-keyboard-response","238","1774878","0.0-17.0-0.7","76693","ListB","woman","english","","","","null","","","","","",""
"null","<img src='gifs/FemaleRace2b.gif' style='height:400px;''></img>","","html-keyboard-response","239","1776892","0.0-17.0-1.7","76693","ListB","woman","english","","","","null","","","","","",""
"null","is mentioning","","html-keyboard-response","240","1779899","0.0-17.0-2.7","76693","ListB","woman","english","","","","null","","","","","",""
"5033.199999988079","","","survey-text","241","1784934","0.0-17.0-3.7","76693","ListB","woman","english","","","","","{""Q0"":""kate is mentioning jane""}","<img src='gifs/FemaleRace2b.gif' style='height:400px;''></img>","mention","is mentioning","english",""
"null","<div style=""font-size:60px;"">+</div>","","html-keyboard-response","242","1785441","0.0-17.0-0.8","76693","ListB","woman","english","","","","null","","","","","",""
"null","<img src='gifs/MaleRace3a.gif' style='height:400px;''></img>","","html-keyboard-response","243","1787451","0.0-17.0-1.8","76693","ListB","woman","english","","","","null","","","","","",""
"null","is promising","","html-keyboard-response","244","1790462","0.0-17.0-2.8","76693","ListB","woman","english","","","","null","","","","","",""
"6536.700000017881","","","survey-text","245","1797002","0.0-17.0-3.8","76693","ListB","woman","english","","","","","{""Q0"":""fred is promising dave""}","<img src='gifs/MaleRace3a.gif' style='height:400px;''></img>","promising","is promising","english",""
"null","<div style=""font-size:60px;"">+</div>","","html-keyboard-response","246","1797504","0.0-17.0-0.9","76693","ListB","woman","english","","","","null","","","","","",""
"null","<img src='gifs/ChineseGender3b.gif' style='height:400px;''></img>","","html-keyboard-response","247","1799518","0.0-17.0-1.9","76693","ListB","woman","english","","","","null","","","","","",""
"null","is following","","html-keyboard-response","248","1802525","0.0-17.0-2.9","76693","ListB","woman","english","","","","null","","","","","",""
"7640.4000000059605","","","survey-text","249","1810168","0.0-17.0-3.9","76693","ListB","woman","english","","","","","{""Q0"":""dave is following ruth""}","<img src='gifs/ChineseGender3b.gif' style='height:400px;''></img>","following","is following","english",""
"null","<div style=""font-size:60px;"">+</div>","","html-keyboard-response","250","1810678","0.0-17.0-0.10","76693","ListB","woman","english","","","","null","","","","","",""
"null","<img src='gifs/FemaleRace1b.gif' style='height:400px;''></img>","","html-keyboard-response","251","1812684","0.0-17.0-1.10","76693","ListB","woman","english","","","","null","","","","","",""
"null","is following","","html-keyboard-response","252","1815689","0.0-17.0-2.10","76693","ListB","woman","english","","","","null","","","","","",""
"8692.699999988079","","","survey-text","253","1824385","0.0-17.0-3.10","76693","ListB","woman","english","","","","","{""Q0"":""beth is following jane""}","<img src='gifs/FemaleRace1b.gif' style='height:400px;''></img>","following","is following","english",""
"null","<div style=""font-size:60px;"">+</div>","","html-keyboard-response","254","1824890","0.0-17.0-0.11","76693","ListB","woman","english","","","","null","","","","","",""
"null","<img src='gifs/ChineseGender3a.gif' style='height:400px;''></img>","","html-keyboard-response","255","1826900","0.0-17.0-1.11","76693","ListB","woman","english","","","","null","","","","","",""
"null","is mentioning","","html-keyboard-response","256","1829905","0.0-17.0-2.11","76693","ListB","woman","english","","","","null","","","","","",""
"5344","","","survey-text","257","1835252","0.0-17.0-3.11","76693","ListB","woman","english","","","","","{""Q0"":""ruth is mentioning dave""}","<img src='gifs/ChineseGender3a.gif' style='height:400px;''></img>","mention","is mentioning","english",""
"null","<div style=""font-size:60px;"">+</div>","","html-keyboard-response","258","1835762","0.0-17.0-0.12","76693","ListB","woman","english","","","","null","","","","","",""
"null","<img src='gifs/BlackGender1a.gif' style='height:400px;''></img>","","html-keyboard-response","259","1837772","0.0-17.0-1.12","76693","ListB","woman","english","","","","null","","","","","",""
"null","is introducing","","html-keyboard-response","260","1840778","0.0-17.0-2.12","76693","ListB","woman","english","","","","null","","","","","",""
"6737.5999999940395","","","survey-text","261","1847519","0.0-17.0-3.12","76693","ListB","woman","english","","","","","{""Q0"":""fred is introducing beth""}","<img src='gifs/BlackGender1a.gif' style='height:400px;''></img>","introducing","is introducing","english",""
"null","<div style=""font-size:60px;"">+</div>","","html-keyboard-response","262","1848028","0.0-17.0-0.13","76693","ListB","woman","english","","","","null","","","","","",""
"null","<img src='gifs/ChineseGender1b.gif' style='height:400px;''></img>","","html-keyboard-response","263","1850032","0.0-17.0-1.13","76693","ListB","woman","english","","","","null","","","","","",""
"null","is contacting","","html-keyboard-response","264","1853043","0.0-17.0-2.13","76693","ListB","woman","english","","","","null","","","","","",""
"5689.800000011921","","","survey-text","265","1858736","0.0-17.0-3.13","76693","ListB","woman","english","","","","","{""Q0"":""dave is contacting jane""}","<img src='gifs/ChineseGender1b.gif' style='height:400px;''></img>","contacting","is contacting","english",""
"null","<div style=""font-size:60px;"">+</div>","","html-keyboard-response","266","1859245","0.0-17.0-0.14","76693","ListB","woman","english","","","","null","","","","","",""
"null","<img src='gifs/MaleRace2a.gif' style='height:400px;''></img>","","html-keyboard-response","267","1861257","0.0-17.0-1.14","76693","ListB","woman","english","","","","null","","","","","",""
"null","is listening to","","html-keyboard-response","268","1864268","0.0-17.0-2.14","76693","ListB","woman","english","","","","null","","","","","",""
"8631.699999988079","","","survey-text","269","1872903","0.0-17.0-3.14","76693","ListB","woman","english","","","","","{""Q0"":""mike is listening to luke""}","<img src='gifs/MaleRace2a.gif' style='height:400px;''></img>","listening to","is listening to","english",""
"null","<div style=""font-size:60px;"">+</div>","","html-keyboard-response","270","1873410","0.0-17.0-0.15","76693","ListB","woman","english","","","","null","","","","","",""
"null","<img src='gifs/FemaleRace1a.gif' style='height:400px;''></img>","","html-keyboard-response","271","1875420","0.0-17.0-1.15","76693","ListB","woman","english","","","","null","","","","","",""
"null","is accompanying","","html-keyboard-response","272","1878424","0.0-17.0-2.15","76693","ListB","woman","english","","","","null","","","","","",""
"18593.30000001192","","","survey-text","273","1897020","0.0-17.0-3.15","76693","ListB","woman","english","","","","","{""Q0"":""jane is accompanying beth""}","<img src='gifs/FemaleRace1a.gif' style='height:400px;''></img>","accompanying","is accompanying","english",""
"null","<div style=""font-size:60px;"">+</div>","","html-keyboard-response","274","1897530","0.0-17.0-0.16","76693","ListB","woman","english","","","","null","","","","","",""
"null","<img src='gifs/MaleRace4a.gif' style='height:400px;''></img>","","html-keyboard-response","275","1899539","0.0-17.0-1.16","76693","ListB","woman","english","","","","null","","","","","",""
"null","is touching","","html-keyboard-response","276","1902549","0.0-17.0-2.16","76693","ListB","woman","english","","","","null","","","","","",""
"7035.399999976158","","","survey-text","277","1909588","0.0-17.0-3.16","76693","ListB","woman","english","","","","","{""Q0"":""mike is touching dave""}","<img src='gifs/MaleRace4a.gif' style='height:400px;''></img>","touching","is touching","english",""
"null","<div style=""font-size:60px;"">+</div>","","html-keyboard-response","278","1910098","0.0-17.0-0.17","76693","ListB","woman","english","","","","null","","","","","",""
"null","<img src='gifs/FemaleRace2a.gif' style='height:400px;''></img>","","html-keyboard-response","279","1912106","0.0-17.0-1.17","76693","ListB","woman","english","","","","null","","","","","",""
"null","is praising","","html-keyboard-response","280","1915115","0.0-17.0-2.17","76693","ListB","woman","english","","","","null","","","","","",""
"9586.700000017881","","","survey-text","281","1924705","0.0-17.0-3.17","76693","ListB","woman","english","","","","","{""Q0"":""jane is praising kate""}","<img src='gifs/FemaleRace2a.gif' style='height:400px;''></img>","praising","is praising","english",""
"3500.699999988079","<p>Thank you for completing that task.</p><p>The final part of this session is a short questionnaire.</p><p>Press Continue.</p>","0","html-button-response","282","1928206","0.0-18.0","76693","ListB","woman","english","","","","","","","","","",""
"49603.20000001788","","","survey-text","283","1978824","0.0-19.0","76693","ListB","woman","english","","","","","{""Q0"":""22"",""Q1"":""Chinese"",""Q2"":""Chinese"",""Q3"":""UK"",""Q4"":""Chinese"",""Q5"":""Asian"",""Q6"":""Female""}","","","","","demographics"
"4859.5999999940395","<p>Have you lived in the UK for the last 5 years or more?</p>","1","html-button-response","284","1983685","0.0-20.0","76693","ListB","woman","english","","","","","","","","","","fiveyears"
"22765","","","external-html","285","2007625","0.0-21.0","76693","ListB","woman","english","debrief.html","","","","","","","","",""
"57379.79999998212","","","survey-text","286","2065008","0.0-22.0","76693","ListB","woman","english","","","","","{""Q0"":""SW_E_F_B6""}","","","","","worker_id"
