"rt","stimulus","button_pressed","trial_type","trial_index","time_elapsed","internal_node_id","subject","list","ppt_gender","ppt_language","ptptID","url","first_guess","correct","key_press","responses","image","verb","phrase","condition","test_part"
"19098.199999999255","Welcome to the experiment. Press Continue to begin.","0","html-button-response","0","19105","0.0-0.0","81104","ListA","woman","chinese","CFA1","","","","","","","","","",""
"21114.800000000745","","","external-html","1","41264","0.0-1.0","81104","ListA","woman","chinese","CFA1","consent.html","","","","","","","","",""
"10558","<p>在下一页中，您将看到8个人物肖像和他们各自的名字。</p><p>请花费几分钟的时间记住这些人物及其所对应的名字。</p><p>之后的实验中需要您对人物的名字做出回忆，</p><p>因此在实验开始前请确保您已 经完全记住这些人物及其所对应的名字。</p><p><strong>然后您将完成一个测试以检验您对人物和名字的记忆。</strong></p><p>完成此记忆测试后，您将正式进入实验。</p><p>准备好了吗？</p>","0","html-button-response","2","51824","0.0-2.0","81104","ListA","woman","chinese","CFA1","","","","","","","","","",""
"217160.6000000015","<img src='img/portrait_matrix_listA_chinese.jpg' style='width:900px;height:500px;''></img><p>如果您已经记住了所有的人物和名字，请点击继续。</p><p><strong>请注意：您对先前记忆的面孔将在本实验中被测试5次。</strong></p>","0","html-button-response","3","269994","0.0-3.0-0.0","81104","ListA","woman","chinese","CFA1","","","","","","","","","",""
"17813.300000000745","<img src=""portrait/WW1.jpg""style=""height:400px;""></img>","1","html-button-response","4","288809","0.0-3.0-1.0","81104","ListA","woman","chinese","CFA1","","true","1","","","","","","",""
"null","正确","","html-keyboard-response","5","290328","0.0-3.0-2.0-0.0","81104","ListA","woman","chinese","CFA1","","","","null","","","","","",""
"2350.199999999255","<img src=""portrait/BM1.jpg""style=""height:400px;""></img>","4","html-button-response","6","292680","0.0-3.0-4.0","81104","ListA","woman","chinese","CFA1","","true","4","","","","","","",""
"null","正确","","html-keyboard-response","7","294191","0.0-3.0-5.0-0.0","81104","ListA","woman","chinese","CFA1","","","","null","","","","","",""
"3484.300000000745","<img src=""portrait/WM2.jpg""style=""height:400px;""></img>","7","html-button-response","8","297677","0.0-3.0-7.0","81104","ListA","woman","chinese","CFA1","","true","7","","","","","","",""
"null","正确","","html-keyboard-response","9","299184","0.0-3.0-8.0-0.0","81104","ListA","woman","chinese","CFA1","","","","null","","","","","",""
"22663.60000000149","<img src=""portrait/BW1.jpg""style=""height:400px;""></img>","0","html-button-response","10","321849","0.0-3.0-10.0","81104","ListA","woman","chinese","CFA1","","true","0","","","","","","",""
"null","正确","","html-keyboard-response","11","323360","0.0-3.0-11.0-0.0","81104","ListA","woman","chinese","CFA1","","","","null","","","","","",""
"2313.5","<img src=""portrait/WM1.jpg""style=""height:400px;""></img>","6","html-button-response","12","325675","0.0-3.0-13.0","81104","ListA","woman","chinese","CFA1","","true","6","","","","","","",""
"null","正确","","html-keyboard-response","13","327183","0.0-3.0-14.0-0.0","81104","ListA","woman","chinese","CFA1","","","","null","","","","","",""
"2372.5","<img src=""portrait/BW2.jpg""style=""height:400px;""></img>","2","html-button-response","14","329558","0.0-3.0-16.0","81104","ListA","woman","chinese","CFA1","","true","2","","","","","","",""
"null","正确","","html-keyboard-response","15","331064","0.0-3.0-17.0-0.0","81104","ListA","woman","chinese","CFA1","","","","null","","","","","",""
"2965.89999999851","<img src=""portrait/BM2.jpg""style=""height:400px;""></img>","5","html-button-response","16","334032","0.0-3.0-19.0","81104","ListA","woman","chinese","CFA1","","true","5","","","","","","",""
"null","正确","","html-keyboard-response","17","335545","0.0-3.0-20.0-0.0","81104","ListA","woman","chinese","CFA1","","","","null","","","","","",""
"3302.900000002235","<img src=""portrait/WW2.jpg""style=""height:400px;""></img>","3","html-button-response","18","338849","0.0-3.0-22.0","81104","ListA","woman","chinese","CFA1","","true","3","","","","","","",""
"null","正确","","html-keyboard-response","19","340360","0.0-3.0-23.0-0.0","81104","ListA","woman","chinese","CFA1","","","","null","","","","","",""
"2507.10000000149","<p>您第一次在8题里答对了 8 题。 请点击继续</p>","0","html-button-response","20","342870","0.0-3.0-25.0","81104","ListA","woman","chinese","CFA1","","","","","","","","","",""
"82841.29999999702","<p>此次实验您将会看到先前记忆任务里的人物照片。</p><p>人物照片消失后您将看到一个动词短语，请正确回忆人物的名字并用特定的 动词短语组成一句完整的句子。</p><p>请在指定的框内输入您的答案。在进入下一题之前请确保您填写了完整的句子。</p><p>人物照片和动词短语只会在屏幕上出现几秒钟，因此请您答题时尽量集中注意力。</p><p>以下是例子。请您在准备好后按下“继续”。</p><img src='img/chinese_speaking_example.jpg' style='width:800px;height:460px;''></img>","0","html-button-response","21","426719","0.0-4.0","81104","ListA","woman","chinese","CFA1","","","","","","","","","",""
"2205.10000000149","<p>在实验开始前，将为您展示两个示例实验。</p>","0","html-button-response","22","429935","0.0-5.0","81104","ListA","woman","chinese","CFA1","","","","","","","","","",""
"null","<img src='img/meet.gif' style='height:400px;''></img>","","html-keyboard-response","23","432946","0.0-6.0","81104","ListA","woman","chinese","CFA1","","","","null","","","","","",""
"null","<p>正在约见</p>","","html-keyboard-response","24","434953","0.0-7.0","81104","ListA","woman","chinese","CFA1","","","","null","","","","","",""
"6635.800000000745","<p><b>答案:</b> 凯特正在约见贝斯</p>","0","html-button-response","25","441590","0.0-8.0","81104","ListA","woman","chinese","CFA1","","","","","","","","","",""
"null","<img src='img/spy.gif' style='height:400px;''></img>","","html-keyboard-response","26","444602","0.0-9.0","81104","ListA","woman","chinese","CFA1","","","","null","","","","","",""
"null","<p>正在监视</p>","","html-keyboard-response","27","446609","0.0-10.0","81104","ListA","woman","chinese","CFA1","","","","null","","","","","",""
"45790.300000000745","<p><b>答案:</b> 卢克正在监视戴夫</p>","0","html-button-response","28","492401","0.0-11.0","81104","ListA","woman","chinese","CFA1","","","","","","","","","",""
"15642.39999999851","<p>准备好开始了吗？</p><br><p><strong>请记住，您的答案需是一句完整的句子</strong></p><p><strong>，并用给到的图片人物和动词短语作答。</strong></p><p><strong>只有正确并完整完成实验才可获得报酬。</strong></p><p><strong> 您不需要加入任何标点符号。</strong></p><br><p>请按 ‘继续’ 键开始。</p>","0","html-button-response","29","509051","0.0-12.0","81104","ListA","woman","chinese","CFA1","","","","","","","","","",""
"null","<div style=""font-size:60px;"">+</div>","","html-keyboard-response","30","510569","0.0-13.0-0.0","81104","ListA","woman","chinese","CFA1","","","","null","","","","","",""
"null","<img src='gifs/BlackGender4b.gif' style='height:400px;''></img>","","html-keyboard-response","31","512577","0.0-13.0-1.0","81104","ListA","woman","chinese","CFA1","","","","null","","","","","",""
"null","正在提到","","html-keyboard-response","32","515586","0.0-13.0-2.0","81104","ListA","woman","chinese","CFA1","","","","null","","","","","",""
"12609","","","survey-text","33","528205","0.0-13.0-3.0","81104","ListA","woman","chinese","CFA1","","","","","{""Q0"":""霍普正在提到戴夫""}","<img src='gifs/BlackGender4b.gif' style='height:400px;''></img>","提到","正在提到","chinese",""
"null","<div style=""font-size:60px;"">+</div>","","html-keyboard-response","34","528714","0.0-13.0-0.1","81104","ListA","woman","chinese","CFA1","","","","null","","","","","",""
"null","<img src='gifs/MaleRace3a.gif' style='height:400px;''></img>","","html-keyboard-response","35","530722","0.0-13.0-1.1","81104","ListA","woman","chinese","CFA1","","","","null","","","","","",""
"null","正在联系","","html-keyboard-response","36","533729","0.0-13.0-2.1","81104","ListA","woman","chinese","CFA1","","","","null","","","","","",""
"14279.5","","","survey-text","37","548012","0.0-13.0-3.1","81104","ListA","woman","chinese","CFA1","","","","","{""Q0"":""弗雷正在联系卢克""}","<img src='gifs/MaleRace3a.gif' style='height:400px;''></img>","联系","正在联系","chinese",""
"null","<div style=""font-size:60px;"">+</div>","","html-keyboard-response","38","548514","0.0-13.0-0.2","81104","ListA","woman","chinese","CFA1","","","","null","","","","","",""
"null","<img src='gifs/BlackGender3a.gif' style='height:400px;''></img>","","html-keyboard-response","39","550522","0.0-13.0-1.2","81104","ListA","woman","chinese","CFA1","","","","null","","","","","",""
"null","正在介绍","","html-keyboard-response","40","553530","0.0-13.0-2.2","81104","ListA","woman","chinese","CFA1","","","","null","","","","","",""
"10208.800000000745","","","survey-text","41","563743","0.0-13.0-3.2","81104","ListA","woman","chinese","CFA1","","","","","{""Q0"":""霍普正在介绍卢克""}","<img src='gifs/BlackGender3a.gif' style='height:400px;''></img>","介绍","正在介绍","chinese",""
"null","<div style=""font-size:60px;"">+</div>","","html-keyboard-response","42","564250","0.0-13.0-0.3","81104","ListA","woman","chinese","CFA1","","","","null","","","","","",""
"null","<img src='gifs/ChineseGender1a.gif' style='height:400px;''></img>","","html-keyboard-response","43","566258","0.0-13.0-1.3","81104","ListA","woman","chinese","CFA1","","","","null","","","","","",""
"null","正在加入","","html-keyboard-response","44","569267","0.0-13.0-2.3","81104","ListA","woman","chinese","CFA1","","","","null","","","","","",""
"11593.800000000745","","","survey-text","45","580864","0.0-13.0-3.3","81104","ListA","woman","chinese","CFA1","","","","","{""Q0"":""凯特正在加入弗雷""}","<img src='gifs/ChineseGender1a.gif' style='height:400px;''></img>","加入","正在加入","chinese",""
"null","<div style=""font-size:60px;"">+</div>","","html-keyboard-response","46","581371","0.0-13.0-0.4","81104","ListA","woman","chinese","CFA1","","","","null","","","","","",""
"null","<img src='gifs/BlackGender2a.gif' style='height:400px;''></img>","","html-keyboard-response","47","583379","0.0-13.0-1.4","81104","ListA","woman","chinese","CFA1","","","","null","","","","","",""
"null","正在说服","","html-keyboard-response","48","586388","0.0-13.0-2.4","81104","ListA","woman","chinese","CFA1","","","","null","","","","","",""
"27071.400000002235","","","survey-text","49","613463","0.0-13.0-3.4","81104","ListA","woman","chinese","CFA1","","","","","{""Q0"":""戴夫正在说服露丝""}","<img src='gifs/BlackGender2a.gif' style='height:400px;''></img>","说服","正在说服","chinese",""
"null","<div style=""font-size:60px;"">+</div>","","html-keyboard-response","50","613967","0.0-13.0-0.5","81104","ListA","woman","chinese","CFA1","","","","null","","","","","",""
"null","<img src='gifs/MaleRace1a.gif' style='height:400px;''></img>","","html-keyboard-response","51","615971","0.0-13.0-1.5","81104","ListA","woman","chinese","CFA1","","","","null","","","","","",""
"null","正在跟随","","html-keyboard-response","52","618979","0.0-13.0-2.5","81104","ListA","woman","chinese","CFA1","","","","null","","","","","",""
"12349.800000000745","","","survey-text","53","631332","0.0-13.0-3.5","81104","ListA","woman","chinese","CFA1","","","","","{""Q0"":""卢克正在弗雷""}","<img src='gifs/MaleRace1a.gif' style='height:400px;''></img>","跟随","正在跟随","chinese",""
"null","<div style=""font-size:60px;"">+</div>","","html-keyboard-response","54","631835","0.0-13.0-0.6","81104","ListA","woman","chinese","CFA1","","","","null","","","","","",""
"null","<img src='gifs/ChineseGender3b.gif' style='height:400px;''></img>","","html-keyboard-response","55","633842","0.0-13.0-1.6","81104","ListA","woman","chinese","CFA1","","","","null","","","","","",""
"null","正在说服","","html-keyboard-response","56","636851","0.0-13.0-2.6","81104","ListA","woman","chinese","CFA1","","","","null","","","","","",""
"9667.800000000745","","","survey-text","57","646522","0.0-13.0-3.6","81104","ListA","woman","chinese","CFA1","","","","","{""Q0"":""贝斯正在说服麦克""}","<img src='gifs/ChineseGender3b.gif' style='height:400px;''></img>","说服","正在说服","chinese",""
"null","<div style=""font-size:60px;"">+</div>","","html-keyboard-response","58","647027","0.0-13.0-0.7","81104","ListA","woman","chinese","CFA1","","","","null","","","","","",""
"null","<img src='gifs/ChineseGender2b.gif' style='height:400px;''></img>","","html-keyboard-response","59","649036","0.0-13.0-1.7","81104","ListA","woman","chinese","CFA1","","","","null","","","","","",""
"null","正在接近","","html-keyboard-response","60","652043","0.0-13.0-2.7","81104","ListA","woman","chinese","CFA1","","","","null","","","","","",""
"12120.60000000149","","","survey-text","61","664167","0.0-13.0-3.7","81104","ListA","woman","chinese","CFA1","","","","","{""Q0"":""贝斯正在接近弗雷""}","<img src='gifs/ChineseGender2b.gif' style='height:400px;''></img>","接近","正在接近","chinese",""
"null","<div style=""font-size:60px;"">+</div>","","html-keyboard-response","62","664672","0.0-13.0-0.8","81104","ListA","woman","chinese","CFA1","","","","null","","","","","",""
"null","<img src='gifs/ChineseGender1a.gif' style='height:400px;''></img>","","html-keyboard-response","63","666675","0.0-13.0-1.8","81104","ListA","woman","chinese","CFA1","","","","null","","","","","",""
"null","正在陪伴","","html-keyboard-response","64","669684","0.0-13.0-2.8","81104","ListA","woman","chinese","CFA1","","","","null","","","","","",""
"15390.5","","","survey-text","65","685078","0.0-13.0-3.8","81104","ListA","woman","chinese","CFA1","","","","","{""Q0"":""凯特正在陪伴弗雷""}","<img src='gifs/ChineseGender1a.gif' style='height:400px;''></img>","陪伴","正在陪伴","chinese",""
"null","<div style=""font-size:60px;"">+</div>","","html-keyboard-response","66","685580","0.0-13.0-0.9","81104","ListA","woman","chinese","CFA1","","","","null","","","","","",""
"null","<img src='gifs/ChineseGender3a.gif' style='height:400px;''></img>","","html-keyboard-response","67","687588","0.0-13.0-1.9","81104","ListA","woman","chinese","CFA1","","","","null","","","","","",""
"null","正在答应","","html-keyboard-response","68","690596","0.0-13.0-2.9","81104","ListA","woman","chinese","CFA1","","","","null","","","","","",""
"9594.800000000745","","","survey-text","69","700194","0.0-13.0-3.9","81104","ListA","woman","chinese","CFA1","","","","","{""Q0"":""麦克正在答应贝斯""}","<img src='gifs/ChineseGender3a.gif' style='height:400px;''></img>","答应","正在答应","chinese",""
"null","<div style=""font-size:60px;"">+</div>","","html-keyboard-response","70","700700","0.0-13.0-0.10","81104","ListA","woman","chinese","CFA1","","","","null","","","","","",""
"null","<img src='gifs/MaleRace4a.gif' style='height:400px;''></img>","","html-keyboard-response","71","702707","0.0-13.0-1.10","81104","ListA","woman","chinese","CFA1","","","","null","","","","","",""
"null","正在聆听","","html-keyboard-response","72","705716","0.0-13.0-2.10","81104","ListA","woman","chinese","CFA1","","","","null","","","","","",""
"8550.10000000149","","","survey-text","73","714270","0.0-13.0-3.10","81104","ListA","woman","chinese","CFA1","","","","","{""Q0"":""戴夫正在聆听麦克""}","<img src='gifs/MaleRace4a.gif' style='height:400px;''></img>","聆听","正在聆听","chinese",""
"null","<div style=""font-size:60px;"">+</div>","","html-keyboard-response","74","714780","0.0-13.0-0.11","81104","ListA","woman","chinese","CFA1","","","","null","","","","","",""
"null","<img src='gifs/ChineseGender2b.gif' style='height:400px;''></img>","","html-keyboard-response","75","716788","0.0-13.0-1.11","81104","ListA","woman","chinese","CFA1","","","","null","","","","","",""
"null","正在面向","","html-keyboard-response","76","719790","0.0-13.0-2.11","81104","ListA","woman","chinese","CFA1","","","","null","","","","","",""
"7333.199999999255","","","survey-text","77","727126","0.0-13.0-3.11","81104","ListA","woman","chinese","CFA1","","","","","{""Q0"":""弗雷正在面向贝斯""}","<img src='gifs/ChineseGender2b.gif' style='height:400px;''></img>","面向","正在面向","chinese",""
"null","<div style=""font-size:60px;"">+</div>","","html-keyboard-response","78","727628","0.0-13.0-0.12","81104","ListA","woman","chinese","CFA1","","","","null","","","","","",""
"null","<img src='gifs/FemaleRace3b.gif' style='height:400px;''></img>","","html-keyboard-response","79","729636","0.0-13.0-1.12","81104","ListA","woman","chinese","CFA1","","","","null","","","","","",""
"null","正在跟随","","html-keyboard-response","80","732644","0.0-13.0-2.12","81104","ListA","woman","chinese","CFA1","","","","null","","","","","",""
"6321.199999999255","","","survey-text","81","738969","0.0-13.0-3.12","81104","ListA","woman","chinese","CFA1","","","","","{""Q0"":""露丝正在跟随贝斯""}","<img src='gifs/FemaleRace3b.gif' style='height:400px;''></img>","跟随","正在跟随","chinese",""
"null","<div style=""font-size:60px;"">+</div>","","html-keyboard-response","82","739471","0.0-13.0-0.13","81104","ListA","woman","chinese","CFA1","","","","null","","","","","",""
"null","<img src='gifs/MaleRace4b.gif' style='height:400px;''></img>","","html-keyboard-response","83","741478","0.0-13.0-1.13","81104","ListA","woman","chinese","CFA1","","","","null","","","","","",""
"null","正在跟随","","html-keyboard-response","84","744484","0.0-13.0-2.13","81104","ListA","woman","chinese","CFA1","","","","null","","","","","",""
"6631.5","","","survey-text","85","751120","0.0-13.0-3.13","81104","ListA","woman","chinese","CFA1","","","","","{""Q0"":""戴夫正在跟随麦克""}","<img src='gifs/MaleRace4b.gif' style='height:400px;''></img>","跟随","正在跟随","chinese",""
"null","<div style=""font-size:60px;"">+</div>","","html-keyboard-response","86","751622","0.0-13.0-0.14","81104","ListA","woman","chinese","CFA1","","","","null","","","","","",""
"null","<img src='gifs/BlackGender1a.gif' style='height:400px;''></img>","","html-keyboard-response","87","753629","0.0-13.0-1.14","81104","ListA","woman","chinese","CFA1","","","","null","","","","","",""
"null","正在说服","","html-keyboard-response","88","756637","0.0-13.0-2.14","81104","ListA","woman","chinese","CFA1","","","","null","","","","","",""
"7162.800000000745","","","survey-text","89","763803","0.0-13.0-3.14","81104","ListA","woman","chinese","CFA1","","","","","{""Q0"":""卢克正在说服露丝""}","<img src='gifs/BlackGender1a.gif' style='height:400px;''></img>","说服","正在说服","chinese",""
"null","<div style=""font-size:60px;"">+</div>","","html-keyboard-response","90","764307","0.0-13.0-0.15","81104","ListA","woman","chinese","CFA1","","","","null","","","","","",""
"null","<img src='gifs/FemaleRace3a.gif' style='height:400px;''></img>","","html-keyboard-response","91","766316","0.0-13.0-1.15","81104","ListA","woman","chinese","CFA1","","","","null","","","","","",""
"null","正在加入","","html-keyboard-response","92","769325","0.0-13.0-2.15","81104","ListA","woman","chinese","CFA1","","","","null","","","","","",""
"10933.199999999255","","","survey-text","93","780262","0.0-13.0-3.15","81104","ListA","woman","chinese","CFA1","","","","","{""Q0"":""露丝正在加入贝斯""}","<img src='gifs/FemaleRace3a.gif' style='height:400px;''></img>","加入","正在加入","chinese",""
"null","<div style=""font-size:60px;"">+</div>","","html-keyboard-response","94","780765","0.0-13.0-0.16","81104","ListA","woman","chinese","CFA1","","","","null","","","","","",""
"null","<img src='gifs/MaleRace4a.gif' style='height:400px;''></img>","","html-keyboard-response","95","782771","0.0-13.0-1.16","81104","ListA","woman","chinese","CFA1","","","","null","","","","","",""
"null","正在聆听","","html-keyboard-response","96","785781","0.0-13.0-2.16","81104","ListA","woman","chinese","CFA1","","","","null","","","","","",""
"11744.70000000298","","","survey-text","97","797530","0.0-13.0-3.16","81104","ListA","woman","chinese","CFA1","","","","","{""Q0"":""戴夫正在聆听麦克""}","<img src='gifs/MaleRace4a.gif' style='height:400px;''></img>","聆听","正在聆听","chinese",""
"null","<div style=""font-size:60px;"">+</div>","","html-keyboard-response","98","798036","0.0-13.0-0.17","81104","ListA","woman","chinese","CFA1","","","","null","","","","","",""
"null","<img src='gifs/BlackGender1b.gif' style='height:400px;''></img>","","html-keyboard-response","99","800045","0.0-13.0-1.17","81104","ListA","woman","chinese","CFA1","","","","null","","","","","",""
"null","正在答应","","html-keyboard-response","100","803053","0.0-13.0-2.17","81104","ListA","woman","chinese","CFA1","","","","null","","","","","",""
"9276.199999999255","","","survey-text","101","812332","0.0-13.0-3.17","81104","ListA","woman","chinese","CFA1","","","","","{""Q0"":""卢克正在答应露丝""}","<img src='gifs/BlackGender1b.gif' style='height:400px;''></img>","答应","正在答应","chinese",""
"63513.10000000149","<img src='img/portrait_matrix_listA_chinese.jpg' style='width:900px;height:500px;''></img><p>如果您已经记住了所有的人物和名字，请点击继续。</p><p><strong>请注意：您对先前记忆的面孔将在本实验中被测试5次。</strong></p>","0","html-button-response","102","875849","0.0-14.0-0.0","81104","ListA","woman","chinese","CFA1","","","","","","","","","",""
"2719.10000000149","<img src=""portrait/BM1.jpg""style=""height:400px;""></img>","4","html-button-response","103","879575","0.0-14.0-1.0","81104","ListA","woman","chinese","CFA1","","true","4","","","","","","",""
"null","正确","","html-keyboard-response","104","881086","0.0-14.0-2.0-0.0","81104","ListA","woman","chinese","CFA1","","","","null","","","","","",""
"7135.099999997765","<img src=""portrait/WM1.jpg""style=""height:400px;""></img>","6","html-button-response","105","888223","0.0-14.0-4.0","81104","ListA","woman","chinese","CFA1","","true","6","","","","","","",""
"null","正确","","html-keyboard-response","106","889733","0.0-14.0-5.0-0.0","81104","ListA","woman","chinese","CFA1","","","","null","","","","","",""
"1791.5","<img src=""portrait/WW1.jpg""style=""height:400px;""></img>","1","html-button-response","107","891527","0.0-14.0-7.0","81104","ListA","woman","chinese","CFA1","","true","1","","","","","","",""
"null","正确","","html-keyboard-response","108","893036","0.0-14.0-8.0-0.0","81104","ListA","woman","chinese","CFA1","","","","null","","","","","",""
"4011.199999999255","<img src=""portrait/BW1.jpg""style=""height:400px;""></img>","0","html-button-response","109","897050","0.0-14.0-10.0","81104","ListA","woman","chinese","CFA1","","true","0","","","","","","",""
"null","正确","","html-keyboard-response","110","898558","0.0-14.0-11.0-0.0","81104","ListA","woman","chinese","CFA1","","","","null","","","","","",""
"1588.800000000745","<img src=""portrait/BW2.jpg""style=""height:400px;""></img>","2","html-button-response","111","900149","0.0-14.0-13.0","81104","ListA","woman","chinese","CFA1","","true","2","","","","","","",""
"null","正确","","html-keyboard-response","112","901661","0.0-14.0-14.0-0.0","81104","ListA","woman","chinese","CFA1","","","","null","","","","","",""
"2365.60000000149","<img src=""portrait/BM2.jpg""style=""height:400px;""></img>","5","html-button-response","113","904029","0.0-14.0-16.0","81104","ListA","woman","chinese","CFA1","","true","5","","","","","","",""
"null","正确","","html-keyboard-response","114","905540","0.0-14.0-17.0-0.0","81104","ListA","woman","chinese","CFA1","","","","null","","","","","",""
"5119.699999999255","<img src=""portrait/WM2.jpg""style=""height:400px;""></img>","7","html-button-response","115","910662","0.0-14.0-19.0","81104","ListA","woman","chinese","CFA1","","true","7","","","","","","",""
"null","正确","","html-keyboard-response","116","912174","0.0-14.0-20.0-0.0","81104","ListA","woman","chinese","CFA1","","","","null","","","","","",""
"2917.60000000149","<img src=""portrait/WW2.jpg""style=""height:400px;""></img>","3","html-button-response","117","915094","0.0-14.0-22.0","81104","ListA","woman","chinese","CFA1","","true","3","","","","","","",""
"null","正确","","html-keyboard-response","118","916605","0.0-14.0-23.0-0.0","81104","ListA","woman","chinese","CFA1","","","","null","","","","","",""
"6889.800000000745","<p>您第一次在8题里答对了 8 题。 请点击继续</p>","0","html-button-response","119","923498","0.0-14.0-25.0","81104","ListA","woman","chinese","CFA1","","","","","","","","","",""
"null","<div style=""font-size:60px;"">+</div>","","html-keyboard-response","120","925006","0.0-15.0-0.0","81104","ListA","woman","chinese","CFA1","","","","null","","","","","",""
"null","<img src='gifs/BlackGender2a.gif' style='height:400px;''></img>","","html-keyboard-response","121","927014","0.0-15.0-1.0","81104","ListA","woman","chinese","CFA1","","","","null","","","","","",""
"null","正在接近","","html-keyboard-response","122","930022","0.0-15.0-2.0","81104","ListA","woman","chinese","CFA1","","","","null","","","","","",""
"10015.199999999255","","","survey-text","123","940041","0.0-15.0-3.0","81104","ListA","woman","chinese","CFA1","","","","","{""Q0"":""戴夫正在接近露丝""}","<img src='gifs/BlackGender2a.gif' style='height:400px;''></img>","接近","正在接近","chinese",""
"null","<div style=""font-size:60px;"">+</div>","","html-keyboard-response","124","940545","0.0-15.0-0.1","81104","ListA","woman","chinese","CFA1","","","","null","","","","","",""
"null","<img src='gifs/MaleRace2b.gif' style='height:400px;''></img>","","html-keyboard-response","125","942550","0.0-15.0-1.1","81104","ListA","woman","chinese","CFA1","","","","null","","","","","",""
"null","正在看着","","html-keyboard-response","126","945558","0.0-15.0-2.1","81104","ListA","woman","chinese","CFA1","","","","null","","","","","",""
"9882.900000002235","","","survey-text","127","955445","0.0-15.0-3.1","81104","ListA","woman","chinese","CFA1","","","","","{""Q0"":""弗雷正在看着戴夫""}","<img src='gifs/MaleRace2b.gif' style='height:400px;''></img>","看着","正在看着","chinese",""
"null","<div style=""font-size:60px;"">+</div>","","html-keyboard-response","128","955950","0.0-15.0-0.2","81104","ListA","woman","chinese","CFA1","","","","null","","","","","",""
"null","<img src='gifs/ChineseGender4b.gif' style='height:400px;''></img>","","html-keyboard-response","129","957959","0.0-15.0-1.2","81104","ListA","woman","chinese","CFA1","","","","null","","","","","",""
"null","正在聘用","","html-keyboard-response","130","960967","0.0-15.0-2.2","81104","ListA","woman","chinese","CFA1","","","","null","","","","","",""
"12154.60000000149","","","survey-text","131","973125","0.0-15.0-3.2","81104","ListA","woman","chinese","CFA1","","","","","{""Q0"":""凯特正在聘用麦克""}","<img src='gifs/ChineseGender4b.gif' style='height:400px;''></img>","聘用","正在聘用","chinese",""
"null","<div style=""font-size:60px;"">+</div>","","html-keyboard-response","132","973627","0.0-15.0-0.3","81104","ListA","woman","chinese","CFA1","","","","null","","","","","",""
"null","<img src='gifs/MaleRace1b.gif' style='height:400px;''></img>","","html-keyboard-response","133","975631","0.0-15.0-1.3","81104","ListA","woman","chinese","CFA1","","","","null","","","","","",""
"null","正在触摸","","html-keyboard-response","134","978639","0.0-15.0-2.3","81104","ListA","woman","chinese","CFA1","","","","null","","","","","",""
"8320.300000000745","","","survey-text","135","986962","0.0-15.0-3.3","81104","ListA","woman","chinese","CFA1","","","","","{""Q0"":""弗雷正在触摸卢克""}","<img src='gifs/MaleRace1b.gif' style='height:400px;''></img>","触摸","正在触摸","chinese",""
"null","<div style=""font-size:60px;"">+</div>","","html-keyboard-response","136","987469","0.0-15.0-0.4","81104","ListA","woman","chinese","CFA1","","","","null","","","","","",""
"null","<img src='gifs/BlackGender3b.gif' style='height:400px;''></img>","","html-keyboard-response","137","989478","0.0-15.0-1.4","81104","ListA","woman","chinese","CFA1","","","","null","","","","","",""
"null","正在接近","","html-keyboard-response","138","992486","0.0-15.0-2.4","81104","ListA","woman","chinese","CFA1","","","","null","","","","","",""
"8786.300000000745","","","survey-text","139","1001275","0.0-15.0-3.4","81104","ListA","woman","chinese","CFA1","","","","","{""Q0"":""卢克正在接近霍普""}","<img src='gifs/BlackGender3b.gif' style='height:400px;''></img>","接近","正在接近","chinese",""
"null","<div style=""font-size:60px;"">+</div>","","html-keyboard-response","140","1001782","0.0-15.0-0.5","81104","ListA","woman","chinese","CFA1","","","","null","","","","","",""
"null","<img src='gifs/FemaleRace4a.gif' style='height:400px;''></img>","","html-keyboard-response","141","1003791","0.0-15.0-1.5","81104","ListA","woman","chinese","CFA1","","","","null","","","","","",""
"null","正在提到","","html-keyboard-response","142","1006798","0.0-15.0-2.5","81104","ListA","woman","chinese","CFA1","","","","null","","","","","",""
"7257.89999999851","","","survey-text","143","1014060","0.0-15.0-3.5","81104","ListA","woman","chinese","CFA1","","","","","{""Q0"":""贝斯正在提到霍普""}","<img src='gifs/FemaleRace4a.gif' style='height:400px;''></img>","提到","正在提到","chinese",""
"null","<div style=""font-size:60px;"">+</div>","","html-keyboard-response","144","1014570","0.0-15.0-0.6","81104","ListA","woman","chinese","CFA1","","","","null","","","","","",""
"null","<img src='gifs/MaleRace1b.gif' style='height:400px;''></img>","","html-keyboard-response","145","1016575","0.0-15.0-1.6","81104","ListA","woman","chinese","CFA1","","","","null","","","","","",""
"null","正在看着","","html-keyboard-response","146","1019582","0.0-15.0-2.6","81104","ListA","woman","chinese","CFA1","","","","null","","","","","",""
"6769.800000000745","","","survey-text","147","1026355","0.0-15.0-3.6","81104","ListA","woman","chinese","CFA1","","","","","{""Q0"":""弗雷正在看着卢克""}","<img src='gifs/MaleRace1b.gif' style='height:400px;''></img>","看着","正在看着","chinese",""
"null","<div style=""font-size:60px;"">+</div>","","html-keyboard-response","148","1026862","0.0-15.0-0.7","81104","ListA","woman","chinese","CFA1","","","","null","","","","","",""
"null","<img src='gifs/ChineseGender4b.gif' style='height:400px;''></img>","","html-keyboard-response","149","1028871","0.0-15.0-1.7","81104","ListA","woman","chinese","CFA1","","","","null","","","","","",""
"null","正在面向","","html-keyboard-response","150","1031879","0.0-15.0-2.7","81104","ListA","woman","chinese","CFA1","","","","null","","","","","",""
"8032.20000000298","","","survey-text","151","1039916","0.0-15.0-3.7","81104","ListA","woman","chinese","CFA1","","","","","{""Q0"":""麦克正在面向凯特""}","<img src='gifs/ChineseGender4b.gif' style='height:400px;''></img>","面向","正在面向","chinese",""
"null","<div style=""font-size:60px;"">+</div>","","html-keyboard-response","152","1040422","0.0-15.0-0.8","81104","ListA","woman","chinese","CFA1","","","","null","","","","","",""
"null","<img src='gifs/FemaleRace1a.gif' style='height:400px;''></img>","","html-keyboard-response","153","1042431","0.0-15.0-1.8","81104","ListA","woman","chinese","CFA1","","","","null","","","","","",""
"null","正在看着","","html-keyboard-response","154","1045439","0.0-15.0-2.8","81104","ListA","woman","chinese","CFA1","","","","null","","","","","",""
"7823","","","survey-text","155","1053266","0.0-15.0-3.8","81104","ListA","woman","chinese","CFA1","","","","","{""Q0"":""凯特正在看着露丝""}","<img src='gifs/FemaleRace1a.gif' style='height:400px;''></img>","看着","正在看着","chinese",""
"null","<div style=""font-size:60px;"">+</div>","","html-keyboard-response","156","1053768","0.0-15.0-0.9","81104","ListA","woman","chinese","CFA1","","","","null","","","","","",""
"null","<img src='gifs/FemaleRace1b.gif' style='height:400px;''></img>","","html-keyboard-response","157","1055774","0.0-15.0-1.9","81104","ListA","woman","chinese","CFA1","","","","null","","","","","",""
"null","正在面向","","html-keyboard-response","158","1058783","0.0-15.0-2.9","81104","ListA","woman","chinese","CFA1","","","","null","","","","","",""
"6313.900000002235","","","survey-text","159","1065101","0.0-15.0-3.9","81104","ListA","woman","chinese","CFA1","","","","","{""Q0"":""露丝正在面向凯特""}","<img src='gifs/FemaleRace1b.gif' style='height:400px;''></img>","面向","正在面向","chinese",""
"null","<div style=""font-size:60px;"">+</div>","","html-keyboard-response","160","1065608","0.0-15.0-0.10","81104","ListA","woman","chinese","CFA1","","","","null","","","","","",""
"null","<img src='gifs/BlackGender1a.gif' style='height:400px;''></img>","","html-keyboard-response","161","1067615","0.0-15.0-1.10","81104","ListA","woman","chinese","CFA1","","","","null","","","","","",""
"null","正在答应","","html-keyboard-response","162","1070623","0.0-15.0-2.10","81104","ListA","woman","chinese","CFA1","","","","null","","","","","",""
"9373.800000000745","","","survey-text","163","1080001","0.0-15.0-3.10","81104","ListA","woman","chinese","CFA1","","","","","{""Q0"":""卢克正在答应露丝""}","<img src='gifs/BlackGender1a.gif' style='height:400px;''></img>","答应","正在答应","chinese",""
"null","<div style=""font-size:60px;"">+</div>","","html-keyboard-response","164","1080503","0.0-15.0-0.11","81104","ListA","woman","chinese","CFA1","","","","null","","","","","",""
"null","<img src='gifs/MaleRace2b.gif' style='height:400px;''></img>","","html-keyboard-response","165","1082512","0.0-15.0-1.11","81104","ListA","woman","chinese","CFA1","","","","null","","","","","",""
"null","正在触摸","","html-keyboard-response","166","1085520","0.0-15.0-2.11","81104","ListA","woman","chinese","CFA1","","","","null","","","","","",""
"11983.400000002235","","","survey-text","167","1097507","0.0-15.0-3.11","81104","ListA","woman","chinese","CFA1","","","","","{""Q0"":""弗雷正在触摸戴夫""}","<img src='gifs/MaleRace2b.gif' style='height:400px;''></img>","触摸","正在触摸","chinese",""
"null","<div style=""font-size:60px;"">+</div>","","html-keyboard-response","168","1098009","0.0-15.0-0.12","81104","ListA","woman","chinese","CFA1","","","","null","","","","","",""
"null","<img src='gifs/BlackGender1b.gif' style='height:400px;''></img>","","html-keyboard-response","169","1100015","0.0-15.0-1.12","81104","ListA","woman","chinese","CFA1","","","","null","","","","","",""
"null","正在介绍","","html-keyboard-response","170","1103024","0.0-15.0-2.12","81104","ListA","woman","chinese","CFA1","","","","null","","","","","",""
"6701.89999999851","","","survey-text","171","1109730","0.0-15.0-3.12","81104","ListA","woman","chinese","CFA1","","","","","{""Q0"":""露丝正在介绍卢克""}","<img src='gifs/BlackGender1b.gif' style='height:400px;''></img>","介绍","正在介绍","chinese",""
"null","<div style=""font-size:60px;"">+</div>","","html-keyboard-response","172","1110234","0.0-15.0-0.13","81104","ListA","woman","chinese","CFA1","","","","null","","","","","",""
"null","<img src='gifs/BlackGender4a.gif' style='height:400px;''></img>","","html-keyboard-response","173","1112242","0.0-15.0-1.13","81104","ListA","woman","chinese","CFA1","","","","null","","","","","",""
"null","正在提到","","html-keyboard-response","174","1115248","0.0-15.0-2.13","81104","ListA","woman","chinese","CFA1","","","","null","","","","","",""
"23240.39999999851","","","survey-text","175","1138492","0.0-15.0-3.13","81104","ListA","woman","chinese","CFA1","","","","","{""Q0"":""戴夫正在提到霍普""}","<img src='gifs/BlackGender4a.gif' style='height:400px;''></img>","提到","正在提到","chinese",""
"null","<div style=""font-size:60px;"">+</div>","","html-keyboard-response","176","1138996","0.0-15.0-0.14","81104","ListA","woman","chinese","CFA1","","","","null","","","","","",""
"null","<img src='gifs/BlackGender4a.gif' style='height:400px;''></img>","","html-keyboard-response","177","1141000","0.0-15.0-1.14","81104","ListA","woman","chinese","CFA1","","","","null","","","","","",""
"null","正在联系","","html-keyboard-response","178","1144008","0.0-15.0-2.14","81104","ListA","woman","chinese","CFA1","","","","null","","","","","",""
"6137.699999999255","","","survey-text","179","1150149","0.0-15.0-3.14","81104","ListA","woman","chinese","CFA1","","","","","{""Q0"":""戴夫正在联系霍普""}","<img src='gifs/BlackGender4a.gif' style='height:400px;''></img>","联系","正在联系","chinese",""
"null","<div style=""font-size:60px;"">+</div>","","html-keyboard-response","180","1150656","0.0-15.0-0.15","81104","ListA","woman","chinese","CFA1","","","","null","","","","","",""
"null","<img src='gifs/MaleRace2a.gif' style='height:400px;''></img>","","html-keyboard-response","181","1152664","0.0-15.0-1.15","81104","ListA","woman","chinese","CFA1","","","","null","","","","","",""
"null","正在联系","","html-keyboard-response","182","1155672","0.0-15.0-2.15","81104","ListA","woman","chinese","CFA1","","","","null","","","","","",""
"6293.400000002235","","","survey-text","183","1161969","0.0-15.0-3.15","81104","ListA","woman","chinese","CFA1","","","","","{""Q0"":""弗雷正在联系戴夫""}","<img src='gifs/MaleRace2a.gif' style='height:400px;''></img>","联系","正在联系","chinese",""
"null","<div style=""font-size:60px;"">+</div>","","html-keyboard-response","184","1162471","0.0-15.0-0.16","81104","ListA","woman","chinese","CFA1","","","","null","","","","","",""
"null","<img src='gifs/FemaleRace1b.gif' style='height:400px;''></img>","","html-keyboard-response","185","1164479","0.0-15.0-1.16","81104","ListA","woman","chinese","CFA1","","","","null","","","","","",""
"null","正在面向","","html-keyboard-response","186","1167488","0.0-15.0-2.16","81104","ListA","woman","chinese","CFA1","","","","null","","","","","",""
"9648.5","","","survey-text","187","1177140","0.0-15.0-3.16","81104","ListA","woman","chinese","CFA1","","","","","{""Q0"":""露丝正在面向凯特""}","<img src='gifs/FemaleRace1b.gif' style='height:400px;''></img>","面向","正在面向","chinese",""
"null","<div style=""font-size:60px;"">+</div>","","html-keyboard-response","188","1177642","0.0-15.0-0.17","81104","ListA","woman","chinese","CFA1","","","","null","","","","","",""
"null","<img src='gifs/ChineseGender4a.gif' style='height:400px;''></img>","","html-keyboard-response","189","1179649","0.0-15.0-1.17","81104","ListA","woman","chinese","CFA1","","","","null","","","","","",""
"null","正在提到","","html-keyboard-response","190","1182656","0.0-15.0-2.17","81104","ListA","woman","chinese","CFA1","","","","null","","","","","",""
"5477","","","survey-text","191","1188137","0.0-15.0-3.17","81104","ListA","woman","chinese","CFA1","","","","","{""Q0"":""凯特正在提到麦克""}","<img src='gifs/ChineseGender4a.gif' style='height:400px;''></img>","提到","正在提到","chinese",""
"19812.199999999255","<img src='img/portrait_matrix_listA_chinese.jpg' style='width:900px;height:500px;''></img><p>如果您已经记住了所有的人物和名字，请点击继续。</p><p><strong>请注意：您对先前记忆的面孔将在本实验中被测试5次。</strong></p>","0","html-button-response","192","1207951","0.0-16.0-0.0","81104","ListA","woman","chinese","CFA1","","","","","","","","","",""
"2954.39999999851","<img src=""portrait/BW1.jpg""style=""height:400px;""></img>","0","html-button-response","193","1211917","0.0-16.0-1.0","81104","ListA","woman","chinese","CFA1","","true","0","","","","","","",""
"null","正确","","html-keyboard-response","194","1213424","0.0-16.0-2.0-0.0","81104","ListA","woman","chinese","CFA1","","","","null","","","","","",""
"1611.2999999970198","<img src=""portrait/BW2.jpg""style=""height:400px;""></img>","2","html-button-response","195","1215038","0.0-16.0-4.0","81104","ListA","woman","chinese","CFA1","","true","2","","","","","","",""
"null","正确","","html-keyboard-response","196","1216545","0.0-16.0-5.0-0.0","81104","ListA","woman","chinese","CFA1","","","","null","","","","","",""
"3859.7999999970198","<img src=""portrait/WM2.jpg""style=""height:400px;""></img>","7","html-button-response","197","1220407","0.0-16.0-7.0","81104","ListA","woman","chinese","CFA1","","true","7","","","","","","",""
"null","正确","","html-keyboard-response","198","1221920","0.0-16.0-8.0-0.0","81104","ListA","woman","chinese","CFA1","","","","null","","","","","",""
"2539.89999999851","<img src=""portrait/BM2.jpg""style=""height:400px;""></img>","5","html-button-response","199","1224462","0.0-16.0-10.0","81104","ListA","woman","chinese","CFA1","","true","5","","","","","","",""
"null","正确","","html-keyboard-response","200","1225972","0.0-16.0-11.0-0.0","81104","ListA","woman","chinese","CFA1","","","","null","","","","","",""
"1593.1000000014901","<img src=""portrait/BM1.jpg""style=""height:400px;""></img>","4","html-button-response","201","1227568","0.0-16.0-13.0","81104","ListA","woman","chinese","CFA1","","true","4","","","","","","",""
"null","正确","","html-keyboard-response","202","1229081","0.0-16.0-14.0-0.0","81104","ListA","woman","chinese","CFA1","","","","null","","","","","",""
"3177","<img src=""portrait/WM1.jpg""style=""height:400px;""></img>","6","html-button-response","203","1232260","0.0-16.0-16.0","81104","ListA","woman","chinese","CFA1","","true","6","","","","","","",""
"null","正确","","html-keyboard-response","204","1233769","0.0-16.0-17.0-0.0","81104","ListA","woman","chinese","CFA1","","","","null","","","","","",""
"1674.300000000745","<img src=""portrait/WW1.jpg""style=""height:400px;""></img>","1","html-button-response","205","1235446","0.0-16.0-19.0","81104","ListA","woman","chinese","CFA1","","true","1","","","","","","",""
"null","正确","","html-keyboard-response","206","1236953","0.0-16.0-20.0-0.0","81104","ListA","woman","chinese","CFA1","","","","null","","","","","",""
"3137","<img src=""portrait/WW2.jpg""style=""height:400px;""></img>","3","html-button-response","207","1240092","0.0-16.0-22.0","81104","ListA","woman","chinese","CFA1","","true","3","","","","","","",""
"null","正确","","html-keyboard-response","208","1241601","0.0-16.0-23.0-0.0","81104","ListA","woman","chinese","CFA1","","","","null","","","","","",""
"1615.699999999255","<p>您第一次在8题里答对了 8 题。 请点击继续</p>","0","html-button-response","209","1243220","0.0-16.0-25.0","81104","ListA","woman","chinese","CFA1","","","","","","","","","",""
"null","<div style=""font-size:60px;"">+</div>","","html-keyboard-response","210","1244729","0.0-17.0-0.0","81104","ListA","woman","chinese","CFA1","","","","null","","","","","",""
"null","<img src='gifs/ChineseGender2a.gif' style='height:400px;''></img>","","html-keyboard-response","211","1246737","0.0-17.0-1.0","81104","ListA","woman","chinese","CFA1","","","","null","","","","","",""
"null","正在聆听","","html-keyboard-response","212","1249744","0.0-17.0-2.0","81104","ListA","woman","chinese","CFA1","","","","null","","","","","",""
"8473.199999999255","","","survey-text","213","1258221","0.0-17.0-3.0","81104","ListA","woman","chinese","CFA1","","","","","{""Q0"":""弗雷正在聆听贝斯""}","<img src='gifs/ChineseGender2a.gif' style='height:400px;''></img>","聆听","正在聆听","chinese",""
"null","<div style=""font-size:60px;"">+</div>","","html-keyboard-response","214","1258728","0.0-17.0-0.1","81104","ListA","woman","chinese","CFA1","","","","null","","","","","",""
"null","<img src='gifs/FemaleRace4b.gif' style='height:400px;''></img>","","html-keyboard-response","215","1260737","0.0-17.0-1.1","81104","ListA","woman","chinese","CFA1","","","","null","","","","","",""
"null","正在触摸","","html-keyboard-response","216","1263745","0.0-17.0-2.1","81104","ListA","woman","chinese","CFA1","","","","null","","","","","",""
"6218.70000000298","","","survey-text","217","1269967","0.0-17.0-3.1","81104","ListA","woman","chinese","CFA1","","","","","{""Q0"":""贝斯正在触摸霍普""}","<img src='gifs/FemaleRace4b.gif' style='height:400px;''></img>","触摸","正在触摸","chinese",""
"null","<div style=""font-size:60px;"">+</div>","","html-keyboard-response","218","1270473","0.0-17.0-0.2","81104","ListA","woman","chinese","CFA1","","","","null","","","","","",""
"null","<img src='gifs/FemaleRace4a.gif' style='height:400px;''></img>","","html-keyboard-response","219","1272481","0.0-17.0-1.2","81104","ListA","woman","chinese","CFA1","","","","null","","","","","",""
"null","正在聘用","","html-keyboard-response","220","1275489","0.0-17.0-2.2","81104","ListA","woman","chinese","CFA1","","","","null","","","","","",""
"7111","","","survey-text","221","1282604","0.0-17.0-3.2","81104","ListA","woman","chinese","CFA1","","","","","{""Q0"":""贝斯正在聘用霍普""}","<img src='gifs/FemaleRace4a.gif' style='height:400px;''></img>","聘用","正在聘用","chinese",""
"null","<div style=""font-size:60px;"">+</div>","","html-keyboard-response","222","1283109","0.0-17.0-0.3","81104","ListA","woman","chinese","CFA1","","","","null","","","","","",""
"null","<img src='gifs/ChineseGender1b.gif' style='height:400px;''></img>","","html-keyboard-response","223","1285113","0.0-17.0-1.3","81104","ListA","woman","chinese","CFA1","","","","null","","","","","",""
"null","正在跟随","","html-keyboard-response","224","1288121","0.0-17.0-2.3","81104","ListA","woman","chinese","CFA1","","","","null","","","","","",""
"8110.699999999255","","","survey-text","225","1296236","0.0-17.0-3.3","81104","ListA","woman","chinese","CFA1","","","","","{""Q0"":""凯特正在跟随弗雷""}","<img src='gifs/ChineseGender1b.gif' style='height:400px;''></img>","跟随","正在跟随","chinese",""
"null","<div style=""font-size:60px;"">+</div>","","html-keyboard-response","226","1296746","0.0-17.0-0.4","81104","ListA","woman","chinese","CFA1","","","","null","","","","","",""
"null","<img src='gifs/ChineseGender4a.gif' style='height:400px;''></img>","","html-keyboard-response","227","1298754","0.0-17.0-1.4","81104","ListA","woman","chinese","CFA1","","","","null","","","","","",""
"null","正在走向","","html-keyboard-response","228","1301761","0.0-17.0-2.4","81104","ListA","woman","chinese","CFA1","","","","null","","","","","",""
"9774.699999999255","","","survey-text","229","1311539","0.0-17.0-3.4","81104","ListA","woman","chinese","CFA1","","","","","{""Q0"":""麦克正在走向凯特""}","<img src='gifs/ChineseGender4a.gif' style='height:400px;''></img>","走向","正在走向","chinese",""
"null","<div style=""font-size:60px;"">+</div>","","html-keyboard-response","230","1312044","0.0-17.0-0.5","81104","ListA","woman","chinese","CFA1","","","","null","","","","","",""
"null","<img src='gifs/BlackGender3a.gif' style='height:400px;''></img>","","html-keyboard-response","231","1314049","0.0-17.0-1.5","81104","ListA","woman","chinese","CFA1","","","","null","","","","","",""
"null","正在走向","","html-keyboard-response","232","1317058","0.0-17.0-2.5","81104","ListA","woman","chinese","CFA1","","","","null","","","","","",""
"6143.400000002235","","","survey-text","233","1323205","0.0-17.0-3.5","81104","ListA","woman","chinese","CFA1","","","","","{""Q0"":""霍普正在走向卢克""}","<img src='gifs/BlackGender3a.gif' style='height:400px;''></img>","走向","正在走向","chinese",""
"null","<div style=""font-size:60px;"">+</div>","","html-keyboard-response","234","1323708","0.0-17.0-0.6","81104","ListA","woman","chinese","CFA1","","","","null","","","","","",""
"null","<img src='gifs/ChineseGender2a.gif' style='height:400px;''></img>","","html-keyboard-response","235","1325712","0.0-17.0-1.6","81104","ListA","woman","chinese","CFA1","","","","null","","","","","",""
"null","正在表扬","","html-keyboard-response","236","1328724","0.0-17.0-2.6","81104","ListA","woman","chinese","CFA1","","","","null","","","","","",""
"5842.39999999851","","","survey-text","237","1334572","0.0-17.0-3.6","81104","ListA","woman","chinese","CFA1","","","","","{""Q0"":""贝斯正在表扬弗雷""}","<img src='gifs/ChineseGender2a.gif' style='height:400px;''></img>","表扬","正在表扬","chinese",""
"null","<div style=""font-size:60px;"">+</div>","","html-keyboard-response","238","1335079","0.0-17.0-0.7","81104","ListA","woman","chinese","CFA1","","","","null","","","","","",""
"null","<img src='gifs/FemaleRace4b.gif' style='height:400px;''></img>","","html-keyboard-response","239","1337090","0.0-17.0-1.7","81104","ListA","woman","chinese","CFA1","","","","null","","","","","",""
"null","正在表扬","","html-keyboard-response","240","1340097","0.0-17.0-2.7","81104","ListA","woman","chinese","CFA1","","","","null","","","","","",""
"5851.300000000745","","","survey-text","241","1345951","0.0-17.0-3.7","81104","ListA","woman","chinese","CFA1","","","","","{""Q0"":""贝斯正在表扬霍普""}","<img src='gifs/FemaleRace4b.gif' style='height:400px;''></img>","表扬","正在表扬","chinese",""
"null","<div style=""font-size:60px;"">+</div>","","html-keyboard-response","242","1346457","0.0-17.0-0.8","81104","ListA","woman","chinese","CFA1","","","","null","","","","","",""
"null","<img src='gifs/MaleRace3b.gif' style='height:400px;''></img>","","html-keyboard-response","243","1348466","0.0-17.0-1.8","81104","ListA","woman","chinese","CFA1","","","","null","","","","","",""
"null","正在介绍","","html-keyboard-response","244","1351472","0.0-17.0-2.8","81104","ListA","woman","chinese","CFA1","","","","null","","","","","",""
"5905.89999999851","","","survey-text","245","1357381","0.0-17.0-3.8","81104","ListA","woman","chinese","CFA1","","","","","{""Q0"":""卢克正在介绍麦克""}","<img src='gifs/MaleRace3b.gif' style='height:400px;''></img>","介绍","正在介绍","chinese",""
"null","<div style=""font-size:60px;"">+</div>","","html-keyboard-response","246","1357882","0.0-17.0-0.9","81104","ListA","woman","chinese","CFA1","","","","null","","","","","",""
"null","<img src='gifs/FemaleRace3a.gif' style='height:400px;''></img>","","html-keyboard-response","247","1359894","0.0-17.0-1.9","81104","ListA","woman","chinese","CFA1","","","","null","","","","","",""
"null","正在加入","","html-keyboard-response","248","1362900","0.0-17.0-2.9","81104","ListA","woman","chinese","CFA1","","","","null","","","","","",""
"9952","","","survey-text","249","1372856","0.0-17.0-3.9","81104","ListA","woman","chinese","CFA1","","","","","{""Q0"":""贝斯正在加入露丝""}","<img src='gifs/FemaleRace3a.gif' style='height:400px;''></img>","加入","正在加入","chinese",""
"null","<div style=""font-size:60px;"">+</div>","","html-keyboard-response","250","1373362","0.0-17.0-0.10","81104","ListA","woman","chinese","CFA1","","","","null","","","","","",""
"null","<img src='gifs/BlackGender3b.gif' style='height:400px;''></img>","","html-keyboard-response","251","1375370","0.0-17.0-1.10","81104","ListA","woman","chinese","CFA1","","","","null","","","","","",""
"null","正在聆听","","html-keyboard-response","252","1378378","0.0-17.0-2.10","81104","ListA","woman","chinese","CFA1","","","","null","","","","","",""
"9316","","","survey-text","253","1387697","0.0-17.0-3.10","81104","ListA","woman","chinese","CFA1","","","","","{""Q0"":""卢克正在聆听霍普""}","<img src='gifs/BlackGender3b.gif' style='height:400px;''></img>","聆听","正在聆听","chinese",""
"null","<div style=""font-size:60px;"">+</div>","","html-keyboard-response","254","1388201","0.0-17.0-0.11","81104","ListA","woman","chinese","CFA1","","","","null","","","","","",""
"null","<img src='gifs/BlackGender4b.gif' style='height:400px;''></img>","","html-keyboard-response","255","1390211","0.0-17.0-1.11","81104","ListA","woman","chinese","CFA1","","","","null","","","","","",""
"null","正在走向","","html-keyboard-response","256","1393213","0.0-17.0-2.11","81104","ListA","woman","chinese","CFA1","","","","null","","","","","",""
"6941","","","survey-text","257","1400157","0.0-17.0-3.11","81104","ListA","woman","chinese","CFA1","","","","","{""Q0"":""霍普正在走向戴夫""}","<img src='gifs/BlackGender4b.gif' style='height:400px;''></img>","走向","正在走向","chinese",""
"null","<div style=""font-size:60px;"">+</div>","","html-keyboard-response","258","1400665","0.0-17.0-0.12","81104","ListA","woman","chinese","CFA1","","","","null","","","","","",""
"null","<img src='gifs/FemaleRace2a.gif' style='height:400px;''></img>","","html-keyboard-response","259","1402675","0.0-17.0-1.12","81104","ListA","woman","chinese","CFA1","","","","null","","","","","",""
"null","正在接近","","html-keyboard-response","260","1405682","0.0-17.0-2.12","81104","ListA","woman","chinese","CFA1","","","","null","","","","","",""
"89721.89999999851","","","survey-text","261","1495409","0.0-17.0-3.12","81104","ListA","woman","chinese","CFA1","","","","","{""Q0"":""霍普正在接近凯特""}","<img src='gifs/FemaleRace2a.gif' style='height:400px;''></img>","接近","正在接近","chinese",""
"null","<div style=""font-size:60px;"">+</div>","","html-keyboard-response","262","1495916","0.0-17.0-0.13","81104","ListA","woman","chinese","CFA1","","","","null","","","","","",""
"null","<img src='gifs/MaleRace1a.gif' style='height:400px;''></img>","","html-keyboard-response","263","1497925","0.0-17.0-1.13","81104","ListA","woman","chinese","CFA1","","","","null","","","","","",""
"null","正在表扬","","html-keyboard-response","264","1500931","0.0-17.0-2.13","81104","ListA","woman","chinese","CFA1","","","","null","","","","","",""
"8633.099999997765","","","survey-text","265","1509568","0.0-17.0-3.13","81104","ListA","woman","chinese","CFA1","","","","","{""Q0"":""卢克正在表扬弗雷""}","<img src='gifs/MaleRace1a.gif' style='height:400px;''></img>","表扬","正在表扬","chinese",""
"null","<div style=""font-size:60px;"">+</div>","","html-keyboard-response","266","1510075","0.0-17.0-0.14","81104","ListA","woman","chinese","CFA1","","","","null","","","","","",""
"null","<img src='gifs/MaleRace3b.gif' style='height:400px;''></img>","","html-keyboard-response","267","1512084","0.0-17.0-1.14","81104","ListA","woman","chinese","CFA1","","","","null","","","","","",""
"null","正在联系","","html-keyboard-response","268","1515091","0.0-17.0-2.14","81104","ListA","woman","chinese","CFA1","","","","null","","","","","",""
"11905.20000000298","","","survey-text","269","1527000","0.0-17.0-3.14","81104","ListA","woman","chinese","CFA1","","","","","{""Q0"":""卢克正在联系麦克""}","<img src='gifs/MaleRace3b.gif' style='height:400px;''></img>","联系","正在联系","chinese",""
"null","<div style=""font-size:60px;"">+</div>","","html-keyboard-response","270","1527507","0.0-17.0-0.15","81104","ListA","woman","chinese","CFA1","","","","null","","","","","",""
"null","<img src='gifs/BlackGender2b.gif' style='height:400px;''></img>","","html-keyboard-response","271","1529516","0.0-17.0-1.15","81104","ListA","woman","chinese","CFA1","","","","null","","","","","",""
"null","正在走向","","html-keyboard-response","272","1532524","0.0-17.0-2.15","81104","ListA","woman","chinese","CFA1","","","","null","","","","","",""
"10747.699999999255","","","survey-text","273","1543275","0.0-17.0-3.15","81104","ListA","woman","chinese","CFA1","","","","","{""Q0"":""戴夫正在走向露丝""}","<img src='gifs/BlackGender2b.gif' style='height:400px;''></img>","走向","正在走向","chinese",""
"null","<div style=""font-size:60px;"">+</div>","","html-keyboard-response","274","1543780","0.0-17.0-0.16","81104","ListA","woman","chinese","CFA1","","","","null","","","","","",""
"null","<img src='gifs/FemaleRace1a.gif' style='height:400px;''></img>","","html-keyboard-response","275","1545788","0.0-17.0-1.16","81104","ListA","woman","chinese","CFA1","","","","null","","","","","",""
"null","正在答应","","html-keyboard-response","276","1548796","0.0-17.0-2.16","81104","ListA","woman","chinese","CFA1","","","","null","","","","","",""
"7160.5","","","survey-text","277","1555960","0.0-17.0-3.16","81104","ListA","woman","chinese","CFA1","","","","","{""Q0"":""凯特正在答应露丝""}","<img src='gifs/FemaleRace1a.gif' style='height:400px;''></img>","答应","正在答应","chinese",""
"null","<div style=""font-size:60px;"">+</div>","","html-keyboard-response","278","1556469","0.0-17.0-0.17","81104","ListA","woman","chinese","CFA1","","","","null","","","","","",""
"null","<img src='gifs/ChineseGender3b.gif' style='height:400px;''></img>","","html-keyboard-response","279","1558476","0.0-17.0-1.17","81104","ListA","woman","chinese","CFA1","","","","null","","","","","",""
"null","正在表扬","","html-keyboard-response","280","1561484","0.0-17.0-2.17","81104","ListA","woman","chinese","CFA1","","","","null","","","","","",""
"5559.300000000745","","","survey-text","281","1567047","0.0-17.0-3.17","81104","ListA","woman","chinese","CFA1","","","","","{""Q0"":""贝斯正在表扬麦克""}","<img src='gifs/ChineseGender3b.gif' style='height:400px;''></img>","表扬","正在表扬","chinese",""
"3763.400000002235","<p>Thank you for completing that task.</p><p>The final part of this session is a short questionnaire.</p><p>Press Continue.</p>","0","html-button-response","282","1570812","0.0-18.0","81104","ListA","woman","chinese","CFA1","","","","","","","","","",""
"59493.400000002235","","","survey-text","283","1631410","0.0-19.0","81104","ListA","woman","chinese","CFA1","","","","","{""Q0"":""21"",""Q1"":""Chinese"",""Q2"":""Chinese"",""Q3"":""United Kingdom"",""Q4"":""Chinese"",""Q5"":""Asian"",""Q6"":""Female""}","","","","","demographics"
"10365.29999999702","<p>Have you lived in the UK for the last 5 years or more?</p>","0","html-button-response","284","1641780","0.0-20.0","81104","ListA","woman","chinese","CFA1","","","","","","","","","","fiveyears"
"49299.10000000149","","","external-html","285","1692124","0.0-21.0","81104","ListA","woman","chinese","CFA1","debrief.html","","","","","","","","",""
"10391.89999999851","","","survey-text","286","1702520","0.0-22.0","81104","ListA","woman","chinese","CFA1","","","","","{""ptpt_id"":""CFA1""}","","","","","worker_id"
