"rt","stimulus","button_pressed","trial_type","trial_index","time_elapsed","internal_node_id","subject","list","ppt_gender","ppt_language","ptptID","url","first_guess","correct","key_press","responses","image","verb","phrase","condition","test_part"
"2376.5999999940395","Welcome to the experiment. Press Continue to begin.","0","html-button-response","0","2378","0.0-0.0","92593","ListB","man","chinese","SW_C_M_B7","","","","","","","","","",""
"34723.5","","","external-html","1","38165","0.0-1.0","92593","ListB","man","chinese","SW_C_M_B7","consent.html","","","","","","","","",""
"4377.700000017881","<p>在下一页中，您将看到8个人物肖像和他们各自的名字。</p><p>请花费几分钟的时间记住这些人物及其所对应的名字。</p><p>之后的实验中需要您对人物的名字做出回忆，</p><p>因此在实验开始前请确保您已 经完全记住这些人物及其所对应的名字。</p><p><strong>然后您将完成一个测试以检验您对人物和名字的记忆。</strong></p><p>完成此记忆测试后，您将正式进入实验。</p><p>准备好了吗？</p>","0","html-button-response","2","42544","0.0-2.0","92593","ListB","man","chinese","SW_C_M_B7","","","","","","","","","",""
"94567.39999997616","<img src='img/portrait_matrix_listB_chinese.jpg' style='width:900px;height:500px;''></img><p>如果您已经记住了所有的人物和名字，请点击继续。</p><p><strong>请注意：您对先前记忆的面孔将在本实验中被测试5次。</strong></p>","0","html-button-response","3","138114","0.0-3.0-0.0","92593","ListB","man","chinese","SW_C_M_B7","","","","","","","","","",""
"3418.7999999821186","<img src=""portrait/WW2.jpg""style=""height:400px;""></img>","3","html-button-response","4","142544","0.0-3.0-1.0","92593","ListB","man","chinese","SW_C_M_B7","","true","3","","","","","","",""
"null","正确","","html-keyboard-response","5","144064","0.0-3.0-2.0-0.0","92593","ListB","man","chinese","SW_C_M_B7","","","","null","","","","","",""
"4600","<img src=""portrait/BM1.jpg""style=""height:400px;""></img>","4","html-button-response","6","148665","0.0-3.0-4.0","92593","ListB","man","chinese","SW_C_M_B7","","true","4","","","","","","",""
"null","正确","","html-keyboard-response","7","150170","0.0-3.0-5.0-0.0","92593","ListB","man","chinese","SW_C_M_B7","","","","null","","","","","",""
"1815.5","<img src=""portrait/WM1.jpg""style=""height:400px;""></img>","6","html-button-response","8","151987","0.0-3.0-7.0","92593","ListB","man","chinese","SW_C_M_B7","","true","6","","","","","","",""
"null","正确","","html-keyboard-response","9","153501","0.0-3.0-8.0-0.0","92593","ListB","man","chinese","SW_C_M_B7","","","","null","","","","","",""
"2440.199999988079","<img src=""portrait/WM2.jpg""style=""height:400px;""></img>","7","html-button-response","10","155942","0.0-3.0-10.0","92593","ListB","man","chinese","SW_C_M_B7","","true","7","","","","","","",""
"null","正确","","html-keyboard-response","11","157471","0.0-3.0-11.0-0.0","92593","ListB","man","chinese","SW_C_M_B7","","","","null","","","","","",""
"1791.3999999761581","<img src=""portrait/BM2.jpg""style=""height:400px;""></img>","5","html-button-response","12","159263","0.0-3.0-13.0","92593","ListB","man","chinese","SW_C_M_B7","","true","5","","","","","","",""
"null","正确","","html-keyboard-response","13","160780","0.0-3.0-14.0-0.0","92593","ListB","man","chinese","SW_C_M_B7","","","","null","","","","","",""
"9553.09999999404","<img src=""portrait/BW1.jpg""style=""height:400px;""></img>","0","html-button-response","14","170334","0.0-3.0-16.0","92593","ListB","man","chinese","SW_C_M_B7","","true","0","","","","","","",""
"null","正确","","html-keyboard-response","15","171842","0.0-3.0-17.0-0.0","92593","ListB","man","chinese","SW_C_M_B7","","","","null","","","","","",""
"3589.0999999940395","<img src=""portrait/WW1.jpg""style=""height:400px;""></img>","1","html-button-response","16","175432","0.0-3.0-19.0","92593","ListB","man","chinese","SW_C_M_B7","","true","1","","","","","","",""
"null","正确","","html-keyboard-response","17","176954","0.0-3.0-20.0-0.0","92593","ListB","man","chinese","SW_C_M_B7","","","","null","","","","","",""
"1808.2000000178814","<img src=""portrait/BW2.jpg""style=""height:400px;""></img>","2","html-button-response","18","178763","0.0-3.0-22.0","92593","ListB","man","chinese","SW_C_M_B7","","true","2","","","","","","",""
"null","正确","","html-keyboard-response","19","180266","0.0-3.0-23.0-0.0","92593","ListB","man","chinese","SW_C_M_B7","","","","null","","","","","",""
"1180.8999999761581","<p>您第一次在8题里答对了 8 题。 请点击继续</p>","0","html-button-response","20","181448","0.0-3.0-25.0","92593","ListB","man","chinese","SW_C_M_B7","","","","","","","","","",""
"6106.299999982119","<p>此次实验您将会看到先前记忆任务里的人物照片。</p><p>人物照片消失后您将看到一个动词短语，请正确回忆人物的名字并用特定的 动词短语组成一句完整的句子。</p><p>请在指定的框内输入您的答案。在进入下一题之前请确保您填写了完整的句子。</p><p>人物照片和动词短语只会在屏幕上出现几秒钟，因此请您答题时尽量集中注意力。</p><p>以下是例子。请您在准备好后按下“继续”。</p><img src='img/chinese_speaking_example.jpg' style='width:800px;height:460px;''></img>","0","html-button-response","21","188560","0.0-4.0","92593","ListB","man","chinese","SW_C_M_B7","","","","","","","","","",""
"1108.7000000178814","<p>在实验开始前，将为您展示两个示例实验。</p>","0","html-button-response","22","190671","0.0-5.0","92593","ListB","man","chinese","SW_C_M_B7","","","","","","","","","",""
"null","<img src='img/meet.gif' style='height:400px;''></img>","","html-keyboard-response","23","193689","0.0-6.0","92593","ListB","man","chinese","SW_C_M_B7","","","","null","","","","","",""
"null","<p>正在约见</p>","","html-keyboard-response","24","195691","0.0-7.0","92593","ListB","man","chinese","SW_C_M_B7","","","","null","","","","","",""
"9251.5","<p><b>答案：</b> 霍普正在约见露丝</p>","0","html-button-response","25","204943","0.0-8.0","92593","ListB","man","chinese","SW_C_M_B7","","","","","","","","","",""
"null","<img src='img/spy.gif' style='height:400px;''></img>","","html-keyboard-response","26","207947","0.0-9.0","92593","ListB","man","chinese","SW_C_M_B7","","","","null","","","","","",""
"null","<p>正在监视</p>","","html-keyboard-response","27","209950","0.0-10.0","92593","ListB","man","chinese","SW_C_M_B7","","","","null","","","","","",""
"1207.800000011921","<p><b>答案：</b> 弗雷正在监视麦克</p>","0","html-button-response","28","211158","0.0-11.0","92593","ListB","man","chinese","SW_C_M_B7","","","","","","","","","",""
"2597.4000000059605","<p>准备好开始了吗？</p><br><p><strong>请记住，您的答案需是一句完整的句子</strong></p><p><strong>，并用给到的图片人物和动词短语作答。</strong></p><p><strong>只有正确并完整完成实验才可获得报酬。</strong></p><p><strong> 您不需要加入任何标点符号。</strong></p><br><p>请按 ‘继续’ 键开始。</p>","0","html-button-response","29","214758","0.0-12.0","92593","ListB","man","chinese","SW_C_M_B7","","","","","","","","","",""
"null","<div style=""font-size:60px;"">+</div>","","html-keyboard-response","30","216265","0.0-13.0-0.0","92593","ListB","man","chinese","SW_C_M_B7","","","","null","","","","","",""
"null","<img src='gifs/FemaleRace4a.gif' style='height:400px;''></img>","","html-keyboard-response","31","218267","0.0-13.0-1.0","92593","ListB","man","chinese","SW_C_M_B7","","","","null","","","","","",""
"null","正在跟随","","html-keyboard-response","32","221268","0.0-13.0-2.0","92593","ListB","man","chinese","SW_C_M_B7","","","","null","","","","","",""
"16654","","","survey-text","33","237924","0.0-13.0-3.0","92593","ListB","man","chinese","SW_C_M_B7","","","","","{""Q0"":""凯特正在跟随露丝""}","<img src='gifs/FemaleRace4a.gif' style='height:400px;''></img>","跟随","正在跟随","chinese",""
"null","<div style=""font-size:60px;"">+</div>","","html-keyboard-response","34","238426","0.0-13.0-0.1","92593","ListB","man","chinese","SW_C_M_B7","","","","null","","","","","",""
"null","<img src='gifs/FemaleRace3b.gif' style='height:400px;''></img>","","html-keyboard-response","35","240440","0.0-13.0-1.1","92593","ListB","man","chinese","SW_C_M_B7","","","","null","","","","","",""
"null","正在聘用","","html-keyboard-response","36","243457","0.0-13.0-2.1","92593","ListB","man","chinese","SW_C_M_B7","","","","null","","","","","",""
"14062.799999982119","","","survey-text","37","257538","0.0-13.0-3.1","92593","ListB","man","chinese","SW_C_M_B7","","","","","{""Q0"":""凯特正在聘用露丝""}","<img src='gifs/FemaleRace3b.gif' style='height:400px;''></img>","聘用","正在聘用","chinese",""
"null","<div style=""font-size:60px;"">+</div>","","html-keyboard-response","38","258048","0.0-13.0-0.2","92593","ListB","man","chinese","SW_C_M_B7","","","","null","","","","","",""
"null","<img src='gifs/FemaleRace3b.gif' style='height:400px;''></img>","","html-keyboard-response","39","260059","0.0-13.0-1.2","92593","ListB","man","chinese","SW_C_M_B7","","","","null","","","","","",""
"null","正在看着","","html-keyboard-response","40","263060","0.0-13.0-2.2","92593","ListB","man","chinese","SW_C_M_B7","","","","null","","","","","",""
"7322.600000023842","","","survey-text","41","270384","0.0-13.0-3.2","92593","ListB","man","chinese","SW_C_M_B7","","","","","{""Q0"":""露丝正在看着凯特""}","<img src='gifs/FemaleRace3b.gif' style='height:400px;''></img>","看着","正在看着","chinese",""
"null","<div style=""font-size:60px;"">+</div>","","html-keyboard-response","42","270891","0.0-13.0-0.3","92593","ListB","man","chinese","SW_C_M_B7","","","","null","","","","","",""
"null","<img src='gifs/BlackGender2b.gif' style='height:400px;''></img>","","html-keyboard-response","43","272896","0.0-13.0-1.3","92593","ListB","man","chinese","SW_C_M_B7","","","","null","","","","","",""
"null","正在陪伴","","html-keyboard-response","44","275898","0.0-13.0-2.3","92593","ListB","man","chinese","SW_C_M_B7","","","","null","","","","","",""
"9130.800000011921","","","survey-text","45","285049","0.0-13.0-3.3","92593","ListB","man","chinese","SW_C_M_B7","","","","","{""Q0"":""麦克正在陪伴贝丝""}","<img src='gifs/BlackGender2b.gif' style='height:400px;''></img>","陪伴","正在陪伴","chinese",""
"null","<div style=""font-size:60px;"">+</div>","","html-keyboard-response","46","285563","0.0-13.0-0.4","92593","ListB","man","chinese","SW_C_M_B7","","","","null","","","","","",""
"null","<img src='gifs/MaleRace3a.gif' style='height:400px;''></img>","","html-keyboard-response","47","287579","0.0-13.0-1.4","92593","ListB","man","chinese","SW_C_M_B7","","","","null","","","","","",""
"null","正在面向","","html-keyboard-response","48","290581","0.0-13.0-2.4","92593","ListB","man","chinese","SW_C_M_B7","","","","null","","","","","",""
"19402.20000001788","","","survey-text","49","309993","0.0-13.0-3.4","92593","ListB","man","chinese","SW_C_M_B7","","","","","{""Q0"":""费雷正在面向戴夫""}","<img src='gifs/MaleRace3a.gif' style='height:400px;''></img>","面向","正在面向","chinese",""
"null","<div style=""font-size:60px;"">+</div>","","html-keyboard-response","50","310493","0.0-13.0-0.5","92593","ListB","man","chinese","SW_C_M_B7","","","","null","","","","","",""
"null","<img src='gifs/MaleRace3b.gif' style='height:400px;''></img>","","html-keyboard-response","51","312502","0.0-13.0-1.5","92593","ListB","man","chinese","SW_C_M_B7","","","","null","","","","","",""
"null","正在提到","","html-keyboard-response","52","315515","0.0-13.0-2.5","92593","ListB","man","chinese","SW_C_M_B7","","","","null","","","","","",""
"11903","","","survey-text","53","327425","0.0-13.0-3.5","92593","ListB","man","chinese","SW_C_M_B7","","","","","{""Q0"":""戴夫正在提到费雷""}","<img src='gifs/MaleRace3b.gif' style='height:400px;''></img>","提到","正在提到","chinese",""
"null","<div style=""font-size:60px;"">+</div>","","html-keyboard-response","54","327926","0.0-13.0-0.6","92593","ListB","man","chinese","SW_C_M_B7","","","","null","","","","","",""
"null","<img src='gifs/ChineseGender3b.gif' style='height:400px;''></img>","","html-keyboard-response","55","329930","0.0-13.0-1.6","92593","ListB","man","chinese","SW_C_M_B7","","","","null","","","","","",""
"null","正在介绍","","html-keyboard-response","56","332932","0.0-13.0-2.6","92593","ListB","man","chinese","SW_C_M_B7","","","","null","","","","","",""
"7258.4000000059605","","","survey-text","57","340192","0.0-13.0-3.6","92593","ListB","man","chinese","SW_C_M_B7","","","","","{""Q0"":""露丝正在介绍戴夫""}","<img src='gifs/ChineseGender3b.gif' style='height:400px;''></img>","介绍","正在介绍","chinese",""
"null","<div style=""font-size:60px;"">+</div>","","html-keyboard-response","58","340701","0.0-13.0-0.7","92593","ListB","man","chinese","SW_C_M_B7","","","","null","","","","","",""
"null","<img src='gifs/MaleRace1a.gif' style='height:400px;''></img>","","html-keyboard-response","59","342711","0.0-13.0-1.7","92593","ListB","man","chinese","SW_C_M_B7","","","","null","","","","","",""
"null","正在答应","","html-keyboard-response","60","345714","0.0-13.0-2.7","92593","ListB","man","chinese","SW_C_M_B7","","","","null","","","","","",""
"7631.299999982119","","","survey-text","61","353346","0.0-13.0-3.7","92593","ListB","man","chinese","SW_C_M_B7","","","","","{""Q0"":""卢克正在答应弗雷""}","<img src='gifs/MaleRace1a.gif' style='height:400px;''></img>","答应","正在答应","chinese",""
"null","<div style=""font-size:60px;"">+</div>","","html-keyboard-response","62","353848","0.0-13.0-0.8","92593","ListB","man","chinese","SW_C_M_B7","","","","null","","","","","",""
"null","<img src='gifs/ChineseGender2b.gif' style='height:400px;''></img>","","html-keyboard-response","63","355862","0.0-13.0-1.8","92593","ListB","man","chinese","SW_C_M_B7","","","","null","","","","","",""
"null","正在面向","","html-keyboard-response","64","358877","0.0-13.0-2.8","92593","ListB","man","chinese","SW_C_M_B7","","","","null","","","","","",""
"7477.600000023842","","","survey-text","65","366358","0.0-13.0-3.8","92593","ListB","man","chinese","SW_C_M_B7","","","","","{""Q0"":""卢克正在面向露丝""}","<img src='gifs/ChineseGender2b.gif' style='height:400px;''></img>","面向","正在面向","chinese",""
"null","<div style=""font-size:60px;"">+</div>","","html-keyboard-response","66","366859","0.0-13.0-0.9","92593","ListB","man","chinese","SW_C_M_B7","","","","null","","","","","",""
"null","<img src='gifs/BlackGender1a.gif' style='height:400px;''></img>","","html-keyboard-response","67","368876","0.0-13.0-1.9","92593","ListB","man","chinese","SW_C_M_B7","","","","null","","","","","",""
"null","正在走向","","html-keyboard-response","68","371880","0.0-13.0-2.9","92593","ListB","man","chinese","SW_C_M_B7","","","","null","","","","","",""
"10305.200000017881","","","survey-text","69","382198","0.0-13.0-3.9","92593","ListB","man","chinese","SW_C_M_B7","","","","","{""Q0"":""费雷正在走向贝丝""}","<img src='gifs/BlackGender1a.gif' style='height:400px;''></img>","走向","正在走向","chinese",""
"null","<div style=""font-size:60px;"">+</div>","","html-keyboard-response","70","382704","0.0-13.0-0.10","92593","ListB","man","chinese","SW_C_M_B7","","","","null","","","","","",""
"null","<img src='gifs/ChineseGender3b.gif' style='height:400px;''></img>","","html-keyboard-response","71","384707","0.0-13.0-1.10","92593","ListB","man","chinese","SW_C_M_B7","","","","null","","","","","",""
"null","正在介绍","","html-keyboard-response","72","387709","0.0-13.0-2.10","92593","ListB","man","chinese","SW_C_M_B7","","","","null","","","","","",""
"10650.90000000596","","","survey-text","73","398362","0.0-13.0-3.10","92593","ListB","man","chinese","SW_C_M_B7","","","","","{""Q0"":""戴夫正在接招露丝""}","<img src='gifs/ChineseGender3b.gif' style='height:400px;''></img>","介绍","正在介绍","chinese",""
"null","<div style=""font-size:60px;"">+</div>","","html-keyboard-response","74","398864","0.0-13.0-0.11","92593","ListB","man","chinese","SW_C_M_B7","","","","null","","","","","",""
"null","<img src='gifs/BlackGender2a.gif' style='height:400px;''></img>","","html-keyboard-response","75","400882","0.0-13.0-1.11","92593","ListB","man","chinese","SW_C_M_B7","","","","null","","","","","",""
"null","正在联系","","html-keyboard-response","76","403883","0.0-13.0-2.11","92593","ListB","man","chinese","SW_C_M_B7","","","","null","","","","","",""
"9020.200000017881","","","survey-text","77","412905","0.0-13.0-3.11","92593","ListB","man","chinese","SW_C_M_B7","","","","","{""Q0"":""麦克正在联系贝丝""}","<img src='gifs/BlackGender2a.gif' style='height:400px;''></img>","联系","正在联系","chinese",""
"null","<div style=""font-size:60px;"">+</div>","","html-keyboard-response","78","413409","0.0-13.0-0.12","92593","ListB","man","chinese","SW_C_M_B7","","","","null","","","","","",""
"null","<img src='gifs/ChineseGender4b.gif' style='height:400px;''></img>","","html-keyboard-response","79","415422","0.0-13.0-1.12","92593","ListB","man","chinese","SW_C_M_B7","","","","null","","","","","",""
"null","正在触摸","","html-keyboard-response","80","418427","0.0-13.0-2.12","92593","ListB","man","chinese","SW_C_M_B7","","","","null","","","","","",""
"9049.59999999404","","","survey-text","81","427489","0.0-13.0-3.12","92593","ListB","man","chinese","SW_C_M_B7","","","","","{""Q0"":""戴夫正在触摸霍普""}","<img src='gifs/ChineseGender4b.gif' style='height:400px;''></img>","触摸","正在触摸","chinese",""
"null","<div style=""font-size:60px;"">+</div>","","html-keyboard-response","82","428000","0.0-13.0-0.13","92593","ListB","man","chinese","SW_C_M_B7","","","","null","","","","","",""
"null","<img src='gifs/BlackGender2a.gif' style='height:400px;''></img>","","html-keyboard-response","83","430005","0.0-13.0-1.13","92593","ListB","man","chinese","SW_C_M_B7","","","","null","","","","","",""
"null","正在提到","","html-keyboard-response","84","433007","0.0-13.0-2.13","92593","ListB","man","chinese","SW_C_M_B7","","","","null","","","","","",""
"7550.199999988079","","","survey-text","85","440558","0.0-13.0-3.13","92593","ListB","man","chinese","SW_C_M_B7","","","","","{""Q0"":""麦克正在提到贝丝""}","<img src='gifs/BlackGender2a.gif' style='height:400px;''></img>","提到","正在提到","chinese",""
"null","<div style=""font-size:60px;"">+</div>","","html-keyboard-response","86","441063","0.0-13.0-0.14","92593","ListB","man","chinese","SW_C_M_B7","","","","null","","","","","",""
"null","<img src='gifs/ChineseGender4b.gif' style='height:400px;''></img>","","html-keyboard-response","87","443079","0.0-13.0-1.14","92593","ListB","man","chinese","SW_C_M_B7","","","","null","","","","","",""
"null","正在跟随","","html-keyboard-response","88","446082","0.0-13.0-2.14","92593","ListB","man","chinese","SW_C_M_B7","","","","null","","","","","",""
"6189.0999999940395","","","survey-text","89","452274","0.0-13.0-3.14","92593","ListB","man","chinese","SW_C_M_B7","","","","","{""Q0"":""戴夫正在跟随霍普""}","<img src='gifs/ChineseGender4b.gif' style='height:400px;''></img>","跟随","正在跟随","chinese",""
"null","<div style=""font-size:60px;"">+</div>","","html-keyboard-response","90","452778","0.0-13.0-0.15","92593","ListB","man","chinese","SW_C_M_B7","","","","null","","","","","",""
"null","<img src='gifs/ChineseGender4a.gif' style='height:400px;''></img>","","html-keyboard-response","91","454782","0.0-13.0-1.15","92593","ListB","man","chinese","SW_C_M_B7","","","","null","","","","","",""
"null","正在接近","","html-keyboard-response","92","457796","0.0-13.0-2.15","92593","ListB","man","chinese","SW_C_M_B7","","","","null","","","","","",""
"7993.199999988079","","","survey-text","93","465808","0.0-13.0-3.15","92593","ListB","man","chinese","SW_C_M_B7","","","","","{""Q0"":""戴夫正在接近霍普""}","<img src='gifs/ChineseGender4a.gif' style='height:400px;''></img>","接近","正在接近","chinese",""
"null","<div style=""font-size:60px;"">+</div>","","html-keyboard-response","94","466322","0.0-13.0-0.16","92593","ListB","man","chinese","SW_C_M_B7","","","","null","","","","","",""
"null","<img src='gifs/ChineseGender4a.gif' style='height:400px;''></img>","","html-keyboard-response","95","468329","0.0-13.0-1.16","92593","ListB","man","chinese","SW_C_M_B7","","","","null","","","","","",""
"null","正在介绍","","html-keyboard-response","96","471344","0.0-13.0-2.16","92593","ListB","man","chinese","SW_C_M_B7","","","","null","","","","","",""
"13130.800000011921","","","survey-text","97","484486","0.0-13.0-3.16","92593","ListB","man","chinese","SW_C_M_B7","","","","","{""Q0"":""露丝正在介绍霍普""}","<img src='gifs/ChineseGender4a.gif' style='height:400px;''></img>","介绍","正在介绍","chinese",""
"null","<div style=""font-size:60px;"">+</div>","","html-keyboard-response","98","485001","0.0-13.0-0.17","92593","ListB","man","chinese","SW_C_M_B7","","","","null","","","","","",""
"null","<img src='gifs/BlackGender3a.gif' style='height:400px;''></img>","","html-keyboard-response","99","487003","0.0-13.0-1.17","92593","ListB","man","chinese","SW_C_M_B7","","","","null","","","","","",""
"null","正在加入","","html-keyboard-response","100","490004","0.0-13.0-2.17","92593","ListB","man","chinese","SW_C_M_B7","","","","null","","","","","",""
"12786.59999999404","","","survey-text","101","502803","0.0-13.0-3.17","92593","ListB","man","chinese","SW_C_M_B7","","","","","{""Q0"":""弗雷正在介绍凯特""}","<img src='gifs/BlackGender3a.gif' style='height:400px;''></img>","加入","正在加入","chinese",""
"16410.59999999404","<img src='img/portrait_matrix_listB_chinese.jpg' style='width:900px;height:500px;''></img><p>如果您已经记住了所有的人物和名字，请点击继续。</p><p><strong>请注意：您对先前记忆的面孔将在本实验中被测试5次。</strong></p>","0","html-button-response","102","519215","0.0-14.0-0.0","92593","ListB","man","chinese","SW_C_M_B7","","","","","","","","","",""
"2088.5","<img src=""portrait/WW2.jpg""style=""height:400px;""></img>","3","html-button-response","103","522308","0.0-14.0-1.0","92593","ListB","man","chinese","SW_C_M_B7","","true","3","","","","","","",""
"null","正确","","html-keyboard-response","104","523829","0.0-14.0-2.0-0.0","92593","ListB","man","chinese","SW_C_M_B7","","","","null","","","","","",""
"1744.5999999940395","<img src=""portrait/BM2.jpg""style=""height:400px;""></img>","5","html-button-response","105","525575","0.0-14.0-4.0","92593","ListB","man","chinese","SW_C_M_B7","","true","5","","","","","","",""
"null","正确","","html-keyboard-response","106","527076","0.0-14.0-5.0-0.0","92593","ListB","man","chinese","SW_C_M_B7","","","","null","","","","","",""
"2302.800000011921","<img src=""portrait/BW2.jpg""style=""height:400px;""></img>","2","html-button-response","107","529380","0.0-14.0-7.0","92593","ListB","man","chinese","SW_C_M_B7","","true","2","","","","","","",""
"null","正确","","html-keyboard-response","108","530907","0.0-14.0-8.0-0.0","92593","ListB","man","chinese","SW_C_M_B7","","","","null","","","","","",""
"1234.7000000178814","<img src=""portrait/BM1.jpg""style=""height:400px;""></img>","4","html-button-response","109","532143","0.0-14.0-10.0","92593","ListB","man","chinese","SW_C_M_B7","","true","4","","","","","","",""
"null","正确","","html-keyboard-response","110","533644","0.0-14.0-11.0-0.0","92593","ListB","man","chinese","SW_C_M_B7","","","","null","","","","","",""
"2004.5999999940395","<img src=""portrait/WM2.jpg""style=""height:400px;""></img>","7","html-button-response","111","535649","0.0-14.0-13.0","92593","ListB","man","chinese","SW_C_M_B7","","true","7","","","","","","",""
"null","正确","","html-keyboard-response","112","537161","0.0-14.0-14.0-0.0","92593","ListB","man","chinese","SW_C_M_B7","","","","null","","","","","",""
"2168","<img src=""portrait/BW1.jpg""style=""height:400px;""></img>","0","html-button-response","113","539331","0.0-14.0-16.0","92593","ListB","man","chinese","SW_C_M_B7","","true","0","","","","","","",""
"null","正确","","html-keyboard-response","114","540845","0.0-14.0-17.0-0.0","92593","ListB","man","chinese","SW_C_M_B7","","","","null","","","","","",""
"1438","<img src=""portrait/WM1.jpg""style=""height:400px;""></img>","6","html-button-response","115","542284","0.0-14.0-19.0","92593","ListB","man","chinese","SW_C_M_B7","","true","6","","","","","","",""
"null","正确","","html-keyboard-response","116","543787","0.0-14.0-20.0-0.0","92593","ListB","man","chinese","SW_C_M_B7","","","","null","","","","","",""
"1560.9000000059605","<img src=""portrait/WW1.jpg""style=""height:400px;""></img>","1","html-button-response","117","545349","0.0-14.0-22.0","92593","ListB","man","chinese","SW_C_M_B7","","true","1","","","","","","",""
"null","正确","","html-keyboard-response","118","546875","0.0-14.0-23.0-0.0","92593","ListB","man","chinese","SW_C_M_B7","","","","null","","","","","",""
"1196.3999999761581","<p>您第一次在8题里答对了 8 题。 请点击继续</p>","0","html-button-response","119","548073","0.0-14.0-25.0","92593","ListB","man","chinese","SW_C_M_B7","","","","","","","","","",""
"null","<div style=""font-size:60px;"">+</div>","","html-keyboard-response","120","549594","0.0-15.0-0.0","92593","ListB","man","chinese","SW_C_M_B7","","","","null","","","","","",""
"null","<img src='gifs/BlackGender3a.gif' style='height:400px;''></img>","","html-keyboard-response","121","551611","0.0-15.0-1.0","92593","ListB","man","chinese","SW_C_M_B7","","","","null","","","","","",""
"null","正在聆听","","html-keyboard-response","122","554612","0.0-15.0-2.0","92593","ListB","man","chinese","SW_C_M_B7","","","","null","","","","","",""
"14556.100000023842","","","survey-text","123","569169","0.0-15.0-3.0","92593","ListB","man","chinese","SW_C_M_B7","","","","","{""Q0"":""费雷正在聆听凯特""}","<img src='gifs/BlackGender3a.gif' style='height:400px;''></img>","聆听","正在聆听","chinese",""
"null","<div style=""font-size:60px;"">+</div>","","html-keyboard-response","124","569671","0.0-15.0-0.1","92593","ListB","man","chinese","SW_C_M_B7","","","","null","","","","","",""
"null","<img src='gifs/ChineseGender2a.gif' style='height:400px;''></img>","","html-keyboard-response","125","571686","0.0-15.0-1.1","92593","ListB","man","chinese","SW_C_M_B7","","","","null","","","","","",""
"null","正在聆听","","html-keyboard-response","126","574688","0.0-15.0-2.1","92593","ListB","man","chinese","SW_C_M_B7","","","","null","","","","","",""
"6286","","","survey-text","127","581003","0.0-15.0-3.1","92593","ListB","man","chinese","SW_C_M_B7","","","","","{""Q0"":""卢克正在聆听露丝""}","<img src='gifs/ChineseGender2a.gif' style='height:400px;''></img>","聆听","正在聆听","chinese",""
"null","<div style=""font-size:60px;"">+</div>","","html-keyboard-response","128","581517","0.0-15.0-0.2","92593","ListB","man","chinese","SW_C_M_B7","","","","null","","","","","",""
"null","<img src='gifs/ChineseGender1a.gif' style='height:400px;''></img>","","html-keyboard-response","129","583532","0.0-15.0-1.2","92593","ListB","man","chinese","SW_C_M_B7","","","","null","","","","","",""
"null","正在联系","","html-keyboard-response","130","586533","0.0-15.0-2.2","92593","ListB","man","chinese","SW_C_M_B7","","","","null","","","","","",""
"5877.5999999940395","","","survey-text","131","592413","0.0-15.0-3.2","92593","ListB","man","chinese","SW_C_M_B7","","","","","{""Q0"":""卢克正在联系霍普""}","<img src='gifs/ChineseGender1a.gif' style='height:400px;''></img>","联系","正在联系","chinese",""
"null","<div style=""font-size:60px;"">+</div>","","html-keyboard-response","132","592925","0.0-15.0-0.3","92593","ListB","man","chinese","SW_C_M_B7","","","","null","","","","","",""
"null","<img src='gifs/BlackGender2b.gif' style='height:400px;''></img>","","html-keyboard-response","133","594937","0.0-15.0-1.3","92593","ListB","man","chinese","SW_C_M_B7","","","","null","","","","","",""
"null","正在表扬","","html-keyboard-response","134","597939","0.0-15.0-2.3","92593","ListB","man","chinese","SW_C_M_B7","","","","null","","","","","",""
"5650.5","","","survey-text","135","603593","0.0-15.0-3.3","92593","ListB","man","chinese","SW_C_M_B7","","","","","{""Q0"":""贝斯正在表扬麦克""}","<img src='gifs/BlackGender2b.gif' style='height:400px;''></img>","表扬","正在表扬","chinese",""
"null","<div style=""font-size:60px;"">+</div>","","html-keyboard-response","136","604096","0.0-15.0-0.4","92593","ListB","man","chinese","SW_C_M_B7","","","","null","","","","","",""
"null","<img src='gifs/FemaleRace4a.gif' style='height:400px;''></img>","","html-keyboard-response","137","606105","0.0-15.0-1.4","92593","ListB","man","chinese","SW_C_M_B7","","","","null","","","","","",""
"null","正在陪伴","","html-keyboard-response","138","609106","0.0-15.0-2.4","92593","ListB","man","chinese","SW_C_M_B7","","","","null","","","","","",""
"4757.299999982119","","","survey-text","139","613876","0.0-15.0-3.4","92593","ListB","man","chinese","SW_C_M_B7","","","","","{""Q0"":""露丝正在陪伴凯特""}","<img src='gifs/FemaleRace4a.gif' style='height:400px;''></img>","陪伴","正在陪伴","chinese",""
"null","<div style=""font-size:60px;"">+</div>","","html-keyboard-response","140","614392","0.0-15.0-0.5","92593","ListB","man","chinese","SW_C_M_B7","","","","null","","","","","",""
"null","<img src='gifs/ChineseGender2a.gif' style='height:400px;''></img>","","html-keyboard-response","141","616404","0.0-15.0-1.5","92593","ListB","man","chinese","SW_C_M_B7","","","","null","","","","","",""
"null","正在加入","","html-keyboard-response","142","619406","0.0-15.0-2.5","92593","ListB","man","chinese","SW_C_M_B7","","","","null","","","","","",""
"4652.300000011921","","","survey-text","143","624061","0.0-15.0-3.5","92593","ListB","man","chinese","SW_C_M_B7","","","","","{""Q0"":""露丝正在加入卢克""}","<img src='gifs/ChineseGender2a.gif' style='height:400px;''></img>","加入","正在加入","chinese",""
"null","<div style=""font-size:60px;"">+</div>","","html-keyboard-response","144","624578","0.0-15.0-0.6","92593","ListB","man","chinese","SW_C_M_B7","","","","null","","","","","",""
"null","<img src='gifs/BlackGender1b.gif' style='height:400px;''></img>","","html-keyboard-response","145","626585","0.0-15.0-1.6","92593","ListB","man","chinese","SW_C_M_B7","","","","null","","","","","",""
"null","正在陪伴","","html-keyboard-response","146","629600","0.0-15.0-2.6","92593","ListB","man","chinese","SW_C_M_B7","","","","null","","","","","",""
"8382.699999988079","","","survey-text","147","637990","0.0-15.0-3.6","92593","ListB","man","chinese","SW_C_M_B7","","","","","{""Q0"":""弗雷正在陪伴贝斯""}","<img src='gifs/BlackGender1b.gif' style='height:400px;''></img>","陪伴","正在陪伴","chinese",""
"null","<div style=""font-size:60px;"">+</div>","","html-keyboard-response","148","638502","0.0-15.0-0.7","92593","ListB","man","chinese","SW_C_M_B7","","","","null","","","","","",""
"null","<img src='gifs/FemaleRace2a.gif' style='height:400px;''></img>","","html-keyboard-response","149","640504","0.0-15.0-1.7","92593","ListB","man","chinese","SW_C_M_B7","","","","null","","","","","",""
"null","正在面向","","html-keyboard-response","150","643516","0.0-15.0-2.7","92593","ListB","man","chinese","SW_C_M_B7","","","","null","","","","","",""
"8090.5999999940395","","","survey-text","151","651622","0.0-15.0-3.7","92593","ListB","man","chinese","SW_C_M_B7","","","","","{""Q0"":""凯特正在面向霍普""}","<img src='gifs/FemaleRace2a.gif' style='height:400px;''></img>","面向","正在面向","chinese",""
"null","<div style=""font-size:60px;"">+</div>","","html-keyboard-response","152","652127","0.0-15.0-0.8","92593","ListB","man","chinese","SW_C_M_B7","","","","null","","","","","",""
"null","<img src='gifs/MaleRace3b.gif' style='height:400px;''></img>","","html-keyboard-response","153","654139","0.0-15.0-1.8","92593","ListB","man","chinese","SW_C_M_B7","","","","null","","","","","",""
"null","正在联系","","html-keyboard-response","154","657141","0.0-15.0-2.8","92593","ListB","man","chinese","SW_C_M_B7","","","","null","","","","","",""
"6165.299999982119","","","survey-text","155","663309","0.0-15.0-3.8","92593","ListB","man","chinese","SW_C_M_B7","","","","","{""Q0"":""戴夫正在联系弗雷""}","<img src='gifs/MaleRace3b.gif' style='height:400px;''></img>","联系","正在联系","chinese",""
"null","<div style=""font-size:60px;"">+</div>","","html-keyboard-response","156","663815","0.0-15.0-0.9","92593","ListB","man","chinese","SW_C_M_B7","","","","null","","","","","",""
"null","<img src='gifs/ChineseGender1a.gif' style='height:400px;''></img>","","html-keyboard-response","157","665831","0.0-15.0-1.9","92593","ListB","man","chinese","SW_C_M_B7","","","","null","","","","","",""
"null","正在接近","","html-keyboard-response","158","668848","0.0-15.0-2.9","92593","ListB","man","chinese","SW_C_M_B7","","","","null","","","","","",""
"4850.199999988079","","","survey-text","159","673714","0.0-15.0-3.9","92593","ListB","man","chinese","SW_C_M_B7","","","","","{""Q0"":""霍普正在联系卢克""}","<img src='gifs/ChineseGender1a.gif' style='height:400px;''></img>","接近","正在接近","chinese",""
"null","<div style=""font-size:60px;"">+</div>","","html-keyboard-response","160","674219","0.0-15.0-0.10","92593","ListB","man","chinese","SW_C_M_B7","","","","null","","","","","",""
"null","<img src='gifs/FemaleRace1b.gif' style='height:400px;''></img>","","html-keyboard-response","161","676233","0.0-15.0-1.10","92593","ListB","man","chinese","SW_C_M_B7","","","","null","","","","","",""
"null","正在聘用","","html-keyboard-response","162","679250","0.0-15.0-2.10","92593","ListB","man","chinese","SW_C_M_B7","","","","null","","","","","",""
"9018.59999999404","","","survey-text","163","688275","0.0-15.0-3.10","92593","ListB","man","chinese","SW_C_M_B7","","","","","{""Q0"":""霍普正在聘用贝斯""}","<img src='gifs/FemaleRace1b.gif' style='height:400px;''></img>","聘用","正在聘用","chinese",""
"null","<div style=""font-size:60px;"">+</div>","","html-keyboard-response","164","688784","0.0-15.0-0.11","92593","ListB","man","chinese","SW_C_M_B7","","","","null","","","","","",""
"null","<img src='gifs/MaleRace1b.gif' style='height:400px;''></img>","","html-keyboard-response","165","690800","0.0-15.0-1.11","92593","ListB","man","chinese","SW_C_M_B7","","","","null","","","","","",""
"null","正在走向","","html-keyboard-response","166","693802","0.0-15.0-2.11","92593","ListB","man","chinese","SW_C_M_B7","","","","null","","","","","",""
"4485.0999999940395","","","survey-text","167","698289","0.0-15.0-3.11","92593","ListB","man","chinese","SW_C_M_B7","","","","","{""Q0"":""卢克正在走向弗雷""}","<img src='gifs/MaleRace1b.gif' style='height:400px;''></img>","走向","正在走向","chinese",""
"null","<div style=""font-size:60px;"">+</div>","","html-keyboard-response","168","698802","0.0-15.0-0.12","92593","ListB","man","chinese","SW_C_M_B7","","","","null","","","","","",""
"null","<img src='gifs/MaleRace4b.gif' style='height:400px;''></img>","","html-keyboard-response","169","700814","0.0-15.0-1.12","92593","ListB","man","chinese","SW_C_M_B7","","","","null","","","","","",""
"null","正在提到","","html-keyboard-response","170","703822","0.0-15.0-2.12","92593","ListB","man","chinese","SW_C_M_B7","","","","null","","","","","",""
"5125.199999988079","","","survey-text","171","708950","0.0-15.0-3.12","92593","ListB","man","chinese","SW_C_M_B7","","","","","{""Q0"":""戴夫正在提到麦克""}","<img src='gifs/MaleRace4b.gif' style='height:400px;''></img>","提到","正在提到","chinese",""
"null","<div style=""font-size:60px;"">+</div>","","html-keyboard-response","172","709461","0.0-15.0-0.13","92593","ListB","man","chinese","SW_C_M_B7","","","","null","","","","","",""
"null","<img src='gifs/FemaleRace3a.gif' style='height:400px;''></img>","","html-keyboard-response","173","711469","0.0-15.0-1.13","92593","ListB","man","chinese","SW_C_M_B7","","","","null","","","","","",""
"null","正在聆听","","html-keyboard-response","174","714485","0.0-15.0-2.13","92593","ListB","man","chinese","SW_C_M_B7","","","","null","","","","","",""
"10683.800000011921","","","survey-text","175","725171","0.0-15.0-3.13","92593","ListB","man","chinese","SW_C_M_B7","","","","","{""Q0"":""露丝正在聆听贝斯""}","<img src='gifs/FemaleRace3a.gif' style='height:400px;''></img>","聆听","正在聆听","chinese",""
"null","<div style=""font-size:60px;"">+</div>","","html-keyboard-response","176","725672","0.0-15.0-0.14","92593","ListB","man","chinese","SW_C_M_B7","","","","null","","","","","",""
"null","<img src='gifs/BlackGender1a.gif' style='height:400px;''></img>","","html-keyboard-response","177","727686","0.0-15.0-1.14","92593","ListB","man","chinese","SW_C_M_B7","","","","null","","","","","",""
"null","正在提到","","html-keyboard-response","178","730689","0.0-15.0-2.14","92593","ListB","man","chinese","SW_C_M_B7","","","","null","","","","","",""
"5952.5","","","survey-text","179","736659","0.0-15.0-3.14","92593","ListB","man","chinese","SW_C_M_B7","","","","","{""Q0"":""弗雷正在提到凯特""}","<img src='gifs/BlackGender1a.gif' style='height:400px;''></img>","提到","正在提到","chinese",""
"null","<div style=""font-size:60px;"">+</div>","","html-keyboard-response","180","737166","0.0-15.0-0.15","92593","ListB","man","chinese","SW_C_M_B7","","","","null","","","","","",""
"null","<img src='gifs/MaleRace3a.gif' style='height:400px;''></img>","","html-keyboard-response","181","739173","0.0-15.0-1.15","92593","ListB","man","chinese","SW_C_M_B7","","","","null","","","","","",""
"null","正在说服","","html-keyboard-response","182","742189","0.0-15.0-2.15","92593","ListB","man","chinese","SW_C_M_B7","","","","null","","","","","",""
"4920.9000000059605","","","survey-text","183","747113","0.0-15.0-3.15","92593","ListB","man","chinese","SW_C_M_B7","","","","","{""Q0"":""弗雷正在说服戴夫""}","<img src='gifs/MaleRace3a.gif' style='height:400px;''></img>","说服","正在说服","chinese",""
"null","<div style=""font-size:60px;"">+</div>","","html-keyboard-response","184","747627","0.0-15.0-0.16","92593","ListB","man","chinese","SW_C_M_B7","","","","null","","","","","",""
"null","<img src='gifs/ChineseGender1b.gif' style='height:400px;''></img>","","html-keyboard-response","185","749642","0.0-15.0-1.16","92593","ListB","man","chinese","SW_C_M_B7","","","","null","","","","","",""
"null","正在说服","","html-keyboard-response","186","752658","0.0-15.0-2.16","92593","ListB","man","chinese","SW_C_M_B7","","","","null","","","","","",""
"9203.90000000596","","","survey-text","187","761875","0.0-15.0-3.16","92593","ListB","man","chinese","SW_C_M_B7","","","","","{""Q0"":""卢克正在说服霍普""}","<img src='gifs/ChineseGender1b.gif' style='height:400px;''></img>","说服","正在说服","chinese",""
"null","<div style=""font-size:60px;"">+</div>","","html-keyboard-response","188","762379","0.0-15.0-0.17","92593","ListB","man","chinese","SW_C_M_B7","","","","null","","","","","",""
"null","<img src='gifs/MaleRace2b.gif' style='height:400px;''></img>","","html-keyboard-response","189","764382","0.0-15.0-1.17","92593","ListB","man","chinese","SW_C_M_B7","","","","null","","","","","",""
"null","正在答应","","html-keyboard-response","190","767395","0.0-15.0-2.17","92593","ListB","man","chinese","SW_C_M_B7","","","","null","","","","","",""
"4901","","","survey-text","191","772313","0.0-15.0-3.17","92593","ListB","man","chinese","SW_C_M_B7","","","","","{""Q0"":""麦克正在答应卢克""}","<img src='gifs/MaleRace2b.gif' style='height:400px;''></img>","答应","正在答应","chinese",""
"2068.600000023842","<img src='img/portrait_matrix_listB_chinese.jpg' style='width:900px;height:500px;''></img><p>如果您已经记住了所有的人物和名字，请点击继续。</p><p><strong>请注意：您对先前记忆的面孔将在本实验中被测试5次。</strong></p>","0","html-button-response","192","774383","0.0-16.0-0.0","92593","ListB","man","chinese","SW_C_M_B7","","","","","","","","","",""
"2901.199999988079","<img src=""portrait/WW1.jpg""style=""height:400px;""></img>","1","html-button-response","193","778287","0.0-16.0-1.0","92593","ListB","man","chinese","SW_C_M_B7","","true","1","","","","","","",""
"null","正确","","html-keyboard-response","194","779800","0.0-16.0-2.0-0.0","92593","ListB","man","chinese","SW_C_M_B7","","","","null","","","","","",""
"1210.7999999821186","<img src=""portrait/BW2.jpg""style=""height:400px;""></img>","2","html-button-response","195","781012","0.0-16.0-4.0","92593","ListB","man","chinese","SW_C_M_B7","","true","2","","","","","","",""
"null","正确","","html-keyboard-response","196","782516","0.0-16.0-5.0-0.0","92593","ListB","man","chinese","SW_C_M_B7","","","","null","","","","","",""
"1602","<img src=""portrait/BM1.jpg""style=""height:400px;""></img>","4","html-button-response","197","784120","0.0-16.0-7.0","92593","ListB","man","chinese","SW_C_M_B7","","true","4","","","","","","",""
"null","正确","","html-keyboard-response","198","785641","0.0-16.0-8.0-0.0","92593","ListB","man","chinese","SW_C_M_B7","","","","null","","","","","",""
"1610.9000000059605","<img src=""portrait/BW1.jpg""style=""height:400px;""></img>","0","html-button-response","199","787254","0.0-16.0-10.0","92593","ListB","man","chinese","SW_C_M_B7","","true","0","","","","","","",""
"null","正确","","html-keyboard-response","200","788769","0.0-16.0-11.0-0.0","92593","ListB","man","chinese","SW_C_M_B7","","","","null","","","","","",""
"1146.5","<img src=""portrait/BM2.jpg""style=""height:400px;""></img>","5","html-button-response","201","789917","0.0-16.0-13.0","92593","ListB","man","chinese","SW_C_M_B7","","true","5","","","","","","",""
"null","正确","","html-keyboard-response","202","791436","0.0-16.0-14.0-0.0","92593","ListB","man","chinese","SW_C_M_B7","","","","null","","","","","",""
"1237.199999988079","<img src=""portrait/WM1.jpg""style=""height:400px;""></img>","6","html-button-response","203","792674","0.0-16.0-16.0","92593","ListB","man","chinese","SW_C_M_B7","","true","6","","","","","","",""
"null","正确","","html-keyboard-response","204","794177","0.0-16.0-17.0-0.0","92593","ListB","man","chinese","SW_C_M_B7","","","","null","","","","","",""
"2830.300000011921","<img src=""portrait/WM2.jpg""style=""height:400px;""></img>","7","html-button-response","205","797009","0.0-16.0-19.0","92593","ListB","man","chinese","SW_C_M_B7","","true","7","","","","","","",""
"null","正确","","html-keyboard-response","206","798521","0.0-16.0-20.0-0.0","92593","ListB","man","chinese","SW_C_M_B7","","","","null","","","","","",""
"1909.199999988079","<img src=""portrait/WW2.jpg""style=""height:400px;""></img>","3","html-button-response","207","800432","0.0-16.0-22.0","92593","ListB","man","chinese","SW_C_M_B7","","true","3","","","","","","",""
"null","正确","","html-keyboard-response","208","801943","0.0-16.0-23.0-0.0","92593","ListB","man","chinese","SW_C_M_B7","","","","null","","","","","",""
"737.7000000178814","<p>您第一次在8题里答对了 8 题。 请点击继续</p>","0","html-button-response","209","802683","0.0-16.0-25.0","92593","ListB","man","chinese","SW_C_M_B7","","","","","","","","","",""
"null","<div style=""font-size:60px;"">+</div>","","html-keyboard-response","210","804189","0.0-17.0-0.0","92593","ListB","man","chinese","SW_C_M_B7","","","","null","","","","","",""
"null","<img src='gifs/ChineseGender3a.gif' style='height:400px;''></img>","","html-keyboard-response","211","806204","0.0-17.0-1.0","92593","ListB","man","chinese","SW_C_M_B7","","","","null","","","","","",""
"null","正在答应","","html-keyboard-response","212","809218","0.0-17.0-2.0","92593","ListB","man","chinese","SW_C_M_B7","","","","null","","","","","",""
"9518.699999988079","","","survey-text","213","818749","0.0-17.0-3.0","92593","ListB","man","chinese","SW_C_M_B7","","","","","{""Q0"":""戴夫正在答应露丝""}","<img src='gifs/ChineseGender3a.gif' style='height:400px;''></img>","答应","正在答应","chinese",""
"null","<div style=""font-size:60px;"">+</div>","","html-keyboard-response","214","819251","0.0-17.0-0.1","92593","ListB","man","chinese","SW_C_M_B7","","","","null","","","","","",""
"null","<img src='gifs/FemaleRace3a.gif' style='height:400px;''></img>","","html-keyboard-response","215","821253","0.0-17.0-1.1","92593","ListB","man","chinese","SW_C_M_B7","","","","null","","","","","",""
"null","正在触摸","","html-keyboard-response","216","824268","0.0-17.0-2.1","92593","ListB","man","chinese","SW_C_M_B7","","","","null","","","","","",""
"4338.899999976158","","","survey-text","217","828609","0.0-17.0-3.1","92593","ListB","man","chinese","SW_C_M_B7","","","","","{""Q0"":""露丝正在触摸贝斯""}","<img src='gifs/FemaleRace3a.gif' style='height:400px;''></img>","触摸","正在触摸","chinese",""
"null","<div style=""font-size:60px;"">+</div>","","html-keyboard-response","218","829110","0.0-17.0-0.2","92593","ListB","man","chinese","SW_C_M_B7","","","","null","","","","","",""
"null","<img src='gifs/MaleRace4a.gif' style='height:400px;''></img>","","html-keyboard-response","219","831126","0.0-17.0-1.2","92593","ListB","man","chinese","SW_C_M_B7","","","","null","","","","","",""
"null","正在触摸","","html-keyboard-response","220","834143","0.0-17.0-2.2","92593","ListB","man","chinese","SW_C_M_B7","","","","null","","","","","",""
"5121.9000000059605","","","survey-text","221","839282","0.0-17.0-3.2","92593","ListB","man","chinese","SW_C_M_B7","","","","","{""Q0"":""戴夫正在触摸麦克""}","<img src='gifs/MaleRace4a.gif' style='height:400px;''></img>","触摸","正在触摸","chinese",""
"null","<div style=""font-size:60px;"">+</div>","","html-keyboard-response","222","839785","0.0-17.0-0.3","92593","ListB","man","chinese","SW_C_M_B7","","","","null","","","","","",""
"null","<img src='gifs/BlackGender3b.gif' style='height:400px;''></img>","","html-keyboard-response","223","841800","0.0-17.0-1.3","92593","ListB","man","chinese","SW_C_M_B7","","","","null","","","","","",""
"null","正在说服","","html-keyboard-response","224","844805","0.0-17.0-2.3","92593","ListB","man","chinese","SW_C_M_B7","","","","null","","","","","",""
"10017.09999999404","","","survey-text","225","854836","0.0-17.0-3.3","92593","ListB","man","chinese","SW_C_M_B7","","","","","{""Q0"":""弗雷正在说服凯特""}","<img src='gifs/BlackGender3b.gif' style='height:400px;''></img>","说服","正在说服","chinese",""
"null","<div style=""font-size:60px;"">+</div>","","html-keyboard-response","226","855349","0.0-17.0-0.4","92593","ListB","man","chinese","SW_C_M_B7","","","","null","","","","","",""
"null","<img src='gifs/FemaleRace1a.gif' style='height:400px;''></img>","","html-keyboard-response","227","857360","0.0-17.0-1.4","92593","ListB","man","chinese","SW_C_M_B7","","","","null","","","","","",""
"null","正在接近","","html-keyboard-response","228","860362","0.0-17.0-2.4","92593","ListB","man","chinese","SW_C_M_B7","","","","null","","","","","",""
"4964.0999999940395","","","survey-text","229","865329","0.0-17.0-3.4","92593","ListB","man","chinese","SW_C_M_B7","","","","","{""Q0"":""贝斯正在接近霍普""}","<img src='gifs/FemaleRace1a.gif' style='height:400px;''></img>","接近","正在接近","chinese",""
"null","<div style=""font-size:60px;"">+</div>","","html-keyboard-response","230","865845","0.0-17.0-0.5","92593","ListB","man","chinese","SW_C_M_B7","","","","null","","","","","",""
"null","<img src='gifs/MaleRace2a.gif' style='height:400px;''></img>","","html-keyboard-response","231","867860","0.0-17.0-1.5","92593","ListB","man","chinese","SW_C_M_B7","","","","null","","","","","",""
"null","正在表扬","","html-keyboard-response","232","870862","0.0-17.0-2.5","92593","ListB","man","chinese","SW_C_M_B7","","","","null","","","","","",""
"13504.5","","","survey-text","233","884368","0.0-17.0-3.5","92593","ListB","man","chinese","SW_C_M_B7","","","","","{""Q0"":""麦克正在表扬卢克""}","<img src='gifs/MaleRace2a.gif' style='height:400px;''></img>","表扬","正在表扬","chinese",""
"null","<div style=""font-size:60px;"">+</div>","","html-keyboard-response","234","884875","0.0-17.0-0.6","92593","ListB","man","chinese","SW_C_M_B7","","","","null","","","","","",""
"null","<img src='gifs/BlackGender4a.gif' style='height:400px;''></img>","","html-keyboard-response","235","886891","0.0-17.0-1.6","92593","ListB","man","chinese","SW_C_M_B7","","","","null","","","","","",""
"null","正在面向","","html-keyboard-response","236","889896","0.0-17.0-2.6","92593","ListB","man","chinese","SW_C_M_B7","","","","null","","","","","",""
"6062","","","survey-text","237","895960","0.0-17.0-3.6","92593","ListB","man","chinese","SW_C_M_B7","","","","","{""Q0"":""凯特正在面向麦克""}","<img src='gifs/BlackGender4a.gif' style='height:400px;''></img>","面向","正在面向","chinese",""
"null","<div style=""font-size:60px;"">+</div>","","html-keyboard-response","238","896469","0.0-17.0-0.7","92593","ListB","man","chinese","SW_C_M_B7","","","","null","","","","","",""
"null","<img src='gifs/ChineseGender3a.gif' style='height:400px;''></img>","","html-keyboard-response","239","898473","0.0-17.0-1.7","92593","ListB","man","chinese","SW_C_M_B7","","","","null","","","","","",""
"null","正在跟随","","html-keyboard-response","240","901477","0.0-17.0-2.7","92593","ListB","man","chinese","SW_C_M_B7","","","","null","","","","","",""
"5609.4000000059605","","","survey-text","241","907088","0.0-17.0-3.7","92593","ListB","man","chinese","SW_C_M_B7","","","","","{""Q0"":""露丝正在跟随戴夫""}","<img src='gifs/ChineseGender3a.gif' style='height:400px;''></img>","跟随","正在跟随","chinese",""
"null","<div style=""font-size:60px;"">+</div>","","html-keyboard-response","242","907593","0.0-17.0-0.8","92593","ListB","man","chinese","SW_C_M_B7","","","","null","","","","","",""
"null","<img src='gifs/FemaleRace1b.gif' style='height:400px;''></img>","","html-keyboard-response","243","909610","0.0-17.0-1.8","92593","ListB","man","chinese","SW_C_M_B7","","","","null","","","","","",""
"null","正在聘用","","html-keyboard-response","244","912620","0.0-17.0-2.8","92593","ListB","man","chinese","SW_C_M_B7","","","","null","","","","","",""
"6536.199999988079","","","survey-text","245","919159","0.0-17.0-3.8","92593","ListB","man","chinese","SW_C_M_B7","","","","","{""Q0"":""贝斯正在聘用霍普""}","<img src='gifs/FemaleRace1b.gif' style='height:400px;''></img>","聘用","正在聘用","chinese",""
"null","<div style=""font-size:60px;"">+</div>","","html-keyboard-response","246","919672","0.0-17.0-0.9","92593","ListB","man","chinese","SW_C_M_B7","","","","null","","","","","",""
"null","<img src='gifs/MaleRace4b.gif' style='height:400px;''></img>","","html-keyboard-response","247","921679","0.0-17.0-1.9","92593","ListB","man","chinese","SW_C_M_B7","","","","null","","","","","",""
"null","正在聘用","","html-keyboard-response","248","924690","0.0-17.0-2.9","92593","ListB","man","chinese","SW_C_M_B7","","","","null","","","","","",""
"6097.299999982119","","","survey-text","249","930790","0.0-17.0-3.9","92593","ListB","man","chinese","SW_C_M_B7","","","","","{""Q0"":""戴夫正在聘用麦克""}","<img src='gifs/MaleRace4b.gif' style='height:400px;''></img>","聘用","正在聘用","chinese",""
"null","<div style=""font-size:60px;"">+</div>","","html-keyboard-response","250","931300","0.0-17.0-0.10","92593","ListB","man","chinese","SW_C_M_B7","","","","null","","","","","",""
"null","<img src='gifs/MaleRace1a.gif' style='height:400px;''></img>","","html-keyboard-response","251","933307","0.0-17.0-1.10","92593","ListB","man","chinese","SW_C_M_B7","","","","null","","","","","",""
"null","正在看着","","html-keyboard-response","252","936315","0.0-17.0-2.10","92593","ListB","man","chinese","SW_C_M_B7","","","","null","","","","","",""
"4143.300000011921","","","survey-text","253","940461","0.0-17.0-3.10","92593","ListB","man","chinese","SW_C_M_B7","","","","","{""Q0"":""弗雷正在看着卢克""}","<img src='gifs/MaleRace1a.gif' style='height:400px;''></img>","看着","正在看着","chinese",""
"null","<div style=""font-size:60px;"">+</div>","","html-keyboard-response","254","940971","0.0-17.0-0.11","92593","ListB","man","chinese","SW_C_M_B7","","","","null","","","","","",""
"null","<img src='gifs/FemaleRace2b.gif' style='height:400px;''></img>","","html-keyboard-response","255","942985","0.0-17.0-1.11","92593","ListB","man","chinese","SW_C_M_B7","","","","null","","","","","",""
"null","正在加入","","html-keyboard-response","256","946002","0.0-17.0-2.11","92593","ListB","man","chinese","SW_C_M_B7","","","","null","","","","","",""
"8223","","","survey-text","257","954247","0.0-17.0-3.11","92593","ListB","man","chinese","SW_C_M_B7","","","","","{""Q0"":""凯特正在加入霍普""}","<img src='gifs/FemaleRace2b.gif' style='height:400px;''></img>","加入","正在加入","chinese",""
"null","<div style=""font-size:60px;"">+</div>","","html-keyboard-response","258","954753","0.0-17.0-0.12","92593","ListB","man","chinese","SW_C_M_B7","","","","null","","","","","",""
"null","<img src='gifs/MaleRace4a.gif' style='height:400px;''></img>","","html-keyboard-response","259","956767","0.0-17.0-1.12","92593","ListB","man","chinese","SW_C_M_B7","","","","null","","","","","",""
"null","正在答应","","html-keyboard-response","260","959784","0.0-17.0-2.12","92593","ListB","man","chinese","SW_C_M_B7","","","","null","","","","","",""
"4148.199999988079","","","survey-text","261","963935","0.0-17.0-3.12","92593","ListB","man","chinese","SW_C_M_B7","","","","","{""Q0"":""麦克正在答应戴夫""}","<img src='gifs/MaleRace4a.gif' style='height:400px;''></img>","答应","正在答应","chinese",""
"null","<div style=""font-size:60px;"">+</div>","","html-keyboard-response","262","964451","0.0-17.0-0.13","92593","ListB","man","chinese","SW_C_M_B7","","","","null","","","","","",""
"null","<img src='gifs/BlackGender3b.gif' style='height:400px;''></img>","","html-keyboard-response","263","966455","0.0-17.0-1.13","92593","ListB","man","chinese","SW_C_M_B7","","","","null","","","","","",""
"null","正在陪伴","","html-keyboard-response","264","969460","0.0-17.0-2.13","92593","ListB","man","chinese","SW_C_M_B7","","","","null","","","","","",""
"11566.700000017881","","","survey-text","265","981030","0.0-17.0-3.13","92593","ListB","man","chinese","SW_C_M_B7","","","","","{""Q0"":""凯特正在陪伴弗雷""}","<img src='gifs/BlackGender3b.gif' style='height:400px;''></img>","陪伴","正在陪伴","chinese",""
"null","<div style=""font-size:60px;"">+</div>","","html-keyboard-response","266","981532","0.0-17.0-0.14","92593","ListB","man","chinese","SW_C_M_B7","","","","null","","","","","",""
"null","<img src='gifs/ChineseGender1b.gif' style='height:400px;''></img>","","html-keyboard-response","267","983534","0.0-17.0-1.14","92593","ListB","man","chinese","SW_C_M_B7","","","","null","","","","","",""
"null","正在触摸","","html-keyboard-response","268","986550","0.0-17.0-2.14","92593","ListB","man","chinese","SW_C_M_B7","","","","null","","","","","",""
"4020.399999976158","","","survey-text","269","990572","0.0-17.0-3.14","92593","ListB","man","chinese","SW_C_M_B7","","","","","{""Q0"":""卢克正在触摸霍普""}","<img src='gifs/ChineseGender1b.gif' style='height:400px;''></img>","触摸","正在触摸","chinese",""
"null","<div style=""font-size:60px;"">+</div>","","html-keyboard-response","270","991078","0.0-17.0-0.15","92593","ListB","man","chinese","SW_C_M_B7","","","","null","","","","","",""
"null","<img src='gifs/FemaleRace1a.gif' style='height:400px;''></img>","","html-keyboard-response","271","993094","0.0-17.0-1.15","92593","ListB","man","chinese","SW_C_M_B7","","","","null","","","","","",""
"null","正在跟随","","html-keyboard-response","272","996096","0.0-17.0-2.15","92593","ListB","man","chinese","SW_C_M_B7","","","","null","","","","","",""
"9470.59999999404","","","survey-text","273","1005570","0.0-17.0-3.15","92593","ListB","man","chinese","SW_C_M_B7","","","","","{""Q0"":""霍普正在跟随贝斯""}","<img src='gifs/FemaleRace1a.gif' style='height:400px;''></img>","跟随","正在跟随","chinese",""
"null","<div style=""font-size:60px;"">+</div>","","html-keyboard-response","274","1006085","0.0-17.0-0.16","92593","ListB","man","chinese","SW_C_M_B7","","","","null","","","","","",""
"null","<img src='gifs/BlackGender4b.gif' style='height:400px;''></img>","","html-keyboard-response","275","1008087","0.0-17.0-1.16","92593","ListB","man","chinese","SW_C_M_B7","","","","null","","","","","",""
"null","正在说服","","html-keyboard-response","276","1011102","0.0-17.0-2.16","92593","ListB","man","chinese","SW_C_M_B7","","","","null","","","","","",""
"9342.699999988079","","","survey-text","277","1020447","0.0-17.0-3.16","92593","ListB","man","chinese","SW_C_M_B7","","","","","{""Q0"":""麦克正在说服凯特""}","<img src='gifs/BlackGender4b.gif' style='height:400px;''></img>","说服","正在说服","chinese",""
"null","<div style=""font-size:60px;"">+</div>","","html-keyboard-response","278","1020955","0.0-17.0-0.17","92593","ListB","man","chinese","SW_C_M_B7","","","","null","","","","","",""
"null","<img src='gifs/FemaleRace4b.gif' style='height:400px;''></img>","","html-keyboard-response","279","1022965","0.0-17.0-1.17","92593","ListB","man","chinese","SW_C_M_B7","","","","null","","","","","",""
"null","正在表扬","","html-keyboard-response","280","1025976","0.0-17.0-2.17","92593","ListB","man","chinese","SW_C_M_B7","","","","null","","","","","",""
"6480.9000000059605","","","survey-text","281","1032459","0.0-17.0-3.17","92593","ListB","man","chinese","SW_C_M_B7","","","","","{""Q0"":""露丝正在表演凯特""}","<img src='gifs/FemaleRace4b.gif' style='height:400px;''></img>","表扬","正在表扬","chinese",""
"3439.7000000178814","<p>Thank you for completing that task.</p><p>The final part of this session is a short questionnaire.</p><p>Press Continue.</p>","0","html-button-response","282","1035900","0.0-18.0","92593","ListB","man","chinese","SW_C_M_B7","","","","","","","","","",""
"29163.90000000596","","","survey-text","283","1066083","0.0-19.0","92593","ListB","man","chinese","SW_C_M_B7","","","","","{""Q0"":""25"",""Q1"":""Chinese"",""Q2"":""Chinese"",""Q3"":""UK"",""Q4"":""Chinese"",""Q5"":""Asain"",""Q6"":""Male""}","","","","","demographics"
"3704.5","<p>Have you lived in the UK for the last 5 years or more?</p>","1","html-button-response","284","1069789","0.0-20.0","92593","ListB","man","chinese","SW_C_M_B7","","","","","","","","","","fiveyears"
"33115.80000001192","","","external-html","285","1104134","0.0-21.0","92593","ListB","man","chinese","SW_C_M_B7","debrief.html","","","","","","","","",""
"5841.0999999940395","","","survey-text","286","1109978","0.0-22.0","92593","ListB","man","chinese","SW_C_M_B7","","","","","{""ptpt_id"":""SW_C_M_B7""}","","","","","worker_id"
