"rt","stimulus","button_pressed","trial_type","trial_index","time_elapsed","internal_node_id","subject","list","ppt_gender","ppt_language","ptptID","url","first_guess","correct","key_press","responses","image","verb","phrase","condition","test_part"
"1543.399999999965","Welcome to the experiment. Press Continue to begin.","0","html-button-response","0","1545","0.0-0.0","96692","ListB","man","chinese","CMB7","","","","","","","","","",""
"6436","","","external-html","1","9005","0.0-1.0","96692","ListB","man","chinese","CMB7","consent.html","","","","","","","","",""
"10148.200000000012","<p>在下一页中，您将看到8个人物肖像和他们各自的名字。</p><p>请花费几分钟的时间记住这些人物及其所对应的名字。</p><p>之后的实验中需要您对人物的名字做出回忆，</p><p>因此在实验开始前请确保您已 经完全记住这些人物及其所对应的名字。</p><p><strong>然后您将完成一个测试以检验您对人物和名字的记忆。</strong></p><p>完成此记忆测试后，您将正式进入实验。</p><p>准备好了吗？</p>","0","html-button-response","2","19154","0.0-2.0","96692","ListB","man","chinese","CMB7","","","","","","","","","",""
"16947.5","<img src='img/portrait_matrix_listB_chinese.jpg' style='width:900px;height:500px;''></img><p>如果您已经记住了所有的人物和名字，请点击继续。</p><p><strong>请注意：您对先前记忆的面孔将在本实验中被测试5次。</strong></p>","0","html-button-response","3","37111","0.0-3.0-0.0","96692","ListB","man","chinese","CMB7","","","","","","","","","",""
"2565.2999999999884","<img src=""portrait/WM1.jpg""style=""height:400px;""></img>","4","html-button-response","4","40679","0.0-3.0-1.0","96692","ListB","man","chinese","CMB7","","true","6","","","","","","",""
"4108.199999999953","<img src=""portrait/WM1.jpg""style=""height:400px;""></img>","6","html-button-response","5","45789","0.0-3.0-3.0-0.0","96692","ListB","man","chinese","CMB7","","false","6","","","","","","",""
"null","正确","","html-keyboard-response","6","47291","0.0-3.0-3.0-1.0-0.0","96692","ListB","man","chinese","CMB7","","","","null","","","","","",""
"2473.6999999999534","<img src=""portrait/WW2.jpg""style=""height:400px;""></img>","3","html-button-response","7","49765","0.0-3.0-4.0","96692","ListB","man","chinese","CMB7","","true","3","","","","","","",""
"null","正确","","html-keyboard-response","8","51267","0.0-3.0-5.0-0.0","96692","ListB","man","chinese","CMB7","","","","null","","","","","",""
"1621.5","<img src=""portrait/BM1.jpg""style=""height:400px;""></img>","4","html-button-response","9","52889","0.0-3.0-7.0","96692","ListB","man","chinese","CMB7","","true","4","","","","","","",""
"null","正确","","html-keyboard-response","10","54398","0.0-3.0-8.0-0.0","96692","ListB","man","chinese","CMB7","","","","null","","","","","",""
"4317","<img src=""portrait/BM2.jpg""style=""height:400px;""></img>","5","html-button-response","11","58717","0.0-3.0-10.0","96692","ListB","man","chinese","CMB7","","true","5","","","","","","",""
"null","正确","","html-keyboard-response","12","60237","0.0-3.0-11.0-0.0","96692","ListB","man","chinese","CMB7","","","","null","","","","","",""
"3460.0999999999767","<img src=""portrait/BW1.jpg""style=""height:400px;""></img>","2","html-button-response","13","63698","0.0-3.0-13.0","96692","ListB","man","chinese","CMB7","","true","0","","","","","","",""
"3363.29999999993","<img src=""portrait/BW1.jpg""style=""height:400px;""></img>","0","html-button-response","14","68068","0.0-3.0-15.0-0.0","96692","ListB","man","chinese","CMB7","","false","0","","","","","","",""
"null","正确","","html-keyboard-response","15","69569","0.0-3.0-15.0-1.0-0.0","96692","ListB","man","chinese","CMB7","","","","null","","","","","",""
"2967.8000000000466","<img src=""portrait/WW1.jpg""style=""height:400px;""></img>","2","html-button-response","16","72538","0.0-3.0-16.0","96692","ListB","man","chinese","CMB7","","true","1","","","","","","",""
"2230.20000000007","<img src=""portrait/WW1.jpg""style=""height:400px;""></img>","1","html-button-response","17","75769","0.0-3.0-18.0-0.0","96692","ListB","man","chinese","CMB7","","false","1","","","","","","",""
"null","正确","","html-keyboard-response","18","77283","0.0-3.0-18.0-1.0-0.0","96692","ListB","man","chinese","CMB7","","","","null","","","","","",""
"1296.8000000000466","<img src=""portrait/WM2.jpg""style=""height:400px;""></img>","7","html-button-response","19","78581","0.0-3.0-19.0","96692","ListB","man","chinese","CMB7","","true","7","","","","","","",""
"null","正确","","html-keyboard-response","20","80087","0.0-3.0-20.0-0.0","96692","ListB","man","chinese","CMB7","","","","null","","","","","",""
"2411.4000000000233","<img src=""portrait/BW2.jpg""style=""height:400px;""></img>","0","html-button-response","21","82499","0.0-3.0-22.0","96692","ListB","man","chinese","CMB7","","true","2","","","","","","",""
"2318.4000000000233","<img src=""portrait/BW2.jpg""style=""height:400px;""></img>","2","html-button-response","22","85819","0.0-3.0-24.0-0.0","96692","ListB","man","chinese","CMB7","","false","2","","","","","","",""
"null","正确","","html-keyboard-response","23","87335","0.0-3.0-24.0-1.0-0.0","96692","ListB","man","chinese","CMB7","","","","null","","","","","",""
"963.2000000000698","<p>您第一次在8题里答对了 4 题。 请点击继续</p>","0","html-button-response","24","88299","0.0-3.0-25.0","96692","ListB","man","chinese","CMB7","","","","","","","","","",""
"1797.9000000000233","因为您没有全部答对，记忆游戏将重新开始。请点击继续。","0","html-button-response","25","91098","0.0-3.0-26.0-0.0","96692","ListB","man","chinese","CMB7","","","","","","","","","",""
"8798.800000000047","<img src='img/portrait_matrix_listB_chinese.jpg' style='width:900px;height:500px;''></img><p>如果您已经记住了所有的人物和名字，请点击继续。</p><p><strong>请注意：您对先前记忆的面孔将在本实验中被测试5次。</strong></p>","0","html-button-response","26","100898","0.0-3.1-0.1","96692","ListB","man","chinese","CMB7","","","","","","","","","",""
"2087.70000000007","<img src=""portrait/WM1.jpg""style=""height:400px;""></img>","6","html-button-response","27","103995","0.0-3.1-1.1","96692","ListB","man","chinese","CMB7","","true","6","","","","","","",""
"null","正确","","html-keyboard-response","28","105496","0.0-3.1-2.1-0.1","96692","ListB","man","chinese","CMB7","","","","null","","","","","",""
"2671.4000000000233","<img src=""portrait/WW2.jpg""style=""height:400px;""></img>","1","html-button-response","29","108168","0.0-3.1-4.1","96692","ListB","man","chinese","CMB7","","true","3","","","","","","",""
"2400.5999999999767","<img src=""portrait/WW2.jpg""style=""height:400px;""></img>","3","html-button-response","30","111577","0.0-3.1-6.1-0.1","96692","ListB","man","chinese","CMB7","","false","3","","","","","","",""
"null","正确","","html-keyboard-response","31","113088","0.0-3.1-6.1-1.1-0.1","96692","ListB","man","chinese","CMB7","","","","null","","","","","",""
"1664","<img src=""portrait/BM1.jpg""style=""height:400px;""></img>","4","html-button-response","32","114753","0.0-3.1-7.1","96692","ListB","man","chinese","CMB7","","true","4","","","","","","",""
"null","正确","","html-keyboard-response","33","116258","0.0-3.1-8.1-0.1","96692","ListB","man","chinese","CMB7","","","","null","","","","","",""
"2008.9000000000233","<img src=""portrait/BM2.jpg""style=""height:400px;""></img>","3","html-button-response","34","118267","0.0-3.1-10.1","96692","ListB","man","chinese","CMB7","","true","5","","","","","","",""
"2319.5999999999767","<img src=""portrait/BM2.jpg""style=""height:400px;""></img>","5","html-button-response","35","121594","0.0-3.1-12.1-0.1","96692","ListB","man","chinese","CMB7","","false","5","","","","","","",""
"null","正确","","html-keyboard-response","36","123107","0.0-3.1-12.1-1.1-0.1","96692","ListB","man","chinese","CMB7","","","","null","","","","","",""
"2711.0999999999767","<img src=""portrait/BW1.jpg""style=""height:400px;""></img>","2","html-button-response","37","125819","0.0-3.1-13.1","96692","ListB","man","chinese","CMB7","","true","0","","","","","","",""
"1386.3000000000466","<img src=""portrait/BW1.jpg""style=""height:400px;""></img>","0","html-button-response","38","128218","0.0-3.1-15.1-0.1","96692","ListB","man","chinese","CMB7","","false","0","","","","","","",""
"null","正确","","html-keyboard-response","39","129740","0.0-3.1-15.1-1.1-0.1","96692","ListB","man","chinese","CMB7","","","","null","","","","","",""
"2812.0999999999767","<img src=""portrait/WW1.jpg""style=""height:400px;""></img>","1","html-button-response","40","132553","0.0-3.1-16.1","96692","ListB","man","chinese","CMB7","","true","1","","","","","","",""
"null","正确","","html-keyboard-response","41","134053","0.0-3.1-17.1-0.1","96692","ListB","man","chinese","CMB7","","","","null","","","","","",""
"1719.8000000000466","<img src=""portrait/WM2.jpg""style=""height:400px;""></img>","7","html-button-response","42","135774","0.0-3.1-19.1","96692","ListB","man","chinese","CMB7","","true","7","","","","","","",""
"null","正确","","html-keyboard-response","43","137276","0.0-3.1-20.1-0.1","96692","ListB","man","chinese","CMB7","","","","null","","","","","",""
"2940.9000000000233","<img src=""portrait/BW2.jpg""style=""height:400px;""></img>","2","html-button-response","44","140218","0.0-3.1-22.1","96692","ListB","man","chinese","CMB7","","true","2","","","","","","",""
"null","正确","","html-keyboard-response","45","141724","0.0-3.1-23.1-0.1","96692","ListB","man","chinese","CMB7","","","","null","","","","","",""
"1122.8000000000466","<p>您第一次在8题里答对了 5 题。 请点击继续</p>","0","html-button-response","46","142848","0.0-3.1-25.1","96692","ListB","man","chinese","CMB7","","","","","","","","","",""
"1207.8000000000466","因为您没有全部答对，记忆游戏将重新开始。请点击继续。","0","html-button-response","47","145062","0.0-3.1-26.1-0.1","96692","ListB","man","chinese","CMB7","","","","","","","","","",""
"8240","<img src='img/portrait_matrix_listB_chinese.jpg' style='width:900px;height:500px;''></img><p>如果您已经记住了所有的人物和名字，请点击继续。</p><p><strong>请注意：您对先前记忆的面孔将在本实验中被测试5次。</strong></p>","0","html-button-response","48","154315","0.0-3.2-0.2","96692","ListB","man","chinese","CMB7","","","","","","","","","",""
"2314.29999999993","<img src=""portrait/WM1.jpg""style=""height:400px;""></img>","6","html-button-response","49","157630","0.0-3.2-1.2","96692","ListB","man","chinese","CMB7","","true","6","","","","","","",""
"null","正确","","html-keyboard-response","50","159139","0.0-3.2-2.2-0.2","96692","ListB","man","chinese","CMB7","","","","null","","","","","",""
"3685.0999999999767","<img src=""portrait/WW2.jpg""style=""height:400px;""></img>","3","html-button-response","51","162825","0.0-3.2-4.2","96692","ListB","man","chinese","CMB7","","true","3","","","","","","",""
"null","正确","","html-keyboard-response","52","164326","0.0-3.2-5.2-0.2","96692","ListB","man","chinese","CMB7","","","","null","","","","","",""
"3393.29999999993","<img src=""portrait/BM1.jpg""style=""height:400px;""></img>","4","html-button-response","53","167720","0.0-3.2-7.2","96692","ListB","man","chinese","CMB7","","true","4","","","","","","",""
"null","正确","","html-keyboard-response","54","169236","0.0-3.2-8.2-0.2","96692","ListB","man","chinese","CMB7","","","","null","","","","","",""
"4298.599999999977","<img src=""portrait/BM2.jpg""style=""height:400px;""></img>","5","html-button-response","55","173535","0.0-3.2-10.2","96692","ListB","man","chinese","CMB7","","true","5","","","","","","",""
"null","正确","","html-keyboard-response","56","175035","0.0-3.2-11.2-0.2","96692","ListB","man","chinese","CMB7","","","","null","","","","","",""
"2546.6999999999534","<img src=""portrait/BW1.jpg""style=""height:400px;""></img>","0","html-button-response","57","177583","0.0-3.2-13.2","96692","ListB","man","chinese","CMB7","","true","0","","","","","","",""
"null","正确","","html-keyboard-response","58","179087","0.0-3.2-14.2-0.2","96692","ListB","man","chinese","CMB7","","","","null","","","","","",""
"3510.399999999907","<img src=""portrait/WW1.jpg""style=""height:400px;""></img>","1","html-button-response","59","182597","0.0-3.2-16.2","96692","ListB","man","chinese","CMB7","","true","1","","","","","","",""
"null","正确","","html-keyboard-response","60","184105","0.0-3.2-17.2-0.2","96692","ListB","man","chinese","CMB7","","","","null","","","","","",""
"2718.399999999907","<img src=""portrait/WM2.jpg""style=""height:400px;""></img>","7","html-button-response","61","186824","0.0-3.2-19.2","96692","ListB","man","chinese","CMB7","","true","7","","","","","","",""
"null","正确","","html-keyboard-response","62","188327","0.0-3.2-20.2-0.2","96692","ListB","man","chinese","CMB7","","","","null","","","","","",""
"2558.5","<img src=""portrait/BW2.jpg""style=""height:400px;""></img>","2","html-button-response","63","190886","0.0-3.2-22.2","96692","ListB","man","chinese","CMB7","","true","2","","","","","","",""
"null","正确","","html-keyboard-response","64","192395","0.0-3.2-23.2-0.2","96692","ListB","man","chinese","CMB7","","","","null","","","","","",""
"1241.5","<p>您第一次在8题里答对了 8 题。 请点击继续</p>","0","html-button-response","65","193637","0.0-3.2-25.2","96692","ListB","man","chinese","CMB7","","","","","","","","","",""
"8341.900000000023","<p>此次实验您将会看到先前记忆任务里的人物照片。</p><p>人物照片消失后您将看到一个动词短语，请正确回忆人物的名字并用特定的 动词短语组成一句完整的句子。</p><p>请在指定的框内输入您的答案。在进入下一题之前请确保您填写了完整的句子。</p><p>人物照片和动词短语只会在屏幕上出现几秒钟，因此请您答题时尽量集中注意力。</p><p>以下是例子。请您在准备好后按下“继续”。</p><img src='img/chinese_speaking_example.jpg' style='width:800px;height:460px;''></img>","0","html-button-response","66","202985","0.0-4.0","96692","ListB","man","chinese","CMB7","","","","","","","","","",""
"1764.4000000000233","<p>在实验开始前，将为您展示两个示例实验。</p>","0","html-button-response","67","205756","0.0-5.0","96692","ListB","man","chinese","CMB7","","","","","","","","","",""
"null","<img src='img/meet.gif' style='height:400px;''></img>","","html-keyboard-response","68","208758","0.0-6.0","96692","ListB","man","chinese","CMB7","","","","null","","","","","",""
"null","<p>正在约见</p>","","html-keyboard-response","69","210772","0.0-7.0","96692","ListB","man","chinese","CMB7","","","","null","","","","","",""
"8405.300000000047","<p><b>答案：</b> 霍普正在约见露丝</p>","0","html-button-response","70","219178","0.0-8.0","96692","ListB","man","chinese","CMB7","","","","","","","","","",""
"null","<img src='img/spy.gif' style='height:400px;''></img>","","html-keyboard-response","71","222183","0.0-9.0","96692","ListB","man","chinese","CMB7","","","","null","","","","","",""
"null","<p>正在监视</p>","","html-keyboard-response","72","224185","0.0-10.0","96692","ListB","man","chinese","CMB7","","","","null","","","","","",""
"1028.5999999999767","<p><b>答案：</b> 弗雷正在监视麦克</p>","0","html-button-response","73","225214","0.0-11.0","96692","ListB","man","chinese","CMB7","","","","","","","","","",""
"3224.5999999999767","<p>准备好开始了吗？</p><br><p><strong>请记住，您的答案需是一句完整的句子</strong></p><p><strong>，并用给到的图片人物和动词短语作答。</strong></p><p><strong>只有正确并完整完成实验才可获得报酬。</strong></p><p><strong> 您不需要加入任何标点符号。</strong></p><br><p>请按 ‘继续’ 键开始。</p>","0","html-button-response","74","229441","0.0-12.0","96692","ListB","man","chinese","CMB7","","","","","","","","","",""
"null","<div style=""font-size:60px;"">+</div>","","html-keyboard-response","75","230943","0.0-13.0-0.0","96692","ListB","man","chinese","CMB7","","","","null","","","","","",""
"null","<img src='gifs/ChineseGender3b.gif' style='height:400px;''></img>","","html-keyboard-response","76","232958","0.0-13.0-1.0","96692","ListB","man","chinese","CMB7","","","","null","","","","","",""
"null","正在看着","","html-keyboard-response","77","235959","0.0-13.0-2.0","96692","ListB","man","chinese","CMB7","","","","null","","","","","",""
"15894.29999999993","","","survey-text","78","251856","0.0-13.0-3.0","96692","ListB","man","chinese","CMB7","","","","","{""Q0"":""露丝正在看着卢克""}","<img src='gifs/ChineseGender3b.gif' style='height:400px;''></img>","看着","正在看着","chinese",""
"null","<div style=""font-size:60px;"">+</div>","","html-keyboard-response","79","252360","0.0-13.0-0.1","96692","ListB","man","chinese","CMB7","","","","null","","","","","",""
"null","<img src='gifs/ChineseGender1a.gif' style='height:400px;''></img>","","html-keyboard-response","80","254361","0.0-13.0-1.1","96692","ListB","man","chinese","CMB7","","","","null","","","","","",""
"null","正在答应","","html-keyboard-response","81","257373","0.0-13.0-2.1","96692","ListB","man","chinese","CMB7","","","","null","","","","","",""
"10861.599999999977","","","survey-text","82","268236","0.0-13.0-3.1","96692","ListB","man","chinese","CMB7","","","","","{""Q0"":""卢克正在对话霍普""}","<img src='gifs/ChineseGender1a.gif' style='height:400px;''></img>","答应","正在答应","chinese",""
"null","<div style=""font-size:60px;"">+</div>","","html-keyboard-response","83","268749","0.0-13.0-0.2","96692","ListB","man","chinese","CMB7","","","","null","","","","","",""
"null","<img src='gifs/MaleRace2b.gif' style='height:400px;''></img>","","html-keyboard-response","84","270751","0.0-13.0-1.2","96692","ListB","man","chinese","CMB7","","","","null","","","","","",""
"null","正在提到","","html-keyboard-response","85","273759","0.0-13.0-2.2","96692","ListB","man","chinese","CMB7","","","","null","","","","","",""
"25652.800000000047","","","survey-text","86","299412","0.0-13.0-3.2","96692","ListB","man","chinese","CMB7","","","","","{""Q0"":""戴夫正在麦克""}","<img src='gifs/MaleRace2b.gif' style='height:400px;''></img>","提到","正在提到","chinese",""
"null","<div style=""font-size:60px;"">+</div>","","html-keyboard-response","87","299922","0.0-13.0-0.3","96692","ListB","man","chinese","CMB7","","","","null","","","","","",""
"null","<img src='gifs/MaleRace4b.gif' style='height:400px;''></img>","","html-keyboard-response","88","301923","0.0-13.0-1.3","96692","ListB","man","chinese","CMB7","","","","null","","","","","",""
"null","正在看着","","html-keyboard-response","89","304924","0.0-13.0-2.3","96692","ListB","man","chinese","CMB7","","","","null","","","","","",""
"8199","","","survey-text","90","313124","0.0-13.0-3.3","96692","ListB","man","chinese","CMB7","","","","","{""Q0"":""戴夫正在看着麦克""}","<img src='gifs/MaleRace4b.gif' style='height:400px;''></img>","看着","正在看着","chinese",""
"null","<div style=""font-size:60px;"">+</div>","","html-keyboard-response","91","313628","0.0-13.0-0.4","96692","ListB","man","chinese","CMB7","","","","null","","","","","",""
"null","<img src='gifs/MaleRace3a.gif' style='height:400px;''></img>","","html-keyboard-response","92","315642","0.0-13.0-1.4","96692","ListB","man","chinese","CMB7","","","","null","","","","","",""
"null","正在陪伴","","html-keyboard-response","93","318652","0.0-13.0-2.4","96692","ListB","man","chinese","CMB7","","","","null","","","","","",""
"13349.699999999953","","","survey-text","94","332003","0.0-13.0-3.4","96692","ListB","man","chinese","CMB7","","","","","{""Q0"":""戴夫在陪伴弗雷""}","<img src='gifs/MaleRace3a.gif' style='height:400px;''></img>","陪伴","正在陪伴","chinese",""
"null","<div style=""font-size:60px;"">+</div>","","html-keyboard-response","95","332505","0.0-13.0-0.5","96692","ListB","man","chinese","CMB7","","","","null","","","","","",""
"null","<img src='gifs/FemaleRace4b.gif' style='height:400px;''></img>","","html-keyboard-response","96","334507","0.0-13.0-1.5","96692","ListB","man","chinese","CMB7","","","","null","","","","","",""
"null","正在介绍","","html-keyboard-response","97","337507","0.0-13.0-2.5","96692","ListB","man","chinese","CMB7","","","","null","","","","","",""
"8875.800000000047","","","survey-text","98","346384","0.0-13.0-3.5","96692","ListB","man","chinese","CMB7","","","","","{""Q0"":""露丝在介绍凯特""}","<img src='gifs/FemaleRace4b.gif' style='height:400px;''></img>","介绍","正在介绍","chinese",""
"null","<div style=""font-size:60px;"">+</div>","","html-keyboard-response","99","346890","0.0-13.0-0.6","96692","ListB","man","chinese","CMB7","","","","null","","","","","",""
"null","<img src='gifs/FemaleRace1a.gif' style='height:400px;''></img>","","html-keyboard-response","100","348905","0.0-13.0-1.6","96692","ListB","man","chinese","CMB7","","","","null","","","","","",""
"null","正在说服","","html-keyboard-response","101","351909","0.0-13.0-2.6","96692","ListB","man","chinese","CMB7","","","","null","","","","","",""
"8793.300000000047","","","survey-text","102","360703","0.0-13.0-3.6","96692","ListB","man","chinese","CMB7","","","","","{""Q0"":""贝斯在说服霍普""}","<img src='gifs/FemaleRace1a.gif' style='height:400px;''></img>","说服","正在说服","chinese",""
"null","<div style=""font-size:60px;"">+</div>","","html-keyboard-response","103","361206","0.0-13.0-0.7","96692","ListB","man","chinese","CMB7","","","","null","","","","","",""
"null","<img src='gifs/ChineseGender3a.gif' style='height:400px;''></img>","","html-keyboard-response","104","363211","0.0-13.0-1.7","96692","ListB","man","chinese","CMB7","","","","null","","","","","",""
"null","正在联系","","html-keyboard-response","105","366223","0.0-13.0-2.7","96692","ListB","man","chinese","CMB7","","","","null","","","","","",""
"7226.20000000007","","","survey-text","106","373451","0.0-13.0-3.7","96692","ListB","man","chinese","CMB7","","","","","{""Q0"":""戴夫在联系露丝""}","<img src='gifs/ChineseGender3a.gif' style='height:400px;''></img>","联系","正在联系","chinese",""
"null","<div style=""font-size:60px;"">+</div>","","html-keyboard-response","107","373952","0.0-13.0-0.8","96692","ListB","man","chinese","CMB7","","","","null","","","","","",""
"null","<img src='gifs/ChineseGender1a.gif' style='height:400px;''></img>","","html-keyboard-response","108","375967","0.0-13.0-1.8","96692","ListB","man","chinese","CMB7","","","","null","","","","","",""
"null","正在说服","","html-keyboard-response","109","378980","0.0-13.0-2.8","96692","ListB","man","chinese","CMB7","","","","null","","","","","",""
"7364","","","survey-text","110","386345","0.0-13.0-3.8","96692","ListB","man","chinese","CMB7","","","","","{""Q0"":""卢克在说服霍普""}","<img src='gifs/ChineseGender1a.gif' style='height:400px;''></img>","说服","正在说服","chinese",""
"null","<div style=""font-size:60px;"">+</div>","","html-keyboard-response","111","386859","0.0-13.0-0.9","96692","ListB","man","chinese","CMB7","","","","null","","","","","",""
"null","<img src='gifs/MaleRace3b.gif' style='height:400px;''></img>","","html-keyboard-response","112","388867","0.0-13.0-1.9","96692","ListB","man","chinese","CMB7","","","","null","","","","","",""
"null","正在聘用","","html-keyboard-response","113","391880","0.0-13.0-2.9","96692","ListB","man","chinese","CMB7","","","","null","","","","","",""
"12277.400000000023","","","survey-text","114","404159","0.0-13.0-3.9","96692","ListB","man","chinese","CMB7","","","","","{""Q0"":""戴夫在聘用弗雷""}","<img src='gifs/MaleRace3b.gif' style='height:400px;''></img>","聘用","正在聘用","chinese",""
"null","<div style=""font-size:60px;"">+</div>","","html-keyboard-response","115","404664","0.0-13.0-0.10","96692","ListB","man","chinese","CMB7","","","","null","","","","","",""
"null","<img src='gifs/FemaleRace3a.gif' style='height:400px;''></img>","","html-keyboard-response","116","406665","0.0-13.0-1.10","96692","ListB","man","chinese","CMB7","","","","null","","","","","",""
"null","正在联系","","html-keyboard-response","117","409668","0.0-13.0-2.10","96692","ListB","man","chinese","CMB7","","","","null","","","","","",""
"9609","","","survey-text","118","419279","0.0-13.0-3.10","96692","ListB","man","chinese","CMB7","","","","","{""Q0"":""露丝在说服贝斯""}","<img src='gifs/FemaleRace3a.gif' style='height:400px;''></img>","联系","正在联系","chinese",""
"null","<div style=""font-size:60px;"">+</div>","","html-keyboard-response","119","419792","0.0-13.0-0.11","96692","ListB","man","chinese","CMB7","","","","null","","","","","",""
"null","<img src='gifs/ChineseGender4a.gif' style='height:400px;''></img>","","html-keyboard-response","120","421794","0.0-13.0-1.11","96692","ListB","man","chinese","CMB7","","","","null","","","","","",""
"null","正在面向","","html-keyboard-response","121","424801","0.0-13.0-2.11","96692","ListB","man","chinese","CMB7","","","","null","","","","","",""
"17804.699999999953","","","survey-text","122","442607","0.0-13.0-3.11","96692","ListB","man","chinese","CMB7","","","","","{""Q0"":""霍普正在面向贝斯""}","<img src='gifs/ChineseGender4a.gif' style='height:400px;''></img>","面向","正在面向","chinese",""
"null","<div style=""font-size:60px;"">+</div>","","html-keyboard-response","123","443111","0.0-13.0-0.12","96692","ListB","man","chinese","CMB7","","","","null","","","","","",""
"null","<img src='gifs/MaleRace1b.gif' style='height:400px;''></img>","","html-keyboard-response","124","445115","0.0-13.0-1.12","96692","ListB","man","chinese","CMB7","","","","null","","","","","",""
"null","正在跟随","","html-keyboard-response","125","448127","0.0-13.0-2.12","96692","ListB","man","chinese","CMB7","","","","null","","","","","",""
"16813.600000000093","","","survey-text","126","464941","0.0-13.0-3.12","96692","ListB","man","chinese","CMB7","","","","","{""Q0"":""卢克正在跟随弗雷""}","<img src='gifs/MaleRace1b.gif' style='height:400px;''></img>","跟随","正在跟随","chinese",""
"null","<div style=""font-size:60px;"">+</div>","","html-keyboard-response","127","465444","0.0-13.0-0.13","96692","ListB","man","chinese","CMB7","","","","null","","","","","",""
"null","<img src='gifs/BlackGender1b.gif' style='height:400px;''></img>","","html-keyboard-response","128","467445","0.0-13.0-1.13","96692","ListB","man","chinese","CMB7","","","","null","","","","","",""
"null","正在走向","","html-keyboard-response","129","470456","0.0-13.0-2.13","96692","ListB","man","chinese","CMB7","","","","null","","","","","",""
"6514.79999999993","","","survey-text","130","476972","0.0-13.0-3.13","96692","ListB","man","chinese","CMB7","","","","","{""Q0"":""弗雷正在走向贝斯""}","<img src='gifs/BlackGender1b.gif' style='height:400px;''></img>","走向","正在走向","chinese",""
"null","<div style=""font-size:60px;"">+</div>","","html-keyboard-response","131","477484","0.0-13.0-0.14","96692","ListB","man","chinese","CMB7","","","","null","","","","","",""
"null","<img src='gifs/MaleRace3a.gif' style='height:400px;''></img>","","html-keyboard-response","132","479491","0.0-13.0-1.14","96692","ListB","man","chinese","CMB7","","","","null","","","","","",""
"null","正在聘用","","html-keyboard-response","133","482500","0.0-13.0-2.14","96692","ListB","man","chinese","CMB7","","","","null","","","","","",""
"20937.400000000023","","","survey-text","134","503438","0.0-13.0-3.14","96692","ListB","man","chinese","CMB7","","","","","{""Q0"":""戴夫正在聘用弗雷""}","<img src='gifs/MaleRace3a.gif' style='height:400px;''></img>","聘用","正在聘用","chinese",""
"null","<div style=""font-size:60px;"">+</div>","","html-keyboard-response","135","503946","0.0-13.0-0.15","96692","ListB","man","chinese","CMB7","","","","null","","","","","",""
"null","<img src='gifs/BlackGender3a.gif' style='height:400px;''></img>","","html-keyboard-response","136","505947","0.0-13.0-1.15","96692","ListB","man","chinese","CMB7","","","","null","","","","","",""
"null","正在聘用","","html-keyboard-response","137","508962","0.0-13.0-2.15","96692","ListB","man","chinese","CMB7","","","","null","","","","","",""
"10413.400000000023","","","survey-text","138","519377","0.0-13.0-3.15","96692","ListB","man","chinese","CMB7","","","","","{""Q0"":""弗雷正在聘用凯特""}","<img src='gifs/BlackGender3a.gif' style='height:400px;''></img>","聘用","正在聘用","chinese",""
"null","<div style=""font-size:60px;"">+</div>","","html-keyboard-response","139","519881","0.0-13.0-0.16","96692","ListB","man","chinese","CMB7","","","","null","","","","","",""
"null","<img src='gifs/ChineseGender1b.gif' style='height:400px;''></img>","","html-keyboard-response","140","521882","0.0-13.0-1.16","96692","ListB","man","chinese","CMB7","","","","null","","","","","",""
"null","正在走向","","html-keyboard-response","141","524887","0.0-13.0-2.16","96692","ListB","man","chinese","CMB7","","","","null","","","","","",""
"7022.800000000047","","","survey-text","142","531911","0.0-13.0-3.16","96692","ListB","man","chinese","CMB7","","","","","{""Q0"":""霍普正在走向戴夫""}","<img src='gifs/ChineseGender1b.gif' style='height:400px;''></img>","走向","正在走向","chinese",""
"null","<div style=""font-size:60px;"">+</div>","","html-keyboard-response","143","532418","0.0-13.0-0.17","96692","ListB","man","chinese","CMB7","","","","null","","","","","",""
"null","<img src='gifs/BlackGender2a.gif' style='height:400px;''></img>","","html-keyboard-response","144","534421","0.0-13.0-1.17","96692","ListB","man","chinese","CMB7","","","","null","","","","","",""
"null","正在陪伴","","html-keyboard-response","145","537432","0.0-13.0-2.17","96692","ListB","man","chinese","CMB7","","","","null","","","","","",""
"16250","","","survey-text","146","553683","0.0-13.0-3.17","96692","ListB","man","chinese","CMB7","","","","","{""Q0"":""麦克正在陪伴贝斯""}","<img src='gifs/BlackGender2a.gif' style='height:400px;''></img>","陪伴","正在陪伴","chinese",""
"3071.4000000000233","<img src='img/portrait_matrix_listB_chinese.jpg' style='width:900px;height:500px;''></img><p>如果您已经记住了所有的人物和名字，请点击继续。</p><p><strong>请注意：您对先前记忆的面孔将在本实验中被测试5次。</strong></p>","0","html-button-response","147","556754","0.0-14.0-0.0","96692","ListB","man","chinese","CMB7","","","","","","","","","",""
"6393.900000000023","<img src=""portrait/BM1.jpg""style=""height:400px;""></img>","4","html-button-response","148","564149","0.0-14.0-1.0","96692","ListB","man","chinese","CMB7","","true","4","","","","","","",""
"null","正确","","html-keyboard-response","149","565651","0.0-14.0-2.0-0.0","96692","ListB","man","chinese","CMB7","","","","null","","","","","",""
"2308.5","<img src=""portrait/WW1.jpg""style=""height:400px;""></img>","1","html-button-response","150","567960","0.0-14.0-4.0","96692","ListB","man","chinese","CMB7","","true","1","","","","","","",""
"null","正确","","html-keyboard-response","151","569462","0.0-14.0-5.0-0.0","96692","ListB","man","chinese","CMB7","","","","null","","","","","",""
"6353","<img src=""portrait/BW1.jpg""style=""height:400px;""></img>","0","html-button-response","152","575815","0.0-14.0-7.0","96692","ListB","man","chinese","CMB7","","true","0","","","","","","",""
"null","正确","","html-keyboard-response","153","577317","0.0-14.0-8.0-0.0","96692","ListB","man","chinese","CMB7","","","","null","","","","","",""
"2493","<img src=""portrait/WW2.jpg""style=""height:400px;""></img>","3","html-button-response","154","579810","0.0-14.0-10.0","96692","ListB","man","chinese","CMB7","","true","3","","","","","","",""
"null","正确","","html-keyboard-response","155","581311","0.0-14.0-11.0-0.0","96692","ListB","man","chinese","CMB7","","","","null","","","","","",""
"2771.5999999998603","<img src=""portrait/WM2.jpg""style=""height:400px;""></img>","7","html-button-response","156","584083","0.0-14.0-13.0","96692","ListB","man","chinese","CMB7","","true","7","","","","","","",""
"null","正确","","html-keyboard-response","157","585596","0.0-14.0-14.0-0.0","96692","ListB","man","chinese","CMB7","","","","null","","","","","",""
"3102.6999999999534","<img src=""portrait/BW2.jpg""style=""height:400px;""></img>","2","html-button-response","158","588699","0.0-14.0-16.0","96692","ListB","man","chinese","CMB7","","true","2","","","","","","",""
"null","正确","","html-keyboard-response","159","590217","0.0-14.0-17.0-0.0","96692","ListB","man","chinese","CMB7","","","","null","","","","","",""
"3781.6999999999534","<img src=""portrait/BM2.jpg""style=""height:400px;""></img>","5","html-button-response","160","593999","0.0-14.0-19.0","96692","ListB","man","chinese","CMB7","","true","5","","","","","","",""
"null","正确","","html-keyboard-response","161","595509","0.0-14.0-20.0-0.0","96692","ListB","man","chinese","CMB7","","","","null","","","","","",""
"2864.899999999907","<img src=""portrait/WM1.jpg""style=""height:400px;""></img>","6","html-button-response","162","598375","0.0-14.0-22.0","96692","ListB","man","chinese","CMB7","","true","6","","","","","","",""
"null","正确","","html-keyboard-response","163","599877","0.0-14.0-23.0-0.0","96692","ListB","man","chinese","CMB7","","","","null","","","","","",""
"1596.1999999999534","<p>您第一次在8题里答对了 8 题。 请点击继续</p>","0","html-button-response","164","601473","0.0-14.0-25.0","96692","ListB","man","chinese","CMB7","","","","","","","","","",""
"null","<div style=""font-size:60px;"">+</div>","","html-keyboard-response","165","602975","0.0-15.0-0.0","96692","ListB","man","chinese","CMB7","","","","null","","","","","",""
"null","<img src='gifs/FemaleRace2a.gif' style='height:400px;''></img>","","html-keyboard-response","166","604977","0.0-15.0-1.0","96692","ListB","man","chinese","CMB7","","","","null","","","","","",""
"null","正在接近","","html-keyboard-response","167","607988","0.0-15.0-2.0","96692","ListB","man","chinese","CMB7","","","","null","","","","","",""
"13954.199999999953","","","survey-text","168","621943","0.0-15.0-3.0","96692","ListB","man","chinese","CMB7","","","","","{""Q0"":""凯特正在接近霍普""}","<img src='gifs/FemaleRace2a.gif' style='height:400px;''></img>","接近","正在接近","chinese",""
"null","<div style=""font-size:60px;"">+</div>","","html-keyboard-response","169","622456","0.0-15.0-0.1","96692","ListB","man","chinese","CMB7","","","","null","","","","","",""
"null","<img src='gifs/FemaleRace4a.gif' style='height:400px;''></img>","","html-keyboard-response","170","624457","0.0-15.0-1.1","96692","ListB","man","chinese","CMB7","","","","null","","","","","",""
"null","正在联系","","html-keyboard-response","171","627470","0.0-15.0-2.1","96692","ListB","man","chinese","CMB7","","","","null","","","","","",""
"6624.5","","","survey-text","172","634096","0.0-15.0-3.1","96692","ListB","man","chinese","CMB7","","","","","{""Q0"":""凯特正在联系露丝""}","<img src='gifs/FemaleRace4a.gif' style='height:400px;''></img>","联系","正在联系","chinese",""
"null","<div style=""font-size:60px;"">+</div>","","html-keyboard-response","173","634607","0.0-15.0-0.2","96692","ListB","man","chinese","CMB7","","","","null","","","","","",""
"null","<img src='gifs/ChineseGender2a.gif' style='height:400px;''></img>","","html-keyboard-response","174","636622","0.0-15.0-1.2","96692","ListB","man","chinese","CMB7","","","","null","","","","","",""
"null","正在聘用","","html-keyboard-response","175","639637","0.0-15.0-2.2","96692","ListB","man","chinese","CMB7","","","","null","","","","","",""
"7318.40000000014","","","survey-text","176","646957","0.0-15.0-3.2","96692","ListB","man","chinese","CMB7","","","","","{""Q0"":""卢克正在聘用露丝""}","<img src='gifs/ChineseGender2a.gif' style='height:400px;''></img>","聘用","正在聘用","chinese",""
"null","<div style=""font-size:60px;"">+</div>","","html-keyboard-response","177","647458","0.0-15.0-0.3","96692","ListB","man","chinese","CMB7","","","","null","","","","","",""
"null","<img src='gifs/ChineseGender1b.gif' style='height:400px;''></img>","","html-keyboard-response","178","649467","0.0-15.0-1.3","96692","ListB","man","chinese","CMB7","","","","null","","","","","",""
"null","正在触摸","","html-keyboard-response","179","652478","0.0-15.0-2.3","96692","ListB","man","chinese","CMB7","","","","null","","","","","",""
"6430.09999999986","","","survey-text","180","658909","0.0-15.0-3.3","96692","ListB","man","chinese","CMB7","","","","","{""Q0"":""卢克正在触摸霍普""}","<img src='gifs/ChineseGender1b.gif' style='height:400px;''></img>","触摸","正在触摸","chinese",""
"null","<div style=""font-size:60px;"">+</div>","","html-keyboard-response","181","659421","0.0-15.0-0.4","96692","ListB","man","chinese","CMB7","","","","null","","","","","",""
"null","<img src='gifs/BlackGender2a.gif' style='height:400px;''></img>","","html-keyboard-response","182","661424","0.0-15.0-1.4","96692","ListB","man","chinese","CMB7","","","","null","","","","","",""
"null","正在表扬","","html-keyboard-response","183","664433","0.0-15.0-2.4","96692","ListB","man","chinese","CMB7","","","","null","","","","","",""
"8042.300000000047","","","survey-text","184","672477","0.0-15.0-3.4","96692","ListB","man","chinese","CMB7","","","","","{""Q0"":""贝斯正在表扬贝斯""}","<img src='gifs/BlackGender2a.gif' style='height:400px;''></img>","表扬","正在表扬","chinese",""
"null","<div style=""font-size:60px;"">+</div>","","html-keyboard-response","185","672982","0.0-15.0-0.5","96692","ListB","man","chinese","CMB7","","","","null","","","","","",""
"null","<img src='gifs/FemaleRace2a.gif' style='height:400px;''></img>","","html-keyboard-response","186","674988","0.0-15.0-1.5","96692","ListB","man","chinese","CMB7","","","","null","","","","","",""
"null","正在表扬","","html-keyboard-response","187","678001","0.0-15.0-2.5","96692","ListB","man","chinese","CMB7","","","","null","","","","","",""
"8495.100000000093","","","survey-text","188","686497","0.0-15.0-3.5","96692","ListB","man","chinese","CMB7","","","","","{""Q0"":""霍普正在表扬凯特""}","<img src='gifs/FemaleRace2a.gif' style='height:400px;''></img>","表扬","正在表扬","chinese",""
"null","<div style=""font-size:60px;"">+</div>","","html-keyboard-response","189","687003","0.0-15.0-0.6","96692","ListB","man","chinese","CMB7","","","","null","","","","","",""
"null","<img src='gifs/FemaleRace2b.gif' style='height:400px;''></img>","","html-keyboard-response","190","689016","0.0-15.0-1.6","96692","ListB","man","chinese","CMB7","","","","null","","","","","",""
"null","正在加入","","html-keyboard-response","191","692025","0.0-15.0-2.6","96692","ListB","man","chinese","CMB7","","","","null","","","","","",""
"6800.699999999953","","","survey-text","192","698827","0.0-15.0-3.6","96692","ListB","man","chinese","CMB7","","","","","{""Q0"":""凯特正在加入霍普""}","<img src='gifs/FemaleRace2b.gif' style='height:400px;''></img>","加入","正在加入","chinese",""
"null","<div style=""font-size:60px;"">+</div>","","html-keyboard-response","193","699337","0.0-15.0-0.7","96692","ListB","man","chinese","CMB7","","","","null","","","","","",""
"null","<img src='gifs/MaleRace1b.gif' style='height:400px;''></img>","","html-keyboard-response","194","701350","0.0-15.0-1.7","96692","ListB","man","chinese","CMB7","","","","null","","","","","",""
"null","正在答应","","html-keyboard-response","195","704357","0.0-15.0-2.7","96692","ListB","man","chinese","CMB7","","","","null","","","","","",""
"14402.09999999986","","","survey-text","196","718760","0.0-15.0-3.7","96692","ListB","man","chinese","CMB7","","","","","{""Q0"":""卢克正在答应弗雷""}","<img src='gifs/MaleRace1b.gif' style='height:400px;''></img>","答应","正在答应","chinese",""
"null","<div style=""font-size:60px;"">+</div>","","html-keyboard-response","197","719263","0.0-15.0-0.8","96692","ListB","man","chinese","CMB7","","","","null","","","","","",""
"null","<img src='gifs/BlackGender3a.gif' style='height:400px;''></img>","","html-keyboard-response","198","721267","0.0-15.0-1.8","96692","ListB","man","chinese","CMB7","","","","null","","","","","",""
"null","正在跟随","","html-keyboard-response","199","724280","0.0-15.0-2.8","96692","ListB","man","chinese","CMB7","","","","null","","","","","",""
"5829","","","survey-text","200","730109","0.0-15.0-3.8","96692","ListB","man","chinese","CMB7","","","","","{""Q0"":""弗雷正在跟随凯特""}","<img src='gifs/BlackGender3a.gif' style='height:400px;''></img>","跟随","正在跟随","chinese",""
"null","<div style=""font-size:60px;"">+</div>","","html-keyboard-response","201","730612","0.0-15.0-0.9","96692","ListB","man","chinese","CMB7","","","","null","","","","","",""
"null","<img src='gifs/ChineseGender3a.gif' style='height:400px;''></img>","","html-keyboard-response","202","732617","0.0-15.0-1.9","96692","ListB","man","chinese","CMB7","","","","null","","","","","",""
"null","正在看着","","html-keyboard-response","203","735624","0.0-15.0-2.9","96692","ListB","man","chinese","CMB7","","","","null","","","","","",""
"4625.399999999907","","","survey-text","204","740251","0.0-15.0-3.9","96692","ListB","man","chinese","CMB7","","","","","{""Q0"":""露丝正在看着弗雷""}","<img src='gifs/ChineseGender3a.gif' style='height:400px;''></img>","看着","正在看着","chinese",""
"null","<div style=""font-size:60px;"">+</div>","","html-keyboard-response","205","740765","0.0-15.0-0.10","96692","ListB","man","chinese","CMB7","","","","null","","","","","",""
"null","<img src='gifs/MaleRace4a.gif' style='height:400px;''></img>","","html-keyboard-response","206","742771","0.0-15.0-1.10","96692","ListB","man","chinese","CMB7","","","","null","","","","","",""
"null","正在提到","","html-keyboard-response","207","745780","0.0-15.0-2.10","96692","ListB","man","chinese","CMB7","","","","null","","","","","",""
"8798.300000000047","","","survey-text","208","754579","0.0-15.0-3.10","96692","ListB","man","chinese","CMB7","","","","","{""Q0"":""戴夫正在提到麦克""}","<img src='gifs/MaleRace4a.gif' style='height:400px;''></img>","提到","正在提到","chinese",""
"null","<div style=""font-size:60px;"">+</div>","","html-keyboard-response","209","755090","0.0-15.0-0.11","96692","ListB","man","chinese","CMB7","","","","null","","","","","",""
"null","<img src='gifs/MaleRace4b.gif' style='height:400px;''></img>","","html-keyboard-response","210","757100","0.0-15.0-1.11","96692","ListB","man","chinese","CMB7","","","","null","","","","","",""
"null","正在提到","","html-keyboard-response","211","760116","0.0-15.0-2.11","96692","ListB","man","chinese","CMB7","","","","null","","","","","",""
"7278.300000000047","","","survey-text","212","767395","0.0-15.0-3.11","96692","ListB","man","chinese","CMB7","","","","","{""Q0"":""戴夫正在提到麦克""}","<img src='gifs/MaleRace4b.gif' style='height:400px;''></img>","提到","正在提到","chinese",""
"null","<div style=""font-size:60px;"">+</div>","","html-keyboard-response","213","767897","0.0-15.0-0.12","96692","ListB","man","chinese","CMB7","","","","null","","","","","",""
"null","<img src='gifs/MaleRace2b.gif' style='height:400px;''></img>","","html-keyboard-response","214","769912","0.0-15.0-1.12","96692","ListB","man","chinese","CMB7","","","","null","","","","","",""
"null","正在答应","","html-keyboard-response","215","772923","0.0-15.0-2.12","96692","ListB","man","chinese","CMB7","","","","null","","","","","",""
"4885","","","survey-text","216","777809","0.0-15.0-3.12","96692","ListB","man","chinese","CMB7","","","","","{""Q0"":""卢克正在答应麦克""}","<img src='gifs/MaleRace2b.gif' style='height:400px;''></img>","答应","正在答应","chinese",""
"null","<div style=""font-size:60px;"">+</div>","","html-keyboard-response","217","778313","0.0-15.0-0.13","96692","ListB","man","chinese","CMB7","","","","null","","","","","",""
"null","<img src='gifs/ChineseGender2b.gif' style='height:400px;''></img>","","html-keyboard-response","218","780315","0.0-15.0-1.13","96692","ListB","man","chinese","CMB7","","","","null","","","","","",""
"null","正在面向","","html-keyboard-response","219","783323","0.0-15.0-2.13","96692","ListB","man","chinese","CMB7","","","","null","","","","","",""
"10488.699999999953","","","survey-text","220","793813","0.0-15.0-3.13","96692","ListB","man","chinese","CMB7","","","","","{""Q0"":""卢克正在面对露丝""}","<img src='gifs/ChineseGender2b.gif' style='height:400px;''></img>","面向","正在面向","chinese",""
"null","<div style=""font-size:60px;"">+</div>","","html-keyboard-response","221","794327","0.0-15.0-0.14","96692","ListB","man","chinese","CMB7","","","","null","","","","","",""
"null","<img src='gifs/FemaleRace1b.gif' style='height:400px;''></img>","","html-keyboard-response","222","796328","0.0-15.0-1.14","96692","ListB","man","chinese","CMB7","","","","null","","","","","",""
"null","正在说服","","html-keyboard-response","223","799339","0.0-15.0-2.14","96692","ListB","man","chinese","CMB7","","","","null","","","","","",""
"6132.700000000186","","","survey-text","224","805473","0.0-15.0-3.14","96692","ListB","man","chinese","CMB7","","","","","{""Q0"":""霍普正在说服贝斯""}","<img src='gifs/FemaleRace1b.gif' style='height:400px;''></img>","说服","正在说服","chinese",""
"null","<div style=""font-size:60px;"">+</div>","","html-keyboard-response","225","805978","0.0-15.0-0.15","96692","ListB","man","chinese","CMB7","","","","null","","","","","",""
"null","<img src='gifs/ChineseGender3b.gif' style='height:400px;''></img>","","html-keyboard-response","226","807983","0.0-15.0-1.15","96692","ListB","man","chinese","CMB7","","","","null","","","","","",""
"null","正在触摸","","html-keyboard-response","227","810994","0.0-15.0-2.15","96692","ListB","man","chinese","CMB7","","","","null","","","","","",""
"6298","","","survey-text","228","817293","0.0-15.0-3.15","96692","ListB","man","chinese","CMB7","","","","","{""Q0"":""戴夫正在触摸露丝""}","<img src='gifs/ChineseGender3b.gif' style='height:400px;''></img>","触摸","正在触摸","chinese",""
"null","<div style=""font-size:60px;"">+</div>","","html-keyboard-response","229","817806","0.0-15.0-0.16","96692","ListB","man","chinese","CMB7","","","","null","","","","","",""
"null","<img src='gifs/MaleRace2a.gif' style='height:400px;''></img>","","html-keyboard-response","230","819810","0.0-15.0-1.16","96692","ListB","man","chinese","CMB7","","","","null","","","","","",""
"null","正在聆听","","html-keyboard-response","231","822821","0.0-15.0-2.16","96692","ListB","man","chinese","CMB7","","","","null","","","","","",""
"20940.800000000047","","","survey-text","232","843763","0.0-15.0-3.16","96692","ListB","man","chinese","CMB7","","","","","{""Q0"":""卢克正在聆听麦克""}","<img src='gifs/MaleRace2a.gif' style='height:400px;''></img>","聆听","正在聆听","chinese",""
"null","<div style=""font-size:60px;"">+</div>","","html-keyboard-response","233","844269","0.0-15.0-0.17","96692","ListB","man","chinese","CMB7","","","","null","","","","","",""
"null","<img src='gifs/ChineseGender4b.gif' style='height:400px;''></img>","","html-keyboard-response","234","846271","0.0-15.0-1.17","96692","ListB","man","chinese","CMB7","","","","null","","","","","",""
"null","正在面向","","html-keyboard-response","235","849280","0.0-15.0-2.17","96692","ListB","man","chinese","CMB7","","","","null","","","","","",""
"10522","","","survey-text","236","859803","0.0-15.0-3.17","96692","ListB","man","chinese","CMB7","","","","","{""Q0"":""戴夫正在面对霍普""}","<img src='gifs/ChineseGender4b.gif' style='height:400px;''></img>","面向","正在面向","chinese",""
"4450.90000000014","<img src='img/portrait_matrix_listB_chinese.jpg' style='width:900px;height:500px;''></img><p>如果您已经记住了所有的人物和名字，请点击继续。</p><p><strong>请注意：您对先前记忆的面孔将在本实验中被测试5次。</strong></p>","0","html-button-response","237","864255","0.0-16.0-0.0","96692","ListB","man","chinese","CMB7","","","","","","","","","",""
"7411.199999999953","<img src=""portrait/WW1.jpg""style=""height:400px;""></img>","1","html-button-response","238","872680","0.0-16.0-1.0","96692","ListB","man","chinese","CMB7","","true","1","","","","","","",""
"null","正确","","html-keyboard-response","239","874195","0.0-16.0-2.0-0.0","96692","ListB","man","chinese","CMB7","","","","null","","","","","",""
"6693.300000000047","<img src=""portrait/BW1.jpg""style=""height:400px;""></img>","3","html-button-response","240","880889","0.0-16.0-4.0","96692","ListB","man","chinese","CMB7","","true","0","","","","","","",""
"10284.5","<img src=""portrait/BW1.jpg""style=""height:400px;""></img>","0","html-button-response","241","892175","0.0-16.0-6.0-0.0","96692","ListB","man","chinese","CMB7","","false","0","","","","","","",""
"null","正确","","html-keyboard-response","242","893682","0.0-16.0-6.0-1.0-0.0","96692","ListB","man","chinese","CMB7","","","","null","","","","","",""
"21755.800000000047","<img src=""portrait/BM1.jpg""style=""height:400px;""></img>","4","html-button-response","243","915438","0.0-16.0-7.0","96692","ListB","man","chinese","CMB7","","true","4","","","","","","",""
"null","正确","","html-keyboard-response","244","916955","0.0-16.0-8.0-0.0","96692","ListB","man","chinese","CMB7","","","","null","","","","","",""
"3066.5","<img src=""portrait/WW2.jpg""style=""height:400px;""></img>","3","html-button-response","245","920022","0.0-16.0-10.0","96692","ListB","man","chinese","CMB7","","true","3","","","","","","",""
"null","正确","","html-keyboard-response","246","921523","0.0-16.0-11.0-0.0","96692","ListB","man","chinese","CMB7","","","","null","","","","","",""
"5268.600000000093","<img src=""portrait/BW2.jpg""style=""height:400px;""></img>","2","html-button-response","247","926792","0.0-16.0-13.0","96692","ListB","man","chinese","CMB7","","true","2","","","","","","",""
"null","正确","","html-keyboard-response","248","928293","0.0-16.0-14.0-0.0","96692","ListB","man","chinese","CMB7","","","","null","","","","","",""
"4345.699999999953","<img src=""portrait/WM1.jpg""style=""height:400px;""></img>","6","html-button-response","249","932639","0.0-16.0-16.0","96692","ListB","man","chinese","CMB7","","true","6","","","","","","",""
"null","正确","","html-keyboard-response","250","934143","0.0-16.0-17.0-0.0","96692","ListB","man","chinese","CMB7","","","","null","","","","","",""
"2098.5999999998603","<img src=""portrait/WM2.jpg""style=""height:400px;""></img>","7","html-button-response","251","936242","0.0-16.0-19.0","96692","ListB","man","chinese","CMB7","","true","7","","","","","","",""
"null","正确","","html-keyboard-response","252","937744","0.0-16.0-20.0-0.0","96692","ListB","man","chinese","CMB7","","","","null","","","","","",""
"3224.0999999998603","<img src=""portrait/BM2.jpg""style=""height:400px;""></img>","5","html-button-response","253","940969","0.0-16.0-22.0","96692","ListB","man","chinese","CMB7","","true","5","","","","","","",""
"null","正确","","html-keyboard-response","254","942471","0.0-16.0-23.0-0.0","96692","ListB","man","chinese","CMB7","","","","null","","","","","",""
"1453","<p>您第一次在8题里答对了 7 题。 请点击继续</p>","0","html-button-response","255","943924","0.0-16.0-25.0","96692","ListB","man","chinese","CMB7","","","","","","","","","",""
"2105.7999999998137","因为您没有全部答对，记忆游戏将重新开始。请点击继续。","0","html-button-response","256","947031","0.0-16.0-26.0-0.0","96692","ListB","man","chinese","CMB7","","","","","","","","","",""
"8806.5","<img src='img/portrait_matrix_listB_chinese.jpg' style='width:900px;height:500px;''></img><p>如果您已经记住了所有的人物和名字，请点击继续。</p><p><strong>请注意：您对先前记忆的面孔将在本实验中被测试5次。</strong></p>","0","html-button-response","257","956839","0.0-16.1-0.1","96692","ListB","man","chinese","CMB7","","","","","","","","","",""
"4136.100000000093","<img src=""portrait/WW1.jpg""style=""height:400px;""></img>","1","html-button-response","258","961976","0.0-16.1-1.1","96692","ListB","man","chinese","CMB7","","true","1","","","","","","",""
"null","正确","","html-keyboard-response","259","963482","0.0-16.1-2.1-0.1","96692","ListB","man","chinese","CMB7","","","","null","","","","","",""
"3452.2000000001863","<img src=""portrait/BW1.jpg""style=""height:400px;""></img>","0","html-button-response","260","966934","0.0-16.1-4.1","96692","ListB","man","chinese","CMB7","","true","0","","","","","","",""
"null","正确","","html-keyboard-response","261","968457","0.0-16.1-5.1-0.1","96692","ListB","man","chinese","CMB7","","","","null","","","","","",""
"3062","<img src=""portrait/BM1.jpg""style=""height:400px;""></img>","4","html-button-response","262","971519","0.0-16.1-7.1","96692","ListB","man","chinese","CMB7","","true","4","","","","","","",""
"null","正确","","html-keyboard-response","263","973031","0.0-16.1-8.1-0.1","96692","ListB","man","chinese","CMB7","","","","null","","","","","",""
"3746","<img src=""portrait/WW2.jpg""style=""height:400px;""></img>","3","html-button-response","264","976777","0.0-16.1-10.1","96692","ListB","man","chinese","CMB7","","true","3","","","","","","",""
"null","正确","","html-keyboard-response","265","978280","0.0-16.1-11.1-0.1","96692","ListB","man","chinese","CMB7","","","","null","","","","","",""
"3175.6999999999534","<img src=""portrait/BW2.jpg""style=""height:400px;""></img>","2","html-button-response","266","981456","0.0-16.1-13.1","96692","ListB","man","chinese","CMB7","","true","2","","","","","","",""
"null","正确","","html-keyboard-response","267","982969","0.0-16.1-14.1-0.1","96692","ListB","man","chinese","CMB7","","","","null","","","","","",""
"4592.800000000047","<img src=""portrait/WM1.jpg""style=""height:400px;""></img>","6","html-button-response","268","987562","0.0-16.1-16.1","96692","ListB","man","chinese","CMB7","","true","6","","","","","","",""
"null","正确","","html-keyboard-response","269","989064","0.0-16.1-17.1-0.1","96692","ListB","man","chinese","CMB7","","","","null","","","","","",""
"2352.1999999999534","<img src=""portrait/WM2.jpg""style=""height:400px;""></img>","7","html-button-response","270","991416","0.0-16.1-19.1","96692","ListB","man","chinese","CMB7","","true","7","","","","","","",""
"null","正确","","html-keyboard-response","271","992921","0.0-16.1-20.1-0.1","96692","ListB","man","chinese","CMB7","","","","null","","","","","",""
"22816.699999999953","<img src=""portrait/BM2.jpg""style=""height:400px;""></img>","5","html-button-response","272","1015739","0.0-16.1-22.1","96692","ListB","man","chinese","CMB7","","true","5","","","","","","",""
"null","正确","","html-keyboard-response","273","1017241","0.0-16.1-23.1-0.1","96692","ListB","man","chinese","CMB7","","","","null","","","","","",""
"2793","<p>您第一次在8题里答对了 8 题。 请点击继续</p>","0","html-button-response","274","1020034","0.0-16.1-25.1","96692","ListB","man","chinese","CMB7","","","","","","","","","",""
"null","<div style=""font-size:60px;"">+</div>","","html-keyboard-response","275","1021536","0.0-17.0-0.0","96692","ListB","man","chinese","CMB7","","","","null","","","","","",""
"null","<img src='gifs/MaleRace3b.gif' style='height:400px;''></img>","","html-keyboard-response","276","1023548","0.0-17.0-1.0","96692","ListB","man","chinese","CMB7","","","","null","","","","","",""
"null","正在加入","","html-keyboard-response","277","1026548","0.0-17.0-2.0","96692","ListB","man","chinese","CMB7","","","","null","","","","","",""
"21484.59999999986","","","survey-text","278","1048034","0.0-17.0-3.0","96692","ListB","man","chinese","CMB7","","","","","{""Q0"":""戴夫正在加入弗雷""}","<img src='gifs/MaleRace3b.gif' style='height:400px;''></img>","加入","正在加入","chinese",""
"null","<div style=""font-size:60px;"">+</div>","","html-keyboard-response","279","1048538","0.0-17.0-0.1","96692","ListB","man","chinese","CMB7","","","","null","","","","","",""
"null","<img src='gifs/MaleRace1a.gif' style='height:400px;''></img>","","html-keyboard-response","280","1050543","0.0-17.0-1.1","96692","ListB","man","chinese","CMB7","","","","null","","","","","",""
"null","正在接近","","html-keyboard-response","281","1053549","0.0-17.0-2.1","96692","ListB","man","chinese","CMB7","","","","null","","","","","",""
"28246.299999999814","","","survey-text","282","1081796","0.0-17.0-3.1","96692","ListB","man","chinese","CMB7","","","","","{""Q0"":"" ""}","<img src='gifs/MaleRace1a.gif' style='height:400px;''></img>","接近","正在接近","chinese",""
"null","<div style=""font-size:60px;"">+</div>","","html-keyboard-response","283","1082302","0.0-17.0-0.2","96692","ListB","man","chinese","CMB7","","","","null","","","","","",""
"null","<img src='gifs/BlackGender1b.gif' style='height:400px;''></img>","","html-keyboard-response","284","1084302","0.0-17.0-1.2","96692","ListB","man","chinese","CMB7","","","","null","","","","","",""
"null","正在介绍","","html-keyboard-response","285","1087309","0.0-17.0-2.2","96692","ListB","man","chinese","CMB7","","","","null","","","","","",""
"5898.5","","","survey-text","286","1093208","0.0-17.0-3.2","96692","ListB","man","chinese","CMB7","","","","","{""Q0"":"" ""}","<img src='gifs/BlackGender1b.gif' style='height:400px;''></img>","介绍","正在介绍","chinese",""
"null","<div style=""font-size:60px;"">+</div>","","html-keyboard-response","287","1093720","0.0-17.0-0.3","96692","ListB","man","chinese","CMB7","","","","null","","","","","",""
"null","<img src='gifs/FemaleRace3a.gif' style='height:400px;''></img>","","html-keyboard-response","288","1095722","0.0-17.0-1.3","96692","ListB","man","chinese","CMB7","","","","null","","","","","",""
"null","正在提到","","html-keyboard-response","289","1098736","0.0-17.0-2.3","96692","ListB","man","chinese","CMB7","","","","null","","","","","",""
"229.90000000037253","","","survey-text","290","1098967","0.0-17.0-3.3","96692","ListB","man","chinese","CMB7","","","","","{""Q0"":""  ""}","<img src='gifs/FemaleRace3a.gif' style='height:400px;''></img>","提到","正在提到","chinese",""
"null","<div style=""font-size:60px;"">+</div>","","html-keyboard-response","291","1099481","0.0-17.0-0.4","96692","ListB","man","chinese","CMB7","","","","null","","","","","",""
"null","<img src='gifs/ChineseGender4a.gif' style='height:400px;''></img>","","html-keyboard-response","292","1101495","0.0-17.0-1.4","96692","ListB","man","chinese","CMB7","","","","null","","","","","",""
"null","正在面向","","html-keyboard-response","293","1104499","0.0-17.0-2.4","96692","ListB","man","chinese","CMB7","","","","null","","","","","",""
"6753.199999999721","","","survey-text","294","1111253","0.0-17.0-3.4","96692","ListB","man","chinese","CMB7","","","","","{""Q0"":"" ""}","<img src='gifs/ChineseGender4a.gif' style='height:400px;''></img>","面向","正在面向","chinese",""
"null","<div style=""font-size:60px;"">+</div>","","html-keyboard-response","295","1111763","0.0-17.0-0.5","96692","ListB","man","chinese","CMB7","","","","null","","","","","",""
"null","<img src='gifs/ChineseGender2b.gif' style='height:400px;''></img>","","html-keyboard-response","296","1113779","0.0-17.0-1.5","96692","ListB","man","chinese","CMB7","","","","null","","","","","",""
"null","正在接近","","html-keyboard-response","297","1116780","0.0-17.0-2.5","96692","ListB","man","chinese","CMB7","","","","null","","","","","",""
"2061.1999999997206","","","survey-text","298","1118842","0.0-17.0-3.5","96692","ListB","man","chinese","CMB7","","","","","{""Q0"":"" ""}","<img src='gifs/ChineseGender2b.gif' style='height:400px;''></img>","接近","正在接近","chinese",""
"null","<div style=""font-size:60px;"">+</div>","","html-keyboard-response","299","1119351","0.0-17.0-0.6","96692","ListB","man","chinese","CMB7","","","","null","","","","","",""
"null","<img src='gifs/FemaleRace3b.gif' style='height:400px;''></img>","","html-keyboard-response","300","1121352","0.0-17.0-1.6","96692","ListB","man","chinese","CMB7","","","","null","","","","","",""
"null","正在聆听","","html-keyboard-response","301","1124355","0.0-17.0-2.6","96692","ListB","man","chinese","CMB7","","","","null","","","","","",""
"509.8000000002794","","","survey-text","302","1124866","0.0-17.0-3.6","96692","ListB","man","chinese","CMB7","","","","","{""Q0"":"" ""}","<img src='gifs/FemaleRace3b.gif' style='height:400px;''></img>","聆听","正在聆听","chinese",""
"null","<div style=""font-size:60px;"">+</div>","","html-keyboard-response","303","1125369","0.0-17.0-0.7","96692","ListB","man","chinese","CMB7","","","","null","","","","","",""
"null","<img src='gifs/BlackGender2b.gif' style='height:400px;''></img>","","html-keyboard-response","304","1127384","0.0-17.0-1.7","96692","ListB","man","chinese","CMB7","","","","null","","","","","",""
"null","正在看着","","html-keyboard-response","305","1130394","0.0-17.0-2.7","96692","ListB","man","chinese","CMB7","","","","null","","","","","",""
"534.3000000002794","","","survey-text","306","1130929","0.0-17.0-3.7","96692","ListB","man","chinese","CMB7","","","","","{""Q0"":"" ""}","<img src='gifs/BlackGender2b.gif' style='height:400px;''></img>","看着","正在看着","chinese",""
"null","<div style=""font-size:60px;"">+</div>","","html-keyboard-response","307","1131444","0.0-17.0-0.8","96692","ListB","man","chinese","CMB7","","","","null","","","","","",""
"null","<img src='gifs/BlackGender3b.gif' style='height:400px;''></img>","","html-keyboard-response","308","1133445","0.0-17.0-1.8","96692","ListB","man","chinese","CMB7","","","","null","","","","","",""
"null","正在加入","","html-keyboard-response","309","1136455","0.0-17.0-2.8","96692","ListB","man","chinese","CMB7","","","","null","","","","","",""
"1121.8000000002794","","","survey-text","310","1137578","0.0-17.0-3.8","96692","ListB","man","chinese","CMB7","","","","","{""Q0"":"" ""}","<img src='gifs/BlackGender3b.gif' style='height:400px;''></img>","加入","正在加入","chinese",""
"null","<div style=""font-size:60px;"">+</div>","","html-keyboard-response","311","1138091","0.0-17.0-0.9","96692","ListB","man","chinese","CMB7","","","","null","","","","","",""
"null","<img src='gifs/BlackGender1a.gif' style='height:400px;''></img>","","html-keyboard-response","312","1140092","0.0-17.0-1.9","96692","ListB","man","chinese","CMB7","","","","null","","","","","",""
"null","正在触摸","","html-keyboard-response","313","1143105","0.0-17.0-2.9","96692","ListB","man","chinese","CMB7","","","","null","","","","","",""
"4095.2000000001863","","","survey-text","314","1147201","0.0-17.0-3.9","96692","ListB","man","chinese","CMB7","","","","","{""Q0"":"" ""}","<img src='gifs/BlackGender1a.gif' style='height:400px;''></img>","触摸","正在触摸","chinese",""
"null","<div style=""font-size:60px;"">+</div>","","html-keyboard-response","315","1147708","0.0-17.0-0.10","96692","ListB","man","chinese","CMB7","","","","null","","","","","",""
"null","<img src='gifs/ChineseGender4b.gif' style='height:400px;''></img>","","html-keyboard-response","316","1149711","0.0-17.0-1.10","96692","ListB","man","chinese","CMB7","","","","null","","","","","",""
"null","正在接近","","html-keyboard-response","317","1152712","0.0-17.0-2.10","96692","ListB","man","chinese","CMB7","","","","null","","","","","",""
"225.20000000018626","","","survey-text","318","1152938","0.0-17.0-3.10","96692","ListB","man","chinese","CMB7","","","","","{""Q0"":"" ""}","<img src='gifs/ChineseGender4b.gif' style='height:400px;''></img>","接近","正在接近","chinese",""
"null","<div style=""font-size:60px;"">+</div>","","html-keyboard-response","319","1153442","0.0-17.0-0.11","96692","ListB","man","chinese","CMB7","","","","null","","","","","",""
"null","<img src='gifs/ChineseGender2a.gif' style='height:400px;''></img>","","html-keyboard-response","320","1155444","0.0-17.0-1.11","96692","ListB","man","chinese","CMB7","","","","null","","","","","",""
"null","正在走向","","html-keyboard-response","321","1158447","0.0-17.0-2.11","96692","ListB","man","chinese","CMB7","","","","null","","","","","",""
"18683","","","survey-text","322","1177131","0.0-17.0-3.11","96692","ListB","man","chinese","CMB7","","","","","{""Q0"":"" ""}","<img src='gifs/ChineseGender2a.gif' style='height:400px;''></img>","走向","正在走向","chinese",""
"null","<div style=""font-size:60px;"">+</div>","","html-keyboard-response","323","1177638","0.0-17.0-0.12","96692","ListB","man","chinese","CMB7","","","","null","","","","","",""
"null","<img src='gifs/BlackGender2b.gif' style='height:400px;''></img>","","html-keyboard-response","324","1179652","0.0-17.0-1.12","96692","ListB","man","chinese","CMB7","","","","null","","","","","",""
"null","正在联系","","html-keyboard-response","325","1182665","0.0-17.0-2.12","96692","ListB","man","chinese","CMB7","","","","null","","","","","",""
"193.3000000002794","","","survey-text","326","1182859","0.0-17.0-3.12","96692","ListB","man","chinese","CMB7","","","","","{""Q0"":""  ""}","<img src='gifs/BlackGender2b.gif' style='height:400px;''></img>","联系","正在联系","chinese",""
"null","<div style=""font-size:60px;"">+</div>","","html-keyboard-response","327","1183363","0.0-17.0-0.13","96692","ListB","man","chinese","CMB7","","","","null","","","","","",""
"null","<img src='gifs/BlackGender3b.gif' style='height:400px;''></img>","","html-keyboard-response","328","1185379","0.0-17.0-1.13","96692","ListB","man","chinese","CMB7","","","","null","","","","","",""
"null","正在说服","","html-keyboard-response","329","1188385","0.0-17.0-2.13","96692","ListB","man","chinese","CMB7","","","","null","","","","","",""
"89.70000000018626","","","survey-text","330","1188476","0.0-17.0-3.13","96692","ListB","man","chinese","CMB7","","","","","{""Q0"":"" ""}","<img src='gifs/BlackGender3b.gif' style='height:400px;''></img>","说服","正在说服","chinese",""
"null","<div style=""font-size:60px;"">+</div>","","html-keyboard-response","331","1188977","0.0-17.0-0.14","96692","ListB","man","chinese","CMB7","","","","null","","","","","",""
"null","<img src='gifs/BlackGender4b.gif' style='height:400px;''></img>","","html-keyboard-response","332","1190991","0.0-17.0-1.14","96692","ListB","man","chinese","CMB7","","","","null","","","","","",""
"null","正在陪伴","","html-keyboard-response","333","1193993","0.0-17.0-2.14","96692","ListB","man","chinese","CMB7","","","","null","","","","","",""
"163.5","","","survey-text","334","1194158","0.0-17.0-3.14","96692","ListB","man","chinese","CMB7","","","","","{""Q0"":"" ""}","<img src='gifs/BlackGender4b.gif' style='height:400px;''></img>","陪伴","正在陪伴","chinese",""
"null","<div style=""font-size:60px;"">+</div>","","html-keyboard-response","335","1194670","0.0-17.0-0.15","96692","ListB","man","chinese","CMB7","","","","null","","","","","",""
"null","<img src='gifs/BlackGender1a.gif' style='height:400px;''></img>","","html-keyboard-response","336","1196673","0.0-17.0-1.15","96692","ListB","man","chinese","CMB7","","","","null","","","","","",""
"null","正在表扬","","html-keyboard-response","337","1199678","0.0-17.0-2.15","96692","ListB","man","chinese","CMB7","","","","null","","","","","",""
"189","","","survey-text","338","1199868","0.0-17.0-3.15","96692","ListB","man","chinese","CMB7","","","","","{""Q0"":"" ""}","<img src='gifs/BlackGender1a.gif' style='height:400px;''></img>","表扬","正在表扬","chinese",""
"null","<div style=""font-size:60px;"">+</div>","","html-keyboard-response","339","1200377","0.0-17.0-0.16","96692","ListB","man","chinese","CMB7","","","","null","","","","","",""
"null","<img src='gifs/FemaleRace3b.gif' style='height:400px;''></img>","","html-keyboard-response","340","1202390","0.0-17.0-1.16","96692","ListB","man","chinese","CMB7","","","","null","","","","","",""
"null","正在答应","","html-keyboard-response","341","1205399","0.0-17.0-2.16","96692","ListB","man","chinese","CMB7","","","","null","","","","","",""
"44.299999999813735","","","survey-text","342","1205445","0.0-17.0-3.16","96692","ListB","man","chinese","CMB7","","","","","{""Q0"":"" ""}","<img src='gifs/FemaleRace3b.gif' style='height:400px;''></img>","答应","正在答应","chinese",""
"null","<div style=""font-size:60px;"">+</div>","","html-keyboard-response","343","1205954","0.0-17.0-0.17","96692","ListB","man","chinese","CMB7","","","","null","","","","","",""
"null","<img src='gifs/FemaleRace1b.gif' style='height:400px;''></img>","","html-keyboard-response","344","1207967","0.0-17.0-1.17","96692","ListB","man","chinese","CMB7","","","","null","","","","","",""
"null","正在走向","","html-keyboard-response","345","1210976","0.0-17.0-2.17","96692","ListB","man","chinese","CMB7","","","","null","","","","","",""
"203.39999999990687","","","survey-text","346","1211181","0.0-17.0-3.17","96692","ListB","man","chinese","CMB7","","","","","{""Q0"":"" ""}","<img src='gifs/FemaleRace1b.gif' style='height:400px;''></img>","走向","正在走向","chinese",""
"10131.100000000093","<p>Thank you for completing that task.</p><p>The final part of this session is a short questionnaire.</p><p>Press Continue.</p>","0","html-button-response","347","1221312","0.0-18.0","96692","ListB","man","chinese","CMB7","","","","","","","","","",""
"94733.20000000019","","","survey-text","348","1317049","0.0-19.0","96692","ListB","man","chinese","CMB7","","","","","{""Q0"":""21"",""Q1"":""Chinese"",""Q2"":""Chinese"",""Q3"":""China"",""Q4"":""Chinese"",""Q5"":""Chinese"",""Q6"":""bisexual""}","","","","","demographics"
"7394.299999999814","<p>Have you lived in the UK for the last 5 years or more?</p>","1","html-button-response","349","1324445","0.0-20.0","96692","ListB","man","chinese","CMB7","","","","","","","","","","fiveyears"
"14385.700000000186","","","external-html","350","1339887","0.0-21.0","96692","ListB","man","chinese","CMB7","debrief.html","","","","","","","","",""
"55706.39999999991","","","survey-text","351","1395595","0.0-22.0","96692","ListB","man","chinese","CMB7","","","","","{""ptpt_id"":""CMB7""}","","","","","worker_id"
