"rt","stimulus","button_pressed","trial_type","trial_index","time_elapsed","internal_node_id","subject","list","ppt_gender","ppt_language","url","first_guess","correct","key_press","responses","image","verb","phrase","condition","test_part"
"2531","Welcome to the experiment. Press Continue to begin.","0","html-button-response","0","2534","0.0-0.0","99152","ListB","woman","english","","","","","","","","","",""
"10114","","","external-html","1","13932","0.0-1.0","99152","ListB","woman","english","consent.html","","","","","","","","",""
"20149","<p>On the next page, you will see portraits of 8 people and their names.</p><p>Your first task is to take a few minutes to memorise the names of these people.</p><p>You will have to recall their names during the rest of the experiment, so it is</p><p>essential that you try to memorise these people and their names as best as you can.</p><p><strong>You will then be tested on your memory of these names and portraits.</strong></p><p>The experiment will start after you have completed this memory test.</p><p>Ready?</p>","0","html-button-response","2","34083","0.0-2.0","99152","ListB","woman","english","","","","","","","","","",""
"214974","<img src='img/portrait_matrix_listB.jpg' style='width:900px;height:500px;''></img><p>If you have memorised all the portraits and names and are ready to start, press Continue.</p><p><strong>Please note: Your memory of these faces will be tested 5 times during this experiment.</strong></p>","0","html-button-response","3","250059","0.0-3.0-0.0","99152","ListB","woman","english","","","","","","","","","",""
"7618","<img src=""portrait/WM1.jpg""style=""height:400px;""></img>","6","html-button-response","4","258679","0.0-3.0-1.0","99152","ListB","woman","english","","true","6","","","","","","",""
"null","CORRECT","","html-keyboard-response","5","260184","0.0-3.0-2.0-0.0","99152","ListB","woman","english","","","","null","","","","","",""
"3728.000000000058","<img src=""portrait/BM2.jpg""style=""height:400px;""></img>","5","html-button-response","6","263914","0.0-3.0-4.0","99152","ListB","woman","english","","true","5","","","","","","",""
"null","CORRECT","","html-keyboard-response","7","265418","0.0-3.0-5.0-0.0","99152","ListB","woman","english","","","","null","","","","","",""
"10803","<img src=""portrait/BM1.jpg""style=""height:400px;""></img>","4","html-button-response","8","276222","0.0-3.0-7.0","99152","ListB","woman","english","","true","4","","","","","","",""
"null","CORRECT","","html-keyboard-response","9","277726","0.0-3.0-8.0-0.0","99152","ListB","woman","english","","","","null","","","","","",""
"3871","<img src=""portrait/WW2.jpg""style=""height:400px;""></img>","3","html-button-response","10","281599","0.0-3.0-10.0","99152","ListB","woman","english","","true","3","","","","","","",""
"null","CORRECT","","html-keyboard-response","11","283102","0.0-3.0-11.0-0.0","99152","ListB","woman","english","","","","null","","","","","",""
"8596.999999999942","<img src=""portrait/BW2.jpg""style=""height:400px;""></img>","2","html-button-response","12","291701","0.0-3.0-13.0","99152","ListB","woman","english","","true","2","","","","","","",""
"null","CORRECT","","html-keyboard-response","13","293204","0.0-3.0-14.0-0.0","99152","ListB","woman","english","","","","null","","","","","",""
"1998","<img src=""portrait/WW1.jpg""style=""height:400px;""></img>","1","html-button-response","14","295204","0.0-3.0-16.0","99152","ListB","woman","english","","true","1","","","","","","",""
"null","CORRECT","","html-keyboard-response","15","296707","0.0-3.0-17.0-0.0","99152","ListB","woman","english","","","","null","","","","","",""
"7534","<img src=""portrait/BW1.jpg""style=""height:400px;""></img>","0","html-button-response","16","304244","0.0-3.0-19.0","99152","ListB","woman","english","","true","0","","","","","","",""
"null","CORRECT","","html-keyboard-response","17","305747","0.0-3.0-20.0-0.0","99152","ListB","woman","english","","","","null","","","","","",""
"4984","<img src=""portrait/WM2.jpg""style=""height:400px;""></img>","7","html-button-response","18","310732","0.0-3.0-22.0","99152","ListB","woman","english","","true","7","","","","","","",""
"null","CORRECT","","html-keyboard-response","19","312236","0.0-3.0-23.0-0.0","99152","ListB","woman","english","","","","null","","","","","",""
"1991.0000000000582","<p>You got 8 out of 8 right first time. Press Continue.</p>","0","html-button-response","20","314229","0.0-3.0-25.0","99152","ListB","woman","english","","","","","","","","","",""
"36153","<p>In this experiment, you will view photographs of the people from the memory game.</p><p>By using the <strong>exact</strong> phrase given <i>after</i> the photograph appears and recalling the correct names of the people in the photographs, form a sentence describing an interaction. You do not need to capitalise names.</p><p>Type your answer in the space provided. Please complete every sentence before moving onto the next trial.</p><p>You will only have a few seconds to memorise each given photograph and phrase before you can respond, so try your best to focus.</p><p>An example is given below. Press 'Continue' when you are ready.</p><img src='img/speaking_example.jpg' style='width:800px;height:460px;''></img>","0","html-button-response","21","351385","0.0-4.0","99152","ListB","woman","english","","","","","","","","","",""
"3525","<p>Before the experiment starts, you will watch two example trials. Press 'Continue'.</p>","0","html-button-response","22","355912","0.0-5.0","99152","ListB","woman","english","","","","","","","","","",""
"null","<img src='img/meet.gif' style='height:400px;''></img>","","html-keyboard-response","23","358916","0.0-6.0","99152","ListB","woman","english","","","","null","","","","","",""
"null","<p>is meeting</p>","","html-keyboard-response","24","360918","0.0-7.0","99152","ListB","woman","english","","","","null","","","","","",""
"1834.0000000000582","<p><b>Answer:</b> jane is meeting ruth</p>","0","html-button-response","25","362753","0.0-8.0","99152","ListB","woman","english","","","","","","","","","",""
"null","<img src='img/spy.gif' style='height:400px;''></img>","","html-keyboard-response","26","365756","0.0-9.0","99152","ListB","woman","english","","","","null","","","","","",""
"null","<p>is being spied on by</p>","","html-keyboard-response","27","367758","0.0-10.0","99152","ListB","woman","english","","","","null","","","","","",""
"2563","<p><b>Answer:</b> fred is being spied on by mike</p>","0","html-button-response","28","370323","0.0-11.0","99152","ListB","woman","english","","","","","","","","","",""
"3536.999999999942","<p>Ready to start the experiment?</p><br><p><strong>Remember to describe the picture using a full sentence,</strong></p><p><strong>that combines the names of the people with the <i>exact</i> phrase given.</strong></p><p><strong>To receive full payment you must do this correctly.</strong></p><p><strong> You do not need to capitalise names or use punctuation.</strong></p><br><p>Press 'Continue' to begin.</p>","0","html-button-response","29","374862","0.0-12.0","99152","ListB","woman","english","","","","","","","","","",""
"null","<div style=""font-size:60px;"">+</div>","","html-keyboard-response","30","376364","0.0-13.0-0.0","99152","ListB","woman","english","","","","null","","","","","",""
"null","<img src='gifs/MaleRace3b.gif' style='height:400px;''></img>","","html-keyboard-response","31","378367","0.0-13.0-1.0","99152","ListB","woman","english","","","","null","","","","","",""
"null","is walking towards","","html-keyboard-response","32","381369","0.0-13.0-2.0","99152","ListB","woman","english","","","","null","","","","","",""
"19567","","","survey-text","33","400959","0.0-13.0-3.0","99152","ListB","woman","english","","","","","{""Q0"":""Fred is walking towards Dave. ""}","<img src='gifs/MaleRace3b.gif' style='height:400px;''></img>","walking towards","is walking towards","english",""
"null","<div style=""font-size:60px;"">+</div>","","html-keyboard-response","34","401462","0.0-13.0-0.1","99152","ListB","woman","english","","","","null","","","","","",""
"null","<img src='gifs/MaleRace4a.gif' style='height:400px;''></img>","","html-keyboard-response","35","403464","0.0-13.0-1.1","99152","ListB","woman","english","","","","null","","","","","",""
"null","is convincing","","html-keyboard-response","36","406467","0.0-13.0-2.1","99152","ListB","woman","english","","","","null","","","","","",""
"9584","","","survey-text","37","416059","0.0-13.0-3.1","99152","ListB","woman","english","","","","","{""Q0"":""Mike is convincing Dave""}","<img src='gifs/MaleRace4a.gif' style='height:400px;''></img>","convincing","is convincing","english",""
"null","<div style=""font-size:60px;"">+</div>","","html-keyboard-response","38","416561","0.0-13.0-0.2","99152","ListB","woman","english","","","","null","","","","","",""
"null","<img src='gifs/BlackGender4b.gif' style='height:400px;''></img>","","html-keyboard-response","39","418563","0.0-13.0-1.2","99152","ListB","woman","english","","","","null","","","","","",""
"null","is introducing","","html-keyboard-response","40","421566","0.0-13.0-2.2","99152","ListB","woman","english","","","","null","","","","","",""
"18135","","","survey-text","41","439708","0.0-13.0-3.2","99152","ListB","woman","english","","","","","{""Q0"":""Mike is introducing Beth. ""}","<img src='gifs/BlackGender4b.gif' style='height:400px;''></img>","introducing","is introducing","english",""
"null","<div style=""font-size:60px;"">+</div>","","html-keyboard-response","42","440210","0.0-13.0-0.3","99152","ListB","woman","english","","","","null","","","","","",""
"null","<img src='gifs/ChineseGender2b.gif' style='height:400px;''></img>","","html-keyboard-response","43","442213","0.0-13.0-1.3","99152","ListB","woman","english","","","","null","","","","","",""
"null","is accompanying","","html-keyboard-response","44","445215","0.0-13.0-2.3","99152","ListB","woman","english","","","","null","","","","","",""
"13911","","","survey-text","45","459134","0.0-13.0-3.3","99152","ListB","woman","english","","","","","{""Q0"":""Luke is accompanying Ruth. ""}","<img src='gifs/ChineseGender2b.gif' style='height:400px;''></img>","accompanying","is accompanying","english",""
"null","<div style=""font-size:60px;"">+</div>","","html-keyboard-response","46","459634","0.0-13.0-0.4","99152","ListB","woman","english","","","","null","","","","","",""
"null","<img src='gifs/FemaleRace3a.gif' style='height:400px;''></img>","","html-keyboard-response","47","461637","0.0-13.0-1.4","99152","ListB","woman","english","","","","null","","","","","",""
"null","is accompanying","","html-keyboard-response","48","464639","0.0-13.0-2.4","99152","ListB","woman","english","","","","null","","","","","",""
"22996.00000000006","","","survey-text","49","487641","0.0-13.0-3.4","99152","ListB","woman","english","","","","","{""Q0"":""Beth is accompanying Ruth. ""}","<img src='gifs/FemaleRace3a.gif' style='height:400px;''></img>","accompanying","is accompanying","english",""
"null","<div style=""font-size:60px;"">+</div>","","html-keyboard-response","50","488143","0.0-13.0-0.5","99152","ListB","woman","english","","","","null","","","","","",""
"null","<img src='gifs/FemaleRace1b.gif' style='height:400px;''></img>","","html-keyboard-response","51","490145","0.0-13.0-1.5","99152","ListB","woman","english","","","","null","","","","","",""
"null","is touching","","html-keyboard-response","52","493147","0.0-13.0-2.5","99152","ListB","woman","english","","","","null","","","","","",""
"15608","","","survey-text","53","508763","0.0-13.0-3.5","99152","ListB","woman","english","","","","","{""Q0"":""Jane is touching Beth. ""}","<img src='gifs/FemaleRace1b.gif' style='height:400px;''></img>","touching","is touching","english",""
"null","<div style=""font-size:60px;"">+</div>","","html-keyboard-response","54","509265","0.0-13.0-0.6","99152","ListB","woman","english","","","","null","","","","","",""
"null","<img src='gifs/BlackGender1a.gif' style='height:400px;''></img>","","html-keyboard-response","55","511268","0.0-13.0-1.6","99152","ListB","woman","english","","","","null","","","","","",""
"null","is praising","","html-keyboard-response","56","514270","0.0-13.0-2.6","99152","ListB","woman","english","","","","null","","","","","",""
"12666","","","survey-text","57","526943","0.0-13.0-3.6","99152","ListB","woman","english","","","","","{""Q0"":""Beth is praising Fred. ""}","<img src='gifs/BlackGender1a.gif' style='height:400px;''></img>","praising","is praising","english",""
"null","<div style=""font-size:60px;"">+</div>","","html-keyboard-response","58","527445","0.0-13.0-0.7","99152","ListB","woman","english","","","","null","","","","","",""
"null","<img src='gifs/ChineseGender1a.gif' style='height:400px;''></img>","","html-keyboard-response","59","529447","0.0-13.0-1.7","99152","ListB","woman","english","","","","null","","","","","",""
"null","is walking towards","","html-keyboard-response","60","532450","0.0-13.0-2.7","99152","ListB","woman","english","","","","null","","","","","",""
"16896","","","survey-text","61","549351","0.0-13.0-3.7","99152","ListB","woman","english","","","","","{""Q0"":""Jane is walking towards Luke. ""}","<img src='gifs/ChineseGender1a.gif' style='height:400px;''></img>","walking towards","is walking towards","english",""
"null","<div style=""font-size:60px;"">+</div>","","html-keyboard-response","62","549853","0.0-13.0-0.8","99152","ListB","woman","english","","","","null","","","","","",""
"null","<img src='gifs/FemaleRace2b.gif' style='height:400px;''></img>","","html-keyboard-response","63","551856","0.0-13.0-1.8","99152","ListB","woman","english","","","","null","","","","","",""
"null","is joining","","html-keyboard-response","64","554859","0.0-13.0-2.8","99152","ListB","woman","english","","","","null","","","","","",""
"8989","","","survey-text","65","563853","0.0-13.0-3.8","99152","ListB","woman","english","","","","","{""Q0"":""Jane is joining Kate. ""}","<img src='gifs/FemaleRace2b.gif' style='height:400px;''></img>","join","is joining","english",""
"null","<div style=""font-size:60px;"">+</div>","","html-keyboard-response","66","564355","0.0-13.0-0.9","99152","ListB","woman","english","","","","null","","","","","",""
"null","<img src='gifs/MaleRace4b.gif' style='height:400px;''></img>","","html-keyboard-response","67","566358","0.0-13.0-1.9","99152","ListB","woman","english","","","","null","","","","","",""
"null","is touching","","html-keyboard-response","68","569360","0.0-13.0-2.9","99152","ListB","woman","english","","","","null","","","","","",""
"11284","","","survey-text","69","580649","0.0-13.0-3.9","99152","ListB","woman","english","","","","","{""Q0"":""Luke is touching Mike. ""}","<img src='gifs/MaleRace4b.gif' style='height:400px;''></img>","touching","is touching","english",""
"null","<div style=""font-size:60px;"">+</div>","","html-keyboard-response","70","581151","0.0-13.0-0.10","99152","ListB","woman","english","","","","null","","","","","",""
"null","<img src='gifs/MaleRace2b.gif' style='height:400px;''></img>","","html-keyboard-response","71","583154","0.0-13.0-1.10","99152","ListB","woman","english","","","","null","","","","","",""
"null","is praising","","html-keyboard-response","72","586156","0.0-13.0-2.10","99152","ListB","woman","english","","","","null","","","","","",""
"15091","","","survey-text","73","601252","0.0-13.0-3.10","99152","ListB","woman","english","","","","","{""Q0"":""Luke is praising Mike. ""}","<img src='gifs/MaleRace2b.gif' style='height:400px;''></img>","praising","is praising","english",""
"null","<div style=""font-size:60px;"">+</div>","","html-keyboard-response","74","601754","0.0-13.0-0.11","99152","ListB","woman","english","","","","null","","","","","",""
"null","<img src='gifs/FemaleRace3b.gif' style='height:400px;''></img>","","html-keyboard-response","75","603757","0.0-13.0-1.11","99152","ListB","woman","english","","","","null","","","","","",""
"null","is facing","","html-keyboard-response","76","606759","0.0-13.0-2.11","99152","ListB","woman","english","","","","null","","","","","",""
"9875","","","survey-text","77","616640","0.0-13.0-3.11","99152","ListB","woman","english","","","","","{""Q0"":""Ruth is facing Beth. ""}","<img src='gifs/FemaleRace3b.gif' style='height:400px;''></img>","facing","is facing","english",""
"null","<div style=""font-size:60px;"">+</div>","","html-keyboard-response","78","617142","0.0-13.0-0.12","99152","ListB","woman","english","","","","null","","","","","",""
"null","<img src='gifs/BlackGender2b.gif' style='height:400px;''></img>","","html-keyboard-response","79","619144","0.0-13.0-1.12","99152","ListB","woman","english","","","","null","","","","","",""
"null","is looking at","","html-keyboard-response","80","622146","0.0-13.0-2.12","99152","ListB","woman","english","","","","null","","","","","",""
"9117","","","survey-text","81","631267","0.0-13.0-3.12","99152","ListB","woman","english","","","","","{""Q0"":""Mike is looking at Beth. ""}","<img src='gifs/BlackGender2b.gif' style='height:400px;''></img>","looking at","is looking at","english",""
"null","<div style=""font-size:60px;"">+</div>","","html-keyboard-response","82","631769","0.0-13.0-0.13","99152","ListB","woman","english","","","","null","","","","","",""
"null","<img src='gifs/MaleRace4a.gif' style='height:400px;''></img>","","html-keyboard-response","83","633771","0.0-13.0-1.13","99152","ListB","woman","english","","","","null","","","","","",""
"null","is walking towards","","html-keyboard-response","84","636773","0.0-13.0-2.13","99152","ListB","woman","english","","","","null","","","","","",""
"13104","","","survey-text","85","649883","0.0-13.0-3.13","99152","ListB","woman","english","","","","","{""Q0"":""Mike is walking towards Dave. ""}","<img src='gifs/MaleRace4a.gif' style='height:400px;''></img>","walking towards","is walking towards","english",""
"null","<div style=""font-size:60px;"">+</div>","","html-keyboard-response","86","650385","0.0-13.0-0.14","99152","ListB","woman","english","","","","null","","","","","",""
"null","<img src='gifs/BlackGender2a.gif' style='height:400px;''></img>","","html-keyboard-response","87","652387","0.0-13.0-1.14","99152","ListB","woman","english","","","","null","","","","","",""
"null","is following","","html-keyboard-response","88","655390","0.0-13.0-2.14","99152","ListB","woman","english","","","","null","","","","","",""
"7656","","","survey-text","89","663053","0.0-13.0-3.14","99152","ListB","woman","english","","","","","{""Q0"":""Beth is following Beth. ""}","<img src='gifs/BlackGender2a.gif' style='height:400px;''></img>","following","is following","english",""
"null","<div style=""font-size:60px;"">+</div>","","html-keyboard-response","90","663555","0.0-13.0-0.15","99152","ListB","woman","english","","","","null","","","","","",""
"null","<img src='gifs/ChineseGender4b.gif' style='height:400px;''></img>","","html-keyboard-response","91","665558","0.0-13.0-1.15","99152","ListB","woman","english","","","","null","","","","","",""
"null","is promising","","html-keyboard-response","92","668560","0.0-13.0-2.15","99152","ListB","woman","english","","","","null","","","","","",""
"12070.000000000116","","","survey-text","93","680636","0.0-13.0-3.15","99152","ListB","woman","english","","","","","{""Q0"":""Mike is promising Jane. ""}","<img src='gifs/ChineseGender4b.gif' style='height:400px;''></img>","promising","is promising","english",""
"null","<div style=""font-size:60px;"">+</div>","","html-keyboard-response","94","681138","0.0-13.0-0.16","99152","ListB","woman","english","","","","null","","","","","",""
"null","<img src='gifs/FemaleRace3b.gif' style='height:400px;''></img>","","html-keyboard-response","95","683140","0.0-13.0-1.16","99152","ListB","woman","english","","","","null","","","","","",""
"null","is listening to","","html-keyboard-response","96","686142","0.0-13.0-2.16","99152","ListB","woman","english","","","","null","","","","","",""
"11765.000000000116","","","survey-text","97","697914","0.0-13.0-3.16","99152","ListB","woman","english","","","","","{""Q0"":""Beth is listening to Ruth. ""}","<img src='gifs/FemaleRace3b.gif' style='height:400px;''></img>","listening to","is listening to","english",""
"null","<div style=""font-size:60px;"">+</div>","","html-keyboard-response","98","698416","0.0-13.0-0.17","99152","ListB","woman","english","","","","null","","","","","",""
"null","<img src='gifs/FemaleRace4b.gif' style='height:400px;''></img>","","html-keyboard-response","99","700418","0.0-13.0-1.17","99152","ListB","woman","english","","","","null","","","","","",""
"null","is promising","","html-keyboard-response","100","703421","0.0-13.0-2.17","99152","ListB","woman","english","","","","null","","","","","",""
"12100","","","survey-text","101","715527","0.0-13.0-3.17","99152","ListB","woman","english","","","","","{""Q0"":""Ruth is promising to Kate. ""}","<img src='gifs/FemaleRace4b.gif' style='height:400px;''></img>","promising","is promising","english",""
"3515","<img src='img/portrait_matrix_listB.jpg' style='width:900px;height:500px;''></img><p>If you have memorised all the portraits and names and are ready to start, press Continue.</p><p><strong>Please note: Your memory of these faces will be tested 5 times during this experiment.</strong></p>","0","html-button-response","102","719044","0.0-14.0-0.0","99152","ListB","woman","english","","","","","","","","","",""
"11238.000000000116","<img src=""portrait/BW1.jpg""style=""height:400px;""></img>","0","html-button-response","103","731285","0.0-14.0-1.0","99152","ListB","woman","english","","true","0","","","","","","",""
"null","CORRECT","","html-keyboard-response","104","732789","0.0-14.0-2.0-0.0","99152","ListB","woman","english","","","","null","","","","","",""
"1922","<img src=""portrait/WW2.jpg""style=""height:400px;""></img>","3","html-button-response","105","734714","0.0-14.0-4.0","99152","ListB","woman","english","","true","3","","","","","","",""
"null","CORRECT","","html-keyboard-response","106","736217","0.0-14.0-5.0-0.0","99152","ListB","woman","english","","","","null","","","","","",""
"5878.000000000116","<img src=""portrait/WM2.jpg""style=""height:400px;""></img>","7","html-button-response","107","742097","0.0-14.0-7.0","99152","ListB","woman","english","","true","7","","","","","","",""
"null","CORRECT","","html-keyboard-response","108","743600","0.0-14.0-8.0-0.0","99152","ListB","woman","english","","","","null","","","","","",""
"1788.0000000001164","<img src=""portrait/BM2.jpg""style=""height:400px;""></img>","5","html-button-response","109","745390","0.0-14.0-10.0","99152","ListB","woman","english","","true","5","","","","","","",""
"null","CORRECT","","html-keyboard-response","110","746893","0.0-14.0-11.0-0.0","99152","ListB","woman","english","","","","null","","","","","",""
"2011.9999999998836","<img src=""portrait/BW2.jpg""style=""height:400px;""></img>","2","html-button-response","111","748908","0.0-14.0-13.0","99152","ListB","woman","english","","true","2","","","","","","",""
"null","CORRECT","","html-keyboard-response","112","750411","0.0-14.0-14.0-0.0","99152","ListB","woman","english","","","","null","","","","","",""
"7456","<img src=""portrait/WM1.jpg""style=""height:400px;""></img>","6","html-button-response","113","757869","0.0-14.0-16.0","99152","ListB","woman","english","","true","6","","","","","","",""
"null","CORRECT","","html-keyboard-response","114","759372","0.0-14.0-17.0-0.0","99152","ListB","woman","english","","","","null","","","","","",""
"1547","<img src=""portrait/BM1.jpg""style=""height:400px;""></img>","4","html-button-response","115","760920","0.0-14.0-19.0","99152","ListB","woman","english","","true","4","","","","","","",""
"null","CORRECT","","html-keyboard-response","116","762423","0.0-14.0-20.0-0.0","99152","ListB","woman","english","","","","null","","","","","",""
"3551","<img src=""portrait/WW1.jpg""style=""height:400px;""></img>","1","html-button-response","117","765977","0.0-14.0-22.0","99152","ListB","woman","english","","true","1","","","","","","",""
"null","CORRECT","","html-keyboard-response","118","767480","0.0-14.0-23.0-0.0","99152","ListB","woman","english","","","","null","","","","","",""
"1592","<p>You got 8 out of 8 right first time. Press Continue.</p>","0","html-button-response","119","769075","0.0-14.0-25.0","99152","ListB","woman","english","","","","","","","","","",""
"null","<div style=""font-size:60px;"">+</div>","","html-keyboard-response","120","770579","0.0-15.0-0.0","99152","ListB","woman","english","","","","null","","","","","",""
"null","<img src='gifs/MaleRace3b.gif' style='height:400px;''></img>","","html-keyboard-response","121","772581","0.0-15.0-1.0","99152","ListB","woman","english","","","","null","","","","","",""
"null","is praising","","html-keyboard-response","122","775583","0.0-15.0-2.0","99152","ListB","woman","english","","","","null","","","","","",""
"15764","","","survey-text","123","791354","0.0-15.0-3.0","99152","ListB","woman","english","","","","","{""Q0"":""Dave is praising Fred. ""}","<img src='gifs/MaleRace3b.gif' style='height:400px;''></img>","praising","is praising","english",""
"null","<div style=""font-size:60px;"">+</div>","","html-keyboard-response","124","791855","0.0-15.0-0.1","99152","ListB","woman","english","","","","null","","","","","",""
"null","<img src='gifs/FemaleRace2a.gif' style='height:400px;''></img>","","html-keyboard-response","125","793858","0.0-15.0-1.1","99152","ListB","woman","english","","","","null","","","","","",""
"null","is approaching","","html-keyboard-response","126","796860","0.0-15.0-2.1","99152","ListB","woman","english","","","","null","","","","","",""
"15409.999999999884","","","survey-text","127","812277","0.0-15.0-3.1","99152","ListB","woman","english","","","","","{""Q0"":""Kate is approaching Jane. ""}","<img src='gifs/FemaleRace2a.gif' style='height:400px;''></img>","approaching","is approaching","english",""
"null","<div style=""font-size:60px;"">+</div>","","html-keyboard-response","128","812778","0.0-15.0-0.2","99152","ListB","woman","english","","","","null","","","","","",""
"null","<img src='gifs/BlackGender4a.gif' style='height:400px;''></img>","","html-keyboard-response","129","814781","0.0-15.0-1.2","99152","ListB","woman","english","","","","null","","","","","",""
"null","is introducing","","html-keyboard-response","130","817783","0.0-15.0-2.2","99152","ListB","woman","english","","","","null","","","","","",""
"11133","","","survey-text","131","828924","0.0-15.0-3.2","99152","ListB","woman","english","","","","","{""Q0"":""Kate is introducing Mike. ""}","<img src='gifs/BlackGender4a.gif' style='height:400px;''></img>","introducing","is introducing","english",""
"null","<div style=""font-size:60px;"">+</div>","","html-keyboard-response","132","829426","0.0-15.0-0.3","99152","ListB","woman","english","","","","null","","","","","",""
"null","<img src='gifs/ChineseGender4a.gif' style='height:400px;''></img>","","html-keyboard-response","133","831428","0.0-15.0-1.3","99152","ListB","woman","english","","","","null","","","","","",""
"null","is facing","","html-keyboard-response","134","834431","0.0-15.0-2.3","99152","ListB","woman","english","","","","null","","","","","",""
"9664","","","survey-text","135","844100","0.0-15.0-3.3","99152","ListB","woman","english","","","","","{""Q0"":""Dave is facing Jane. ""}","<img src='gifs/ChineseGender4a.gif' style='height:400px;''></img>","facing","is facing","english",""
"null","<div style=""font-size:60px;"">+</div>","","html-keyboard-response","136","844602","0.0-15.0-0.4","99152","ListB","woman","english","","","","null","","","","","",""
"null","<img src='gifs/FemaleRace3a.gif' style='height:400px;''></img>","","html-keyboard-response","137","846605","0.0-15.0-1.4","99152","ListB","woman","english","","","","null","","","","","",""
"null","is contacting","","html-keyboard-response","138","849607","0.0-15.0-2.4","99152","ListB","woman","english","","","","null","","","","","",""
"9649","","","survey-text","139","859262","0.0-15.0-3.4","99152","ListB","woman","english","","","","","{""Q0"":""Beth is contacting Ruth. ""}","<img src='gifs/FemaleRace3a.gif' style='height:400px;''></img>","contacting","is contacting","english",""
"null","<div style=""font-size:60px;"">+</div>","","html-keyboard-response","140","859764","0.0-15.0-0.5","99152","ListB","woman","english","","","","null","","","","","",""
"null","<img src='gifs/ChineseGender1a.gif' style='height:400px;''></img>","","html-keyboard-response","141","861766","0.0-15.0-1.5","99152","ListB","woman","english","","","","null","","","","","",""
"null","is facing","","html-keyboard-response","142","864768","0.0-15.0-2.5","99152","ListB","woman","english","","","","null","","","","","",""
"6545","","","survey-text","143","871320","0.0-15.0-3.5","99152","ListB","woman","english","","","","","{""Q0"":""Jane is facing Luke. ""}","<img src='gifs/ChineseGender1a.gif' style='height:400px;''></img>","facing","is facing","english",""
"null","<div style=""font-size:60px;"">+</div>","","html-keyboard-response","144","871822","0.0-15.0-0.6","99152","ListB","woman","english","","","","null","","","","","",""
"null","<img src='gifs/FemaleRace1b.gif' style='height:400px;''></img>","","html-keyboard-response","145","873825","0.0-15.0-1.6","99152","ListB","woman","english","","","","null","","","","","",""
"null","is touching","","html-keyboard-response","146","876827","0.0-15.0-2.6","99152","ListB","woman","english","","","","null","","","","","",""
"12011","","","survey-text","147","888845","0.0-15.0-3.6","99152","ListB","woman","english","","","","","{""Q0"":""Beth is touching Jane. ""}","<img src='gifs/FemaleRace1b.gif' style='height:400px;''></img>","touching","is touching","english",""
"null","<div style=""font-size:60px;"">+</div>","","html-keyboard-response","148","889346","0.0-15.0-0.7","99152","ListB","woman","english","","","","null","","","","","",""
"null","<img src='gifs/ChineseGender3b.gif' style='height:400px;''></img>","","html-keyboard-response","149","891349","0.0-15.0-1.7","99152","ListB","woman","english","","","","null","","","","","",""
"null","is accompanying","","html-keyboard-response","150","894351","0.0-15.0-2.7","99152","ListB","woman","english","","","","null","","","","","",""
"14166","","","survey-text","151","908524","0.0-15.0-3.7","99152","ListB","woman","english","","","","","{""Q0"":""Ruth is accompanying Dave. ""}","<img src='gifs/ChineseGender3b.gif' style='height:400px;''></img>","accompanying","is accompanying","english",""
"null","<div style=""font-size:60px;"">+</div>","","html-keyboard-response","152","909026","0.0-15.0-0.8","99152","ListB","woman","english","","","","null","","","","","",""
"null","<img src='gifs/MaleRace1b.gif' style='height:400px;''></img>","","html-keyboard-response","153","911028","0.0-15.0-1.8","99152","ListB","woman","english","","","","null","","","","","",""
"null","is following","","html-keyboard-response","154","914031","0.0-15.0-2.8","99152","ListB","woman","english","","","","null","","","","","",""
"10584","","","survey-text","155","924621","0.0-15.0-3.8","99152","ListB","woman","english","","","","","{""Q0"":""Fred is following Luke. ""}","<img src='gifs/MaleRace1b.gif' style='height:400px;''></img>","following","is following","english",""
"null","<div style=""font-size:60px;"">+</div>","","html-keyboard-response","156","925123","0.0-15.0-0.9","99152","ListB","woman","english","","","","null","","","","","",""
"null","<img src='gifs/MaleRace2a.gif' style='height:400px;''></img>","","html-keyboard-response","157","927125","0.0-15.0-1.9","99152","ListB","woman","english","","","","null","","","","","",""
"null","is walking towards","","html-keyboard-response","158","930127","0.0-15.0-2.9","99152","ListB","woman","english","","","","null","","","","","",""
"11779","","","survey-text","159","941912","0.0-15.0-3.9","99152","ListB","woman","english","","","","","{""Q0"":""Luke is walking towards Mike. ""}","<img src='gifs/MaleRace2a.gif' style='height:400px;''></img>","walking towards","is walking towards","english",""
"null","<div style=""font-size:60px;"">+</div>","","html-keyboard-response","160","942413","0.0-15.0-0.10","99152","ListB","woman","english","","","","null","","","","","",""
"null","<img src='gifs/ChineseGender1b.gif' style='height:400px;''></img>","","html-keyboard-response","161","944416","0.0-15.0-1.10","99152","ListB","woman","english","","","","null","","","","","",""
"null","is mentioning","","html-keyboard-response","162","947418","0.0-15.0-2.10","99152","ListB","woman","english","","","","null","","","","","",""
"7238","","","survey-text","163","954662","0.0-15.0-3.10","99152","ListB","woman","english","","","","","{""Q0"":""Jane is mentioning Luke. ""}","<img src='gifs/ChineseGender1b.gif' style='height:400px;''></img>","mention","is mentioning","english",""
"null","<div style=""font-size:60px;"">+</div>","","html-keyboard-response","164","955164","0.0-15.0-0.11","99152","ListB","woman","english","","","","null","","","","","",""
"null","<img src='gifs/BlackGender3a.gif' style='height:400px;''></img>","","html-keyboard-response","165","957166","0.0-15.0-1.11","99152","ListB","woman","english","","","","null","","","","","",""
"null","is listening to","","html-keyboard-response","166","960169","0.0-15.0-2.11","99152","ListB","woman","english","","","","null","","","","","",""
"7866","","","survey-text","167","968043","0.0-15.0-3.11","99152","ListB","woman","english","","","","","{""Q0"":""Kate is listening to Fred. ""}","<img src='gifs/BlackGender3a.gif' style='height:400px;''></img>","listening to","is listening to","english",""
"null","<div style=""font-size:60px;"">+</div>","","html-keyboard-response","168","968545","0.0-15.0-0.12","99152","ListB","woman","english","","","","null","","","","","",""
"null","<img src='gifs/ChineseGender3b.gif' style='height:400px;''></img>","","html-keyboard-response","169","970547","0.0-15.0-1.12","99152","ListB","woman","english","","","","null","","","","","",""
"null","is joining","","html-keyboard-response","170","973549","0.0-15.0-2.12","99152","ListB","woman","english","","","","null","","","","","",""
"8961","","","survey-text","171","982517","0.0-15.0-3.12","99152","ListB","woman","english","","","","","{""Q0"":""Dave is joining Ruth. ""}","<img src='gifs/ChineseGender3b.gif' style='height:400px;''></img>","join","is joining","english",""
"null","<div style=""font-size:60px;"">+</div>","","html-keyboard-response","172","983019","0.0-15.0-0.13","99152","ListB","woman","english","","","","null","","","","","",""
"null","<img src='gifs/FemaleRace1a.gif' style='height:400px;''></img>","","html-keyboard-response","173","985022","0.0-15.0-1.13","99152","ListB","woman","english","","","","null","","","","","",""
"null","is mentioning","","html-keyboard-response","174","988024","0.0-15.0-2.13","99152","ListB","woman","english","","","","null","","","","","",""
"11491.999999999767","","","survey-text","175","999521","0.0-15.0-3.13","99152","ListB","woman","english","","","","","{""Q0"":""Jane is mentioning Beth. ""}","<img src='gifs/FemaleRace1a.gif' style='height:400px;''></img>","mention","is mentioning","english",""
"null","<div style=""font-size:60px;"">+</div>","","html-keyboard-response","176","1000023","0.0-15.0-0.14","99152","ListB","woman","english","","","","null","","","","","",""
"null","<img src='gifs/MaleRace3a.gif' style='height:400px;''></img>","","html-keyboard-response","177","1002025","0.0-15.0-1.14","99152","ListB","woman","english","","","","null","","","","","",""
"null","is looking at","","html-keyboard-response","178","1005028","0.0-15.0-2.14","99152","ListB","woman","english","","","","null","","","","","",""
"8453.999999999884","","","survey-text","179","1013488","0.0-15.0-3.14","99152","ListB","woman","english","","","","","{""Q0"":""Dave is looking at Fred. ""}","<img src='gifs/MaleRace3a.gif' style='height:400px;''></img>","looking at","is looking at","english",""
"null","<div style=""font-size:60px;"">+</div>","","html-keyboard-response","180","1013990","0.0-15.0-0.15","99152","ListB","woman","english","","","","null","","","","","",""
"null","<img src='gifs/BlackGender3b.gif' style='height:400px;''></img>","","html-keyboard-response","181","1015992","0.0-15.0-1.15","99152","ListB","woman","english","","","","null","","","","","",""
"null","is introducing","","html-keyboard-response","182","1018994","0.0-15.0-2.15","99152","ListB","woman","english","","","","null","","","","","",""
"7415","","","survey-text","183","1026416","0.0-15.0-3.15","99152","ListB","woman","english","","","","","{""Q0"":""Fred is introducing Kate. ""}","<img src='gifs/BlackGender3b.gif' style='height:400px;''></img>","introducing","is introducing","english",""
"null","<div style=""font-size:60px;"">+</div>","","html-keyboard-response","184","1026917","0.0-15.0-0.16","99152","ListB","woman","english","","","","null","","","","","",""
"null","<img src='gifs/BlackGender1a.gif' style='height:400px;''></img>","","html-keyboard-response","185","1028920","0.0-15.0-1.16","99152","ListB","woman","english","","","","null","","","","","",""
"null","is employing","","html-keyboard-response","186","1031922","0.0-15.0-2.16","99152","ListB","woman","english","","","","null","","","","","",""
"16954","","","survey-text","187","1048883","0.0-15.0-3.16","99152","ListB","woman","english","","","","","{""Q0"":""Fred is employing Beth. ""}","<img src='gifs/BlackGender1a.gif' style='height:400px;''></img>","employing","is employing","english",""
"null","<div style=""font-size:60px;"">+</div>","","html-keyboard-response","188","1049385","0.0-15.0-0.17","99152","ListB","woman","english","","","","null","","","","","",""
"null","<img src='gifs/MaleRace1a.gif' style='height:400px;''></img>","","html-keyboard-response","189","1051389","0.0-15.0-1.17","99152","ListB","woman","english","","","","null","","","","","",""
"null","is convincing","","html-keyboard-response","190","1054392","0.0-15.0-2.17","99152","ListB","woman","english","","","","null","","","","","",""
"10161","","","survey-text","191","1064562","0.0-15.0-3.17","99152","ListB","woman","english","","","","","{""Q0"":""Luke is convincing Fred. ""}","<img src='gifs/MaleRace1a.gif' style='height:400px;''></img>","convincing","is convincing","english",""
"1985.0000000002328","<img src='img/portrait_matrix_listB.jpg' style='width:900px;height:500px;''></img><p>If you have memorised all the portraits and names and are ready to start, press Continue.</p><p><strong>Please note: Your memory of these faces will be tested 5 times during this experiment.</strong></p>","0","html-button-response","192","1066547","0.0-16.0-0.0","99152","ListB","woman","english","","","","","","","","","",""
"5960.000000000233","<img src=""portrait/BW2.jpg""style=""height:400px;""></img>","2","html-button-response","193","1073511","0.0-16.0-1.0","99152","ListB","woman","english","","true","2","","","","","","",""
"null","CORRECT","","html-keyboard-response","194","1075014","0.0-16.0-2.0-0.0","99152","ListB","woman","english","","","","null","","","","","",""
"2412","<img src=""portrait/WW1.jpg""style=""height:400px;""></img>","1","html-button-response","195","1077428","0.0-16.0-4.0","99152","ListB","woman","english","","true","1","","","","","","",""
"null","CORRECT","","html-keyboard-response","196","1078932","0.0-16.0-5.0-0.0","99152","ListB","woman","english","","","","null","","","","","",""
"2708.999999999767","<img src=""portrait/WM1.jpg""style=""height:400px;""></img>","6","html-button-response","197","1081644","0.0-16.0-7.0","99152","ListB","woman","english","","true","6","","","","","","",""
"null","CORRECT","","html-keyboard-response","198","1083147","0.0-16.0-8.0-0.0","99152","ListB","woman","english","","","","null","","","","","",""
"1634","<img src=""portrait/WW2.jpg""style=""height:400px;""></img>","3","html-button-response","199","1084783","0.0-16.0-10.0","99152","ListB","woman","english","","true","3","","","","","","",""
"null","CORRECT","","html-keyboard-response","200","1086286","0.0-16.0-11.0-0.0","99152","ListB","woman","english","","","","null","","","","","",""
"10236","<img src=""portrait/BW1.jpg""style=""height:400px;""></img>","0","html-button-response","201","1096525","0.0-16.0-13.0","99152","ListB","woman","english","","true","0","","","","","","",""
"null","CORRECT","","html-keyboard-response","202","1098027","0.0-16.0-14.0-0.0","99152","ListB","woman","english","","","","null","","","","","",""
"3006","<img src=""portrait/WM2.jpg""style=""height:400px;""></img>","7","html-button-response","203","1101035","0.0-16.0-16.0","99152","ListB","woman","english","","true","7","","","","","","",""
"null","CORRECT","","html-keyboard-response","204","1102538","0.0-16.0-17.0-0.0","99152","ListB","woman","english","","","","null","","","","","",""
"2648","<img src=""portrait/BM1.jpg""style=""height:400px;""></img>","4","html-button-response","205","1105187","0.0-16.0-19.0","99152","ListB","woman","english","","true","4","","","","","","",""
"null","CORRECT","","html-keyboard-response","206","1106690","0.0-16.0-20.0-0.0","99152","ListB","woman","english","","","","null","","","","","",""
"1565","<img src=""portrait/BM2.jpg""style=""height:400px;""></img>","5","html-button-response","207","1108256","0.0-16.0-22.0","99152","ListB","woman","english","","true","5","","","","","","",""
"null","CORRECT","","html-keyboard-response","208","1109759","0.0-16.0-23.0-0.0","99152","ListB","woman","english","","","","null","","","","","",""
"1632","<p>You got 8 out of 8 right first time. Press Continue.</p>","0","html-button-response","209","1111393","0.0-16.0-25.0","99152","ListB","woman","english","","","","","","","","","",""
"null","<div style=""font-size:60px;"">+</div>","","html-keyboard-response","210","1112896","0.0-17.0-0.0","99152","ListB","woman","english","","","","null","","","","","",""
"null","<img src='gifs/MaleRace1a.gif' style='height:400px;''></img>","","html-keyboard-response","211","1114898","0.0-17.0-1.0","99152","ListB","woman","english","","","","null","","","","","",""
"null","is following","","html-keyboard-response","212","1117901","0.0-17.0-2.0","99152","ListB","woman","english","","","","null","","","","","",""
"11879","","","survey-text","213","1129788","0.0-17.0-3.0","99152","ListB","woman","english","","","","","{""Q0"":""Fred is following Luke. ""}","<img src='gifs/MaleRace1a.gif' style='height:400px;''></img>","following","is following","english",""
"null","<div style=""font-size:60px;"">+</div>","","html-keyboard-response","214","1130290","0.0-17.0-0.1","99152","ListB","woman","english","","","","null","","","","","",""
"null","<img src='gifs/ChineseGender1b.gif' style='height:400px;''></img>","","html-keyboard-response","215","1132293","0.0-17.0-1.1","99152","ListB","woman","english","","","","null","","","","","",""
"null","is employing","","html-keyboard-response","216","1135294","0.0-17.0-2.1","99152","ListB","woman","english","","","","null","","","","","",""
"7598","","","survey-text","217","1142900","0.0-17.0-3.1","99152","ListB","woman","english","","","","","{""Q0"":""Luke is employing Jane. ""}","<img src='gifs/ChineseGender1b.gif' style='height:400px;''></img>","employing","is employing","english",""
"null","<div style=""font-size:60px;"">+</div>","","html-keyboard-response","218","1143402","0.0-17.0-0.2","99152","ListB","woman","english","","","","null","","","","","",""
"null","<img src='gifs/FemaleRace4a.gif' style='height:400px;''></img>","","html-keyboard-response","219","1145405","0.0-17.0-1.2","99152","ListB","woman","english","","","","null","","","","","",""
"null","is introducing","","html-keyboard-response","220","1148407","0.0-17.0-2.2","99152","ListB","woman","english","","","","null","","","","","",""
"14797","","","survey-text","221","1163210","0.0-17.0-3.2","99152","ListB","woman","english","","","","","{""Q0"":""Kate is introducing Ruth. ""}","<img src='gifs/FemaleRace4a.gif' style='height:400px;''></img>","introducing","is introducing","english",""
"null","<div style=""font-size:60px;"">+</div>","","html-keyboard-response","222","1163712","0.0-17.0-0.3","99152","ListB","woman","english","","","","null","","","","","",""
"null","<img src='gifs/FemaleRace4a.gif' style='height:400px;''></img>","","html-keyboard-response","223","1165715","0.0-17.0-1.3","99152","ListB","woman","english","","","","null","","","","","",""
"null","is promising","","html-keyboard-response","224","1168717","0.0-17.0-2.3","99152","ListB","woman","english","","","","null","","","","","",""
"9896.999999999767","","","survey-text","225","1178620","0.0-17.0-3.3","99152","ListB","woman","english","","","","","{""Q0"":""Ruth is promising Kate. ""}","<img src='gifs/FemaleRace4a.gif' style='height:400px;''></img>","promising","is promising","english",""
"null","<div style=""font-size:60px;"">+</div>","","html-keyboard-response","226","1179122","0.0-17.0-0.4","99152","ListB","woman","english","","","","null","","","","","",""
"null","<img src='gifs/ChineseGender2b.gif' style='height:400px;''></img>","","html-keyboard-response","227","1181124","0.0-17.0-1.4","99152","ListB","woman","english","","","","null","","","","","",""
"null","is employing","","html-keyboard-response","228","1184126","0.0-17.0-2.4","99152","ListB","woman","english","","","","null","","","","","",""
"8377","","","survey-text","229","1192510","0.0-17.0-3.4","99152","ListB","woman","english","","","","","{""Q0"":""Luke is employing Ruth. ""}","<img src='gifs/ChineseGender2b.gif' style='height:400px;''></img>","employing","is employing","english",""
"null","<div style=""font-size:60px;"">+</div>","","html-keyboard-response","230","1193012","0.0-17.0-0.5","99152","ListB","woman","english","","","","null","","","","","",""
"null","<img src='gifs/BlackGender3b.gif' style='height:400px;''></img>","","html-keyboard-response","231","1195014","0.0-17.0-1.5","99152","ListB","woman","english","","","","null","","","","","",""
"null","is contacting","","html-keyboard-response","232","1198016","0.0-17.0-2.5","99152","ListB","woman","english","","","","null","","","","","",""
"9152.000000000233","","","survey-text","233","1207176","0.0-17.0-3.5","99152","ListB","woman","english","","","","","{""Q0"":""Kate is contacting Fred. ""}","<img src='gifs/BlackGender3b.gif' style='height:400px;''></img>","contacting","is contacting","english",""
"null","<div style=""font-size:60px;"">+</div>","","html-keyboard-response","234","1207678","0.0-17.0-0.6","99152","ListB","woman","english","","","","null","","","","","",""
"null","<img src='gifs/MaleRace1b.gif' style='height:400px;''></img>","","html-keyboard-response","235","1209680","0.0-17.0-1.6","99152","ListB","woman","english","","","","null","","","","","",""
"null","is accompanying","","html-keyboard-response","236","1212682","0.0-17.0-2.6","99152","ListB","woman","english","","","","null","","","","","",""
"9388","","","survey-text","237","1222076","0.0-17.0-3.6","99152","ListB","woman","english","","","","","{""Q0"":""Luke is accompanying Fred. ""}","<img src='gifs/MaleRace1b.gif' style='height:400px;''></img>","accompanying","is accompanying","english",""
"null","<div style=""font-size:60px;"">+</div>","","html-keyboard-response","238","1222578","0.0-17.0-0.7","99152","ListB","woman","english","","","","null","","","","","",""
"null","<img src='gifs/ChineseGender2a.gif' style='height:400px;''></img>","","html-keyboard-response","239","1224581","0.0-17.0-1.7","99152","ListB","woman","english","","","","null","","","","","",""
"null","is joining","","html-keyboard-response","240","1227583","0.0-17.0-2.7","99152","ListB","woman","english","","","","null","","","","","",""
"7833","","","survey-text","241","1235421","0.0-17.0-3.7","99152","ListB","woman","english","","","","","{""Q0"":""Luke is joining Ruth. ""}","<img src='gifs/ChineseGender2a.gif' style='height:400px;''></img>","join","is joining","english",""
"null","<div style=""font-size:60px;"">+</div>","","html-keyboard-response","242","1235924","0.0-17.0-0.8","99152","ListB","woman","english","","","","null","","","","","",""
"null","<img src='gifs/BlackGender4a.gif' style='height:400px;''></img>","","html-keyboard-response","243","1237926","0.0-17.0-1.8","99152","ListB","woman","english","","","","null","","","","","",""
"null","is listening to","","html-keyboard-response","244","1240929","0.0-17.0-2.8","99152","ListB","woman","english","","","","null","","","","","",""
"9081","","","survey-text","245","1250020","0.0-17.0-3.8","99152","ListB","woman","english","","","","","{""Q0"":""Mike is listening to Kate. ""}","<img src='gifs/BlackGender4a.gif' style='height:400px;''></img>","listening to","is listening to","english",""
"null","<div style=""font-size:60px;"">+</div>","","html-keyboard-response","246","1250522","0.0-17.0-0.9","99152","ListB","woman","english","","","","null","","","","","",""
"null","<img src='gifs/MaleRace2a.gif' style='height:400px;''></img>","","html-keyboard-response","247","1252524","0.0-17.0-1.9","99152","ListB","woman","english","","","","null","","","","","",""
"null","is touching","","html-keyboard-response","248","1255527","0.0-17.0-2.9","99152","ListB","woman","english","","","","null","","","","","",""
"11319","","","survey-text","249","1266852","0.0-17.0-3.9","99152","ListB","woman","english","","","","","{""Q0"":""Mike is touching Luke. ""}","<img src='gifs/MaleRace2a.gif' style='height:400px;''></img>","touching","is touching","english",""
"null","<div style=""font-size:60px;"">+</div>","","html-keyboard-response","250","1267354","0.0-17.0-0.10","99152","ListB","woman","english","","","","null","","","","","",""
"null","<img src='gifs/FemaleRace2b.gif' style='height:400px;''></img>","","html-keyboard-response","251","1269357","0.0-17.0-1.10","99152","ListB","woman","english","","","","null","","","","","",""
"null","is looking at","","html-keyboard-response","252","1272359","0.0-17.0-2.10","99152","ListB","woman","english","","","","null","","","","","",""
"11942","","","survey-text","253","1284307","0.0-17.0-3.10","99152","ListB","woman","english","","","","","{""Q0"":""Kate is looking at Jane. ""}","<img src='gifs/FemaleRace2b.gif' style='height:400px;''></img>","looking at","is looking at","english",""
"null","<div style=""font-size:60px;"">+</div>","","html-keyboard-response","254","1284808","0.0-17.0-0.11","99152","ListB","woman","english","","","","null","","","","","",""
"null","<img src='gifs/FemaleRace1a.gif' style='height:400px;''></img>","","html-keyboard-response","255","1286811","0.0-17.0-1.11","99152","ListB","woman","english","","","","null","","","","","",""
"null","is facing","","html-keyboard-response","256","1289813","0.0-17.0-2.11","99152","ListB","woman","english","","","","null","","","","","",""
"11158","","","survey-text","257","1300978","0.0-17.0-3.11","99152","ListB","woman","english","","","","","{""Q0"":""Jane is facing Beth. ""}","<img src='gifs/FemaleRace1a.gif' style='height:400px;''></img>","facing","is facing","english",""
"null","<div style=""font-size:60px;"">+</div>","","html-keyboard-response","258","1301480","0.0-17.0-0.12","99152","ListB","woman","english","","","","null","","","","","",""
"null","<img src='gifs/ChineseGender2a.gif' style='height:400px;''></img>","","html-keyboard-response","259","1303483","0.0-17.0-1.12","99152","ListB","woman","english","","","","null","","","","","",""
"null","is contacting","","html-keyboard-response","260","1306485","0.0-17.0-2.12","99152","ListB","woman","english","","","","null","","","","","",""
"8080","","","survey-text","261","1314573","0.0-17.0-3.12","99152","ListB","woman","english","","","","","{""Q0"":""Ruth is contacting Luke. ""}","<img src='gifs/ChineseGender2a.gif' style='height:400px;''></img>","contacting","is contacting","english",""
"null","<div style=""font-size:60px;"">+</div>","","html-keyboard-response","262","1315075","0.0-17.0-0.13","99152","ListB","woman","english","","","","null","","","","","",""
"null","<img src='gifs/FemaleRace4b.gif' style='height:400px;''></img>","","html-keyboard-response","263","1317077","0.0-17.0-1.13","99152","ListB","woman","english","","","","null","","","","","",""
"null","is approaching","","html-keyboard-response","264","1320080","0.0-17.0-2.13","99152","ListB","woman","english","","","","null","","","","","",""
"8607.000000000233","","","survey-text","265","1328694","0.0-17.0-3.13","99152","ListB","woman","english","","","","","{""Q0"":""Kate is approaching Ruth. ""}","<img src='gifs/FemaleRace4b.gif' style='height:400px;''></img>","approaching","is approaching","english",""
"null","<div style=""font-size:60px;"">+</div>","","html-keyboard-response","266","1329196","0.0-17.0-0.14","99152","ListB","woman","english","","","","null","","","","","",""
"null","<img src='gifs/BlackGender2a.gif' style='height:400px;''></img>","","html-keyboard-response","267","1331198","0.0-17.0-1.14","99152","ListB","woman","english","","","","null","","","","","",""
"null","is approaching","","html-keyboard-response","268","1334201","0.0-17.0-2.14","99152","ListB","woman","english","","","","null","","","","","",""
"8068","","","survey-text","269","1342275","0.0-17.0-3.14","99152","ListB","woman","english","","","","","{""Q0"":""Mike is approaching Beth. ""}","<img src='gifs/BlackGender2a.gif' style='height:400px;''></img>","approaching","is approaching","english",""
"null","<div style=""font-size:60px;"">+</div>","","html-keyboard-response","270","1342776","0.0-17.0-0.15","99152","ListB","woman","english","","","","null","","","","","",""
"null","<img src='gifs/BlackGender1b.gif' style='height:400px;''></img>","","html-keyboard-response","271","1344779","0.0-17.0-1.15","99152","ListB","woman","english","","","","null","","","","","",""
"null","is mentioning","","html-keyboard-response","272","1347781","0.0-17.0-2.15","99152","ListB","woman","english","","","","null","","","","","",""
"10790","","","survey-text","273","1358579","0.0-17.0-3.15","99152","ListB","woman","english","","","","","{""Q0"":""Fred is mentioning Beth. ""}","<img src='gifs/BlackGender1b.gif' style='height:400px;''></img>","mention","is mentioning","english",""
"null","<div style=""font-size:60px;"">+</div>","","html-keyboard-response","274","1359081","0.0-17.0-0.16","99152","ListB","woman","english","","","","null","","","","","",""
"null","<img src='gifs/ChineseGender4a.gif' style='height:400px;''></img>","","html-keyboard-response","275","1361084","0.0-17.0-1.16","99152","ListB","woman","english","","","","null","","","","","",""
"null","is following","","html-keyboard-response","276","1364086","0.0-17.0-2.16","99152","ListB","woman","english","","","","null","","","","","",""
"7221","","","survey-text","277","1371316","0.0-17.0-3.16","99152","ListB","woman","english","","","","","{""Q0"":""Jane is following Dave. ""}","<img src='gifs/ChineseGender4a.gif' style='height:400px;''></img>","following","is following","english",""
"null","<div style=""font-size:60px;"">+</div>","","html-keyboard-response","278","1371818","0.0-17.0-0.17","99152","ListB","woman","english","","","","null","","","","","",""
"null","<img src='gifs/ChineseGender4b.gif' style='height:400px;''></img>","","html-keyboard-response","279","1373820","0.0-17.0-1.17","99152","ListB","woman","english","","","","null","","","","","",""
"null","is convincing","","html-keyboard-response","280","1376823","0.0-17.0-2.17","99152","ListB","woman","english","","","","null","","","","","",""
"8347.000000000233","","","survey-text","281","1385175","0.0-17.0-3.17","99152","ListB","woman","english","","","","","{""Q0"":""Dave is convincing Jane. ""}","<img src='gifs/ChineseGender4b.gif' style='height:400px;''></img>","convincing","is convincing","english",""
"3329","<p>Thank you for completing that task.</p><p>The final part of this session is a short questionnaire.</p><p>Press Continue.</p>","0","html-button-response","282","1388506","0.0-18.0","99152","ListB","woman","english","","","","","","","","","",""
"54013","","","survey-text","283","1443532","0.0-19.0","99152","ListB","woman","english","","","","","{""Q0"":""23"",""Q1"":""Chinese"",""Q2"":""Chinese"",""Q3"":""China"",""Q4"":""China"",""Q5"":""Asian"",""Q6"":""Female""}","","","","","demographics"
"2796.000000000233","<p>Have you lived in the UK for the last 5 years or more?</p>","1","html-button-response","284","1446329","0.0-20.0","99152","ListB","woman","english","","","","","","","","","","fiveyears"
"39795","","","external-html","285","1488376","0.0-21.0","99152","ListB","woman","english","debrief.html","","","","","","","","",""
"14930","","","survey-text","286","1503311","0.0-22.0","99152","ListB","woman","english","","","","","{""Q0"":""EFB1""}","","","","","worker_id"
