"rt","stimulus","button_pressed","trial_type","trial_index","time_elapsed","internal_node_id","subject","list","ppt_gender","ppt_language","ptptID","url","first_guess","correct","key_press","responses","image","verb","phrase","condition","test_part"
"100031.5","Welcome to the experiment. Press Continue to begin.","0","html-button-response","0","100035","0.0-0.0","16859","ListA","man","chinese","CMA2","","","","","","","","","",""
"189374.59999999404","","","external-html","1","291649","0.0-1.0","16859","ListA","man","chinese","CMA2","consent.html","","","","","","","","",""
"32793.79999999702","<p>在下一页中，您将看到8个人物肖像和他们各自的名字。</p><p>请花费几分钟的时间记住这些人物及其所对应的名字。</p><p>之后的实验中需要您对人物的名字做出回忆，</p><p>因此在实验开始前请确保您已 经完全记住这些人物及其所对应的名字。</p><p><strong>然后您将完成一个测试以检验您对人物和名字的记忆。</strong></p><p>完成此记忆测试后，您将正式进入实验。</p><p>准备好了吗？</p>","0","html-button-response","2","324445","0.0-2.0","16859","ListA","man","chinese","CMA2","","","","","","","","","",""
"232575.19999998808","<img src='img/portrait_matrix_listA_chinese.jpg' style='width:900px;height:500px;''></img><p>如果您已经记住了所有的人物和名字，请点击继续。</p><p><strong>请注意：您对先前记忆的面孔将在本实验中被测试5次。</strong></p>","0","html-button-response","3","558031","0.0-3.0-0.0","16859","ListA","man","chinese","CMA2","","","","","","","","","",""
"2919.2000000029802","<img src=""portrait/WW2.jpg""style=""height:400px;""></img>","3","html-button-response","4","561957","0.0-3.0-1.0","16859","ListA","man","chinese","CMA2","","true","3","","","","","","",""
"null","正确","","html-keyboard-response","5","563477","0.0-3.0-2.0-0.0","16859","ListA","man","chinese","CMA2","","","","null","","","","","",""
"6034.5","<img src=""portrait/WM2.jpg""style=""height:400px;""></img>","7","html-button-response","6","569513","0.0-3.0-4.0","16859","ListA","man","chinese","CMA2","","true","7","","","","","","",""
"null","正确","","html-keyboard-response","7","571024","0.0-3.0-5.0-0.0","16859","ListA","man","chinese","CMA2","","","","null","","","","","",""
"3420.7999999970198","<img src=""portrait/BW2.jpg""style=""height:400px;""></img>","2","html-button-response","8","574446","0.0-3.0-7.0","16859","ListA","man","chinese","CMA2","","true","2","","","","","","",""
"null","正确","","html-keyboard-response","9","575965","0.0-3.0-8.0-0.0","16859","ListA","man","chinese","CMA2","","","","null","","","","","",""
"3862.4000000059605","<img src=""portrait/BM1.jpg""style=""height:400px;""></img>","4","html-button-response","10","579829","0.0-3.0-10.0","16859","ListA","man","chinese","CMA2","","true","4","","","","","","",""
"null","正确","","html-keyboard-response","11","581346","0.0-3.0-11.0-0.0","16859","ListA","man","chinese","CMA2","","","","null","","","","","",""
"1408.5999999940395","<img src=""portrait/BM2.jpg""style=""height:400px;""></img>","5","html-button-response","12","582756","0.0-3.0-13.0","16859","ListA","man","chinese","CMA2","","true","5","","","","","","",""
"null","正确","","html-keyboard-response","13","584263","0.0-3.0-14.0-0.0","16859","ListA","man","chinese","CMA2","","","","null","","","","","",""
"2657","<img src=""portrait/BW1.jpg""style=""height:400px;""></img>","0","html-button-response","14","586922","0.0-3.0-16.0","16859","ListA","man","chinese","CMA2","","true","0","","","","","","",""
"null","正确","","html-keyboard-response","15","588439","0.0-3.0-17.0-0.0","16859","ListA","man","chinese","CMA2","","","","null","","","","","",""
"2871.6000000089407","<img src=""portrait/WM1.jpg""style=""height:400px;""></img>","6","html-button-response","16","591312","0.0-3.0-19.0","16859","ListA","man","chinese","CMA2","","true","6","","","","","","",""
"null","正确","","html-keyboard-response","17","592825","0.0-3.0-20.0-0.0","16859","ListA","man","chinese","CMA2","","","","null","","","","","",""
"4401.20000000298","<img src=""portrait/WW1.jpg""style=""height:400px;""></img>","1","html-button-response","18","597228","0.0-3.0-22.0","16859","ListA","man","chinese","CMA2","","true","1","","","","","","",""
"null","正确","","html-keyboard-response","19","598746","0.0-3.0-23.0-0.0","16859","ListA","man","chinese","CMA2","","","","null","","","","","",""
"1210.2000000029802","<p>您第一次在8题里答对了 8 题。 请点击继续</p>","0","html-button-response","20","599958","0.0-3.0-25.0","16859","ListA","man","chinese","CMA2","","","","","","","","","",""
"78224.10000000894","<p>此次实验您将会看到先前记忆任务里的人物照片。</p><p>人物照片消失后您将看到一个动词短语，请正确回忆人物的名字并用特定的 动词短语组成一句完整的句子。</p><p>请在指定的框内输入您的答案。在进入下一题之前请确保您填写了完整的句子。</p><p>人物照片和动词短语只会在屏幕上出现几秒钟，因此请您答题时尽量集中注意力。</p><p>以下是例子。请您在准备好后按下“继续”。</p><img src='img/chinese_speaking_example.jpg' style='width:800px;height:460px;''></img>","0","html-button-response","21","679194","0.0-4.0","16859","ListA","man","chinese","CMA2","","","","","","","","","",""
"1212.9000000059605","<p>在实验开始前，将为您展示两个示例实验。</p>","0","html-button-response","22","681416","0.0-5.0","16859","ListA","man","chinese","CMA2","","","","","","","","","",""
"null","<img src='img/meet.gif' style='height:400px;''></img>","","html-keyboard-response","23","684434","0.0-6.0","16859","ListA","man","chinese","CMA2","","","","null","","","","","",""
"null","<p>正在约见</p>","","html-keyboard-response","24","686443","0.0-7.0","16859","ListA","man","chinese","CMA2","","","","null","","","","","",""
"3809.2999999970198","<p><b>答案:</b> 凯特正在约见贝斯</p>","0","html-button-response","25","690253","0.0-8.0","16859","ListA","man","chinese","CMA2","","","","","","","","","",""
"null","<img src='img/spy.gif' style='height:400px;''></img>","","html-keyboard-response","26","693268","0.0-9.0","16859","ListA","man","chinese","CMA2","","","","null","","","","","",""
"null","<p>正在监视</p>","","html-keyboard-response","27","695276","0.0-10.0","16859","ListA","man","chinese","CMA2","","","","null","","","","","",""
"944.5","<p><b>答案:</b> 卢克正在监视戴夫</p>","0","html-button-response","28","696221","0.0-11.0","16859","ListA","man","chinese","CMA2","","","","","","","","","",""
"6571.79999999702","<p>准备好开始了吗？</p><br><p><strong>请记住，您的答案需是一句完整的句子</strong></p><p><strong>，并用给到的图片人物和动词短语作答。</strong></p><p><strong>只有正确并完整完成实验才可获得报酬。</strong></p><p><strong> 您不需要加入任何标点符号。</strong></p><br><p>请按 ‘继续’ 键开始。</p>","0","html-button-response","29","703800","0.0-12.0","16859","ListA","man","chinese","CMA2","","","","","","","","","",""
"null","<div style=""font-size:60px;"">+</div>","","html-keyboard-response","30","705322","0.0-13.0-0.0","16859","ListA","man","chinese","CMA2","","","","null","","","","","",""
"null","<img src='gifs/BlackGender4b.gif' style='height:400px;''></img>","","html-keyboard-response","31","707328","0.0-13.0-1.0","16859","ListA","man","chinese","CMA2","","","","null","","","","","",""
"null","正在陪伴","","html-keyboard-response","32","710335","0.0-13.0-2.0","16859","ListA","man","chinese","CMA2","","","","null","","","","","",""
"14357","","","survey-text","33","724694","0.0-13.0-3.0","16859","ListA","man","chinese","CMA2","","","","","{""Q0"":""霍普正在陪伴戴夫""}","<img src='gifs/BlackGender4b.gif' style='height:400px;''></img>","陪伴","正在陪伴","chinese",""
"null","<div style=""font-size:60px;"">+</div>","","html-keyboard-response","34","725202","0.0-13.0-0.1","16859","ListA","man","chinese","CMA2","","","","null","","","","","",""
"null","<img src='gifs/MaleRace3a.gif' style='height:400px;''></img>","","html-keyboard-response","35","727212","0.0-13.0-1.1","16859","ListA","man","chinese","CMA2","","","","null","","","","","",""
"null","正在接近","","html-keyboard-response","36","730216","0.0-13.0-2.1","16859","ListA","man","chinese","CMA2","","","","null","","","","","",""
"6439.100000008941","","","survey-text","37","736657","0.0-13.0-3.1","16859","ListA","man","chinese","CMA2","","","","","{""Q0"":""卢克正在接近麦克""}","<img src='gifs/MaleRace3a.gif' style='height:400px;''></img>","接近","正在接近","chinese",""
"null","<div style=""font-size:60px;"">+</div>","","html-keyboard-response","38","737162","0.0-13.0-0.2","16859","ListA","man","chinese","CMA2","","","","null","","","","","",""
"null","<img src='gifs/MaleRace1a.gif' style='height:400px;''></img>","","html-keyboard-response","39","739179","0.0-13.0-1.2","16859","ListA","man","chinese","CMA2","","","","null","","","","","",""
"null","正在介绍","","html-keyboard-response","40","742185","0.0-13.0-2.2","16859","ListA","man","chinese","CMA2","","","","null","","","","","",""
"9020.70000000298","","","survey-text","41","751208","0.0-13.0-3.2","16859","ListA","man","chinese","CMA2","","","","","{""Q0"":""弗雷正在介绍卢克""}","<img src='gifs/MaleRace1a.gif' style='height:400px;''></img>","介绍","正在介绍","chinese",""
"null","<div style=""font-size:60px;"">+</div>","","html-keyboard-response","42","751712","0.0-13.0-0.3","16859","ListA","man","chinese","CMA2","","","","null","","","","","",""
"null","<img src='gifs/ChineseGender1a.gif' style='height:400px;''></img>","","html-keyboard-response","43","753723","0.0-13.0-1.3","16859","ListA","man","chinese","CMA2","","","","null","","","","","",""
"null","正在聘用","","html-keyboard-response","44","756731","0.0-13.0-2.3","16859","ListA","man","chinese","CMA2","","","","null","","","","","",""
"6349.199999988079","","","survey-text","45","763082","0.0-13.0-3.3","16859","ListA","man","chinese","CMA2","","","","","{""Q0"":""凯特正在聘用弗雷""}","<img src='gifs/ChineseGender1a.gif' style='height:400px;''></img>","聘用","正在聘用","chinese",""
"null","<div style=""font-size:60px;"">+</div>","","html-keyboard-response","46","763586","0.0-13.0-0.4","16859","ListA","man","chinese","CMA2","","","","null","","","","","",""
"null","<img src='gifs/BlackGender2b.gif' style='height:400px;''></img>","","html-keyboard-response","47","765595","0.0-13.0-1.4","16859","ListA","man","chinese","CMA2","","","","null","","","","","",""
"null","正在答应","","html-keyboard-response","48","768600","0.0-13.0-2.4","16859","ListA","man","chinese","CMA2","","","","null","","","","","",""
"6213.800000011921","","","survey-text","49","774817","0.0-13.0-3.4","16859","ListA","man","chinese","CMA2","","","","","{""Q0"":""露丝正在答应戴夫""}","<img src='gifs/BlackGender2b.gif' style='height:400px;''></img>","答应","正在答应","chinese",""
"null","<div style=""font-size:60px;"">+</div>","","html-keyboard-response","50","775321","0.0-13.0-0.5","16859","ListA","man","chinese","CMA2","","","","null","","","","","",""
"null","<img src='gifs/ChineseGender2b.gif' style='height:400px;''></img>","","html-keyboard-response","51","777333","0.0-13.0-1.5","16859","ListA","man","chinese","CMA2","","","","null","","","","","",""
"null","正在接近","","html-keyboard-response","52","780336","0.0-13.0-2.5","16859","ListA","man","chinese","CMA2","","","","null","","","","","",""
"8925.39999999106","","","survey-text","53","789265","0.0-13.0-3.5","16859","ListA","man","chinese","CMA2","","","","","{""Q0"":""弗雷正在接近贝斯""}","<img src='gifs/ChineseGender2b.gif' style='height:400px;''></img>","接近","正在接近","chinese",""
"null","<div style=""font-size:60px;"">+</div>","","html-keyboard-response","54","789772","0.0-13.0-0.6","16859","ListA","man","chinese","CMA2","","","","null","","","","","",""
"null","<img src='gifs/ChineseGender2b.gif' style='height:400px;''></img>","","html-keyboard-response","55","791774","0.0-13.0-1.6","16859","ListA","man","chinese","CMA2","","","","null","","","","","",""
"null","正在说服","","html-keyboard-response","56","794776","0.0-13.0-2.6","16859","ListA","man","chinese","CMA2","","","","null","","","","","",""
"5482.29999999702","","","survey-text","57","800262","0.0-13.0-3.6","16859","ListA","man","chinese","CMA2","","","","","{""Q0"":""弗雷正在说服贝斯""}","<img src='gifs/ChineseGender2b.gif' style='height:400px;''></img>","说服","正在说服","chinese",""
"null","<div style=""font-size:60px;"">+</div>","","html-keyboard-response","58","800768","0.0-13.0-0.7","16859","ListA","man","chinese","CMA2","","","","null","","","","","",""
"null","<img src='gifs/FemaleRace1b.gif' style='height:400px;''></img>","","html-keyboard-response","59","802780","0.0-13.0-1.7","16859","ListA","man","chinese","CMA2","","","","null","","","","","",""
"null","正在接近","","html-keyboard-response","60","805784","0.0-13.0-2.7","16859","ListA","man","chinese","CMA2","","","","null","","","","","",""
"12221.09999999404","","","survey-text","61","818008","0.0-13.0-3.7","16859","ListA","man","chinese","CMA2","","","","","{""Q0"":""露丝正在接近凯特""}","<img src='gifs/FemaleRace1b.gif' style='height:400px;''></img>","接近","正在接近","chinese",""
"null","<div style=""font-size:60px;"">+</div>","","html-keyboard-response","62","818513","0.0-13.0-0.8","16859","ListA","man","chinese","CMA2","","","","null","","","","","",""
"null","<img src='gifs/FemaleRace2a.gif' style='height:400px;''></img>","","html-keyboard-response","63","820521","0.0-13.0-1.8","16859","ListA","man","chinese","CMA2","","","","null","","","","","",""
"null","正在联系","","html-keyboard-response","64","823529","0.0-13.0-2.8","16859","ListA","man","chinese","CMA2","","","","null","","","","","",""
"6953.5","","","survey-text","65","830485","0.0-13.0-3.8","16859","ListA","man","chinese","CMA2","","","","","{""Q0"":""霍普正在联系凯特""}","<img src='gifs/FemaleRace2a.gif' style='height:400px;''></img>","联系","正在联系","chinese",""
"null","<div style=""font-size:60px;"">+</div>","","html-keyboard-response","66","830991","0.0-13.0-0.9","16859","ListA","man","chinese","CMA2","","","","null","","","","","",""
"null","<img src='gifs/FemaleRace2b.gif' style='height:400px;''></img>","","html-keyboard-response","67","832995","0.0-13.0-1.9","16859","ListA","man","chinese","CMA2","","","","null","","","","","",""
"null","正在陪伴","","html-keyboard-response","68","836006","0.0-13.0-2.9","16859","ListA","man","chinese","CMA2","","","","null","","","","","",""
"7166.20000000298","","","survey-text","69","843174","0.0-13.0-3.9","16859","ListA","man","chinese","CMA2","","","","","{""Q0"":""霍普正在陪伴凯特""}","<img src='gifs/FemaleRace2b.gif' style='height:400px;''></img>","陪伴","正在陪伴","chinese",""
"null","<div style=""font-size:60px;"">+</div>","","html-keyboard-response","70","843684","0.0-13.0-0.10","16859","ListA","man","chinese","CMA2","","","","null","","","","","",""
"null","<img src='gifs/ChineseGender3a.gif' style='height:400px;''></img>","","html-keyboard-response","71","845691","0.0-13.0-1.10","16859","ListA","man","chinese","CMA2","","","","null","","","","","",""
"null","正在加入","","html-keyboard-response","72","848700","0.0-13.0-2.10","16859","ListA","man","chinese","CMA2","","","","null","","","","","",""
"7748.4000000059605","","","survey-text","73","856451","0.0-13.0-3.10","16859","ListA","man","chinese","CMA2","","","","","{""Q0"":""麦克正在加入贝斯""}","<img src='gifs/ChineseGender3a.gif' style='height:400px;''></img>","加入","正在加入","chinese",""
"null","<div style=""font-size:60px;"">+</div>","","html-keyboard-response","74","856956","0.0-13.0-0.11","16859","ListA","man","chinese","CMA2","","","","null","","","","","",""
"null","<img src='gifs/FemaleRace4a.gif' style='height:400px;''></img>","","html-keyboard-response","75","858964","0.0-13.0-1.11","16859","ListA","man","chinese","CMA2","","","","null","","","","","",""
"null","正在表扬","","html-keyboard-response","76","861970","0.0-13.0-2.11","16859","ListA","man","chinese","CMA2","","","","null","","","","","",""
"5451.29999999702","","","survey-text","77","867423","0.0-13.0-3.11","16859","ListA","man","chinese","CMA2","","","","","{""Q0"":""贝斯正在表扬霍普""}","<img src='gifs/FemaleRace4a.gif' style='height:400px;''></img>","表扬","正在表扬","chinese",""
"null","<div style=""font-size:60px;"">+</div>","","html-keyboard-response","78","867931","0.0-13.0-0.12","16859","ListA","man","chinese","CMA2","","","","null","","","","","",""
"null","<img src='gifs/ChineseGender3b.gif' style='height:400px;''></img>","","html-keyboard-response","79","869937","0.0-13.0-1.12","16859","ListA","man","chinese","CMA2","","","","null","","","","","",""
"null","正在看着","","html-keyboard-response","80","872949","0.0-13.0-2.12","16859","ListA","man","chinese","CMA2","","","","null","","","","","",""
"4685.800000011921","","","survey-text","81","877637","0.0-13.0-3.12","16859","ListA","man","chinese","CMA2","","","","","{""Q0"":""贝斯正在看着麦克""}","<img src='gifs/ChineseGender3b.gif' style='height:400px;''></img>","看着","正在看着","chinese",""
"null","<div style=""font-size:60px;"">+</div>","","html-keyboard-response","82","878141","0.0-13.0-0.13","16859","ListA","man","chinese","CMA2","","","","null","","","","","",""
"null","<img src='gifs/FemaleRace4a.gif' style='height:400px;''></img>","","html-keyboard-response","83","880150","0.0-13.0-1.13","16859","ListA","man","chinese","CMA2","","","","null","","","","","",""
"null","正在跟随","","html-keyboard-response","84","883154","0.0-13.0-2.13","16859","ListA","man","chinese","CMA2","","","","null","","","","","",""
"12190.699999988079","","","survey-text","85","895347","0.0-13.0-3.13","16859","ListA","man","chinese","CMA2","","","","","{""Q0"":""霍普正在跟随贝斯""}","<img src='gifs/FemaleRace4a.gif' style='height:400px;''></img>","跟随","正在跟随","chinese",""
"null","<div style=""font-size:60px;"">+</div>","","html-keyboard-response","86","895853","0.0-13.0-0.14","16859","ListA","man","chinese","CMA2","","","","null","","","","","",""
"null","<img src='gifs/MaleRace4a.gif' style='height:400px;''></img>","","html-keyboard-response","87","897860","0.0-13.0-1.14","16859","ListA","man","chinese","CMA2","","","","null","","","","","",""
"null","正在看着","","html-keyboard-response","88","900871","0.0-13.0-2.14","16859","ListA","man","chinese","CMA2","","","","null","","","","","",""
"10504.20000000298","","","survey-text","89","911377","0.0-13.0-3.14","16859","ListA","man","chinese","CMA2","","","","","{""Q0"":""麦克正在看着戴夫""}","<img src='gifs/MaleRace4a.gif' style='height:400px;''></img>","看着","正在看着","chinese",""
"null","<div style=""font-size:60px;"">+</div>","","html-keyboard-response","90","911884","0.0-13.0-0.15","16859","ListA","man","chinese","CMA2","","","","null","","","","","",""
"null","<img src='gifs/BlackGender1a.gif' style='height:400px;''></img>","","html-keyboard-response","91","913890","0.0-13.0-1.15","16859","ListA","man","chinese","CMA2","","","","null","","","","","",""
"null","正在聘用","","html-keyboard-response","92","916899","0.0-13.0-2.15","16859","ListA","man","chinese","CMA2","","","","null","","","","","",""
"6508.100000008941","","","survey-text","93","923409","0.0-13.0-3.15","16859","ListA","man","chinese","CMA2","","","","","{""Q0"":""露丝正在聘用卢克""}","<img src='gifs/BlackGender1a.gif' style='height:400px;''></img>","聘用","正在聘用","chinese",""
"null","<div style=""font-size:60px;"">+</div>","","html-keyboard-response","94","923916","0.0-13.0-0.16","16859","ListA","man","chinese","CMA2","","","","null","","","","","",""
"null","<img src='gifs/ChineseGender2a.gif' style='height:400px;''></img>","","html-keyboard-response","95","925927","0.0-13.0-1.16","16859","ListA","man","chinese","CMA2","","","","null","","","","","",""
"null","正在加入","","html-keyboard-response","96","928935","0.0-13.0-2.16","16859","ListA","man","chinese","CMA2","","","","null","","","","","",""
"4717.79999999702","","","survey-text","97","933655","0.0-13.0-3.16","16859","ListA","man","chinese","CMA2","","","","","{""Q0"":""弗雷正在加入贝斯""}","<img src='gifs/ChineseGender2a.gif' style='height:400px;''></img>","加入","正在加入","chinese",""
"null","<div style=""font-size:60px;"">+</div>","","html-keyboard-response","98","934159","0.0-13.0-0.17","16859","ListA","man","chinese","CMA2","","","","null","","","","","",""
"null","<img src='gifs/MaleRace4b.gif' style='height:400px;''></img>","","html-keyboard-response","99","936165","0.0-13.0-1.17","16859","ListA","man","chinese","CMA2","","","","null","","","","","",""
"null","正在跟随","","html-keyboard-response","100","939175","0.0-13.0-2.17","16859","ListA","man","chinese","CMA2","","","","null","","","","","",""
"4873.5","","","survey-text","101","944050","0.0-13.0-3.17","16859","ListA","man","chinese","CMA2","","","","","{""Q0"":""戴夫正在跟随麦克""}","<img src='gifs/MaleRace4b.gif' style='height:400px;''></img>","跟随","正在跟随","chinese",""
"3726.2000000029802","<img src='img/portrait_matrix_listA_chinese.jpg' style='width:900px;height:500px;''></img><p>如果您已经记住了所有的人物和名字，请点击继续。</p><p><strong>请注意：您对先前记忆的面孔将在本实验中被测试5次。</strong></p>","0","html-button-response","102","947778","0.0-14.0-0.0","16859","ListA","man","chinese","CMA2","","","","","","","","","",""
"11228","<img src=""portrait/WM2.jpg""style=""height:400px;""></img>","7","html-button-response","103","960015","0.0-14.0-1.0","16859","ListA","man","chinese","CMA2","","true","7","","","","","","",""
"null","正确","","html-keyboard-response","104","961531","0.0-14.0-2.0-0.0","16859","ListA","man","chinese","CMA2","","","","null","","","","","",""
"2817.2000000029802","<img src=""portrait/WW2.jpg""style=""height:400px;""></img>","3","html-button-response","105","964350","0.0-14.0-4.0","16859","ListA","man","chinese","CMA2","","true","3","","","","","","",""
"null","正确","","html-keyboard-response","106","965868","0.0-14.0-5.0-0.0","16859","ListA","man","chinese","CMA2","","","","null","","","","","",""
"1142.199999988079","<img src=""portrait/BM1.jpg""style=""height:400px;""></img>","4","html-button-response","107","967012","0.0-14.0-7.0","16859","ListA","man","chinese","CMA2","","true","4","","","","","","",""
"null","正确","","html-keyboard-response","108","968524","0.0-14.0-8.0-0.0","16859","ListA","man","chinese","CMA2","","","","null","","","","","",""
"2670.5","<img src=""portrait/WM1.jpg""style=""height:400px;""></img>","6","html-button-response","109","971196","0.0-14.0-10.0","16859","ListA","man","chinese","CMA2","","true","6","","","","","","",""
"null","正确","","html-keyboard-response","110","972710","0.0-14.0-11.0-0.0","16859","ListA","man","chinese","CMA2","","","","null","","","","","",""
"1202.3999999910593","<img src=""portrait/BM2.jpg""style=""height:400px;""></img>","5","html-button-response","111","973914","0.0-14.0-13.0","16859","ListA","man","chinese","CMA2","","true","5","","","","","","",""
"null","正确","","html-keyboard-response","112","975420","0.0-14.0-14.0-0.0","16859","ListA","man","chinese","CMA2","","","","null","","","","","",""
"1815.2000000029802","<img src=""portrait/BW2.jpg""style=""height:400px;""></img>","2","html-button-response","113","977236","0.0-14.0-16.0","16859","ListA","man","chinese","CMA2","","true","2","","","","","","",""
"null","正确","","html-keyboard-response","114","978760","0.0-14.0-17.0-0.0","16859","ListA","man","chinese","CMA2","","","","null","","","","","",""
"1573.4000000059605","<img src=""portrait/WW1.jpg""style=""height:400px;""></img>","1","html-button-response","115","980335","0.0-14.0-19.0","16859","ListA","man","chinese","CMA2","","true","1","","","","","","",""
"null","正确","","html-keyboard-response","116","981848","0.0-14.0-20.0-0.0","16859","ListA","man","chinese","CMA2","","","","null","","","","","",""
"2241.7000000029802","<img src=""portrait/BW1.jpg""style=""height:400px;""></img>","0","html-button-response","117","984091","0.0-14.0-22.0","16859","ListA","man","chinese","CMA2","","true","0","","","","","","",""
"null","正确","","html-keyboard-response","118","985604","0.0-14.0-23.0-0.0","16859","ListA","man","chinese","CMA2","","","","null","","","","","",""
"1158.2999999970198","<p>您第一次在8题里答对了 8 题。 请点击继续</p>","0","html-button-response","119","986764","0.0-14.0-25.0","16859","ListA","man","chinese","CMA2","","","","","","","","","",""
"null","<div style=""font-size:60px;"">+</div>","","html-keyboard-response","120","988277","0.0-15.0-0.0","16859","ListA","man","chinese","CMA2","","","","null","","","","","",""
"null","<img src='gifs/BlackGender4a.gif' style='height:400px;''></img>","","html-keyboard-response","121","990287","0.0-15.0-1.0","16859","ListA","man","chinese","CMA2","","","","null","","","","","",""
"null","正在面向","","html-keyboard-response","122","993295","0.0-15.0-2.0","16859","ListA","man","chinese","CMA2","","","","null","","","","","",""
"6834.100000008941","","","survey-text","123","1000131","0.0-15.0-3.0","16859","ListA","man","chinese","CMA2","","","","","{""Q0"":""霍普正在面向戴夫""}","<img src='gifs/BlackGender4a.gif' style='height:400px;''></img>","面向","正在面向","chinese",""
"null","<div style=""font-size:60px;"">+</div>","","html-keyboard-response","124","1000637","0.0-15.0-0.1","16859","ListA","man","chinese","CMA2","","","","null","","","","","",""
"null","<img src='gifs/ChineseGender4b.gif' style='height:400px;''></img>","","html-keyboard-response","125","1002649","0.0-15.0-1.1","16859","ListA","man","chinese","CMA2","","","","null","","","","","",""
"null","正在走向","","html-keyboard-response","126","1005653","0.0-15.0-2.1","16859","ListA","man","chinese","CMA2","","","","null","","","","","",""
"6893.79999999702","","","survey-text","127","1012548","0.0-15.0-3.1","16859","ListA","man","chinese","CMA2","","","","","{""Q0"":""凯特正在走向麦克""}","<img src='gifs/ChineseGender4b.gif' style='height:400px;''></img>","走向","正在走向","chinese",""
"null","<div style=""font-size:60px;"">+</div>","","html-keyboard-response","128","1013055","0.0-15.0-0.2","16859","ListA","man","chinese","CMA2","","","","null","","","","","",""
"null","<img src='gifs/BlackGender2a.gif' style='height:400px;''></img>","","html-keyboard-response","129","1015064","0.0-15.0-1.2","16859","ListA","man","chinese","CMA2","","","","null","","","","","",""
"null","正在答应","","html-keyboard-response","130","1018072","0.0-15.0-2.2","16859","ListA","man","chinese","CMA2","","","","null","","","","","",""
"5616.0999999940395","","","survey-text","131","1023690","0.0-15.0-3.2","16859","ListA","man","chinese","CMA2","","","","","{""Q0"":""露丝正在答应戴夫""}","<img src='gifs/BlackGender2a.gif' style='height:400px;''></img>","答应","正在答应","chinese",""
"null","<div style=""font-size:60px;"">+</div>","","html-keyboard-response","132","1024200","0.0-15.0-0.3","16859","ListA","man","chinese","CMA2","","","","null","","","","","",""
"null","<img src='gifs/BlackGender1a.gif' style='height:400px;''></img>","","html-keyboard-response","133","1026205","0.0-15.0-1.3","16859","ListA","man","chinese","CMA2","","","","null","","","","","",""
"null","正在答应","","html-keyboard-response","134","1029215","0.0-15.0-2.3","16859","ListA","man","chinese","CMA2","","","","null","","","","","",""
"19077.60000000894","","","survey-text","135","1048295","0.0-15.0-3.3","16859","ListA","man","chinese","CMA2","","","","","{""Q0"":""卢克正在答应露丝""}","<img src='gifs/BlackGender1a.gif' style='height:400px;''></img>","答应","正在答应","chinese",""
"null","<div style=""font-size:60px;"">+</div>","","html-keyboard-response","136","1048801","0.0-15.0-0.4","16859","ListA","man","chinese","CMA2","","","","null","","","","","",""
"null","<img src='gifs/FemaleRace3b.gif' style='height:400px;''></img>","","html-keyboard-response","137","1050805","0.0-15.0-1.4","16859","ListA","man","chinese","CMA2","","","","null","","","","","",""
"null","正在走向","","html-keyboard-response","138","1053816","0.0-15.0-2.4","16859","ListA","man","chinese","CMA2","","","","null","","","","","",""
"5563.0999999940395","","","survey-text","139","1059381","0.0-15.0-3.4","16859","ListA","man","chinese","CMA2","","","","","{""Q0"":""贝斯正在走向露丝""}","<img src='gifs/FemaleRace3b.gif' style='height:400px;''></img>","走向","正在走向","chinese",""
"null","<div style=""font-size:60px;"">+</div>","","html-keyboard-response","140","1059888","0.0-15.0-0.5","16859","ListA","man","chinese","CMA2","","","","null","","","","","",""
"null","<img src='gifs/FemaleRace2b.gif' style='height:400px;''></img>","","html-keyboard-response","141","1061893","0.0-15.0-1.5","16859","ListA","man","chinese","CMA2","","","","null","","","","","",""
"null","正在走向","","html-keyboard-response","142","1064901","0.0-15.0-2.5","16859","ListA","man","chinese","CMA2","","","","null","","","","","",""
"9081.39999999106","","","survey-text","143","1073986","0.0-15.0-3.5","16859","ListA","man","chinese","CMA2","","","","","{""Q0"":""凯特正在走向霍普""}","<img src='gifs/FemaleRace2b.gif' style='height:400px;''></img>","走向","正在走向","chinese",""
"null","<div style=""font-size:60px;"">+</div>","","html-keyboard-response","144","1074498","0.0-15.0-0.6","16859","ListA","man","chinese","CMA2","","","","null","","","","","",""
"null","<img src='gifs/ChineseGender4a.gif' style='height:400px;''></img>","","html-keyboard-response","145","1076505","0.0-15.0-1.6","16859","ListA","man","chinese","CMA2","","","","null","","","","","",""
"null","正在加入","","html-keyboard-response","146","1079515","0.0-15.0-2.6","16859","ListA","man","chinese","CMA2","","","","null","","","","","",""
"4325.20000000298","","","survey-text","147","1083844","0.0-15.0-3.6","16859","ListA","man","chinese","CMA2","","","","","{""Q0"":""麦克正在加入凯特""}","<img src='gifs/ChineseGender4a.gif' style='height:400px;''></img>","加入","正在加入","chinese",""
"null","<div style=""font-size:60px;"">+</div>","","html-keyboard-response","148","1084345","0.0-15.0-0.7","16859","ListA","man","chinese","CMA2","","","","null","","","","","",""
"null","<img src='gifs/MaleRace1b.gif' style='height:400px;''></img>","","html-keyboard-response","149","1086359","0.0-15.0-1.7","16859","ListA","man","chinese","CMA2","","","","null","","","","","",""
"null","正在介绍","","html-keyboard-response","150","1089363","0.0-15.0-2.7","16859","ListA","man","chinese","CMA2","","","","null","","","","","",""
"9320.5","","","survey-text","151","1098687","0.0-15.0-3.7","16859","ListA","man","chinese","CMA2","","","","","{""Q0"":""弗雷正在介绍卢克""}","<img src='gifs/MaleRace1b.gif' style='height:400px;''></img>","介绍","正在介绍","chinese",""
"null","<div style=""font-size:60px;"">+</div>","","html-keyboard-response","152","1099196","0.0-15.0-0.8","16859","ListA","man","chinese","CMA2","","","","null","","","","","",""
"null","<img src='gifs/BlackGender2a.gif' style='height:400px;''></img>","","html-keyboard-response","153","1101204","0.0-15.0-1.8","16859","ListA","man","chinese","CMA2","","","","null","","","","","",""
"null","正在面向","","html-keyboard-response","154","1104215","0.0-15.0-2.8","16859","ListA","man","chinese","CMA2","","","","null","","","","","",""
"5530.300000011921","","","survey-text","155","1109747","0.0-15.0-3.8","16859","ListA","man","chinese","CMA2","","","","","{""Q0"":""露丝正在面向戴夫""}","<img src='gifs/BlackGender2a.gif' style='height:400px;''></img>","面向","正在面向","chinese",""
"null","<div style=""font-size:60px;"">+</div>","","html-keyboard-response","156","1110252","0.0-15.0-0.9","16859","ListA","man","chinese","CMA2","","","","null","","","","","",""
"null","<img src='gifs/MaleRace4a.gif' style='height:400px;''></img>","","html-keyboard-response","157","1112263","0.0-15.0-1.9","16859","ListA","man","chinese","CMA2","","","","null","","","","","",""
"null","正在联系","","html-keyboard-response","158","1115265","0.0-15.0-2.9","16859","ListA","man","chinese","CMA2","","","","null","","","","","",""
"7972.4000000059605","","","survey-text","159","1123240","0.0-15.0-3.9","16859","ListA","man","chinese","CMA2","","","","","{""Q0"":""麦克正在联系戴夫""}","<img src='gifs/MaleRace4a.gif' style='height:400px;''></img>","联系","正在联系","chinese",""
"null","<div style=""font-size:60px;"">+</div>","","html-keyboard-response","160","1123745","0.0-15.0-0.10","16859","ListA","man","chinese","CMA2","","","","null","","","","","",""
"null","<img src='gifs/BlackGender3a.gif' style='height:400px;''></img>","","html-keyboard-response","161","1125753","0.0-15.0-1.10","16859","ListA","man","chinese","CMA2","","","","null","","","","","",""
"null","正在面向","","html-keyboard-response","162","1128757","0.0-15.0-2.10","16859","ListA","man","chinese","CMA2","","","","null","","","","","",""
"8977.199999988079","","","survey-text","163","1137736","0.0-15.0-3.10","16859","ListA","man","chinese","CMA2","","","","","{""Q0"":""卢克正在面向霍普""}","<img src='gifs/BlackGender3a.gif' style='height:400px;''></img>","面向","正在面向","chinese",""
"null","<div style=""font-size:60px;"">+</div>","","html-keyboard-response","164","1138241","0.0-15.0-0.11","16859","ListA","man","chinese","CMA2","","","","null","","","","","",""
"null","<img src='gifs/MaleRace2b.gif' style='height:400px;''></img>","","html-keyboard-response","165","1140248","0.0-15.0-1.11","16859","ListA","man","chinese","CMA2","","","","null","","","","","",""
"null","正在加入","","html-keyboard-response","166","1143255","0.0-15.0-2.11","16859","ListA","man","chinese","CMA2","","","","null","","","","","",""
"6238.5","","","survey-text","167","1149495","0.0-15.0-3.11","16859","ListA","man","chinese","CMA2","","","","","{""Q0"":""弗雷正在加入戴夫""}","<img src='gifs/MaleRace2b.gif' style='height:400px;''></img>","加入","正在加入","chinese",""
"null","<div style=""font-size:60px;"">+</div>","","html-keyboard-response","168","1150002","0.0-15.0-0.12","16859","ListA","man","chinese","CMA2","","","","null","","","","","",""
"null","<img src='gifs/ChineseGender3b.gif' style='height:400px;''></img>","","html-keyboard-response","169","1152010","0.0-15.0-1.12","16859","ListA","man","chinese","CMA2","","","","null","","","","","",""
"null","正在聆听","","html-keyboard-response","170","1155017","0.0-15.0-2.12","16859","ListA","man","chinese","CMA2","","","","null","","","","","",""
"6438.199999988079","","","survey-text","171","1161457","0.0-15.0-3.12","16859","ListA","man","chinese","CMA2","","","","","{""Q0"":""贝斯正在聆听麦克""}","<img src='gifs/ChineseGender3b.gif' style='height:400px;''></img>","聆听","正在聆听","chinese",""
"null","<div style=""font-size:60px;"">+</div>","","html-keyboard-response","172","1161967","0.0-15.0-0.13","16859","ListA","man","chinese","CMA2","","","","null","","","","","",""
"null","<img src='gifs/MaleRace2b.gif' style='height:400px;''></img>","","html-keyboard-response","173","1163976","0.0-15.0-1.13","16859","ListA","man","chinese","CMA2","","","","null","","","","","",""
"null","正在说服","","html-keyboard-response","174","1166983","0.0-15.0-2.13","16859","ListA","man","chinese","CMA2","","","","null","","","","","",""
"13081","","","survey-text","175","1180066","0.0-15.0-3.13","16859","ListA","man","chinese","CMA2","","","","","{""Q0"":""弗雷正在说服戴夫""}","<img src='gifs/MaleRace2b.gif' style='height:400px;''></img>","说服","正在说服","chinese",""
"null","<div style=""font-size:60px;"">+</div>","","html-keyboard-response","176","1180576","0.0-15.0-0.14","16859","ListA","man","chinese","CMA2","","","","null","","","","","",""
"null","<img src='gifs/FemaleRace1b.gif' style='height:400px;''></img>","","html-keyboard-response","177","1182586","0.0-15.0-1.14","16859","ListA","man","chinese","CMA2","","","","null","","","","","",""
"null","正在说服","","html-keyboard-response","178","1185594","0.0-15.0-2.14","16859","ListA","man","chinese","CMA2","","","","null","","","","","",""
"8039.29999999702","","","survey-text","179","1193635","0.0-15.0-3.14","16859","ListA","man","chinese","CMA2","","","","","{""Q0"":""凯特正在说服露丝""}","<img src='gifs/FemaleRace1b.gif' style='height:400px;''></img>","说服","正在说服","chinese",""
"null","<div style=""font-size:60px;"">+</div>","","html-keyboard-response","180","1194147","0.0-15.0-0.15","16859","ListA","man","chinese","CMA2","","","","null","","","","","",""
"null","<img src='gifs/BlackGender4b.gif' style='height:400px;''></img>","","html-keyboard-response","181","1196153","0.0-15.0-1.15","16859","ListA","man","chinese","CMA2","","","","null","","","","","",""
"null","正在聆听","","html-keyboard-response","182","1199162","0.0-15.0-2.15","16859","ListA","man","chinese","CMA2","","","","null","","","","","",""
"7263.20000000298","","","survey-text","183","1206427","0.0-15.0-3.15","16859","ListA","man","chinese","CMA2","","","","","{""Q0"":""霍普正在聆听戴夫""}","<img src='gifs/BlackGender4b.gif' style='height:400px;''></img>","聆听","正在聆听","chinese",""
"null","<div style=""font-size:60px;"">+</div>","","html-keyboard-response","184","1206939","0.0-15.0-0.16","16859","ListA","man","chinese","CMA2","","","","null","","","","","",""
"null","<img src='gifs/FemaleRace1a.gif' style='height:400px;''></img>","","html-keyboard-response","185","1208947","0.0-15.0-1.16","16859","ListA","man","chinese","CMA2","","","","null","","","","","",""
"null","正在表扬","","html-keyboard-response","186","1211951","0.0-15.0-2.16","16859","ListA","man","chinese","CMA2","","","","null","","","","","",""
"8896.09999999404","","","survey-text","187","1220849","0.0-15.0-3.16","16859","ListA","man","chinese","CMA2","","","","","{""Q0"":""凯特正在表扬露丝""}","<img src='gifs/FemaleRace1a.gif' style='height:400px;''></img>","表扬","正在表扬","chinese",""
"null","<div style=""font-size:60px;"">+</div>","","html-keyboard-response","188","1221351","0.0-15.0-0.17","16859","ListA","man","chinese","CMA2","","","","null","","","","","",""
"null","<img src='gifs/MaleRace1b.gif' style='height:400px;''></img>","","html-keyboard-response","189","1223364","0.0-15.0-1.17","16859","ListA","man","chinese","CMA2","","","","null","","","","","",""
"null","正在说服","","html-keyboard-response","190","1226368","0.0-15.0-2.17","16859","ListA","man","chinese","CMA2","","","","null","","","","","",""
"5196.899999991059","","","survey-text","191","1231567","0.0-15.0-3.17","16859","ListA","man","chinese","CMA2","","","","","{""Q0"":""卢克正在说服弗雷""}","<img src='gifs/MaleRace1b.gif' style='height:400px;''></img>","说服","正在说服","chinese",""
"95193.69999998808","<img src='img/portrait_matrix_listA_chinese.jpg' style='width:900px;height:500px;''></img><p>如果您已经记住了所有的人物和名字，请点击继续。</p><p><strong>请注意：您对先前记忆的面孔将在本实验中被测试5次。</strong></p>","0","html-button-response","192","1326764","0.0-16.0-0.0","16859","ListA","man","chinese","CMA2","","","","","","","","","",""
"169926","<img src=""portrait/BM2.jpg""style=""height:400px;""></img>","5","html-button-response","193","1497702","0.0-16.0-1.0","16859","ListA","man","chinese","CMA2","","true","5","","","","","","",""
"null","正确","","html-keyboard-response","194","1499215","0.0-16.0-2.0-0.0","16859","ListA","man","chinese","CMA2","","","","null","","","","","",""
"1809.9000000059605","<img src=""portrait/BW2.jpg""style=""height:400px;""></img>","2","html-button-response","195","1501028","0.0-16.0-4.0","16859","ListA","man","chinese","CMA2","","true","2","","","","","","",""
"null","正确","","html-keyboard-response","196","1502548","0.0-16.0-5.0-0.0","16859","ListA","man","chinese","CMA2","","","","null","","","","","",""
"2413.2000000029802","<img src=""portrait/WM1.jpg""style=""height:400px;""></img>","6","html-button-response","197","1504963","0.0-16.0-7.0","16859","ListA","man","chinese","CMA2","","true","6","","","","","","",""
"null","正确","","html-keyboard-response","198","1506488","0.0-16.0-8.0-0.0","16859","ListA","man","chinese","CMA2","","","","null","","","","","",""
"1564.7000000029802","<img src=""portrait/WM2.jpg""style=""height:400px;""></img>","7","html-button-response","199","1508055","0.0-16.0-10.0","16859","ListA","man","chinese","CMA2","","true","7","","","","","","",""
"null","正确","","html-keyboard-response","200","1509564","0.0-16.0-11.0-0.0","16859","ListA","man","chinese","CMA2","","","","null","","","","","",""
"2508.5","<img src=""portrait/BW1.jpg""style=""height:400px;""></img>","0","html-button-response","201","1512074","0.0-16.0-13.0","16859","ListA","man","chinese","CMA2","","true","0","","","","","","",""
"null","正确","","html-keyboard-response","202","1513581","0.0-16.0-14.0-0.0","16859","ListA","man","chinese","CMA2","","","","null","","","","","",""
"1139.2000000029802","<img src=""portrait/WW2.jpg""style=""height:400px;""></img>","3","html-button-response","203","1514722","0.0-16.0-16.0","16859","ListA","man","chinese","CMA2","","true","3","","","","","","",""
"null","正确","","html-keyboard-response","204","1516241","0.0-16.0-17.0-0.0","16859","ListA","man","chinese","CMA2","","","","null","","","","","",""
"1124.7999999970198","<img src=""portrait/BM1.jpg""style=""height:400px;""></img>","4","html-button-response","205","1517367","0.0-16.0-19.0","16859","ListA","man","chinese","CMA2","","true","4","","","","","","",""
"null","正确","","html-keyboard-response","206","1518879","0.0-16.0-20.0-0.0","16859","ListA","man","chinese","CMA2","","","","null","","","","","",""
"1911.0999999940395","<img src=""portrait/WW1.jpg""style=""height:400px;""></img>","1","html-button-response","207","1520791","0.0-16.0-22.0","16859","ListA","man","chinese","CMA2","","true","1","","","","","","",""
"null","正确","","html-keyboard-response","208","1522313","0.0-16.0-23.0-0.0","16859","ListA","man","chinese","CMA2","","","","null","","","","","",""
"1549.5","<p>您第一次在8题里答对了 8 题。 请点击继续</p>","0","html-button-response","209","1523864","0.0-16.0-25.0","16859","ListA","man","chinese","CMA2","","","","","","","","","",""
"null","<div style=""font-size:60px;"">+</div>","","html-keyboard-response","210","1525372","0.0-17.0-0.0","16859","ListA","man","chinese","CMA2","","","","null","","","","","",""
"null","<img src='gifs/MaleRace4b.gif' style='height:400px;''></img>","","html-keyboard-response","211","1527383","0.0-17.0-1.0","16859","ListA","man","chinese","CMA2","","","","null","","","","","",""
"null","正在介绍","","html-keyboard-response","212","1530393","0.0-17.0-2.0","16859","ListA","man","chinese","CMA2","","","","null","","","","","",""
"7143.600000008941","","","survey-text","213","1537539","0.0-17.0-3.0","16859","ListA","man","chinese","CMA2","","","","","{""Q0"":""麦克正在介绍戴夫""}","<img src='gifs/MaleRace4b.gif' style='height:400px;''></img>","介绍","正在介绍","chinese",""
"null","<div style=""font-size:60px;"">+</div>","","html-keyboard-response","214","1538049","0.0-17.0-0.1","16859","ListA","man","chinese","CMA2","","","","null","","","","","",""
"null","<img src='gifs/BlackGender3b.gif' style='height:400px;''></img>","","html-keyboard-response","215","1540055","0.0-17.0-1.1","16859","ListA","man","chinese","CMA2","","","","null","","","","","",""
"null","正在提到","","html-keyboard-response","216","1543065","0.0-17.0-2.1","16859","ListA","man","chinese","CMA2","","","","null","","","","","",""
"15546.90000000596","","","survey-text","217","1558615","0.0-17.0-3.1","16859","ListA","man","chinese","CMA2","","","","","{""Q0"":""卢克正在提到霍普""}","<img src='gifs/BlackGender3b.gif' style='height:400px;''></img>","提到","正在提到","chinese",""
"null","<div style=""font-size:60px;"">+</div>","","html-keyboard-response","218","1559119","0.0-17.0-0.2","16859","ListA","man","chinese","CMA2","","","","null","","","","","",""
"null","<img src='gifs/FemaleRace2a.gif' style='height:400px;''></img>","","html-keyboard-response","219","1561130","0.0-17.0-1.2","16859","ListA","man","chinese","CMA2","","","","null","","","","","",""
"null","正在答应","","html-keyboard-response","220","1564133","0.0-17.0-2.2","16859","ListA","man","chinese","CMA2","","","","null","","","","","",""
"5944.0999999940395","","","survey-text","221","1570079","0.0-17.0-3.2","16859","ListA","man","chinese","CMA2","","","","","{""Q0"":""霍普正在答应凯特""}","<img src='gifs/FemaleRace2a.gif' style='height:400px;''></img>","答应","正在答应","chinese",""
"null","<div style=""font-size:60px;"">+</div>","","html-keyboard-response","222","1570583","0.0-17.0-0.3","16859","ListA","man","chinese","CMA2","","","","null","","","","","",""
"null","<img src='gifs/BlackGender1b.gif' style='height:400px;''></img>","","html-keyboard-response","223","1572593","0.0-17.0-1.3","16859","ListA","man","chinese","CMA2","","","","null","","","","","",""
"null","正在聘用","","html-keyboard-response","224","1575600","0.0-17.0-2.3","16859","ListA","man","chinese","CMA2","","","","null","","","","","",""
"6943.199999988079","","","survey-text","225","1582546","0.0-17.0-3.3","16859","ListA","man","chinese","CMA2","","","","","{""Q0"":""卢克正在聘用露丝""}","<img src='gifs/BlackGender1b.gif' style='height:400px;''></img>","聘用","正在聘用","chinese",""
"null","<div style=""font-size:60px;"">+</div>","","html-keyboard-response","226","1583055","0.0-17.0-0.4","16859","ListA","man","chinese","CMA2","","","","null","","","","","",""
"null","<img src='gifs/FemaleRace3a.gif' style='height:400px;''></img>","","html-keyboard-response","227","1585066","0.0-17.0-1.4","16859","ListA","man","chinese","CMA2","","","","null","","","","","",""
"null","正在聘用","","html-keyboard-response","228","1588074","0.0-17.0-2.4","16859","ListA","man","chinese","CMA2","","","","null","","","","","",""
"7339.600000008941","","","survey-text","229","1595416","0.0-17.0-3.4","16859","ListA","man","chinese","CMA2","","","","","{""Q0"":""贝斯正在聘用露丝""}","<img src='gifs/FemaleRace3a.gif' style='height:400px;''></img>","聘用","正在聘用","chinese",""
"null","<div style=""font-size:60px;"">+</div>","","html-keyboard-response","230","1595918","0.0-17.0-0.5","16859","ListA","man","chinese","CMA2","","","","null","","","","","",""
"null","<img src='gifs/ChineseGender4b.gif' style='height:400px;''></img>","","html-keyboard-response","231","1597928","0.0-17.0-1.5","16859","ListA","man","chinese","CMA2","","","","null","","","","","",""
"null","正在聆听","","html-keyboard-response","232","1600934","0.0-17.0-2.5","16859","ListA","man","chinese","CMA2","","","","null","","","","","",""
"8116.9000000059605","","","survey-text","233","1609053","0.0-17.0-3.5","16859","ListA","man","chinese","CMA2","","","","","{""Q0"":""凯特正在聆听麦克""}","<img src='gifs/ChineseGender4b.gif' style='height:400px;''></img>","聆听","正在聆听","chinese",""
"null","<div style=""font-size:60px;"">+</div>","","html-keyboard-response","234","1609558","0.0-17.0-0.6","16859","ListA","man","chinese","CMA2","","","","null","","","","","",""
"null","<img src='gifs/ChineseGender4a.gif' style='height:400px;''></img>","","html-keyboard-response","235","1611567","0.0-17.0-1.6","16859","ListA","man","chinese","CMA2","","","","null","","","","","",""
"null","正在看着","","html-keyboard-response","236","1614575","0.0-17.0-2.6","16859","ListA","man","chinese","CMA2","","","","null","","","","","",""
"4628","","","survey-text","237","1619205","0.0-17.0-3.6","16859","ListA","man","chinese","CMA2","","","","","{""Q0"":""凯特正在看着麦克""}","<img src='gifs/ChineseGender4a.gif' style='height:400px;''></img>","看着","正在看着","chinese",""
"null","<div style=""font-size:60px;"">+</div>","","html-keyboard-response","238","1619714","0.0-17.0-0.7","16859","ListA","man","chinese","CMA2","","","","null","","","","","",""
"null","<img src='gifs/ChineseGender1b.gif' style='height:400px;''></img>","","html-keyboard-response","239","1621721","0.0-17.0-1.7","16859","ListA","man","chinese","CMA2","","","","null","","","","","",""
"null","正在触摸","","html-keyboard-response","240","1624727","0.0-17.0-2.7","16859","ListA","man","chinese","CMA2","","","","null","","","","","",""
"5033.29999999702","","","survey-text","241","1629762","0.0-17.0-3.7","16859","ListA","man","chinese","CMA2","","","","","{""Q0"":""弗雷正在触摸凯特""}","<img src='gifs/ChineseGender1b.gif' style='height:400px;''></img>","触摸","正在触摸","chinese",""
"null","<div style=""font-size:60px;"">+</div>","","html-keyboard-response","242","1630263","0.0-17.0-0.8","16859","ListA","man","chinese","CMA2","","","","null","","","","","",""
"null","<img src='gifs/FemaleRace1a.gif' style='height:400px;''></img>","","html-keyboard-response","243","1632271","0.0-17.0-1.8","16859","ListA","man","chinese","CMA2","","","","null","","","","","",""
"null","正在跟随","","html-keyboard-response","244","1635280","0.0-17.0-2.8","16859","ListA","man","chinese","CMA2","","","","null","","","","","",""
"5097.0999999940395","","","survey-text","245","1640379","0.0-17.0-3.8","16859","ListA","man","chinese","CMA2","","","","","{""Q0"":""露丝正在跟随凯特""}","<img src='gifs/FemaleRace1a.gif' style='height:400px;''></img>","跟随","正在跟随","chinese",""
"null","<div style=""font-size:60px;"">+</div>","","html-keyboard-response","246","1640889","0.0-17.0-0.9","16859","ListA","man","chinese","CMA2","","","","null","","","","","",""
"null","<img src='gifs/ChineseGender2a.gif' style='height:400px;''></img>","","html-keyboard-response","247","1642894","0.0-17.0-1.9","16859","ListA","man","chinese","CMA2","","","","null","","","","","",""
"null","正在陪伴","","html-keyboard-response","248","1645904","0.0-17.0-2.9","16859","ListA","man","chinese","CMA2","","","","null","","","","","",""
"8052","","","survey-text","249","1653958","0.0-17.0-3.9","16859","ListA","man","chinese","CMA2","","","","","{""Q0"":""弗雷正在陪伴贝斯""}","<img src='gifs/ChineseGender2a.gif' style='height:400px;''></img>","陪伴","正在陪伴","chinese",""
"null","<div style=""font-size:60px;"">+</div>","","html-keyboard-response","250","1654464","0.0-17.0-0.10","16859","ListA","man","chinese","CMA2","","","","null","","","","","",""
"null","<img src='gifs/BlackGender2b.gif' style='height:400px;''></img>","","html-keyboard-response","251","1656475","0.0-17.0-1.10","16859","ListA","man","chinese","CMA2","","","","null","","","","","",""
"null","正在表扬","","html-keyboard-response","252","1659482","0.0-17.0-2.10","16859","ListA","man","chinese","CMA2","","","","null","","","","","",""
"28926.79999999702","","","survey-text","253","1688411","0.0-17.0-3.10","16859","ListA","man","chinese","CMA2","","","","","{""Q0"":""戴夫正在跟随弗雷""}","<img src='gifs/BlackGender2b.gif' style='height:400px;''></img>","表扬","正在表扬","chinese",""
"null","<div style=""font-size:60px;"">+</div>","","html-keyboard-response","254","1688915","0.0-17.0-0.11","16859","ListA","man","chinese","CMA2","","","","null","","","","","",""
"null","<img src='gifs/ChineseGender1b.gif' style='height:400px;''></img>","","html-keyboard-response","255","1690924","0.0-17.0-1.11","16859","ListA","man","chinese","CMA2","","","","null","","","","","",""
"null","正在表扬","","html-keyboard-response","256","1693932","0.0-17.0-2.11","16859","ListA","man","chinese","CMA2","","","","null","","","","","",""
"6789.5","","","survey-text","257","1700724","0.0-17.0-3.11","16859","ListA","man","chinese","CMA2","","","","","{""Q0"":""凯特正在表扬弗雷""}","<img src='gifs/ChineseGender1b.gif' style='height:400px;''></img>","表扬","正在表扬","chinese",""
"null","<div style=""font-size:60px;"">+</div>","","html-keyboard-response","258","1701235","0.0-17.0-0.12","16859","ListA","man","chinese","CMA2","","","","null","","","","","",""
"null","<img src='gifs/FemaleRace3b.gif' style='height:400px;''></img>","","html-keyboard-response","259","1703245","0.0-17.0-1.12","16859","ListA","man","chinese","CMA2","","","","null","","","","","",""
"null","正在联系","","html-keyboard-response","260","1706252","0.0-17.0-2.12","16859","ListA","man","chinese","CMA2","","","","null","","","","","",""
"6108.29999999702","","","survey-text","261","1712363","0.0-17.0-3.12","16859","ListA","man","chinese","CMA2","","","","","{""Q0"":""贝斯正在联系了露丝""}","<img src='gifs/FemaleRace3b.gif' style='height:400px;''></img>","联系","正在联系","chinese",""
"null","<div style=""font-size:60px;"">+</div>","","html-keyboard-response","262","1712872","0.0-17.0-0.13","16859","ListA","man","chinese","CMA2","","","","null","","","","","",""
"null","<img src='gifs/ChineseGender3a.gif' style='height:400px;''></img>","","html-keyboard-response","263","1714883","0.0-17.0-1.13","16859","ListA","man","chinese","CMA2","","","","null","","","","","",""
"null","正在提到","","html-keyboard-response","264","1717889","0.0-17.0-2.13","16859","ListA","man","chinese","CMA2","","","","null","","","","","",""
"6891.70000000298","","","survey-text","265","1724785","0.0-17.0-3.13","16859","ListA","man","chinese","CMA2","","","","","{""Q0"":""贝斯正在提到麦克""}","<img src='gifs/ChineseGender3a.gif' style='height:400px;''></img>","提到","正在提到","chinese",""
"null","<div style=""font-size:60px;"">+</div>","","html-keyboard-response","266","1725293","0.0-17.0-0.14","16859","ListA","man","chinese","CMA2","","","","null","","","","","",""
"null","<img src='gifs/FemaleRace4b.gif' style='height:400px;''></img>","","html-keyboard-response","267","1727297","0.0-17.0-1.14","16859","ListA","man","chinese","CMA2","","","","null","","","","","",""
"null","正在接近","","html-keyboard-response","268","1730309","0.0-17.0-2.14","16859","ListA","man","chinese","CMA2","","","","null","","","","","",""
"7206.5","","","survey-text","269","1737518","0.0-17.0-3.14","16859","ListA","man","chinese","CMA2","","","","","{""Q0"":""霍普正在接近贝斯""}","<img src='gifs/FemaleRace4b.gif' style='height:400px;''></img>","接近","正在接近","chinese",""
"null","<div style=""font-size:60px;"">+</div>","","html-keyboard-response","270","1738027","0.0-17.0-0.15","16859","ListA","man","chinese","CMA2","","","","null","","","","","",""
"null","<img src='gifs/MaleRace3b.gif' style='height:400px;''></img>","","html-keyboard-response","271","1740036","0.0-17.0-1.15","16859","ListA","man","chinese","CMA2","","","","null","","","","","",""
"null","正在触摸","","html-keyboard-response","272","1743045","0.0-17.0-2.15","16859","ListA","man","chinese","CMA2","","","","null","","","","","",""
"6496","","","survey-text","273","1749544","0.0-17.0-3.15","16859","ListA","man","chinese","CMA2","","","","","{""Q0"":""卢克正在触摸麦克""}","<img src='gifs/MaleRace3b.gif' style='height:400px;''></img>","触摸","正在触摸","chinese",""
"null","<div style=""font-size:60px;"">+</div>","","html-keyboard-response","274","1750051","0.0-17.0-0.16","16859","ListA","man","chinese","CMA2","","","","null","","","","","",""
"null","<img src='gifs/BlackGender3b.gif' style='height:400px;''></img>","","html-keyboard-response","275","1752059","0.0-17.0-1.16","16859","ListA","man","chinese","CMA2","","","","null","","","","","",""
"null","正在看着","","html-keyboard-response","276","1755069","0.0-17.0-2.16","16859","ListA","man","chinese","CMA2","","","","null","","","","","",""
"5007.399999991059","","","survey-text","277","1760079","0.0-17.0-3.16","16859","ListA","man","chinese","CMA2","","","","","{""Q0"":""霍普正在看着卢克""}","<img src='gifs/BlackGender3b.gif' style='height:400px;''></img>","看着","正在看着","chinese",""
"null","<div style=""font-size:60px;"">+</div>","","html-keyboard-response","278","1760586","0.0-17.0-0.17","16859","ListA","man","chinese","CMA2","","","","null","","","","","",""
"null","<img src='gifs/FemaleRace4b.gif' style='height:400px;''></img>","","html-keyboard-response","279","1762594","0.0-17.0-1.17","16859","ListA","man","chinese","CMA2","","","","null","","","","","",""
"null","正在聆听","","html-keyboard-response","280","1765604","0.0-17.0-2.17","16859","ListA","man","chinese","CMA2","","","","null","","","","","",""
"6022.9000000059605","","","survey-text","281","1771629","0.0-17.0-3.17","16859","ListA","man","chinese","CMA2","","","","","{""Q0"":""霍普正在聆听贝斯""}","<img src='gifs/FemaleRace4b.gif' style='height:400px;''></img>","聆听","正在聆听","chinese",""
"3684.2000000029802","<p>Thank you for completing that task.</p><p>The final part of this session is a short questionnaire.</p><p>Press Continue.</p>","0","html-button-response","282","1775315","0.0-18.0","16859","ListA","man","chinese","CMA2","","","","","","","","","",""
"84088.20000000298","","","survey-text","283","1860418","0.0-19.0","16859","ListA","man","chinese","CMA2","","","","","{""Q0"":""23"",""Q1"":""Chinese"",""Q2"":""Chinese"",""Q3"":""China"",""Q4"":""Chinese"",""Q5"":""Yellow"",""Q6"":""Male""}","","","","","demographics"
"4009.5","<p>Have you lived in the UK for the last 5 years or more?</p>","1","html-button-response","284","1864431","0.0-20.0","16859","ListA","man","chinese","CMA2","","","","","","","","","","fiveyears"
"113228.29999999702","","","external-html","285","1979531","0.0-21.0","16859","ListA","man","chinese","CMA2","debrief.html","","","","","","","","",""
"15633.70000000298","","","survey-text","286","1995168","0.0-22.0","16859","ListA","man","chinese","CMA2","","","","","{""ptpt_id"":""CMA2""}","","","","","worker_id"
