"rt","stimulus","button_pressed","trial_type","trial_index","time_elapsed","internal_node_id","subject","list","ppt_gender","ppt_language","url","first_guess","correct","key_press","responses","image","verb","phrase","condition","test_part"
"26458.599999904633","Welcome to the experiment. Press Continue to begin.","0","html-button-response","0","26460","0.0-0.0","8181","ListA","woman","english","","","","","","","","","",""
"3327.600000023842","","","external-html","1","30792","0.0-1.0","8181","ListA","woman","english","consent.html","","","","","","","","",""
"1193.2000000476837","<p>On the next page, you will see portraits of 8 people and their names.</p><p>Your first task is to take a few minutes to memorise the names of these people.</p><p>You will have to recall their names during the rest of the experiment, so it is</p><p>essential that you try to memorise these people and their names as best as you can.</p><p><strong>You will then be tested on your memory of these names and portraits.</strong></p><p>The experiment will start after you have completed this memory test.</p><p>Ready?</p>","0","html-button-response","2","31986","0.0-2.0","8181","ListA","woman","english","","","","","","","","","",""
"2269.7000000476837","<img src='img/portrait_matrix_listA.jpg' style='width:900px;height:500px;''></img><p>If you have memorised all the portraits and names and are ready to start, press Continue.</p><p><strong>Please note: Your memory of these faces will be tested 5 times during this experiment.</strong></p>","0","html-button-response","3","35265","0.0-3.0-0.0","8181","ListA","woman","english","","","","","","","","","",""
"1926.2999999523163","<img src=""portrait/BM1.jpg""style=""height:400px;""></img>","4","html-button-response","4","38193","0.0-3.0-1.0","8181","ListA","woman","english","","true","4","","","","","","",""
"null","CORRECT","","html-keyboard-response","5","39707","0.0-3.0-2.0-0.0","8181","ListA","woman","english","","","","null","","","","","",""
"3215.399999976158","<img src=""portrait/BM2.jpg""style=""height:400px;""></img>","5","html-button-response","6","42924","0.0-3.0-4.0","8181","ListA","woman","english","","true","5","","","","","","",""
"null","CORRECT","","html-keyboard-response","7","44441","0.0-3.0-5.0-0.0","8181","ListA","woman","english","","","","null","","","","","",""
"3247.899999976158","<img src=""portrait/WW1.jpg""style=""height:400px;""></img>","1","html-button-response","8","47690","0.0-3.0-7.0","8181","ListA","woman","english","","true","1","","","","","","",""
"null","CORRECT","","html-keyboard-response","9","49202","0.0-3.0-8.0-0.0","8181","ListA","woman","english","","","","null","","","","","",""
"1476.8999999761581","<img src=""portrait/BW1.jpg""style=""height:400px;""></img>","0","html-button-response","10","50680","0.0-3.0-10.0","8181","ListA","woman","english","","true","0","","","","","","",""
"null","CORRECT","","html-keyboard-response","11","52193","0.0-3.0-11.0-0.0","8181","ListA","woman","english","","","","null","","","","","",""
"1764.4000000953674","<img src=""portrait/WW2.jpg""style=""height:400px;""></img>","3","html-button-response","12","53958","0.0-3.0-13.0","8181","ListA","woman","english","","true","3","","","","","","",""
"null","CORRECT","","html-keyboard-response","13","55473","0.0-3.0-14.0-0.0","8181","ListA","woman","english","","","","null","","","","","",""
"3173.5","<img src=""portrait/BW2.jpg""style=""height:400px;""></img>","2","html-button-response","14","58647","0.0-3.0-16.0","8181","ListA","woman","english","","true","2","","","","","","",""
"null","CORRECT","","html-keyboard-response","15","60163","0.0-3.0-17.0-0.0","8181","ListA","woman","english","","","","null","","","","","",""
"1372","<img src=""portrait/WM1.jpg""style=""height:400px;""></img>","6","html-button-response","16","61536","0.0-3.0-19.0","8181","ListA","woman","english","","true","6","","","","","","",""
"null","CORRECT","","html-keyboard-response","17","63037","0.0-3.0-20.0-0.0","8181","ListA","woman","english","","","","null","","","","","",""
"789.2000000476837","<img src=""portrait/WM2.jpg""style=""height:400px;""></img>","7","html-button-response","18","63827","0.0-3.0-22.0","8181","ListA","woman","english","","true","7","","","","","","",""
"null","CORRECT","","html-keyboard-response","19","65334","0.0-3.0-23.0-0.0","8181","ListA","woman","english","","","","null","","","","","",""
"1074.5","<p>You got 8 out of 8 right first time. Press Continue.</p>","0","html-button-response","20","66409","0.0-3.0-25.0","8181","ListA","woman","english","","","","","","","","","",""
"19076.399999976158","<p>In this experiment, you will view photographs of the people from the memory game.</p><p>By using the <strong>exact</strong> phrase given <i>after</i> the photograph appears and recalling the correct names of the people in the photographs, form a sentence describing an interaction. You do not need to capitalise names.</p><p>Type your answer in the space provided. Please complete every sentence before moving onto the next trial.</p><p>You will only have a few seconds to memorise each given photograph and phrase before you can respond, so try your best to focus.</p><p>An example is given below. Press 'Continue' when you are ready.</p><img src='img/speaking_example.jpg' style='width:800px;height:460px;''></img>","0","html-button-response","21","86499","0.0-4.0","8181","ListA","woman","english","","","","","","","","","",""
"1867.8999999761581","<p>Before the experiment starts, you will watch two example trials. Press 'Continue'.</p>","0","html-button-response","22","89369","0.0-5.0","8181","ListA","woman","english","","","","","","","","","",""
"null","<img src='img/meet.gif' style='height:400px;''></img>","","html-keyboard-response","23","92376","0.0-6.0","8181","ListA","woman","english","","","","null","","","","","",""
"null","<p>is meeting</p>","","html-keyboard-response","24","94378","0.0-7.0","8181","ListA","woman","english","","","","null","","","","","",""
"4532.300000071526","<p><b>Answer:</b> kate is meeting beth</p>","0","html-button-response","25","98911","0.0-8.0","8181","ListA","woman","english","","","","","","","","","",""
"null","<img src='img/spy.gif' style='height:400px;''></img>","","html-keyboard-response","26","101913","0.0-9.0","8181","ListA","woman","english","","","","null","","","","","",""
"null","<p>is being spied on by</p>","","html-keyboard-response","27","103921","0.0-10.0","8181","ListA","woman","english","","","","null","","","","","",""
"1699.6000000238419","<p><b>Answer:</b> luke is being spied on by dave</p>","0","html-button-response","28","105621","0.0-11.0","8181","ListA","woman","english","","","","","","","","","",""
"14359.100000023842","<p>Ready to start the experiment?</p><br><p><strong>Remember to describe the picture using a full sentence,</strong></p><p><strong>that combines the names of the people with the <i>exact</i> phrase given.</strong></p><p><strong>To receive full payment you must do this correctly.</strong></p><p><strong> You do not need to capitalise names or use punctuation.</strong></p><br><p>Press 'Continue' to begin.</p>","0","html-button-response","29","120985","0.0-12.0","8181","ListA","woman","english","","","","","","","","","",""
"null","<div style=""font-size:60px;"">+</div>","","html-keyboard-response","30","122487","0.0-13.0-0.0","8181","ListA","woman","english","","","","null","","","","","",""
"null","<img src='gifs/ChineseGender4b.gif' style='height:400px;''></img>","","html-keyboard-response","31","124491","0.0-13.0-1.0","8181","ListA","woman","english","","","","null","","","","","",""
"null","is mentioning","","html-keyboard-response","32","127496","0.0-13.0-2.0","8181","ListA","woman","english","","","","null","","","","","",""
"18542.600000023842","","","survey-text","33","146040","0.0-13.0-3.0","8181","ListA","woman","english","","","","","{""Q0"":""mike is mentioning kate""}","<img src='gifs/ChineseGender4b.gif' style='height:400px;''></img>","mention","is mentioning","english",""
"null","<div style=""font-size:60px;"">+</div>","","html-keyboard-response","34","146552","0.0-13.0-0.1","8181","ListA","woman","english","","","","null","","","","","",""
"null","<img src='gifs/MaleRace4a.gif' style='height:400px;''></img>","","html-keyboard-response","35","148555","0.0-13.0-1.1","8181","ListA","woman","english","","","","null","","","","","",""
"null","is mentioning","","html-keyboard-response","36","151564","0.0-13.0-2.1","8181","ListA","woman","english","","","","null","","","","","",""
"5550","","","survey-text","37","157115","0.0-13.0-3.1","8181","ListA","woman","english","","","","","{""Q0"":""mike is mentioning dave""}","<img src='gifs/MaleRace4a.gif' style='height:400px;''></img>","mention","is mentioning","english",""
"null","<div style=""font-size:60px;"">+</div>","","html-keyboard-response","38","157624","0.0-13.0-0.2","8181","ListA","woman","english","","","","null","","","","","",""
"null","<img src='gifs/ChineseGender4a.gif' style='height:400px;''></img>","","html-keyboard-response","39","159627","0.0-13.0-1.2","8181","ListA","woman","english","","","","null","","","","","",""
"null","is walking towards","","html-keyboard-response","40","162638","0.0-13.0-2.2","8181","ListA","woman","english","","","","null","","","","","",""
"9347.400000095367","","","survey-text","41","171987","0.0-13.0-3.2","8181","ListA","woman","english","","","","","{""Q0"":""kate is walking towards mike""}","<img src='gifs/ChineseGender4a.gif' style='height:400px;''></img>","walking towards","is walking towards","english",""
"null","<div style=""font-size:60px;"">+</div>","","html-keyboard-response","42","172496","0.0-13.0-0.3","8181","ListA","woman","english","","","","null","","","","","",""
"null","<img src='gifs/MaleRace1b.gif' style='height:400px;''></img>","","html-keyboard-response","43","174497","0.0-13.0-1.3","8181","ListA","woman","english","","","","null","","","","","",""
"null","is introducing","","html-keyboard-response","44","177504","0.0-13.0-2.3","8181","ListA","woman","english","","","","null","","","","","",""
"11406.200000047684","","","survey-text","45","188911","0.0-13.0-3.3","8181","ListA","woman","english","","","","","{""Q0"":""luke is introducing fred""}","<img src='gifs/MaleRace1b.gif' style='height:400px;''></img>","introducing","is introducing","english",""
"null","<div style=""font-size:60px;"">+</div>","","html-keyboard-response","46","189412","0.0-13.0-0.4","8181","ListA","woman","english","","","","null","","","","","",""
"null","<img src='gifs/ChineseGender1b.gif' style='height:400px;''></img>","","html-keyboard-response","47","191414","0.0-13.0-1.4","8181","ListA","woman","english","","","","null","","","","","",""
"null","is joining","","html-keyboard-response","48","194416","0.0-13.0-2.4","8181","ListA","woman","english","","","","null","","","","","",""
"8370.5","","","survey-text","49","202787","0.0-13.0-3.4","8181","ListA","woman","english","","","","","{""Q0"":""kate is joining fred""}","<img src='gifs/ChineseGender1b.gif' style='height:400px;''></img>","join","is joining","english",""
"null","<div style=""font-size:60px;"">+</div>","","html-keyboard-response","50","203296","0.0-13.0-0.5","8181","ListA","woman","english","","","","null","","","","","",""
"null","<img src='gifs/BlackGender2b.gif' style='height:400px;''></img>","","html-keyboard-response","51","205297","0.0-13.0-1.5","8181","ListA","woman","english","","","","null","","","","","",""
"null","is touching","","html-keyboard-response","52","208313","0.0-13.0-2.5","8181","ListA","woman","english","","","","null","","","","","",""
"6952.5","","","survey-text","53","215267","0.0-13.0-3.5","8181","ListA","woman","english","","","","","{""Q0"":""ruth is touching dave""}","<img src='gifs/BlackGender2b.gif' style='height:400px;''></img>","touching","is touching","english",""
"null","<div style=""font-size:60px;"">+</div>","","html-keyboard-response","54","215783","0.0-13.0-0.6","8181","ListA","woman","english","","","","null","","","","","",""
"null","<img src='gifs/BlackGender1b.gif' style='height:400px;''></img>","","html-keyboard-response","55","217788","0.0-13.0-1.6","8181","ListA","woman","english","","","","null","","","","","",""
"null","is accompanying","","html-keyboard-response","56","220789","0.0-13.0-2.6","8181","ListA","woman","english","","","","null","","","","","",""
"14508.799999952316","","","survey-text","57","235299","0.0-13.0-3.6","8181","ListA","woman","english","","","","","{""Q0"":""luke is accompany ruth""}","<img src='gifs/BlackGender1b.gif' style='height:400px;''></img>","accompanying","is accompanying","english",""
"null","<div style=""font-size:60px;"">+</div>","","html-keyboard-response","58","235802","0.0-13.0-0.7","8181","ListA","woman","english","","","","null","","","","","",""
"null","<img src='gifs/MaleRace2a.gif' style='height:400px;''></img>","","html-keyboard-response","59","237815","0.0-13.0-1.7","8181","ListA","woman","english","","","","null","","","","","",""
"null","is walking towards","","html-keyboard-response","60","240827","0.0-13.0-2.7","8181","ListA","woman","english","","","","null","","","","","",""
"7664.899999976158","","","survey-text","61","248494","0.0-13.0-3.7","8181","ListA","woman","english","","","","","{""Q0"":""fred is walking towards dave""}","<img src='gifs/MaleRace2a.gif' style='height:400px;''></img>","walking towards","is walking towards","english",""
"null","<div style=""font-size:60px;"">+</div>","","html-keyboard-response","62","248996","0.0-13.0-0.8","8181","ListA","woman","english","","","","null","","","","","",""
"null","<img src='gifs/BlackGender1a.gif' style='height:400px;''></img>","","html-keyboard-response","63","251012","0.0-13.0-1.8","8181","ListA","woman","english","","","","null","","","","","",""
"null","is listening to","","html-keyboard-response","64","254015","0.0-13.0-2.8","8181","ListA","woman","english","","","","null","","","","","",""
"6065.899999976158","","","survey-text","65","260082","0.0-13.0-3.8","8181","ListA","woman","english","","","","","{""Q0"":""ruth is listening to luke""}","<img src='gifs/BlackGender1a.gif' style='height:400px;''></img>","listening to","is listening to","english",""
"null","<div style=""font-size:60px;"">+</div>","","html-keyboard-response","66","260587","0.0-13.0-0.9","8181","ListA","woman","english","","","","null","","","","","",""
"null","<img src='gifs/BlackGender4b.gif' style='height:400px;''></img>","","html-keyboard-response","67","262600","0.0-13.0-1.9","8181","ListA","woman","english","","","","null","","","","","",""
"null","is employing","","html-keyboard-response","68","265603","0.0-13.0-2.9","8181","ListA","woman","english","","","","null","","","","","",""
"9240.299999952316","","","survey-text","69","274844","0.0-13.0-3.9","8181","ListA","woman","english","","","","","{""Q0"":""jane is employing dave""}","<img src='gifs/BlackGender4b.gif' style='height:400px;''></img>","employing","is employing","english",""
"null","<div style=""font-size:60px;"">+</div>","","html-keyboard-response","70","275345","0.0-13.0-0.10","8181","ListA","woman","english","","","","null","","","","","",""
"null","<img src='gifs/MaleRace3b.gif' style='height:400px;''></img>","","html-keyboard-response","71","277356","0.0-13.0-1.10","8181","ListA","woman","english","","","","null","","","","","",""
"null","is touching","","html-keyboard-response","72","280369","0.0-13.0-2.10","8181","ListA","woman","english","","","","null","","","","","",""
"6004.200000047684","","","survey-text","73","286374","0.0-13.0-3.10","8181","ListA","woman","english","","","","","{""Q0"":""mike is touching luke""}","<img src='gifs/MaleRace3b.gif' style='height:400px;''></img>","touching","is touching","english",""
"null","<div style=""font-size:60px;"">+</div>","","html-keyboard-response","74","286885","0.0-13.0-0.11","8181","ListA","woman","english","","","","null","","","","","",""
"null","<img src='gifs/BlackGender1b.gif' style='height:400px;''></img>","","html-keyboard-response","75","288886","0.0-13.0-1.11","8181","ListA","woman","english","","","","null","","","","","",""
"null","is approaching","","html-keyboard-response","76","291898","0.0-13.0-2.11","8181","ListA","woman","english","","","","null","","","","","",""
"14823","","","survey-text","77","306722","0.0-13.0-3.11","8181","ListA","woman","english","","","","","{""Q0"":""luke is approaching ruth""}","<img src='gifs/BlackGender1b.gif' style='height:400px;''></img>","approaching","is approaching","english",""
"null","<div style=""font-size:60px;"">+</div>","","html-keyboard-response","78","307237","0.0-13.0-0.12","8181","ListA","woman","english","","","","null","","","","","",""
"null","<img src='gifs/FemaleRace4a.gif' style='height:400px;''></img>","","html-keyboard-response","79","309238","0.0-13.0-1.12","8181","ListA","woman","english","","","","null","","","","","",""
"null","is praising","","html-keyboard-response","80","312254","0.0-13.0-2.12","8181","ListA","woman","english","","","","null","","","","","",""
"10576.199999928474","","","survey-text","81","322831","0.0-13.0-3.12","8181","ListA","woman","english","","","","","{""Q0"":""jane is praising beth""}","<img src='gifs/FemaleRace4a.gif' style='height:400px;''></img>","praising","is praising","english",""
"null","<div style=""font-size:60px;"">+</div>","","html-keyboard-response","82","323332","0.0-13.0-0.13","8181","ListA","woman","english","","","","null","","","","","",""
"null","<img src='gifs/MaleRace2a.gif' style='height:400px;''></img>","","html-keyboard-response","83","325341","0.0-13.0-1.13","8181","ListA","woman","english","","","","null","","","","","",""
"null","is listening to","","html-keyboard-response","84","328350","0.0-13.0-2.13","8181","ListA","woman","english","","","","null","","","","","",""
"11471.699999928474","","","survey-text","85","339824","0.0-13.0-3.13","8181","ListA","woman","english","","","","","{""Q0"":""fred is listening to dave""}","<img src='gifs/MaleRace2a.gif' style='height:400px;''></img>","listening to","is listening to","english",""
"null","<div style=""font-size:60px;"">+</div>","","html-keyboard-response","86","340325","0.0-13.0-0.14","8181","ListA","woman","english","","","","null","","","","","",""
"null","<img src='gifs/MaleRace4a.gif' style='height:400px;''></img>","","html-keyboard-response","87","342326","0.0-13.0-1.14","8181","ListA","woman","english","","","","null","","","","","",""
"null","is employing","","html-keyboard-response","88","345327","0.0-13.0-2.14","8181","ListA","woman","english","","","","null","","","","","",""
"11539","","","survey-text","89","356867","0.0-13.0-3.14","8181","ListA","woman","english","","","","","{""Q0"":""dave is employing mike""}","<img src='gifs/MaleRace4a.gif' style='height:400px;''></img>","employing","is employing","english",""
"null","<div style=""font-size:60px;"">+</div>","","html-keyboard-response","90","357369","0.0-13.0-0.15","8181","ListA","woman","english","","","","null","","","","","",""
"null","<img src='gifs/BlackGender2a.gif' style='height:400px;''></img>","","html-keyboard-response","91","359375","0.0-13.0-1.15","8181","ListA","woman","english","","","","null","","","","","",""
"null","is employing","","html-keyboard-response","92","362377","0.0-13.0-2.15","8181","ListA","woman","english","","","","null","","","","","",""
"8964.600000023842","","","survey-text","93","371343","0.0-13.0-3.15","8181","ListA","woman","english","","","","","{""Q0"":""ruth is employing dave""}","<img src='gifs/BlackGender2a.gif' style='height:400px;''></img>","employing","is employing","english",""
"null","<div style=""font-size:60px;"">+</div>","","html-keyboard-response","94","371845","0.0-13.0-0.16","8181","ListA","woman","english","","","","null","","","","","",""
"null","<img src='gifs/BlackGender4b.gif' style='height:400px;''></img>","","html-keyboard-response","95","373846","0.0-13.0-1.16","8181","ListA","woman","english","","","","null","","","","","",""
"null","is listening to","","html-keyboard-response","96","376847","0.0-13.0-2.16","8181","ListA","woman","english","","","","null","","","","","",""
"12220.799999952316","","","survey-text","97","389069","0.0-13.0-3.16","8181","ListA","woman","english","","","","","{""Q0"":""dave is listening to jane""}","<img src='gifs/BlackGender4b.gif' style='height:400px;''></img>","listening to","is listening to","english",""
"null","<div style=""font-size:60px;"">+</div>","","html-keyboard-response","98","389582","0.0-13.0-0.17","8181","ListA","woman","english","","","","null","","","","","",""
"null","<img src='gifs/ChineseGender2b.gif' style='height:400px;''></img>","","html-keyboard-response","99","391591","0.0-13.0-1.17","8181","ListA","woman","english","","","","null","","","","","",""
"null","is joining","","html-keyboard-response","100","394599","0.0-13.0-2.17","8181","ListA","woman","english","","","","null","","","","","",""
"6643.300000071526","","","survey-text","101","401243","0.0-13.0-3.17","8181","ListA","woman","english","","","","","{""Q0"":""fred is joining beth""}","<img src='gifs/ChineseGender2b.gif' style='height:400px;''></img>","join","is joining","english",""
"4001.899999976158","<img src='img/portrait_matrix_listA.jpg' style='width:900px;height:500px;''></img><p>If you have memorised all the portraits and names and are ready to start, press Continue.</p><p><strong>Please note: Your memory of these faces will be tested 5 times during this experiment.</strong></p>","0","html-button-response","102","405246","0.0-14.0-0.0","8181","ListA","woman","english","","","","","","","","","",""
"1528.8999999761581","<img src=""portrait/WW2.jpg""style=""height:400px;""></img>","3","html-button-response","103","407777","0.0-14.0-1.0","8181","ListA","woman","english","","true","3","","","","","","",""
"null","CORRECT","","html-keyboard-response","104","409288","0.0-14.0-2.0-0.0","8181","ListA","woman","english","","","","null","","","","","",""
"2553.8000000715256","<img src=""portrait/BM1.jpg""style=""height:400px;""></img>","4","html-button-response","105","411842","0.0-14.0-4.0","8181","ListA","woman","english","","true","4","","","","","","",""
"null","CORRECT","","html-keyboard-response","106","413352","0.0-14.0-5.0-0.0","8181","ListA","woman","english","","","","null","","","","","",""
"2974.7000000476837","<img src=""portrait/BW2.jpg""style=""height:400px;""></img>","2","html-button-response","107","416328","0.0-14.0-7.0","8181","ListA","woman","english","","true","2","","","","","","",""
"null","CORRECT","","html-keyboard-response","108","417831","0.0-14.0-8.0-0.0","8181","ListA","woman","english","","","","null","","","","","",""
"1370.3999999761581","<img src=""portrait/WM2.jpg""style=""height:400px;""></img>","7","html-button-response","109","419202","0.0-14.0-10.0","8181","ListA","woman","english","","true","7","","","","","","",""
"null","CORRECT","","html-keyboard-response","110","420704","0.0-14.0-11.0-0.0","8181","ListA","woman","english","","","","null","","","","","",""
"2059.100000023842","<img src=""portrait/WW1.jpg""style=""height:400px;""></img>","1","html-button-response","111","422764","0.0-14.0-13.0","8181","ListA","woman","english","","true","1","","","","","","",""
"null","CORRECT","","html-keyboard-response","112","424271","0.0-14.0-14.0-0.0","8181","ListA","woman","english","","","","null","","","","","",""
"1353.5","<img src=""portrait/BW1.jpg""style=""height:400px;""></img>","0","html-button-response","113","425626","0.0-14.0-16.0","8181","ListA","woman","english","","true","0","","","","","","",""
"null","CORRECT","","html-keyboard-response","114","427135","0.0-14.0-17.0-0.0","8181","ListA","woman","english","","","","null","","","","","",""
"1789.3000000715256","<img src=""portrait/BM2.jpg""style=""height:400px;""></img>","5","html-button-response","115","428925","0.0-14.0-19.0","8181","ListA","woman","english","","true","5","","","","","","",""
"null","CORRECT","","html-keyboard-response","116","430439","0.0-14.0-20.0-0.0","8181","ListA","woman","english","","","","null","","","","","",""
"1456.8999999761581","<img src=""portrait/WM1.jpg""style=""height:400px;""></img>","6","html-button-response","117","431897","0.0-14.0-22.0","8181","ListA","woman","english","","true","6","","","","","","",""
"null","CORRECT","","html-keyboard-response","118","433399","0.0-14.0-23.0-0.0","8181","ListA","woman","english","","","","null","","","","","",""
"1170.1000000238419","<p>You got 8 out of 8 right first time. Press Continue.</p>","0","html-button-response","119","434570","0.0-14.0-25.0","8181","ListA","woman","english","","","","","","","","","",""
"null","<div style=""font-size:60px;"">+</div>","","html-keyboard-response","120","436081","0.0-15.0-0.0","8181","ListA","woman","english","","","","null","","","","","",""
"null","<img src='gifs/BlackGender4a.gif' style='height:400px;''></img>","","html-keyboard-response","121","438090","0.0-15.0-1.0","8181","ListA","woman","english","","","","null","","","","","",""
"null","is approaching","","html-keyboard-response","122","441092","0.0-15.0-2.0","8181","ListA","woman","english","","","","null","","","","","",""
"6917","","","survey-text","123","448010","0.0-15.0-3.0","8181","ListA","woman","english","","","","","{""Q0"":""jane is approaching dave""}","<img src='gifs/BlackGender4a.gif' style='height:400px;''></img>","approaching","is approaching","english",""
"null","<div style=""font-size:60px;"">+</div>","","html-keyboard-response","124","448518","0.0-15.0-0.1","8181","ListA","woman","english","","","","null","","","","","",""
"null","<img src='gifs/ChineseGender4b.gif' style='height:400px;''></img>","","html-keyboard-response","125","450530","0.0-15.0-1.1","8181","ListA","woman","english","","","","null","","","","","",""
"null","is mentioning","","html-keyboard-response","126","453533","0.0-15.0-2.1","8181","ListA","woman","english","","","","null","","","","","",""
"8044.699999928474","","","survey-text","127","461579","0.0-15.0-3.1","8181","ListA","woman","english","","","","","{""Q0"":""kate is mentioning mike""}","<img src='gifs/ChineseGender4b.gif' style='height:400px;''></img>","mention","is mentioning","english",""
"null","<div style=""font-size:60px;"">+</div>","","html-keyboard-response","128","462087","0.0-15.0-0.2","8181","ListA","woman","english","","","","null","","","","","",""
"null","<img src='gifs/MaleRace1a.gif' style='height:400px;''></img>","","html-keyboard-response","129","464096","0.0-15.0-1.2","8181","ListA","woman","english","","","","null","","","","","",""
"null","is listening to","","html-keyboard-response","130","467098","0.0-15.0-2.2","8181","ListA","woman","english","","","","null","","","","","",""
"8606.5","","","survey-text","131","475707","0.0-15.0-3.2","8181","ListA","woman","english","","","","","{""Q0"":""fred is listening to luke""}","<img src='gifs/MaleRace1a.gif' style='height:400px;''></img>","listening to","is listening to","english",""
"null","<div style=""font-size:60px;"">+</div>","","html-keyboard-response","132","476216","0.0-15.0-0.3","8181","ListA","woman","english","","","","null","","","","","",""
"null","<img src='gifs/BlackGender3a.gif' style='height:400px;''></img>","","html-keyboard-response","133","478231","0.0-15.0-1.3","8181","ListA","woman","english","","","","null","","","","","",""
"null","is promising","","html-keyboard-response","134","481244","0.0-15.0-2.3","8181","ListA","woman","english","","","","null","","","","","",""
"10902.100000023842","","","survey-text","135","492147","0.0-15.0-3.3","8181","ListA","woman","english","","","","","{""Q0"":""jane is promising luke""}","<img src='gifs/BlackGender3a.gif' style='height:400px;''></img>","promising","is promising","english",""
"null","<div style=""font-size:60px;"">+</div>","","html-keyboard-response","136","492661","0.0-15.0-0.4","8181","ListA","woman","english","","","","null","","","","","",""
"null","<img src='gifs/BlackGender3b.gif' style='height:400px;''></img>","","html-keyboard-response","137","494665","0.0-15.0-1.4","8181","ListA","woman","english","","","","null","","","","","",""
"null","is convincing","","html-keyboard-response","138","497677","0.0-15.0-2.4","8181","ListA","woman","english","","","","null","","","","","",""
"6654.899999976158","","","survey-text","139","504333","0.0-15.0-3.4","8181","ListA","woman","english","","","","","{""Q0"":""jane is convincing luke""}","<img src='gifs/BlackGender3b.gif' style='height:400px;''></img>","convincing","is convincing","english",""
"null","<div style=""font-size:60px;"">+</div>","","html-keyboard-response","140","504836","0.0-15.0-0.5","8181","ListA","woman","english","","","","null","","","","","",""
"null","<img src='gifs/FemaleRace4b.gif' style='height:400px;''></img>","","html-keyboard-response","141","506838","0.0-15.0-1.5","8181","ListA","woman","english","","","","null","","","","","",""
"null","is following","","html-keyboard-response","142","509844","0.0-15.0-2.5","8181","ListA","woman","english","","","","null","","","","","",""
"8948","","","survey-text","143","518793","0.0-15.0-3.5","8181","ListA","woman","english","","","","","{""Q0"":""beth is following jane""}","<img src='gifs/FemaleRace4b.gif' style='height:400px;''></img>","following","is following","english",""
"null","<div style=""font-size:60px;"">+</div>","","html-keyboard-response","144","519304","0.0-15.0-0.6","8181","ListA","woman","english","","","","null","","","","","",""
"null","<img src='gifs/BlackGender2a.gif' style='height:400px;''></img>","","html-keyboard-response","145","521315","0.0-15.0-1.6","8181","ListA","woman","english","","","","null","","","","","",""
"null","is looking at","","html-keyboard-response","146","524324","0.0-15.0-2.6","8181","ListA","woman","english","","","","null","","","","","",""
"12797.600000023842","","","survey-text","147","537124","0.0-15.0-3.6","8181","ListA","woman","english","","","","","{""Q0"":""ruth is looking at dave""}","<img src='gifs/BlackGender2a.gif' style='height:400px;''></img>","looking at","is looking at","english",""
"null","<div style=""font-size:60px;"">+</div>","","html-keyboard-response","148","537626","0.0-15.0-0.7","8181","ListA","woman","english","","","","null","","","","","",""
"null","<img src='gifs/ChineseGender1b.gif' style='height:400px;''></img>","","html-keyboard-response","149","539631","0.0-15.0-1.7","8181","ListA","woman","english","","","","null","","","","","",""
"null","is looking at","","html-keyboard-response","150","542635","0.0-15.0-2.7","8181","ListA","woman","english","","","","null","","","","","",""
"6401.5","","","survey-text","151","549038","0.0-15.0-3.7","8181","ListA","woman","english","","","","","{""Q0"":""kate is looking at fred""}","<img src='gifs/ChineseGender1b.gif' style='height:400px;''></img>","looking at","is looking at","english",""
"null","<div style=""font-size:60px;"">+</div>","","html-keyboard-response","152","549539","0.0-15.0-0.8","8181","ListA","woman","english","","","","null","","","","","",""
"null","<img src='gifs/ChineseGender3a.gif' style='height:400px;''></img>","","html-keyboard-response","153","551540","0.0-15.0-1.8","8181","ListA","woman","english","","","","null","","","","","",""
"null","is convincing","","html-keyboard-response","154","554543","0.0-15.0-2.8","8181","ListA","woman","english","","","","null","","","","","",""
"9487.5","","","survey-text","155","564033","0.0-15.0-3.8","8181","ListA","woman","english","","","","","{""Q0"":""beth is convincing mike""}","<img src='gifs/ChineseGender3a.gif' style='height:400px;''></img>","convincing","is convincing","english",""
"null","<div style=""font-size:60px;"">+</div>","","html-keyboard-response","156","564535","0.0-15.0-0.9","8181","ListA","woman","english","","","","null","","","","","",""
"null","<img src='gifs/FemaleRace3a.gif' style='height:400px;''></img>","","html-keyboard-response","157","566536","0.0-15.0-1.9","8181","ListA","woman","english","","","","null","","","","","",""
"null","is accompanying","","html-keyboard-response","158","569551","0.0-15.0-2.9","8181","ListA","woman","english","","","","null","","","","","",""
"8635.300000071526","","","survey-text","159","578188","0.0-15.0-3.9","8181","ListA","woman","english","","","","","{""Q0"":""beth is accompanying ruth""}","<img src='gifs/FemaleRace3a.gif' style='height:400px;''></img>","accompanying","is accompanying","english",""
"null","<div style=""font-size:60px;"">+</div>","","html-keyboard-response","160","578690","0.0-15.0-0.10","8181","ListA","woman","english","","","","null","","","","","",""
"null","<img src='gifs/FemaleRace4a.gif' style='height:400px;''></img>","","html-keyboard-response","161","580690","0.0-15.0-1.10","8181","ListA","woman","english","","","","null","","","","","",""
"null","is mentioning","","html-keyboard-response","162","583694","0.0-15.0-2.10","8181","ListA","woman","english","","","","null","","","","","",""
"8597","","","survey-text","163","592293","0.0-15.0-3.10","8181","ListA","woman","english","","","","","{""Q0"":""jane is mentioning beth""}","<img src='gifs/FemaleRace4a.gif' style='height:400px;''></img>","mention","is mentioning","english",""
"null","<div style=""font-size:60px;"">+</div>","","html-keyboard-response","164","592795","0.0-15.0-0.11","8181","ListA","woman","english","","","","null","","","","","",""
"null","<img src='gifs/FemaleRace1b.gif' style='height:400px;''></img>","","html-keyboard-response","165","594811","0.0-15.0-1.11","8181","ListA","woman","english","","","","null","","","","","",""
"null","is contacting","","html-keyboard-response","166","597823","0.0-15.0-2.11","8181","ListA","woman","english","","","","null","","","","","",""
"11093.600000023842","","","survey-text","167","608917","0.0-15.0-3.11","8181","ListA","woman","english","","","","","{""Q0"":""kate is contacting ruth""}","<img src='gifs/FemaleRace1b.gif' style='height:400px;''></img>","contacting","is contacting","english",""
"null","<div style=""font-size:60px;"">+</div>","","html-keyboard-response","168","609418","0.0-15.0-0.12","8181","ListA","woman","english","","","","null","","","","","",""
"null","<img src='gifs/ChineseGender3a.gif' style='height:400px;''></img>","","html-keyboard-response","169","611426","0.0-15.0-1.12","8181","ListA","woman","english","","","","null","","","","","",""
"null","is touching","","html-keyboard-response","170","614428","0.0-15.0-2.12","8181","ListA","woman","english","","","","null","","","","","",""
"5377.399999976158","","","survey-text","171","619806","0.0-15.0-3.12","8181","ListA","woman","english","","","","","{""Q0"":""beth is touching mike""}","<img src='gifs/ChineseGender3a.gif' style='height:400px;''></img>","touching","is touching","english",""
"null","<div style=""font-size:60px;"">+</div>","","html-keyboard-response","172","620308","0.0-15.0-0.13","8181","ListA","woman","english","","","","null","","","","","",""
"null","<img src='gifs/ChineseGender2a.gif' style='height:400px;''></img>","","html-keyboard-response","173","622309","0.0-15.0-1.13","8181","ListA","woman","english","","","","null","","","","","",""
"null","is promising","","html-keyboard-response","174","625311","0.0-15.0-2.13","8181","ListA","woman","english","","","","null","","","","","",""
"17711.199999928474","","","survey-text","175","643023","0.0-15.0-3.13","8181","ListA","woman","english","","","","","{""Q0"":""beth is promising fred""}","<img src='gifs/ChineseGender2a.gif' style='height:400px;''></img>","promising","is promising","english",""
"null","<div style=""font-size:60px;"">+</div>","","html-keyboard-response","176","643525","0.0-15.0-0.14","8181","ListA","woman","english","","","","null","","","","","",""
"null","<img src='gifs/MaleRace1b.gif' style='height:400px;''></img>","","html-keyboard-response","177","645540","0.0-15.0-1.14","8181","ListA","woman","english","","","","null","","","","","",""
"null","is accompanying","","html-keyboard-response","178","648544","0.0-15.0-2.14","8181","ListA","woman","english","","","","null","","","","","",""
"12735.399999976158","","","survey-text","179","661282","0.0-15.0-3.14","8181","ListA","woman","english","","","","","{""Q0"":""luke is accompany fred""}","<img src='gifs/MaleRace1b.gif' style='height:400px;''></img>","accompanying","is accompanying","english",""
"null","<div style=""font-size:60px;"">+</div>","","html-keyboard-response","180","661783","0.0-15.0-0.15","8181","ListA","woman","english","","","","null","","","","","",""
"null","<img src='gifs/BlackGender3a.gif' style='height:400px;''></img>","","html-keyboard-response","181","663785","0.0-15.0-1.15","8181","ListA","woman","english","","","","null","","","","","",""
"null","is walking towards","","html-keyboard-response","182","666785","0.0-15.0-2.15","8181","ListA","woman","english","","","","null","","","","","",""
"11508.5","","","survey-text","183","678295","0.0-15.0-3.15","8181","ListA","woman","english","","","","","{""Q0"":""jane is walking towards luke""}","<img src='gifs/BlackGender3a.gif' style='height:400px;''></img>","walking towards","is walking towards","english",""
"null","<div style=""font-size:60px;"">+</div>","","html-keyboard-response","184","678806","0.0-15.0-0.16","8181","ListA","woman","english","","","","null","","","","","",""
"null","<img src='gifs/FemaleRace2a.gif' style='height:400px;''></img>","","html-keyboard-response","185","680807","0.0-15.0-1.16","8181","ListA","woman","english","","","","null","","","","","",""
"null","is promising","","html-keyboard-response","186","683810","0.0-15.0-2.16","8181","ListA","woman","english","","","","null","","","","","",""
"8383.899999976158","","","survey-text","187","692196","0.0-15.0-3.16","8181","ListA","woman","english","","","","","{""Q0"":""jane is promising kate""}","<img src='gifs/FemaleRace2a.gif' style='height:400px;''></img>","promising","is promising","english",""
"null","<div style=""font-size:60px;"">+</div>","","html-keyboard-response","188","692710","0.0-15.0-0.17","8181","ListA","woman","english","","","","null","","","","","",""
"null","<img src='gifs/FemaleRace3b.gif' style='height:400px;''></img>","","html-keyboard-response","189","694712","0.0-15.0-1.17","8181","ListA","woman","english","","","","null","","","","","",""
"null","is facing","","html-keyboard-response","190","697713","0.0-15.0-2.17","8181","ListA","woman","english","","","","null","","","","","",""
"5728.800000071526","","","survey-text","191","703443","0.0-15.0-3.17","8181","ListA","woman","english","","","","","{""Q0"":""beth is facing ruth""}","<img src='gifs/FemaleRace3b.gif' style='height:400px;''></img>","facing","is facing","english",""
"1683.1999999284744","<img src='img/portrait_matrix_listA.jpg' style='width:900px;height:500px;''></img><p>If you have memorised all the portraits and names and are ready to start, press Continue.</p><p><strong>Please note: Your memory of these faces will be tested 5 times during this experiment.</strong></p>","0","html-button-response","192","705127","0.0-16.0-0.0","8181","ListA","woman","english","","","","","","","","","",""
"2063.5","<img src=""portrait/WM2.jpg""style=""height:400px;""></img>","7","html-button-response","193","708204","0.0-16.0-1.0","8181","ListA","woman","english","","true","7","","","","","","",""
"null","CORRECT","","html-keyboard-response","194","709706","0.0-16.0-2.0-0.0","8181","ListA","woman","english","","","","null","","","","","",""
"1792.5","<img src=""portrait/BM1.jpg""style=""height:400px;""></img>","4","html-button-response","195","711500","0.0-16.0-4.0","8181","ListA","woman","english","","true","4","","","","","","",""
"null","CORRECT","","html-keyboard-response","196","713001","0.0-16.0-5.0-0.0","8181","ListA","woman","english","","","","null","","","","","",""
"1507.6000000238419","<img src=""portrait/WW1.jpg""style=""height:400px;""></img>","1","html-button-response","197","714510","0.0-16.0-7.0","8181","ListA","woman","english","","true","1","","","","","","",""
"null","CORRECT","","html-keyboard-response","198","716012","0.0-16.0-8.0-0.0","8181","ListA","woman","english","","","","null","","","","","",""
"2019.2999999523163","<img src=""portrait/WW2.jpg""style=""height:400px;""></img>","3","html-button-response","199","718033","0.0-16.0-10.0","8181","ListA","woman","english","","true","3","","","","","","",""
"null","CORRECT","","html-keyboard-response","200","719536","0.0-16.0-11.0-0.0","8181","ListA","woman","english","","","","null","","","","","",""
"3531.399999976158","<img src=""portrait/BM2.jpg""style=""height:400px;""></img>","5","html-button-response","201","723068","0.0-16.0-13.0","8181","ListA","woman","english","","true","5","","","","","","",""
"null","CORRECT","","html-keyboard-response","202","724580","0.0-16.0-14.0-0.0","8181","ListA","woman","english","","","","null","","","","","",""
"2505.399999976158","<img src=""portrait/BW2.jpg""style=""height:400px;""></img>","2","html-button-response","203","727087","0.0-16.0-16.0","8181","ListA","woman","english","","true","2","","","","","","",""
"null","CORRECT","","html-keyboard-response","204","728597","0.0-16.0-17.0-0.0","8181","ListA","woman","english","","","","null","","","","","",""
"3510.5","<img src=""portrait/WM1.jpg""style=""height:400px;""></img>","6","html-button-response","205","732108","0.0-16.0-19.0","8181","ListA","woman","english","","true","6","","","","","","",""
"null","CORRECT","","html-keyboard-response","206","733611","0.0-16.0-20.0-0.0","8181","ListA","woman","english","","","","null","","","","","",""
"2194.7000000476837","<img src=""portrait/BW1.jpg""style=""height:400px;""></img>","0","html-button-response","207","735807","0.0-16.0-22.0","8181","ListA","woman","english","","true","0","","","","","","",""
"null","CORRECT","","html-keyboard-response","208","737309","0.0-16.0-23.0-0.0","8181","ListA","woman","english","","","","null","","","","","",""
"1428.2999999523163","<p>You got 8 out of 8 right first time. Press Continue.</p>","0","html-button-response","209","738738","0.0-16.0-25.0","8181","ListA","woman","english","","","","","","","","","",""
"null","<div style=""font-size:60px;"">+</div>","","html-keyboard-response","210","740240","0.0-17.0-0.0","8181","ListA","woman","english","","","","null","","","","","",""
"null","<img src='gifs/FemaleRace1b.gif' style='height:400px;''></img>","","html-keyboard-response","211","742242","0.0-17.0-1.0","8181","ListA","woman","english","","","","null","","","","","",""
"null","is praising","","html-keyboard-response","212","745247","0.0-17.0-2.0","8181","ListA","woman","english","","","","null","","","","","",""
"24942.800000071526","","","survey-text","213","770191","0.0-17.0-3.0","8181","ListA","woman","english","","","","","{""Q0"":""kate is appraising ruth ""}","<img src='gifs/FemaleRace1b.gif' style='height:400px;''></img>","praising","is praising","english",""
"null","<div style=""font-size:60px;"">+</div>","","html-keyboard-response","214","770693","0.0-17.0-0.1","8181","ListA","woman","english","","","","null","","","","","",""
"null","<img src='gifs/ChineseGender3b.gif' style='height:400px;''></img>","","html-keyboard-response","215","772704","0.0-17.0-1.1","8181","ListA","woman","english","","","","null","","","","","",""
"null","is promising","","html-keyboard-response","216","775708","0.0-17.0-2.1","8181","ListA","woman","english","","","","null","","","","","",""
"9027.199999928474","","","survey-text","217","784737","0.0-17.0-3.1","8181","ListA","woman","english","","","","","{""Q0"":""beth is promising mike""}","<img src='gifs/ChineseGender3b.gif' style='height:400px;''></img>","promising","is promising","english",""
"null","<div style=""font-size:60px;"">+</div>","","html-keyboard-response","218","785238","0.0-17.0-0.2","8181","ListA","woman","english","","","","null","","","","","",""
"null","<img src='gifs/ChineseGender1a.gif' style='height:400px;''></img>","","html-keyboard-response","219","787245","0.0-17.0-1.2","8181","ListA","woman","english","","","","null","","","","","",""
"null","is facing","","html-keyboard-response","220","790258","0.0-17.0-2.2","8181","ListA","woman","english","","","","null","","","","","",""
"15052.799999952316","","","survey-text","221","805312","0.0-17.0-3.2","8181","ListA","woman","english","","","","","{""Q0"":""kate is facing mike""}","<img src='gifs/ChineseGender1a.gif' style='height:400px;''></img>","facing","is facing","english",""
"null","<div style=""font-size:60px;"">+</div>","","html-keyboard-response","222","805813","0.0-17.0-0.3","8181","ListA","woman","english","","","","null","","","","","",""
"null","<img src='gifs/FemaleRace3a.gif' style='height:400px;''></img>","","html-keyboard-response","223","807815","0.0-17.0-1.3","8181","ListA","woman","english","","","","null","","","","","",""
"null","is praising","","html-keyboard-response","224","810817","0.0-17.0-2.3","8181","ListA","woman","english","","","","null","","","","","",""
"13105.299999952316","","","survey-text","225","823923","0.0-17.0-3.3","8181","ListA","woman","english","","","","","{""Q0"":""beth is praising ruth""}","<img src='gifs/FemaleRace3a.gif' style='height:400px;''></img>","praising","is praising","english",""
"null","<div style=""font-size:60px;"">+</div>","","html-keyboard-response","226","824425","0.0-17.0-0.4","8181","ListA","woman","english","","","","null","","","","","",""
"null","<img src='gifs/MaleRace3b.gif' style='height:400px;''></img>","","html-keyboard-response","227","826440","0.0-17.0-1.4","8181","ListA","woman","english","","","","null","","","","","",""
"null","is joining","","html-keyboard-response","228","829454","0.0-17.0-2.4","8181","ListA","woman","english","","","","null","","","","","",""
"6606","","","survey-text","229","836061","0.0-17.0-3.4","8181","ListA","woman","english","","","","","{""Q0"":""luke is joining mike""}","<img src='gifs/MaleRace3b.gif' style='height:400px;''></img>","join","is joining","english",""
"null","<div style=""font-size:60px;"">+</div>","","html-keyboard-response","230","836562","0.0-17.0-0.5","8181","ListA","woman","english","","","","null","","","","","",""
"null","<img src='gifs/FemaleRace1a.gif' style='height:400px;''></img>","","html-keyboard-response","231","838564","0.0-17.0-1.5","8181","ListA","woman","english","","","","null","","","","","",""
"null","is contacting","","html-keyboard-response","232","841571","0.0-17.0-2.5","8181","ListA","woman","english","","","","null","","","","","",""
"9423.600000023842","","","survey-text","233","850996","0.0-17.0-3.5","8181","ListA","woman","english","","","","","{""Q0"":""ruth is contacting kate""}","<img src='gifs/FemaleRace1a.gif' style='height:400px;''></img>","contacting","is contacting","english",""
"null","<div style=""font-size:60px;"">+</div>","","html-keyboard-response","234","851511","0.0-17.0-0.6","8181","ListA","woman","english","","","","null","","","","","",""
"null","<img src='gifs/MaleRace2b.gif' style='height:400px;''></img>","","html-keyboard-response","235","853514","0.0-17.0-1.6","8181","ListA","woman","english","","","","null","","","","","",""
"null","is approaching","","html-keyboard-response","236","856529","0.0-17.0-2.6","8181","ListA","woman","english","","","","null","","","","","",""
"7657.100000023842","","","survey-text","237","864187","0.0-17.0-3.6","8181","ListA","woman","english","","","","","{""Q0"":""fred is approaching dave""}","<img src='gifs/MaleRace2b.gif' style='height:400px;''></img>","approaching","is approaching","english",""
"null","<div style=""font-size:60px;"">+</div>","","html-keyboard-response","238","864697","0.0-17.0-0.7","8181","ListA","woman","english","","","","null","","","","","",""
"null","<img src='gifs/BlackGender4a.gif' style='height:400px;''></img>","","html-keyboard-response","239","866709","0.0-17.0-1.7","8181","ListA","woman","english","","","","null","","","","","",""
"null","is approaching","","html-keyboard-response","240","869724","0.0-17.0-2.7","8181","ListA","woman","english","","","","null","","","","","",""
"8295.799999952316","","","survey-text","241","878021","0.0-17.0-3.7","8181","ListA","woman","english","","","","","{""Q0"":""jane is approaching dave""}","<img src='gifs/BlackGender4a.gif' style='height:400px;''></img>","approaching","is approaching","english",""
"null","<div style=""font-size:60px;"">+</div>","","html-keyboard-response","242","878535","0.0-17.0-0.8","8181","ListA","woman","english","","","","null","","","","","",""
"null","<img src='gifs/ChineseGender3b.gif' style='height:400px;''></img>","","html-keyboard-response","243","880539","0.0-17.0-1.8","8181","ListA","woman","english","","","","null","","","","","",""
"null","is following","","html-keyboard-response","244","883541","0.0-17.0-2.8","8181","ListA","woman","english","","","","null","","","","","",""
"7005.299999952316","","","survey-text","245","890548","0.0-17.0-3.8","8181","ListA","woman","english","","","","","{""Q0"":""beth is following mike""}","<img src='gifs/ChineseGender3b.gif' style='height:400px;''></img>","following","is following","english",""
"null","<div style=""font-size:60px;"">+</div>","","html-keyboard-response","246","891051","0.0-17.0-0.9","8181","ListA","woman","english","","","","null","","","","","",""
"null","<img src='gifs/BlackGender3b.gif' style='height:400px;''></img>","","html-keyboard-response","247","893058","0.0-17.0-1.9","8181","ListA","woman","english","","","","null","","","","","",""
"null","is walking towards","","html-keyboard-response","248","896058","0.0-17.0-2.9","8181","ListA","woman","english","","","","null","","","","","",""
"8936.700000047684","","","survey-text","249","904995","0.0-17.0-3.9","8181","ListA","woman","english","","","","","{""Q0"":""jane is walking towards luke""}","<img src='gifs/BlackGender3b.gif' style='height:400px;''></img>","walking towards","is walking towards","english",""
"null","<div style=""font-size:60px;"">+</div>","","html-keyboard-response","250","905500","0.0-17.0-0.10","8181","ListA","woman","english","","","","null","","","","","",""
"null","<img src='gifs/BlackGender2b.gif' style='height:400px;''></img>","","html-keyboard-response","251","907509","0.0-17.0-1.10","8181","ListA","woman","english","","","","null","","","","","",""
"null","is following","","html-keyboard-response","252","910511","0.0-17.0-2.10","8181","ListA","woman","english","","","","null","","","","","",""
"6841.899999976158","","","survey-text","253","917354","0.0-17.0-3.10","8181","ListA","woman","english","","","","","{""Q0"":""ruth is following dave""}","<img src='gifs/BlackGender2b.gif' style='height:400px;''></img>","following","is following","english",""
"null","<div style=""font-size:60px;"">+</div>","","html-keyboard-response","254","917855","0.0-17.0-0.11","8181","ListA","woman","english","","","","null","","","","","",""
"null","<img src='gifs/MaleRace3a.gif' style='height:400px;''></img>","","html-keyboard-response","255","919862","0.0-17.0-1.11","8181","ListA","woman","english","","","","null","","","","","",""
"null","is facing","","html-keyboard-response","256","922869","0.0-17.0-2.11","8181","ListA","woman","english","","","","null","","","","","",""
"4765.799999952316","","","survey-text","257","927637","0.0-17.0-3.11","8181","ListA","woman","english","","","","","{""Q0"":""mike is facing luke""}","<img src='gifs/MaleRace3a.gif' style='height:400px;''></img>","facing","is facing","english",""
"null","<div style=""font-size:60px;"">+</div>","","html-keyboard-response","258","928138","0.0-17.0-0.12","8181","ListA","woman","english","","","","null","","","","","",""
"null","<img src='gifs/MaleRace3a.gif' style='height:400px;''></img>","","html-keyboard-response","259","930140","0.0-17.0-1.12","8181","ListA","woman","english","","","","null","","","","","",""
"null","is following","","html-keyboard-response","260","933150","0.0-17.0-2.12","8181","ListA","woman","english","","","","null","","","","","",""
"5620.399999976158","","","survey-text","261","938771","0.0-17.0-3.12","8181","ListA","woman","english","","","","","{""Q0"":""mike is following luke""}","<img src='gifs/MaleRace3a.gif' style='height:400px;''></img>","following","is following","english",""
"null","<div style=""font-size:60px;"">+</div>","","html-keyboard-response","262","939273","0.0-17.0-0.13","8181","ListA","woman","english","","","","null","","","","","",""
"null","<img src='gifs/ChineseGender2a.gif' style='height:400px;''></img>","","html-keyboard-response","263","941287","0.0-17.0-1.13","8181","ListA","woman","english","","","","null","","","","","",""
"null","is introducing","","html-keyboard-response","264","944297","0.0-17.0-2.13","8181","ListA","woman","english","","","","null","","","","","",""
"16463.5","","","survey-text","265","960762","0.0-17.0-3.13","8181","ListA","woman","english","","","","","{""Q0"":""fred is introducing kate""}","<img src='gifs/ChineseGender2a.gif' style='height:400px;''></img>","introducing","is introducing","english",""
"null","<div style=""font-size:60px;"">+</div>","","html-keyboard-response","266","961263","0.0-17.0-0.14","8181","ListA","woman","english","","","","null","","","","","",""
"null","<img src='gifs/BlackGender1a.gif' style='height:400px;''></img>","","html-keyboard-response","267","963273","0.0-17.0-1.14","8181","ListA","woman","english","","","","null","","","","","",""
"null","is looking at","","html-keyboard-response","268","966288","0.0-17.0-2.14","8181","ListA","woman","english","","","","null","","","","","",""
"8258.100000023842","","","survey-text","269","974547","0.0-17.0-3.14","8181","ListA","woman","english","","","","","{""Q0"":""ruth is looking at luke""}","<img src='gifs/BlackGender1a.gif' style='height:400px;''></img>","looking at","is looking at","english",""
"null","<div style=""font-size:60px;"">+</div>","","html-keyboard-response","270","975061","0.0-17.0-0.15","8181","ListA","woman","english","","","","null","","","","","",""
"null","<img src='gifs/ChineseGender4a.gif' style='height:400px;''></img>","","html-keyboard-response","271","977077","0.0-17.0-1.15","8181","ListA","woman","english","","","","null","","","","","",""
"null","is contacting","","html-keyboard-response","272","980079","0.0-17.0-2.15","8181","ListA","woman","english","","","","null","","","","","",""
"6051.699999928474","","","survey-text","273","986132","0.0-17.0-3.15","8181","ListA","woman","english","","","","","{""Q0"":""kate is contacting mike""}","<img src='gifs/ChineseGender4a.gif' style='height:400px;''></img>","contacting","is contacting","english",""
"null","<div style=""font-size:60px;"">+</div>","","html-keyboard-response","274","986640","0.0-17.0-0.16","8181","ListA","woman","english","","","","null","","","","","",""
"null","<img src='gifs/FemaleRace4b.gif' style='height:400px;''></img>","","html-keyboard-response","275","988649","0.0-17.0-1.16","8181","ListA","woman","english","","","","null","","","","","",""
"null","is contacting","","html-keyboard-response","276","991652","0.0-17.0-2.16","8181","ListA","woman","english","","","","null","","","","","",""
"5320.5","","","survey-text","277","996974","0.0-17.0-3.16","8181","ListA","woman","english","","","","","{""Q0"":""beth is contacting jane""}","<img src='gifs/FemaleRace4b.gif' style='height:400px;''></img>","contacting","is contacting","english",""
"null","<div style=""font-size:60px;"">+</div>","","html-keyboard-response","278","997481","0.0-17.0-0.17","8181","ListA","woman","english","","","","null","","","","","",""
"null","<img src='gifs/FemaleRace2a.gif' style='height:400px;''></img>","","html-keyboard-response","279","999483","0.0-17.0-1.17","8181","ListA","woman","english","","","","null","","","","","",""
"null","is convincing","","html-keyboard-response","280","1002484","0.0-17.0-2.17","8181","ListA","woman","english","","","","null","","","","","",""
"5840.099999904633","","","survey-text","281","1008325","0.0-17.0-3.17","8181","ListA","woman","english","","","","","{""Q0"":""jane is convincing kate""}","<img src='gifs/FemaleRace2a.gif' style='height:400px;''></img>","convincing","is convincing","english",""
"3411.7999999523163","<p>Thank you for completing that task.</p><p>The final part of this session is a short questionnaire.</p><p>Press Continue.</p>","0","html-button-response","282","1011738","0.0-18.0","8181","ListA","woman","english","","","","","","","","","",""
"33149.699999928474","","","survey-text","283","1045900","0.0-19.0","8181","ListA","woman","english","","","","","{""Q0"":""23"",""Q1"":""Chinese"",""Q2"":""Chinese"",""Q3"":""UK"",""Q4"":""Chinese "",""Q5"":""Chinese"",""Q6"":""Female""}","","","","","demographics"
"12318.599999904633","","","external-html","284","1058375","0.0-20.0","8181","ListA","woman","english","debrief.html","","","","","","","","",""
"20025.199999928474","","","survey-text","285","1078402","0.0-21.0","8181","ListA","woman","english","","","","","{""Q0"":""EFA3""}","","","","","worker_id"
