"rt","stimulus","button_pressed","trial_type","trial_index","time_elapsed","internal_node_id","subject","list","ppt_gender","ppt_language","ptptID","url","first_guess","correct","key_press","responses","image","verb","phrase","condition","test_part"
"20437.399999976158","Welcome to the experiment. Press Continue to begin.","0","html-button-response","0","20439","0.0-0.0","87903","ListB","woman","chinese","CFB4","","","","","","","","","",""
"16049.900000035763","","","external-html","1","37533","0.0-1.0","87903","ListB","woman","chinese","CFB4","consent.html","","","","","","","","",""
"14919.199999988079","<p>在下一页中，您将看到8个人物肖像和他们各自的名字。</p><p>请花费几分钟的时间记住这些人物及其所对应的名字。</p><p>之后的实验中需要您对人物的名字做出回忆，</p><p>因此在实验开始前请确保您已 经完全记住这些人物及其所对应的名字。</p><p><strong>然后您将完成一个测试以检验您对人物和名字的记忆。</strong></p><p>完成此记忆测试后，您将正式进入实验。</p><p>准备好了吗？</p>","0","html-button-response","2","52453","0.0-2.0","87903","ListB","woman","chinese","CFB4","","","","","","","","","",""
"58497.19999998808","<img src='img/portrait_matrix_listB_chinese.jpg' style='width:900px;height:500px;''></img><p>如果您已经记住了所有的人物和名字，请点击继续。</p><p><strong>请注意：您对先前记忆的面孔将在本实验中被测试5次。</strong></p>","0","html-button-response","3","111959","0.0-3.0-0.0","87903","ListB","woman","chinese","CFB4","","","","","","","","","",""
"2793.7000000476837","<img src=""portrait/WW2.jpg""style=""height:400px;""></img>","3","html-button-response","4","115759","0.0-3.0-1.0","87903","ListB","woman","chinese","CFB4","","true","3","","","","","","",""
"null","正确","","html-keyboard-response","5","117295","0.0-3.0-2.0-0.0","87903","ListB","woman","chinese","CFB4","","","","null","","","","","",""
"2867.199999988079","<img src=""portrait/WW1.jpg""style=""height:400px;""></img>","1","html-button-response","6","120165","0.0-3.0-4.0","87903","ListB","woman","chinese","CFB4","","true","1","","","","","","",""
"null","正确","","html-keyboard-response","7","121676","0.0-3.0-5.0-0.0","87903","ListB","woman","chinese","CFB4","","","","null","","","","","",""
"2109.899999976158","<img src=""portrait/BM1.jpg""style=""height:400px;""></img>","4","html-button-response","8","123788","0.0-3.0-7.0","87903","ListB","woman","chinese","CFB4","","true","4","","","","","","",""
"null","正确","","html-keyboard-response","9","125306","0.0-3.0-8.0-0.0","87903","ListB","woman","chinese","CFB4","","","","null","","","","","",""
"2208.899999976158","<img src=""portrait/BW1.jpg""style=""height:400px;""></img>","2","html-button-response","10","127517","0.0-3.0-10.0","87903","ListB","woman","chinese","CFB4","","true","0","","","","","","",""
"4277.5","<img src=""portrait/BW1.jpg""style=""height:400px;""></img>","0","html-button-response","11","132809","0.0-3.0-12.0-0.0","87903","ListB","woman","chinese","CFB4","","false","0","","","","","","",""
"null","正确","","html-keyboard-response","12","134327","0.0-3.0-12.0-1.0-0.0","87903","ListB","woman","chinese","CFB4","","","","null","","","","","",""
"17585.900000035763","<img src=""portrait/BM2.jpg""style=""height:400px;""></img>","0","html-button-response","13","151915","0.0-3.0-13.0","87903","ListB","woman","chinese","CFB4","","true","5","","","","","","",""
"1955.0999999642372","<img src=""portrait/BM2.jpg""style=""height:400px;""></img>","5","html-button-response","14","154886","0.0-3.0-15.0-0.0","87903","ListB","woman","chinese","CFB4","","false","5","","","","","","",""
"null","正确","","html-keyboard-response","15","156406","0.0-3.0-15.0-1.0-0.0","87903","ListB","woman","chinese","CFB4","","","","null","","","","","",""
"4935.5","<img src=""portrait/BW2.jpg""style=""height:400px;""></img>","2","html-button-response","16","161344","0.0-3.0-16.0","87903","ListB","woman","chinese","CFB4","","true","2","","","","","","",""
"null","正确","","html-keyboard-response","17","162869","0.0-3.0-17.0-0.0","87903","ListB","woman","chinese","CFB4","","","","null","","","","","",""
"1576.5","<img src=""portrait/WM2.jpg""style=""height:400px;""></img>","7","html-button-response","18","164447","0.0-3.0-19.0","87903","ListB","woman","chinese","CFB4","","true","7","","","","","","",""
"null","正确","","html-keyboard-response","19","165973","0.0-3.0-20.0-0.0","87903","ListB","woman","chinese","CFB4","","","","null","","","","","",""
"2566.7000000476837","<img src=""portrait/WM1.jpg""style=""height:400px;""></img>","6","html-button-response","20","168542","0.0-3.0-22.0","87903","ListB","woman","chinese","CFB4","","true","6","","","","","","",""
"null","正确","","html-keyboard-response","21","170060","0.0-3.0-23.0-0.0","87903","ListB","woman","chinese","CFB4","","","","null","","","","","",""
"1254.1000000238419","<p>您第一次在8题里答对了 6 题。 请点击继续</p>","0","html-button-response","22","171316","0.0-3.0-25.0","87903","ListB","woman","chinese","CFB4","","","","","","","","","",""
"1539.5","因为您没有全部答对，记忆游戏将重新开始。请点击继续。","0","html-button-response","23","173870","0.0-3.0-26.0-0.0","87903","ListB","woman","chinese","CFB4","","","","","","","","","",""
"8608.199999988079","<img src='img/portrait_matrix_listB_chinese.jpg' style='width:900px;height:500px;''></img><p>如果您已经记住了所有的人物和名字，请点击继续。</p><p><strong>请注意：您对先前记忆的面孔将在本实验中被测试5次。</strong></p>","0","html-button-response","24","183496","0.0-3.1-0.1","87903","ListB","woman","chinese","CFB4","","","","","","","","","",""
"2696.100000023842","<img src=""portrait/WW2.jpg""style=""height:400px;""></img>","3","html-button-response","25","187196","0.0-3.1-1.1","87903","ListB","woman","chinese","CFB4","","true","3","","","","","","",""
"null","正确","","html-keyboard-response","26","188734","0.0-3.1-2.1-0.1","87903","ListB","woman","chinese","CFB4","","","","null","","","","","",""
"2121.5","<img src=""portrait/WW1.jpg""style=""height:400px;""></img>","1","html-button-response","27","190859","0.0-3.1-4.1","87903","ListB","woman","chinese","CFB4","","true","1","","","","","","",""
"null","正确","","html-keyboard-response","28","192401","0.0-3.1-5.1-0.1","87903","ListB","woman","chinese","CFB4","","","","null","","","","","",""
"2894.2000000476837","<img src=""portrait/BM1.jpg""style=""height:400px;""></img>","4","html-button-response","29","195298","0.0-3.1-7.1","87903","ListB","woman","chinese","CFB4","","true","4","","","","","","",""
"null","正确","","html-keyboard-response","30","196816","0.0-3.1-8.1-0.1","87903","ListB","woman","chinese","CFB4","","","","null","","","","","",""
"3706.5","<img src=""portrait/BW1.jpg""style=""height:400px;""></img>","2","html-button-response","31","200524","0.0-3.1-10.1","87903","ListB","woman","chinese","CFB4","","true","0","","","","","","",""
"2107.600000023842","<img src=""portrait/BW1.jpg""style=""height:400px;""></img>","0","html-button-response","32","203646","0.0-3.1-12.1-0.1","87903","ListB","woman","chinese","CFB4","","false","0","","","","","","",""
"null","正确","","html-keyboard-response","33","205155","0.0-3.1-12.1-1.1-0.1","87903","ListB","woman","chinese","CFB4","","","","null","","","","","",""
"1525.5","<img src=""portrait/BM2.jpg""style=""height:400px;""></img>","5","html-button-response","34","206682","0.0-3.1-13.1","87903","ListB","woman","chinese","CFB4","","true","5","","","","","","",""
"null","正确","","html-keyboard-response","35","208192","0.0-3.1-14.1-0.1","87903","ListB","woman","chinese","CFB4","","","","null","","","","","",""
"2639.099999964237","<img src=""portrait/BW2.jpg""style=""height:400px;""></img>","2","html-button-response","36","210832","0.0-3.1-16.1","87903","ListB","woman","chinese","CFB4","","true","2","","","","","","",""
"null","正确","","html-keyboard-response","37","212359","0.0-3.1-17.1-0.1","87903","ListB","woman","chinese","CFB4","","","","null","","","","","",""
"1350.1000000238419","<img src=""portrait/WM2.jpg""style=""height:400px;""></img>","7","html-button-response","38","213710","0.0-3.1-19.1","87903","ListB","woman","chinese","CFB4","","true","7","","","","","","",""
"null","正确","","html-keyboard-response","39","215247","0.0-3.1-20.1-0.1","87903","ListB","woman","chinese","CFB4","","","","null","","","","","",""
"1300.1000000238419","<img src=""portrait/WM1.jpg""style=""height:400px;""></img>","6","html-button-response","40","216548","0.0-3.1-22.1","87903","ListB","woman","chinese","CFB4","","true","6","","","","","","",""
"null","正确","","html-keyboard-response","41","218076","0.0-3.1-23.1-0.1","87903","ListB","woman","chinese","CFB4","","","","null","","","","","",""
"1078.6000000238419","<p>您第一次在8题里答对了 7 题。 请点击继续</p>","0","html-button-response","42","219156","0.0-3.1-25.1","87903","ListB","woman","chinese","CFB4","","","","","","","","","",""
"757.1000000238419","因为您没有全部答对，记忆游戏将重新开始。请点击继续。","0","html-button-response","43","220922","0.0-3.1-26.1-0.1","87903","ListB","woman","chinese","CFB4","","","","","","","","","",""
"2878.199999988079","<img src='img/portrait_matrix_listB_chinese.jpg' style='width:900px;height:500px;''></img><p>如果您已经记住了所有的人物和名字，请点击继续。</p><p><strong>请注意：您对先前记忆的面孔将在本实验中被测试5次。</strong></p>","0","html-button-response","44","224806","0.0-3.2-0.2","87903","ListB","woman","chinese","CFB4","","","","","","","","","",""
"2487.900000035763","<img src=""portrait/WW2.jpg""style=""height:400px;""></img>","3","html-button-response","45","228303","0.0-3.2-1.2","87903","ListB","woman","chinese","CFB4","","true","3","","","","","","",""
"null","正确","","html-keyboard-response","46","229818","0.0-3.2-2.2-0.2","87903","ListB","woman","chinese","CFB4","","","","null","","","","","",""
"3450.400000035763","<img src=""portrait/WW1.jpg""style=""height:400px;""></img>","1","html-button-response","47","233272","0.0-3.2-4.2","87903","ListB","woman","chinese","CFB4","","true","1","","","","","","",""
"null","正确","","html-keyboard-response","48","234784","0.0-3.2-5.2-0.2","87903","ListB","woman","chinese","CFB4","","","","null","","","","","",""
"9372.100000023842","<img src=""portrait/BM1.jpg""style=""height:400px;""></img>","4","html-button-response","49","244158","0.0-3.2-7.2","87903","ListB","woman","chinese","CFB4","","true","4","","","","","","",""
"null","正确","","html-keyboard-response","50","245675","0.0-3.2-8.2-0.2","87903","ListB","woman","chinese","CFB4","","","","null","","","","","",""
"3193.7999999523163","<img src=""portrait/BW1.jpg""style=""height:400px;""></img>","2","html-button-response","51","248872","0.0-3.2-10.2","87903","ListB","woman","chinese","CFB4","","true","0","","","","","","",""
"2389.600000023842","<img src=""portrait/BW1.jpg""style=""height:400px;""></img>","0","html-button-response","52","252272","0.0-3.2-12.2-0.2","87903","ListB","woman","chinese","CFB4","","false","0","","","","","","",""
"null","正确","","html-keyboard-response","53","253800","0.0-3.2-12.2-1.2-0.2","87903","ListB","woman","chinese","CFB4","","","","null","","","","","",""
"1950.1000000238419","<img src=""portrait/BM2.jpg""style=""height:400px;""></img>","5","html-button-response","54","255752","0.0-3.2-13.2","87903","ListB","woman","chinese","CFB4","","true","5","","","","","","",""
"null","正确","","html-keyboard-response","55","257259","0.0-3.2-14.2-0.2","87903","ListB","woman","chinese","CFB4","","","","null","","","","","",""
"1103","<img src=""portrait/BW2.jpg""style=""height:400px;""></img>","2","html-button-response","56","258364","0.0-3.2-16.2","87903","ListB","woman","chinese","CFB4","","true","2","","","","","","",""
"null","正确","","html-keyboard-response","57","259892","0.0-3.2-17.2-0.2","87903","ListB","woman","chinese","CFB4","","","","null","","","","","",""
"5825.700000047684","<img src=""portrait/WM2.jpg""style=""height:400px;""></img>","7","html-button-response","58","265720","0.0-3.2-19.2","87903","ListB","woman","chinese","CFB4","","true","7","","","","","","",""
"null","正确","","html-keyboard-response","59","267228","0.0-3.2-20.2-0.2","87903","ListB","woman","chinese","CFB4","","","","null","","","","","",""
"1670.1000000238419","<img src=""portrait/WM1.jpg""style=""height:400px;""></img>","6","html-button-response","60","268900","0.0-3.2-22.2","87903","ListB","woman","chinese","CFB4","","true","6","","","","","","",""
"null","正确","","html-keyboard-response","61","270412","0.0-3.2-23.2-0.2","87903","ListB","woman","chinese","CFB4","","","","null","","","","","",""
"910.3000000119209","<p>您第一次在8题里答对了 7 题。 请点击继续</p>","0","html-button-response","62","271323","0.0-3.2-25.2","87903","ListB","woman","chinese","CFB4","","","","","","","","","",""
"774.5","因为您没有全部答对，记忆游戏将重新开始。请点击继续。","0","html-button-response","63","273107","0.0-3.2-26.2-0.2","87903","ListB","woman","chinese","CFB4","","","","","","","","","",""
"876.5","<img src='img/portrait_matrix_listB_chinese.jpg' style='width:900px;height:500px;''></img><p>如果您已经记住了所有的人物和名字，请点击继续。</p><p><strong>请注意：您对先前记忆的面孔将在本实验中被测试5次。</strong></p>","0","html-button-response","64","274994","0.0-3.3-0.3","87903","ListB","woman","chinese","CFB4","","","","","","","","","",""
"2195.899999976158","<img src=""portrait/WW2.jpg""style=""height:400px;""></img>","1","html-button-response","65","278192","0.0-3.3-1.3","87903","ListB","woman","chinese","CFB4","","true","3","","","","","","",""
"2707.600000023842","<img src=""portrait/WW2.jpg""style=""height:400px;""></img>","3","html-button-response","66","281908","0.0-3.3-3.3-0.3","87903","ListB","woman","chinese","CFB4","","false","3","","","","","","",""
"null","正确","","html-keyboard-response","67","283419","0.0-3.3-3.3-1.3-0.3","87903","ListB","woman","chinese","CFB4","","","","null","","","","","",""
"1412.300000011921","<img src=""portrait/WW1.jpg""style=""height:400px;""></img>","1","html-button-response","68","284833","0.0-3.3-4.3","87903","ListB","woman","chinese","CFB4","","true","1","","","","","","",""
"null","正确","","html-keyboard-response","69","286356","0.0-3.3-5.3-0.3","87903","ListB","woman","chinese","CFB4","","","","null","","","","","",""
"10956","<img src=""portrait/BM1.jpg""style=""height:400px;""></img>","4","html-button-response","70","297314","0.0-3.3-7.3","87903","ListB","woman","chinese","CFB4","","true","4","","","","","","",""
"null","正确","","html-keyboard-response","71","298826","0.0-3.3-8.3-0.3","87903","ListB","woman","chinese","CFB4","","","","null","","","","","",""
"2714.5","<img src=""portrait/BW1.jpg""style=""height:400px;""></img>","0","html-button-response","72","301542","0.0-3.3-10.3","87903","ListB","woman","chinese","CFB4","","true","0","","","","","","",""
"null","正确","","html-keyboard-response","73","303067","0.0-3.3-11.3-0.3","87903","ListB","woman","chinese","CFB4","","","","null","","","","","",""
"2065.400000035763","<img src=""portrait/BM2.jpg""style=""height:400px;""></img>","5","html-button-response","74","305134","0.0-3.3-13.3","87903","ListB","woman","chinese","CFB4","","true","5","","","","","","",""
"null","正确","","html-keyboard-response","75","306646","0.0-3.3-14.3-0.3","87903","ListB","woman","chinese","CFB4","","","","null","","","","","",""
"1407.3999999761581","<img src=""portrait/BW2.jpg""style=""height:400px;""></img>","2","html-button-response","76","308056","0.0-3.3-16.3","87903","ListB","woman","chinese","CFB4","","true","2","","","","","","",""
"null","正确","","html-keyboard-response","77","309564","0.0-3.3-17.3-0.3","87903","ListB","woman","chinese","CFB4","","","","null","","","","","",""
"1407.800000011921","<img src=""portrait/WM2.jpg""style=""height:400px;""></img>","7","html-button-response","78","310975","0.0-3.3-19.3","87903","ListB","woman","chinese","CFB4","","true","7","","","","","","",""
"null","正确","","html-keyboard-response","79","312493","0.0-3.3-20.3-0.3","87903","ListB","woman","chinese","CFB4","","","","null","","","","","",""
"6838","<img src=""portrait/WM1.jpg""style=""height:400px;""></img>","6","html-button-response","80","319334","0.0-3.3-22.3","87903","ListB","woman","chinese","CFB4","","true","6","","","","","","",""
"null","正确","","html-keyboard-response","81","320844","0.0-3.3-23.3-0.3","87903","ListB","woman","chinese","CFB4","","","","null","","","","","",""
"753.0999999642372","<p>您第一次在8题里答对了 7 题。 请点击继续</p>","0","html-button-response","82","321598","0.0-3.3-25.3","87903","ListB","woman","chinese","CFB4","","","","","","","","","",""
"753.6000000238419","因为您没有全部答对，记忆游戏将重新开始。请点击继续。","0","html-button-response","83","323355","0.0-3.3-26.3-0.3","87903","ListB","woman","chinese","CFB4","","","","","","","","","",""
"714.3999999761581","<img src='img/portrait_matrix_listB_chinese.jpg' style='width:900px;height:500px;''></img><p>如果您已经记住了所有的人物和名字，请点击继续。</p><p><strong>请注意：您对先前记忆的面孔将在本实验中被测试5次。</strong></p>","0","html-button-response","84","325080","0.0-3.4-0.4","87903","ListB","woman","chinese","CFB4","","","","","","","","","",""
"1967.199999988079","<img src=""portrait/WW2.jpg""style=""height:400px;""></img>","3","html-button-response","85","328051","0.0-3.4-1.4","87903","ListB","woman","chinese","CFB4","","true","3","","","","","","",""
"null","正确","","html-keyboard-response","86","329578","0.0-3.4-2.4-0.4","87903","ListB","woman","chinese","CFB4","","","","null","","","","","",""
"1339","<img src=""portrait/WW1.jpg""style=""height:400px;""></img>","1","html-button-response","87","330919","0.0-3.4-4.4","87903","ListB","woman","chinese","CFB4","","true","1","","","","","","",""
"null","正确","","html-keyboard-response","88","332446","0.0-3.4-5.4-0.4","87903","ListB","woman","chinese","CFB4","","","","null","","","","","",""
"1875.1000000238419","<img src=""portrait/BM1.jpg""style=""height:400px;""></img>","4","html-button-response","89","334324","0.0-3.4-7.4","87903","ListB","woman","chinese","CFB4","","true","4","","","","","","",""
"null","正确","","html-keyboard-response","90","335853","0.0-3.4-8.4-0.4","87903","ListB","woman","chinese","CFB4","","","","null","","","","","",""
"1571.6000000238419","<img src=""portrait/BW1.jpg""style=""height:400px;""></img>","0","html-button-response","91","337427","0.0-3.4-10.4","87903","ListB","woman","chinese","CFB4","","true","0","","","","","","",""
"null","正确","","html-keyboard-response","92","338958","0.0-3.4-11.4-0.4","87903","ListB","woman","chinese","CFB4","","","","null","","","","","",""
"1836.3999999761581","<img src=""portrait/BM2.jpg""style=""height:400px;""></img>","5","html-button-response","93","340797","0.0-3.4-13.4","87903","ListB","woman","chinese","CFB4","","true","5","","","","","","",""
"null","正确","","html-keyboard-response","94","342324","0.0-3.4-14.4-0.4","87903","ListB","woman","chinese","CFB4","","","","null","","","","","",""
"1655.3999999761581","<img src=""portrait/BW2.jpg""style=""height:400px;""></img>","2","html-button-response","95","343981","0.0-3.4-16.4","87903","ListB","woman","chinese","CFB4","","true","2","","","","","","",""
"null","正确","","html-keyboard-response","96","345507","0.0-3.4-17.4-0.4","87903","ListB","woman","chinese","CFB4","","","","null","","","","","",""
"2230.300000011921","<img src=""portrait/WM2.jpg""style=""height:400px;""></img>","7","html-button-response","97","347739","0.0-3.4-19.4","87903","ListB","woman","chinese","CFB4","","true","7","","","","","","",""
"null","正确","","html-keyboard-response","98","349281","0.0-3.4-20.4-0.4","87903","ListB","woman","chinese","CFB4","","","","null","","","","","",""
"1967.0999999642372","<img src=""portrait/WM1.jpg""style=""height:400px;""></img>","6","html-button-response","99","351251","0.0-3.4-22.4","87903","ListB","woman","chinese","CFB4","","true","6","","","","","","",""
"null","正确","","html-keyboard-response","100","352766","0.0-3.4-23.4-0.4","87903","ListB","woman","chinese","CFB4","","","","null","","","","","",""
"791.5","<p>您第一次在8题里答对了 8 题。 请点击继续</p>","0","html-button-response","101","353560","0.0-3.4-25.4","87903","ListB","woman","chinese","CFB4","","","","","","","","","",""
"28005.200000047684","<p>此次实验您将会看到先前记忆任务里的人物照片。</p><p>人物照片消失后您将看到一个动词短语，请正确回忆人物的名字并用特定的 动词短语组成一句完整的句子。</p><p>请在指定的框内输入您的答案。在进入下一题之前请确保您填写了完整的句子。</p><p>人物照片和动词短语只会在屏幕上出现几秒钟，因此请您答题时尽量集中注意力。</p><p>以下是例子。请您在准备好后按下“继续”。</p><img src='img/chinese_speaking_example.jpg' style='width:800px;height:460px;''></img>","0","html-button-response","102","382582","0.0-4.0","87903","ListB","woman","chinese","CFB4","","","","","","","","","",""
"1263","<p>在实验开始前，将为您展示两个示例实验。</p>","0","html-button-response","103","384851","0.0-5.0","87903","ListB","woman","chinese","CFB4","","","","","","","","","",""
"null","<img src='img/meet.gif' style='height:400px;''></img>","","html-keyboard-response","104","387878","0.0-6.0","87903","ListB","woman","chinese","CFB4","","","","null","","","","","",""
"null","<p>正在约见</p>","","html-keyboard-response","105","389884","0.0-7.0","87903","ListB","woman","chinese","CFB4","","","","null","","","","","",""
"5047.5","<p><b>答案：</b> 霍普正在会见露丝</p>","0","html-button-response","106","394932","0.0-8.0","87903","ListB","woman","chinese","CFB4","","","","","","","","","",""
"null","<img src='img/spy.gif' style='height:400px;''></img>","","html-keyboard-response","107","397958","0.0-9.0","87903","ListB","woman","chinese","CFB4","","","","null","","","","","",""
"null","<p>正在监视</p>","","html-keyboard-response","108","399978","0.0-10.0","87903","ListB","woman","chinese","CFB4","","","","null","","","","","",""
"3086.399999976158","<p><b>答案：</b> 弗雷正在监视麦克</p>","0","html-button-response","109","403066","0.0-11.0","87903","ListB","woman","chinese","CFB4","","","","","","","","","",""
"4019.400000035763","<p>准备好开始了吗？</p><br><p><strong>请记住，您的答案需是一句完整的句子</strong></p><p><strong>，并用给到的图片人物和动词短语作答。</strong></p><p><strong>只有正确并完整完成实验才可获得报酬。</strong></p><p><strong> 您不需要加入任何标点符号。</strong></p><br><p>请按 ‘继续’ 键开始。</p>","0","html-button-response","110","408100","0.0-12.0","87903","ListB","woman","chinese","CFB4","","","","","","","","","",""
"null","<div style=""font-size:60px;"">+</div>","","html-keyboard-response","111","409611","0.0-13.0-0.0","87903","ListB","woman","chinese","CFB4","","","","null","","","","","",""
"null","<img src='gifs/BlackGender3a.gif' style='height:400px;''></img>","","html-keyboard-response","112","411619","0.0-13.0-1.0","87903","ListB","woman","chinese","CFB4","","","","null","","","","","",""
"null","正在触摸","","html-keyboard-response","113","414632","0.0-13.0-2.0","87903","ListB","woman","chinese","CFB4","","","","null","","","","","",""
"15103.199999988079","","","survey-text","114","429741","0.0-13.0-3.0","87903","ListB","woman","chinese","CFB4","","","","","{""Q0"":""凯特正在触摸弗雷""}","<img src='gifs/BlackGender3a.gif' style='height:400px;''></img>","触摸","正在触摸","chinese",""
"null","<div style=""font-size:60px;"">+</div>","","html-keyboard-response","115","430248","0.0-13.0-0.1","87903","ListB","woman","chinese","CFB4","","","","null","","","","","",""
"null","<img src='gifs/FemaleRace4b.gif' style='height:400px;''></img>","","html-keyboard-response","116","432252","0.0-13.0-1.1","87903","ListB","woman","chinese","CFB4","","","","null","","","","","",""
"null","正在表扬","","html-keyboard-response","117","435260","0.0-13.0-2.1","87903","ListB","woman","chinese","CFB4","","","","null","","","","","",""
"7564.5","","","survey-text","118","442828","0.0-13.0-3.1","87903","ListB","woman","chinese","CFB4","","","","","{""Q0"":""凯特正在表扬露丝""}","<img src='gifs/FemaleRace4b.gif' style='height:400px;''></img>","表扬","正在表扬","chinese",""
"null","<div style=""font-size:60px;"">+</div>","","html-keyboard-response","119","443344","0.0-13.0-0.2","87903","ListB","woman","chinese","CFB4","","","","null","","","","","",""
"null","<img src='gifs/ChineseGender4a.gif' style='height:400px;''></img>","","html-keyboard-response","120","445348","0.0-13.0-1.2","87903","ListB","woman","chinese","CFB4","","","","null","","","","","",""
"null","正在接近","","html-keyboard-response","121","448368","0.0-13.0-2.2","87903","ListB","woman","chinese","CFB4","","","","null","","","","","",""
"6727.800000011921","","","survey-text","122","455098","0.0-13.0-3.2","87903","ListB","woman","chinese","CFB4","","","","","{""Q0"":""戴夫正在接近霍普""}","<img src='gifs/ChineseGender4a.gif' style='height:400px;''></img>","接近","正在接近","chinese",""
"null","<div style=""font-size:60px;"">+</div>","","html-keyboard-response","123","455607","0.0-13.0-0.3","87903","ListB","woman","chinese","CFB4","","","","null","","","","","",""
"null","<img src='gifs/ChineseGender2a.gif' style='height:400px;''></img>","","html-keyboard-response","124","457612","0.0-13.0-1.3","87903","ListB","woman","chinese","CFB4","","","","null","","","","","",""
"null","正在介绍","","html-keyboard-response","125","460627","0.0-13.0-2.3","87903","ListB","woman","chinese","CFB4","","","","null","","","","","",""
"8612.900000035763","","","survey-text","126","469244","0.0-13.0-3.3","87903","ListB","woman","chinese","CFB4","","","","","{""Q0"":""卢克正在介绍露丝""}","<img src='gifs/ChineseGender2a.gif' style='height:400px;''></img>","介绍","正在介绍","chinese",""
"null","<div style=""font-size:60px;"">+</div>","","html-keyboard-response","127","469760","0.0-13.0-0.4","87903","ListB","woman","chinese","CFB4","","","","null","","","","","",""
"null","<img src='gifs/MaleRace4a.gif' style='height:400px;''></img>","","html-keyboard-response","128","471774","0.0-13.0-1.4","87903","ListB","woman","chinese","CFB4","","","","null","","","","","",""
"null","正在看着","","html-keyboard-response","129","474786","0.0-13.0-2.4","87903","ListB","woman","chinese","CFB4","","","","null","","","","","",""
"5048.200000047684","","","survey-text","130","479838","0.0-13.0-3.4","87903","ListB","woman","chinese","CFB4","","","","","{""Q0"":""戴夫正在看着麦克""}","<img src='gifs/MaleRace4a.gif' style='height:400px;''></img>","看着","正在看着","chinese",""
"null","<div style=""font-size:60px;"">+</div>","","html-keyboard-response","131","480348","0.0-13.0-0.5","87903","ListB","woman","chinese","CFB4","","","","null","","","","","",""
"null","<img src='gifs/FemaleRace3b.gif' style='height:400px;''></img>","","html-keyboard-response","132","482359","0.0-13.0-1.5","87903","ListB","woman","chinese","CFB4","","","","null","","","","","",""
"null","正在触摸","","html-keyboard-response","133","485378","0.0-13.0-2.5","87903","ListB","woman","chinese","CFB4","","","","null","","","","","",""
"12656.900000035763","","","survey-text","134","498038","0.0-13.0-3.5","87903","ListB","woman","chinese","CFB4","","","","","{""Q0"":""露丝正在触摸贝斯""}","<img src='gifs/FemaleRace3b.gif' style='height:400px;''></img>","触摸","正在触摸","chinese",""
"null","<div style=""font-size:60px;"">+</div>","","html-keyboard-response","135","498546","0.0-13.0-0.6","87903","ListB","woman","chinese","CFB4","","","","null","","","","","",""
"null","<img src='gifs/BlackGender2a.gif' style='height:400px;''></img>","","html-keyboard-response","136","500556","0.0-13.0-1.6","87903","ListB","woman","chinese","CFB4","","","","null","","","","","",""
"null","正在跟随","","html-keyboard-response","137","503571","0.0-13.0-2.6","87903","ListB","woman","chinese","CFB4","","","","null","","","","","",""
"7257.900000035763","","","survey-text","138","510832","0.0-13.0-3.6","87903","ListB","woman","chinese","CFB4","","","","","{""Q0"":""贝斯正在跟随麦克""}","<img src='gifs/BlackGender2a.gif' style='height:400px;''></img>","跟随","正在跟随","chinese",""
"null","<div style=""font-size:60px;"">+</div>","","html-keyboard-response","139","511353","0.0-13.0-0.7","87903","ListB","woman","chinese","CFB4","","","","null","","","","","",""
"null","<img src='gifs/FemaleRace2a.gif' style='height:400px;''></img>","","html-keyboard-response","140","513363","0.0-13.0-1.7","87903","ListB","woman","chinese","CFB4","","","","null","","","","","",""
"null","正在跟随","","html-keyboard-response","141","516379","0.0-13.0-2.7","87903","ListB","woman","chinese","CFB4","","","","null","","","","","",""
"8110.199999988079","","","survey-text","142","524492","0.0-13.0-3.7","87903","ListB","woman","chinese","CFB4","","","","","{""Q0"":""凯特正在跟随霍普""}","<img src='gifs/FemaleRace2a.gif' style='height:400px;''></img>","跟随","正在跟随","chinese",""
"null","<div style=""font-size:60px;"">+</div>","","html-keyboard-response","143","524999","0.0-13.0-0.8","87903","ListB","woman","chinese","CFB4","","","","null","","","","","",""
"null","<img src='gifs/MaleRace3a.gif' style='height:400px;''></img>","","html-keyboard-response","144","527007","0.0-13.0-1.8","87903","ListB","woman","chinese","CFB4","","","","null","","","","","",""
"null","正在走向","","html-keyboard-response","145","530016","0.0-13.0-2.8","87903","ListB","woman","chinese","CFB4","","","","null","","","","","",""
"6452.399999976158","","","survey-text","146","536472","0.0-13.0-3.8","87903","ListB","woman","chinese","CFB4","","","","","{""Q0"":""戴夫正在走向弗雷""}","<img src='gifs/MaleRace3a.gif' style='height:400px;''></img>","走向","正在走向","chinese",""
"null","<div style=""font-size:60px;"">+</div>","","html-keyboard-response","147","536984","0.0-13.0-0.9","87903","ListB","woman","chinese","CFB4","","","","null","","","","","",""
"null","<img src='gifs/BlackGender2b.gif' style='height:400px;''></img>","","html-keyboard-response","148","538991","0.0-13.0-1.9","87903","ListB","woman","chinese","CFB4","","","","null","","","","","",""
"null","正在介绍","","html-keyboard-response","149","541998","0.0-13.0-2.9","87903","ListB","woman","chinese","CFB4","","","","null","","","","","",""
"4859.5","","","survey-text","150","546862","0.0-13.0-3.9","87903","ListB","woman","chinese","CFB4","","","","","{""Q0"":""麦克正在介绍贝斯""}","<img src='gifs/BlackGender2b.gif' style='height:400px;''></img>","介绍","正在介绍","chinese",""
"null","<div style=""font-size:60px;"">+</div>","","html-keyboard-response","151","547374","0.0-13.0-0.10","87903","ListB","woman","chinese","CFB4","","","","null","","","","","",""
"null","<img src='gifs/BlackGender4b.gif' style='height:400px;''></img>","","html-keyboard-response","152","549391","0.0-13.0-1.10","87903","ListB","woman","chinese","CFB4","","","","null","","","","","",""
"null","正在联系","","html-keyboard-response","153","552395","0.0-13.0-2.10","87903","ListB","woman","chinese","CFB4","","","","null","","","","","",""
"7511.600000023842","","","survey-text","154","559910","0.0-13.0-3.10","87903","ListB","woman","chinese","CFB4","","","","","{""Q0"":""麦克正在联系凯特""}","<img src='gifs/BlackGender4b.gif' style='height:400px;''></img>","联系","正在联系","chinese",""
"null","<div style=""font-size:60px;"">+</div>","","html-keyboard-response","155","560427","0.0-13.0-0.11","87903","ListB","woman","chinese","CFB4","","","","null","","","","","",""
"null","<img src='gifs/MaleRace4b.gif' style='height:400px;''></img>","","html-keyboard-response","156","562440","0.0-13.0-1.11","87903","ListB","woman","chinese","CFB4","","","","null","","","","","",""
"null","正在看着","","html-keyboard-response","157","565455","0.0-13.0-2.11","87903","ListB","woman","chinese","CFB4","","","","null","","","","","",""
"5329.099999964237","","","survey-text","158","570788","0.0-13.0-3.11","87903","ListB","woman","chinese","CFB4","","","","","{""Q0"":""麦克正在看着戴夫""}","<img src='gifs/MaleRace4b.gif' style='height:400px;''></img>","看着","正在看着","chinese",""
"null","<div style=""font-size:60px;"">+</div>","","html-keyboard-response","159","571304","0.0-13.0-0.12","87903","ListB","woman","chinese","CFB4","","","","null","","","","","",""
"null","<img src='gifs/BlackGender4a.gif' style='height:400px;''></img>","","html-keyboard-response","160","573321","0.0-13.0-1.12","87903","ListB","woman","chinese","CFB4","","","","null","","","","","",""
"null","正在接近","","html-keyboard-response","161","576327","0.0-13.0-2.12","87903","ListB","woman","chinese","CFB4","","","","null","","","","","",""
"4623.699999988079","","","survey-text","162","580956","0.0-13.0-3.12","87903","ListB","woman","chinese","CFB4","","","","","{""Q0"":""麦克正在接近凯特""}","<img src='gifs/BlackGender4a.gif' style='height:400px;''></img>","接近","正在接近","chinese",""
"null","<div style=""font-size:60px;"">+</div>","","html-keyboard-response","163","581463","0.0-13.0-0.13","87903","ListB","woman","chinese","CFB4","","","","null","","","","","",""
"null","<img src='gifs/ChineseGender1a.gif' style='height:400px;''></img>","","html-keyboard-response","164","583481","0.0-13.0-1.13","87903","ListB","woman","chinese","CFB4","","","","null","","","","","",""
"null","正在加入","","html-keyboard-response","165","586495","0.0-13.0-2.13","87903","ListB","woman","chinese","CFB4","","","","null","","","","","",""
"4516.199999988079","","","survey-text","166","591014","0.0-13.0-3.13","87903","ListB","woman","chinese","CFB4","","","","","{""Q0"":""卢克正在加入霍普""}","<img src='gifs/ChineseGender1a.gif' style='height:400px;''></img>","加入","正在加入","chinese",""
"null","<div style=""font-size:60px;"">+</div>","","html-keyboard-response","167","591529","0.0-13.0-0.14","87903","ListB","woman","chinese","CFB4","","","","null","","","","","",""
"null","<img src='gifs/FemaleRace2a.gif' style='height:400px;''></img>","","html-keyboard-response","168","593544","0.0-13.0-1.14","87903","ListB","woman","chinese","CFB4","","","","null","","","","","",""
"null","正在提到","","html-keyboard-response","169","596559","0.0-13.0-2.14","87903","ListB","woman","chinese","CFB4","","","","null","","","","","",""
"6732.800000011921","","","survey-text","170","603296","0.0-13.0-3.14","87903","ListB","woman","chinese","CFB4","","","","","{""Q0"":""霍普正在提到凯特""}","<img src='gifs/FemaleRace2a.gif' style='height:400px;''></img>","提到","正在提到","chinese",""
"null","<div style=""font-size:60px;"">+</div>","","html-keyboard-response","171","603819","0.0-13.0-0.15","87903","ListB","woman","chinese","CFB4","","","","null","","","","","",""
"null","<img src='gifs/FemaleRace3a.gif' style='height:400px;''></img>","","html-keyboard-response","172","605838","0.0-13.0-1.15","87903","ListB","woman","chinese","CFB4","","","","null","","","","","",""
"null","正在说服","","html-keyboard-response","173","608855","0.0-13.0-2.15","87903","ListB","woman","chinese","CFB4","","","","null","","","","","",""
"7182.399999976158","","","survey-text","174","616040","0.0-13.0-3.15","87903","ListB","woman","chinese","CFB4","","","","","{""Q0"":""贝斯正在说服露丝""}","<img src='gifs/FemaleRace3a.gif' style='height:400px;''></img>","说服","正在说服","chinese",""
"null","<div style=""font-size:60px;"">+</div>","","html-keyboard-response","175","616553","0.0-13.0-0.16","87903","ListB","woman","chinese","CFB4","","","","null","","","","","",""
"null","<img src='gifs/ChineseGender2b.gif' style='height:400px;''></img>","","html-keyboard-response","176","618570","0.0-13.0-1.16","87903","ListB","woman","chinese","CFB4","","","","null","","","","","",""
"null","正在介绍","","html-keyboard-response","177","621583","0.0-13.0-2.16","87903","ListB","woman","chinese","CFB4","","","","null","","","","","",""
"4343","","","survey-text","178","625929","0.0-13.0-3.16","87903","ListB","woman","chinese","CFB4","","","","","{""Q0"":""露丝正在介绍卢克""}","<img src='gifs/ChineseGender2b.gif' style='height:400px;''></img>","介绍","正在介绍","chinese",""
"null","<div style=""font-size:60px;"">+</div>","","html-keyboard-response","179","626450","0.0-13.0-0.17","87903","ListB","woman","chinese","CFB4","","","","null","","","","","",""
"null","<img src='gifs/ChineseGender4b.gif' style='height:400px;''></img>","","html-keyboard-response","180","628459","0.0-13.0-1.17","87903","ListB","woman","chinese","CFB4","","","","null","","","","","",""
"null","正在面向","","html-keyboard-response","181","631479","0.0-13.0-2.17","87903","ListB","woman","chinese","CFB4","","","","null","","","","","",""
"5230.800000011921","","","survey-text","182","636712","0.0-13.0-3.17","87903","ListB","woman","chinese","CFB4","","","","","{""Q0"":""霍普正在面向戴夫""}","<img src='gifs/ChineseGender4b.gif' style='height:400px;''></img>","面向","正在面向","chinese",""
"4457.899999976158","<img src='img/portrait_matrix_listB_chinese.jpg' style='width:900px;height:500px;''></img><p>如果您已经记住了所有的人物和名字，请点击继续。</p><p><strong>请注意：您对先前记忆的面孔将在本实验中被测试5次。</strong></p>","0","html-button-response","183","641171","0.0-14.0-0.0","87903","ListB","woman","chinese","CFB4","","","","","","","","","",""
"1641.8999999761581","<img src=""portrait/WW2.jpg""style=""height:400px;""></img>","3","html-button-response","184","643822","0.0-14.0-1.0","87903","ListB","woman","chinese","CFB4","","true","3","","","","","","",""
"null","正确","","html-keyboard-response","185","645342","0.0-14.0-2.0-0.0","87903","ListB","woman","chinese","CFB4","","","","null","","","","","",""
"1554.699999988079","<img src=""portrait/WM1.jpg""style=""height:400px;""></img>","7","html-button-response","186","646898","0.0-14.0-4.0","87903","ListB","woman","chinese","CFB4","","true","6","","","","","","",""
"1168.0999999642372","<img src=""portrait/WM1.jpg""style=""height:400px;""></img>","6","html-button-response","187","649082","0.0-14.0-6.0-0.0","87903","ListB","woman","chinese","CFB4","","false","6","","","","","","",""
"null","正确","","html-keyboard-response","188","650590","0.0-14.0-6.0-1.0-0.0","87903","ListB","woman","chinese","CFB4","","","","null","","","","","",""
"1448.800000011921","<img src=""portrait/WW1.jpg""style=""height:400px;""></img>","1","html-button-response","189","652040","0.0-14.0-7.0","87903","ListB","woman","chinese","CFB4","","true","1","","","","","","",""
"null","正确","","html-keyboard-response","190","653563","0.0-14.0-8.0-0.0","87903","ListB","woman","chinese","CFB4","","","","null","","","","","",""
"1900.7000000476837","<img src=""portrait/BM2.jpg""style=""height:400px;""></img>","5","html-button-response","191","655465","0.0-14.0-10.0","87903","ListB","woman","chinese","CFB4","","true","5","","","","","","",""
"null","正确","","html-keyboard-response","192","657000","0.0-14.0-11.0-0.0","87903","ListB","woman","chinese","CFB4","","","","null","","","","","",""
"3333.100000023842","<img src=""portrait/BM1.jpg""style=""height:400px;""></img>","4","html-button-response","193","660336","0.0-14.0-13.0","87903","ListB","woman","chinese","CFB4","","true","4","","","","","","",""
"null","正确","","html-keyboard-response","194","661857","0.0-14.0-14.0-0.0","87903","ListB","woman","chinese","CFB4","","","","null","","","","","",""
"2265","<img src=""portrait/WM2.jpg""style=""height:400px;""></img>","7","html-button-response","195","664124","0.0-14.0-16.0","87903","ListB","woman","chinese","CFB4","","true","7","","","","","","",""
"null","正确","","html-keyboard-response","196","665640","0.0-14.0-17.0-0.0","87903","ListB","woman","chinese","CFB4","","","","null","","","","","",""
"1939","<img src=""portrait/BW2.jpg""style=""height:400px;""></img>","2","html-button-response","197","667581","0.0-14.0-19.0","87903","ListB","woman","chinese","CFB4","","true","2","","","","","","",""
"null","正确","","html-keyboard-response","198","669100","0.0-14.0-20.0-0.0","87903","ListB","woman","chinese","CFB4","","","","null","","","","","",""
"4228.5","<img src=""portrait/BW1.jpg""style=""height:400px;""></img>","0","html-button-response","199","673330","0.0-14.0-22.0","87903","ListB","woman","chinese","CFB4","","true","0","","","","","","",""
"null","正确","","html-keyboard-response","200","674857","0.0-14.0-23.0-0.0","87903","ListB","woman","chinese","CFB4","","","","null","","","","","",""
"870.5","<p>您第一次在8题里答对了 7 题。 请点击继续</p>","0","html-button-response","201","675730","0.0-14.0-25.0","87903","ListB","woman","chinese","CFB4","","","","","","","","","",""
"938","因为您没有全部答对，记忆游戏将重新开始。请点击继续。","0","html-button-response","202","677686","0.0-14.0-26.0-0.0","87903","ListB","woman","chinese","CFB4","","","","","","","","","",""
"702.3999999761581","<img src='img/portrait_matrix_listB_chinese.jpg' style='width:900px;height:500px;''></img><p>如果您已经记住了所有的人物和名字，请点击继续。</p><p><strong>请注意：您对先前记忆的面孔将在本实验中被测试5次。</strong></p>","0","html-button-response","203","679401","0.0-14.1-0.1","87903","ListB","woman","chinese","CFB4","","","","","","","","","",""
"1585.3999999761581","<img src=""portrait/WW2.jpg""style=""height:400px;""></img>","3","html-button-response","204","681990","0.0-14.1-1.1","87903","ListB","woman","chinese","CFB4","","true","3","","","","","","",""
"null","正确","","html-keyboard-response","205","683512","0.0-14.1-2.1-0.1","87903","ListB","woman","chinese","CFB4","","","","null","","","","","",""
"1789.1000000238419","<img src=""portrait/WM1.jpg""style=""height:400px;""></img>","6","html-button-response","206","685304","0.0-14.1-4.1","87903","ListB","woman","chinese","CFB4","","true","6","","","","","","",""
"null","正确","","html-keyboard-response","207","686828","0.0-14.1-5.1-0.1","87903","ListB","woman","chinese","CFB4","","","","null","","","","","",""
"1840.8999999761581","<img src=""portrait/WW1.jpg""style=""height:400px;""></img>","1","html-button-response","208","688671","0.0-14.1-7.1","87903","ListB","woman","chinese","CFB4","","true","1","","","","","","",""
"null","正确","","html-keyboard-response","209","690195","0.0-14.1-8.1-0.1","87903","ListB","woman","chinese","CFB4","","","","null","","","","","",""
"3309.699999988079","<img src=""portrait/BM2.jpg""style=""height:400px;""></img>","5","html-button-response","210","693507","0.0-14.1-10.1","87903","ListB","woman","chinese","CFB4","","true","5","","","","","","",""
"null","正确","","html-keyboard-response","211","695019","0.0-14.1-11.1-0.1","87903","ListB","woman","chinese","CFB4","","","","null","","","","","",""
"3644.699999988079","<img src=""portrait/BM1.jpg""style=""height:400px;""></img>","4","html-button-response","212","698665","0.0-14.1-13.1","87903","ListB","woman","chinese","CFB4","","true","4","","","","","","",""
"null","正确","","html-keyboard-response","213","700171","0.0-14.1-14.1-0.1","87903","ListB","woman","chinese","CFB4","","","","null","","","","","",""
"1320.7999999523163","<img src=""portrait/WM2.jpg""style=""height:400px;""></img>","7","html-button-response","214","701493","0.0-14.1-16.1","87903","ListB","woman","chinese","CFB4","","true","7","","","","","","",""
"null","正确","","html-keyboard-response","215","703003","0.0-14.1-17.1-0.1","87903","ListB","woman","chinese","CFB4","","","","null","","","","","",""
"1585.699999988079","<img src=""portrait/BW2.jpg""style=""height:400px;""></img>","2","html-button-response","216","704590","0.0-14.1-19.1","87903","ListB","woman","chinese","CFB4","","true","2","","","","","","",""
"null","正确","","html-keyboard-response","217","706099","0.0-14.1-20.1-0.1","87903","ListB","woman","chinese","CFB4","","","","null","","","","","",""
"2256.399999976158","<img src=""portrait/BW1.jpg""style=""height:400px;""></img>","0","html-button-response","218","708357","0.0-14.1-22.1","87903","ListB","woman","chinese","CFB4","","true","0","","","","","","",""
"null","正确","","html-keyboard-response","219","709895","0.0-14.1-23.1-0.1","87903","ListB","woman","chinese","CFB4","","","","null","","","","","",""
"1360.9000000357628","<p>您第一次在8题里答对了 8 题。 请点击继续</p>","0","html-button-response","220","711258","0.0-14.1-25.1","87903","ListB","woman","chinese","CFB4","","","","","","","","","",""
"null","<div style=""font-size:60px;"">+</div>","","html-keyboard-response","221","712774","0.0-15.0-0.0","87903","ListB","woman","chinese","CFB4","","","","null","","","","","",""
"null","<img src='gifs/BlackGender1a.gif' style='height:400px;''></img>","","html-keyboard-response","222","714791","0.0-15.0-1.0","87903","ListB","woman","chinese","CFB4","","","","null","","","","","",""
"null","正在答应","","html-keyboard-response","223","717797","0.0-15.0-2.0","87903","ListB","woman","chinese","CFB4","","","","null","","","","","",""
"6407.599999964237","","","survey-text","224","724209","0.0-15.0-3.0","87903","ListB","woman","chinese","CFB4","","","","","{""Q0"":""贝斯正在答应弗雷""}","<img src='gifs/BlackGender1a.gif' style='height:400px;''></img>","答应","正在答应","chinese",""
"null","<div style=""font-size:60px;"">+</div>","","html-keyboard-response","225","724718","0.0-15.0-0.1","87903","ListB","woman","chinese","CFB4","","","","null","","","","","",""
"null","<img src='gifs/ChineseGender2a.gif' style='height:400px;''></img>","","html-keyboard-response","226","726727","0.0-15.0-1.1","87903","ListB","woman","chinese","CFB4","","","","null","","","","","",""
"null","正在面向","","html-keyboard-response","227","729735","0.0-15.0-2.1","87903","ListB","woman","chinese","CFB4","","","","null","","","","","",""
"4748.800000011921","","","survey-text","228","734488","0.0-15.0-3.1","87903","ListB","woman","chinese","CFB4","","","","","{""Q0"":""露丝正在面向卢克""}","<img src='gifs/ChineseGender2a.gif' style='height:400px;''></img>","面向","正在面向","chinese",""
"null","<div style=""font-size:60px;"">+</div>","","html-keyboard-response","229","734997","0.0-15.0-0.2","87903","ListB","woman","chinese","CFB4","","","","null","","","","","",""
"null","<img src='gifs/FemaleRace4a.gif' style='height:400px;''></img>","","html-keyboard-response","230","737011","0.0-15.0-1.2","87903","ListB","woman","chinese","CFB4","","","","null","","","","","",""
"null","正在提到","","html-keyboard-response","231","740018","0.0-15.0-2.2","87903","ListB","woman","chinese","CFB4","","","","null","","","","","",""
"5270.899999976158","","","survey-text","232","745292","0.0-15.0-3.2","87903","ListB","woman","chinese","CFB4","","","","","{""Q0"":""凯特正在提到露丝""}","<img src='gifs/FemaleRace4a.gif' style='height:400px;''></img>","提到","正在提到","chinese",""
"null","<div style=""font-size:60px;"">+</div>","","html-keyboard-response","233","745809","0.0-15.0-0.3","87903","ListB","woman","chinese","CFB4","","","","null","","","","","",""
"null","<img src='gifs/BlackGender1b.gif' style='height:400px;''></img>","","html-keyboard-response","234","747825","0.0-15.0-1.3","87903","ListB","woman","chinese","CFB4","","","","null","","","","","",""
"null","正在联系","","html-keyboard-response","235","750834","0.0-15.0-2.3","87903","ListB","woman","chinese","CFB4","","","","null","","","","","",""
"5483.5","","","survey-text","236","756321","0.0-15.0-3.3","87903","ListB","woman","chinese","CFB4","","","","","{""Q0"":""麦克正在联系贝斯""}","<img src='gifs/BlackGender1b.gif' style='height:400px;''></img>","联系","正在联系","chinese",""
"null","<div style=""font-size:60px;"">+</div>","","html-keyboard-response","237","756832","0.0-15.0-0.4","87903","ListB","woman","chinese","CFB4","","","","null","","","","","",""
"null","<img src='gifs/BlackGender1b.gif' style='height:400px;''></img>","","html-keyboard-response","238","758849","0.0-15.0-1.4","87903","ListB","woman","chinese","CFB4","","","","null","","","","","",""
"null","正在陪伴","","html-keyboard-response","239","761858","0.0-15.0-2.4","87903","ListB","woman","chinese","CFB4","","","","null","","","","","",""
"5007.5","","","survey-text","240","766868","0.0-15.0-3.4","87903","ListB","woman","chinese","CFB4","","","","","{""Q0"":""贝斯正在陪伴弗雷""}","<img src='gifs/BlackGender1b.gif' style='height:400px;''></img>","陪伴","正在陪伴","chinese",""
"null","<div style=""font-size:60px;"">+</div>","","html-keyboard-response","241","767388","0.0-15.0-0.5","87903","ListB","woman","chinese","CFB4","","","","null","","","","","",""
"null","<img src='gifs/FemaleRace1b.gif' style='height:400px;''></img>","","html-keyboard-response","242","769397","0.0-15.0-1.5","87903","ListB","woman","chinese","CFB4","","","","null","","","","","",""
"null","正在说服","","html-keyboard-response","243","772406","0.0-15.0-2.5","87903","ListB","woman","chinese","CFB4","","","","null","","","","","",""
"4299.699999988079","","","survey-text","244","776709","0.0-15.0-3.5","87903","ListB","woman","chinese","CFB4","","","","","{""Q0"":""霍普正在说服贝斯""}","<img src='gifs/FemaleRace1b.gif' style='height:400px;''></img>","说服","正在说服","chinese",""
"null","<div style=""font-size:60px;"">+</div>","","html-keyboard-response","245","777224","0.0-15.0-0.6","87903","ListB","woman","chinese","CFB4","","","","null","","","","","",""
"null","<img src='gifs/ChineseGender3b.gif' style='height:400px;''></img>","","html-keyboard-response","246","779239","0.0-15.0-1.6","87903","ListB","woman","chinese","CFB4","","","","null","","","","","",""
"null","正在聘用","","html-keyboard-response","247","782244","0.0-15.0-2.6","87903","ListB","woman","chinese","CFB4","","","","null","","","","","",""
"9123","","","survey-text","248","791371","0.0-15.0-3.6","87903","ListB","woman","chinese","CFB4","","","","","{""Q0"":""露丝正在聘用戴夫""}","<img src='gifs/ChineseGender3b.gif' style='height:400px;''></img>","聘用","正在聘用","chinese",""
"null","<div style=""font-size:60px;"">+</div>","","html-keyboard-response","249","791890","0.0-15.0-0.7","87903","ListB","woman","chinese","CFB4","","","","null","","","","","",""
"null","<img src='gifs/MaleRace4b.gif' style='height:400px;''></img>","","html-keyboard-response","250","793902","0.0-15.0-1.7","87903","ListB","woman","chinese","CFB4","","","","null","","","","","",""
"null","正在走向","","html-keyboard-response","251","796921","0.0-15.0-2.7","87903","ListB","woman","chinese","CFB4","","","","null","","","","","",""
"4883.199999988079","","","survey-text","252","801807","0.0-15.0-3.7","87903","ListB","woman","chinese","CFB4","","","","","{""Q0"":""戴夫正在走向麦克""}","<img src='gifs/MaleRace4b.gif' style='height:400px;''></img>","走向","正在走向","chinese",""
"null","<div style=""font-size:60px;"">+</div>","","html-keyboard-response","253","802327","0.0-15.0-0.8","87903","ListB","woman","chinese","CFB4","","","","null","","","","","",""
"null","<img src='gifs/FemaleRace2b.gif' style='height:400px;''></img>","","html-keyboard-response","254","804347","0.0-15.0-1.8","87903","ListB","woman","chinese","CFB4","","","","null","","","","","",""
"null","正在聆听","","html-keyboard-response","255","807370","0.0-15.0-2.8","87903","ListB","woman","chinese","CFB4","","","","null","","","","","",""
"6736.400000035763","","","survey-text","256","814108","0.0-15.0-3.8","87903","ListB","woman","chinese","CFB4","","","","","{""Q0"":""贝斯正在聆听凯特""}","<img src='gifs/FemaleRace2b.gif' style='height:400px;''></img>","聆听","正在聆听","chinese",""
"null","<div style=""font-size:60px;"">+</div>","","html-keyboard-response","257","814620","0.0-15.0-0.9","87903","ListB","woman","chinese","CFB4","","","","null","","","","","",""
"null","<img src='gifs/ChineseGender1b.gif' style='height:400px;''></img>","","html-keyboard-response","258","816634","0.0-15.0-1.9","87903","ListB","woman","chinese","CFB4","","","","null","","","","","",""
"null","正在陪伴","","html-keyboard-response","259","819644","0.0-15.0-2.9","87903","ListB","woman","chinese","CFB4","","","","null","","","","","",""
"5827.400000035763","","","survey-text","260","825474","0.0-15.0-3.9","87903","ListB","woman","chinese","CFB4","","","","","{""Q0"":""霍普正在陪伴卢克""}","<img src='gifs/ChineseGender1b.gif' style='height:400px;''></img>","陪伴","正在陪伴","chinese",""
"null","<div style=""font-size:60px;"">+</div>","","html-keyboard-response","261","825980","0.0-15.0-0.10","87903","ListB","woman","chinese","CFB4","","","","null","","","","","",""
"null","<img src='gifs/MaleRace3a.gif' style='height:400px;''></img>","","html-keyboard-response","262","827990","0.0-15.0-1.10","87903","ListB","woman","chinese","CFB4","","","","null","","","","","",""
"null","正在表扬","","html-keyboard-response","263","831000","0.0-15.0-2.10","87903","ListB","woman","chinese","CFB4","","","","null","","","","","",""
"6480.699999988079","","","survey-text","264","837484","0.0-15.0-3.10","87903","ListB","woman","chinese","CFB4","","","","","{""Q0"":""麦克正在表扬戴夫""}","<img src='gifs/MaleRace3a.gif' style='height:400px;''></img>","表扬","正在表扬","chinese",""
"null","<div style=""font-size:60px;"">+</div>","","html-keyboard-response","265","837994","0.0-15.0-0.11","87903","ListB","woman","chinese","CFB4","","","","null","","","","","",""
"null","<img src='gifs/ChineseGender3a.gif' style='height:400px;''></img>","","html-keyboard-response","266","840016","0.0-15.0-1.11","87903","ListB","woman","chinese","CFB4","","","","null","","","","","",""
"null","正在答应","","html-keyboard-response","267","843021","0.0-15.0-2.11","87903","ListB","woman","chinese","CFB4","","","","null","","","","","",""
"4725.399999976158","","","survey-text","268","847751","0.0-15.0-3.11","87903","ListB","woman","chinese","CFB4","","","","","{""Q0"":""戴夫正在答应露丝""}","<img src='gifs/ChineseGender3a.gif' style='height:400px;''></img>","答应","正在答应","chinese",""
"null","<div style=""font-size:60px;"">+</div>","","html-keyboard-response","269","848254","0.0-15.0-0.12","87903","ListB","woman","chinese","CFB4","","","","null","","","","","",""
"null","<img src='gifs/BlackGender4b.gif' style='height:400px;''></img>","","html-keyboard-response","270","850261","0.0-15.0-1.12","87903","ListB","woman","chinese","CFB4","","","","null","","","","","",""
"null","正在加入","","html-keyboard-response","271","853272","0.0-15.0-2.12","87903","ListB","woman","chinese","CFB4","","","","null","","","","","",""
"7230","","","survey-text","272","860504","0.0-15.0-3.12","87903","ListB","woman","chinese","CFB4","","","","","{""Q0"":""凯特正在加入麦克""}","<img src='gifs/BlackGender4b.gif' style='height:400px;''></img>","加入","正在加入","chinese",""
"null","<div style=""font-size:60px;"">+</div>","","html-keyboard-response","273","861027","0.0-15.0-0.13","87903","ListB","woman","chinese","CFB4","","","","null","","","","","",""
"null","<img src='gifs/MaleRace2a.gif' style='height:400px;''></img>","","html-keyboard-response","274","863038","0.0-15.0-1.13","87903","ListB","woman","chinese","CFB4","","","","null","","","","","",""
"null","正在提到","","html-keyboard-response","275","866059","0.0-15.0-2.13","87903","ListB","woman","chinese","CFB4","","","","null","","","","","",""
"5111.400000035763","","","survey-text","276","871174","0.0-15.0-3.13","87903","ListB","woman","chinese","CFB4","","","","","{""Q0"":""卢克正在提到麦克""}","<img src='gifs/MaleRace2a.gif' style='height:400px;''></img>","提到","正在提到","chinese",""
"null","<div style=""font-size:60px;"">+</div>","","html-keyboard-response","277","871676","0.0-15.0-0.14","87903","ListB","woman","chinese","CFB4","","","","null","","","","","",""
"null","<img src='gifs/BlackGender3a.gif' style='height:400px;''></img>","","html-keyboard-response","278","873682","0.0-15.0-1.14","87903","ListB","woman","chinese","CFB4","","","","null","","","","","",""
"null","正在表扬","","html-keyboard-response","279","876697","0.0-15.0-2.14","87903","ListB","woman","chinese","CFB4","","","","null","","","","","",""
"5897.099999964237","","","survey-text","280","882596","0.0-15.0-3.14","87903","ListB","woman","chinese","CFB4","","","","","{""Q0"":""弗雷正在表扬凯特""}","<img src='gifs/BlackGender3a.gif' style='height:400px;''></img>","表扬","正在表扬","chinese",""
"null","<div style=""font-size:60px;"">+</div>","","html-keyboard-response","281","883106","0.0-15.0-0.15","87903","ListB","woman","chinese","CFB4","","","","null","","","","","",""
"null","<img src='gifs/BlackGender4a.gif' style='height:400px;''></img>","","html-keyboard-response","282","885122","0.0-15.0-1.15","87903","ListB","woman","chinese","CFB4","","","","null","","","","","",""
"null","正在面向","","html-keyboard-response","283","888131","0.0-15.0-2.15","87903","ListB","woman","chinese","CFB4","","","","null","","","","","",""
"4600.900000035763","","","survey-text","284","892736","0.0-15.0-3.15","87903","ListB","woman","chinese","CFB4","","","","","{""Q0"":""麦克正在面向凯特""}","<img src='gifs/BlackGender4a.gif' style='height:400px;''></img>","面向","正在面向","chinese",""
"null","<div style=""font-size:60px;"">+</div>","","html-keyboard-response","285","893248","0.0-15.0-0.16","87903","ListB","woman","chinese","CFB4","","","","null","","","","","",""
"null","<img src='gifs/ChineseGender2b.gif' style='height:400px;''></img>","","html-keyboard-response","286","895265","0.0-15.0-1.16","87903","ListB","woman","chinese","CFB4","","","","null","","","","","",""
"null","正在聆听","","html-keyboard-response","287","898277","0.0-15.0-2.16","87903","ListB","woman","chinese","CFB4","","","","null","","","","","",""
"6038.699999988079","","","survey-text","288","904319","0.0-15.0-3.16","87903","ListB","woman","chinese","CFB4","","","","","{""Q0"":""卢克正在聆听露丝""}","<img src='gifs/ChineseGender2b.gif' style='height:400px;''></img>","聆听","正在聆听","chinese",""
"null","<div style=""font-size:60px;"">+</div>","","html-keyboard-response","289","904837","0.0-15.0-0.17","87903","ListB","woman","chinese","CFB4","","","","null","","","","","",""
"null","<img src='gifs/MaleRace1b.gif' style='height:400px;''></img>","","html-keyboard-response","290","906853","0.0-15.0-1.17","87903","ListB","woman","chinese","CFB4","","","","null","","","","","",""
"null","正在说服","","html-keyboard-response","291","909864","0.0-15.0-2.17","87903","ListB","woman","chinese","CFB4","","","","null","","","","","",""
"6305.800000011921","","","survey-text","292","916174","0.0-15.0-3.17","87903","ListB","woman","chinese","CFB4","","","","","{""Q0"":""弗雷正在说服卢克""}","<img src='gifs/MaleRace1b.gif' style='height:400px;''></img>","说服","正在说服","chinese",""
"2883.100000023842","<img src='img/portrait_matrix_listB_chinese.jpg' style='width:900px;height:500px;''></img><p>如果您已经记住了所有的人物和名字，请点击继续。</p><p><strong>请注意：您对先前记忆的面孔将在本实验中被测试5次。</strong></p>","0","html-button-response","293","919059","0.0-16.0-0.0","87903","ListB","woman","chinese","CFB4","","","","","","","","","",""
"1742.0999999642372","<img src=""portrait/BW1.jpg""style=""height:400px;""></img>","0","html-button-response","294","921808","0.0-16.0-1.0","87903","ListB","woman","chinese","CFB4","","true","0","","","","","","",""
"null","正确","","html-keyboard-response","295","923333","0.0-16.0-2.0-0.0","87903","ListB","woman","chinese","CFB4","","","","null","","","","","",""
"1552.699999988079","<img src=""portrait/BW2.jpg""style=""height:400px;""></img>","2","html-button-response","296","924888","0.0-16.0-4.0","87903","ListB","woman","chinese","CFB4","","true","2","","","","","","",""
"null","正确","","html-keyboard-response","297","926392","0.0-16.0-5.0-0.0","87903","ListB","woman","chinese","CFB4","","","","null","","","","","",""
"1680.5999999642372","<img src=""portrait/WW1.jpg""style=""height:400px;""></img>","1","html-button-response","298","928074","0.0-16.0-7.0","87903","ListB","woman","chinese","CFB4","","true","1","","","","","","",""
"null","正确","","html-keyboard-response","299","929579","0.0-16.0-8.0-0.0","87903","ListB","woman","chinese","CFB4","","","","null","","","","","",""
"4395.5","<img src=""portrait/WM2.jpg""style=""height:400px;""></img>","7","html-button-response","300","933976","0.0-16.0-10.0","87903","ListB","woman","chinese","CFB4","","true","7","","","","","","",""
"null","正确","","html-keyboard-response","301","935500","0.0-16.0-11.0-0.0","87903","ListB","woman","chinese","CFB4","","","","null","","","","","",""
"2188.399999976158","<img src=""portrait/WM1.jpg""style=""height:400px;""></img>","6","html-button-response","302","937690","0.0-16.0-13.0","87903","ListB","woman","chinese","CFB4","","true","6","","","","","","",""
"null","正确","","html-keyboard-response","303","939195","0.0-16.0-14.0-0.0","87903","ListB","woman","chinese","CFB4","","","","null","","","","","",""
"2903.699999988079","<img src=""portrait/BM2.jpg""style=""height:400px;""></img>","5","html-button-response","304","942101","0.0-16.0-16.0","87903","ListB","woman","chinese","CFB4","","true","5","","","","","","",""
"null","正确","","html-keyboard-response","305","943611","0.0-16.0-17.0-0.0","87903","ListB","woman","chinese","CFB4","","","","null","","","","","",""
"2275.899999976158","<img src=""portrait/BM1.jpg""style=""height:400px;""></img>","4","html-button-response","306","945889","0.0-16.0-19.0","87903","ListB","woman","chinese","CFB4","","true","4","","","","","","",""
"null","正确","","html-keyboard-response","307","947424","0.0-16.0-20.0-0.0","87903","ListB","woman","chinese","CFB4","","","","null","","","","","",""
"2593.5","<img src=""portrait/WW2.jpg""style=""height:400px;""></img>","3","html-button-response","308","950020","0.0-16.0-22.0","87903","ListB","woman","chinese","CFB4","","true","3","","","","","","",""
"null","正确","","html-keyboard-response","309","951544","0.0-16.0-23.0-0.0","87903","ListB","woman","chinese","CFB4","","","","null","","","","","",""
"886.6000000238419","<p>您第一次在8题里答对了 8 题。 请点击继续</p>","0","html-button-response","310","952434","0.0-16.0-25.0","87903","ListB","woman","chinese","CFB4","","","","","","","","","",""
"null","<div style=""font-size:60px;"">+</div>","","html-keyboard-response","311","953969","0.0-17.0-0.0","87903","ListB","woman","chinese","CFB4","","","","null","","","","","",""
"null","<img src='gifs/MaleRace1b.gif' style='height:400px;''></img>","","html-keyboard-response","312","955985","0.0-17.0-1.0","87903","ListB","woman","chinese","CFB4","","","","null","","","","","",""
"null","正在介绍","","html-keyboard-response","313","958996","0.0-17.0-2.0","87903","ListB","woman","chinese","CFB4","","","","null","","","","","",""
"4961.799999952316","","","survey-text","314","963960","0.0-17.0-3.0","87903","ListB","woman","chinese","CFB4","","","","","{""Q0"":""卢克正在介绍弗雷""}","<img src='gifs/MaleRace1b.gif' style='height:400px;''></img>","介绍","正在介绍","chinese",""
"null","<div style=""font-size:60px;"">+</div>","","html-keyboard-response","315","964470","0.0-17.0-0.1","87903","ListB","woman","chinese","CFB4","","","","null","","","","","",""
"null","<img src='gifs/FemaleRace4a.gif' style='height:400px;''></img>","","html-keyboard-response","316","966490","0.0-17.0-1.1","87903","ListB","woman","chinese","CFB4","","","","null","","","","","",""
"null","正在陪伴","","html-keyboard-response","317","969500","0.0-17.0-2.1","87903","ListB","woman","chinese","CFB4","","","","null","","","","","",""
"4024.599999964237","","","survey-text","318","973530","0.0-17.0-3.1","87903","ListB","woman","chinese","CFB4","","","","","{""Q0"":""露丝正在陪伴凯特""}","<img src='gifs/FemaleRace4a.gif' style='height:400px;''></img>","陪伴","正在陪伴","chinese",""
"null","<div style=""font-size:60px;"">+</div>","","html-keyboard-response","319","974043","0.0-17.0-0.2","87903","ListB","woman","chinese","CFB4","","","","null","","","","","",""
"null","<img src='gifs/MaleRace4a.gif' style='height:400px;''></img>","","html-keyboard-response","320","976059","0.0-17.0-1.2","87903","ListB","woman","chinese","CFB4","","","","null","","","","","",""
"null","正在提到","","html-keyboard-response","321","979074","0.0-17.0-2.2","87903","ListB","woman","chinese","CFB4","","","","null","","","","","",""
"6656.200000047684","","","survey-text","322","985734","0.0-17.0-3.2","87903","ListB","woman","chinese","CFB4","","","","","{""Q0"":""麦克正在提到戴夫""}","<img src='gifs/MaleRace4a.gif' style='height:400px;''></img>","提到","正在提到","chinese",""
"null","<div style=""font-size:60px;"">+</div>","","html-keyboard-response","323","986244","0.0-17.0-0.3","87903","ListB","woman","chinese","CFB4","","","","null","","","","","",""
"null","<img src='gifs/ChineseGender3b.gif' style='height:400px;''></img>","","html-keyboard-response","324","988273","0.0-17.0-1.3","87903","ListB","woman","chinese","CFB4","","","","null","","","","","",""
"null","正在表扬","","html-keyboard-response","325","991289","0.0-17.0-2.3","87903","ListB","woman","chinese","CFB4","","","","null","","","","","",""
"4444.199999988079","","","survey-text","326","995736","0.0-17.0-3.3","87903","ListB","woman","chinese","CFB4","","","","","{""Q0"":""戴夫正在表扬露丝""}","<img src='gifs/ChineseGender3b.gif' style='height:400px;''></img>","表扬","正在表扬","chinese",""
"null","<div style=""font-size:60px;"">+</div>","","html-keyboard-response","327","996251","0.0-17.0-0.4","87903","ListB","woman","chinese","CFB4","","","","null","","","","","",""
"null","<img src='gifs/FemaleRace1a.gif' style='height:400px;''></img>","","html-keyboard-response","328","998260","0.0-17.0-1.4","87903","ListB","woman","chinese","CFB4","","","","null","","","","","",""
"null","正在触摸","","html-keyboard-response","329","1001274","0.0-17.0-2.4","87903","ListB","woman","chinese","CFB4","","","","null","","","","","",""
"5627.899999976158","","","survey-text","330","1006906","0.0-17.0-3.4","87903","ListB","woman","chinese","CFB4","","","","","{""Q0"":""贝斯正在触摸霍普""}","<img src='gifs/FemaleRace1a.gif' style='height:400px;''></img>","触摸","正在触摸","chinese",""
"null","<div style=""font-size:60px;"">+</div>","","html-keyboard-response","331","1007425","0.0-17.0-0.5","87903","ListB","woman","chinese","CFB4","","","","null","","","","","",""
"null","<img src='gifs/MaleRace2b.gif' style='height:400px;''></img>","","html-keyboard-response","332","1009443","0.0-17.0-1.5","87903","ListB","woman","chinese","CFB4","","","","null","","","","","",""
"null","正在聘用","","html-keyboard-response","333","1012460","0.0-17.0-2.5","87903","ListB","woman","chinese","CFB4","","","","null","","","","","",""
"7807.199999988079","","","survey-text","334","1020270","0.0-17.0-3.5","87903","ListB","woman","chinese","CFB4","","","","","{""Q0"":""麦克正在聘用卢克""}","<img src='gifs/MaleRace2b.gif' style='height:400px;''></img>","聘用","正在聘用","chinese",""
"null","<div style=""font-size:60px;"">+</div>","","html-keyboard-response","335","1020782","0.0-17.0-0.6","87903","ListB","woman","chinese","CFB4","","","","null","","","","","",""
"null","<img src='gifs/MaleRace2a.gif' style='height:400px;''></img>","","html-keyboard-response","336","1022797","0.0-17.0-1.6","87903","ListB","woman","chinese","CFB4","","","","null","","","","","",""
"null","正在触摸","","html-keyboard-response","337","1025818","0.0-17.0-2.6","87903","ListB","woman","chinese","CFB4","","","","null","","","","","",""
"4673.600000023842","","","survey-text","338","1030494","0.0-17.0-3.6","87903","ListB","woman","chinese","CFB4","","","","","{""Q0"":""麦克正在触摸卢克""}","<img src='gifs/MaleRace2a.gif' style='height:400px;''></img>","触摸","正在触摸","chinese",""
"null","<div style=""font-size:60px;"">+</div>","","html-keyboard-response","339","1030997","0.0-17.0-0.7","87903","ListB","woman","chinese","CFB4","","","","null","","","","","",""
"null","<img src='gifs/BlackGender1a.gif' style='height:400px;''></img>","","html-keyboard-response","340","1033005","0.0-17.0-1.7","87903","ListB","woman","chinese","CFB4","","","","null","","","","","",""
"null","正在聆听","","html-keyboard-response","341","1036025","0.0-17.0-2.7","87903","ListB","woman","chinese","CFB4","","","","null","","","","","",""
"7160.699999988079","","","survey-text","342","1043188","0.0-17.0-3.7","87903","ListB","woman","chinese","CFB4","","","","","{""Q0"":""弗雷正在聆听贝斯""}","<img src='gifs/BlackGender1a.gif' style='height:400px;''></img>","聆听","正在聆听","chinese",""
"null","<div style=""font-size:60px;"">+</div>","","html-keyboard-response","343","1043693","0.0-17.0-0.8","87903","ListB","woman","chinese","CFB4","","","","null","","","","","",""
"null","<img src='gifs/BlackGender3b.gif' style='height:400px;''></img>","","html-keyboard-response","344","1045705","0.0-17.0-1.8","87903","ListB","woman","chinese","CFB4","","","","null","","","","","",""
"null","正在加入","","html-keyboard-response","345","1048716","0.0-17.0-2.8","87903","ListB","woman","chinese","CFB4","","","","null","","","","","",""
"4368.099999964237","","","survey-text","346","1053088","0.0-17.0-3.8","87903","ListB","woman","chinese","CFB4","","","","","{""Q0"":""弗雷正在加入凯特""}","<img src='gifs/BlackGender3b.gif' style='height:400px;''></img>","加入","正在加入","chinese",""
"null","<div style=""font-size:60px;"">+</div>","","html-keyboard-response","347","1053600","0.0-17.0-0.9","87903","ListB","woman","chinese","CFB4","","","","null","","","","","",""
"null","<img src='gifs/ChineseGender4b.gif' style='height:400px;''></img>","","html-keyboard-response","348","1055612","0.0-17.0-1.9","87903","ListB","woman","chinese","CFB4","","","","null","","","","","",""
"null","正在接近","","html-keyboard-response","349","1058619","0.0-17.0-2.9","87903","ListB","woman","chinese","CFB4","","","","null","","","","","",""
"4349.599999964237","","","survey-text","350","1062971","0.0-17.0-3.9","87903","ListB","woman","chinese","CFB4","","","","","{""Q0"":""戴夫正在接近霍普""}","<img src='gifs/ChineseGender4b.gif' style='height:400px;''></img>","接近","正在接近","chinese",""
"null","<div style=""font-size:60px;"">+</div>","","html-keyboard-response","351","1063485","0.0-17.0-0.10","87903","ListB","woman","chinese","CFB4","","","","null","","","","","",""
"null","<img src='gifs/FemaleRace1a.gif' style='height:400px;''></img>","","html-keyboard-response","352","1065492","0.0-17.0-1.10","87903","ListB","woman","chinese","CFB4","","","","null","","","","","",""
"null","正在走向","","html-keyboard-response","353","1068514","0.0-17.0-2.10","87903","ListB","woman","chinese","CFB4","","","","null","","","","","",""
"4329.099999964237","","","survey-text","354","1072847","0.0-17.0-3.10","87903","ListB","woman","chinese","CFB4","","","","","{""Q0"":""霍普正在走向贝斯""}","<img src='gifs/FemaleRace1a.gif' style='height:400px;''></img>","走向","正在走向","chinese",""
"null","<div style=""font-size:60px;"">+</div>","","html-keyboard-response","355","1073353","0.0-17.0-0.11","87903","ListB","woman","chinese","CFB4","","","","null","","","","","",""
"null","<img src='gifs/MaleRace1a.gif' style='height:400px;''></img>","","html-keyboard-response","356","1075355","0.0-17.0-1.11","87903","ListB","woman","chinese","CFB4","","","","null","","","","","",""
"null","正在陪伴","","html-keyboard-response","357","1078371","0.0-17.0-2.11","87903","ListB","woman","chinese","CFB4","","","","null","","","","","",""
"4733.399999976158","","","survey-text","358","1083110","0.0-17.0-3.11","87903","ListB","woman","chinese","CFB4","","","","","{""Q0"":""卢克正在陪伴弗雷""}","<img src='gifs/MaleRace1a.gif' style='height:400px;''></img>","陪伴","正在陪伴","chinese",""
"null","<div style=""font-size:60px;"">+</div>","","html-keyboard-response","359","1083624","0.0-17.0-0.12","87903","ListB","woman","chinese","CFB4","","","","null","","","","","",""
"null","<img src='gifs/FemaleRace3a.gif' style='height:400px;''></img>","","html-keyboard-response","360","1085629","0.0-17.0-1.12","87903","ListB","woman","chinese","CFB4","","","","null","","","","","",""
"null","正在聘用","","html-keyboard-response","361","1088647","0.0-17.0-2.12","87903","ListB","woman","chinese","CFB4","","","","null","","","","","",""
"7495","","","survey-text","362","1096145","0.0-17.0-3.12","87903","ListB","woman","chinese","CFB4","","","","","{""Q0"":""露丝正在聘用贝斯""}","<img src='gifs/FemaleRace3a.gif' style='height:400px;''></img>","聘用","正在聘用","chinese",""
"null","<div style=""font-size:60px;"">+</div>","","html-keyboard-response","363","1096657","0.0-17.0-0.13","87903","ListB","woman","chinese","CFB4","","","","null","","","","","",""
"null","<img src='gifs/BlackGender2a.gif' style='height:400px;''></img>","","html-keyboard-response","364","1098665","0.0-17.0-1.13","87903","ListB","woman","chinese","CFB4","","","","null","","","","","",""
"null","正在面向","","html-keyboard-response","365","1101676","0.0-17.0-2.13","87903","ListB","woman","chinese","CFB4","","","","null","","","","","",""
"7110.600000023842","","","survey-text","366","1108790","0.0-17.0-3.13","87903","ListB","woman","chinese","CFB4","","","","","{""Q0"":""麦克正在面向贝斯""}","<img src='gifs/BlackGender2a.gif' style='height:400px;''></img>","面向","正在面向","chinese",""
"null","<div style=""font-size:60px;"">+</div>","","html-keyboard-response","367","1109296","0.0-17.0-0.14","87903","ListB","woman","chinese","CFB4","","","","null","","","","","",""
"null","<img src='gifs/MaleRace1a.gif' style='height:400px;''></img>","","html-keyboard-response","368","1111307","0.0-17.0-1.14","87903","ListB","woman","chinese","CFB4","","","","null","","","","","",""
"null","正在联系","","html-keyboard-response","369","1114323","0.0-17.0-2.14","87903","ListB","woman","chinese","CFB4","","","","null","","","","","",""
"5403","","","survey-text","370","1119729","0.0-17.0-3.14","87903","ListB","woman","chinese","CFB4","","","","","{""Q0"":""弗雷正在联系卢克""}","<img src='gifs/MaleRace1a.gif' style='height:400px;''></img>","联系","正在联系","chinese",""
"null","<div style=""font-size:60px;"">+</div>","","html-keyboard-response","371","1120234","0.0-17.0-0.15","87903","ListB","woman","chinese","CFB4","","","","null","","","","","",""
"null","<img src='gifs/FemaleRace2b.gif' style='height:400px;''></img>","","html-keyboard-response","372","1122261","0.0-17.0-1.15","87903","ListB","woman","chinese","CFB4","","","","null","","","","","",""
"null","正在聆听","","html-keyboard-response","373","1125280","0.0-17.0-2.15","87903","ListB","woman","chinese","CFB4","","","","null","","","","","",""
"6956.300000011921","","","survey-text","374","1132239","0.0-17.0-3.15","87903","ListB","woman","chinese","CFB4","","","","","{""Q0"":""凯特正在聆听霍普""}","<img src='gifs/FemaleRace2b.gif' style='height:400px;''></img>","聆听","正在聆听","chinese",""
"null","<div style=""font-size:60px;"">+</div>","","html-keyboard-response","375","1132754","0.0-17.0-0.16","87903","ListB","woman","chinese","CFB4","","","","null","","","","","",""
"null","<img src='gifs/BlackGender2b.gif' style='height:400px;''></img>","","html-keyboard-response","376","1134769","0.0-17.0-1.16","87903","ListB","woman","chinese","CFB4","","","","null","","","","","",""
"null","正在跟随","","html-keyboard-response","377","1137777","0.0-17.0-2.16","87903","ListB","woman","chinese","CFB4","","","","null","","","","","",""
"4709.800000011921","","","survey-text","378","1142489","0.0-17.0-3.16","87903","ListB","woman","chinese","CFB4","","","","","{""Q0"":""霍普正在跟随麦克""}","<img src='gifs/BlackGender2b.gif' style='height:400px;''></img>","跟随","正在跟随","chinese",""
"null","<div style=""font-size:60px;"">+</div>","","html-keyboard-response","379","1143008","0.0-17.0-0.17","87903","ListB","woman","chinese","CFB4","","","","null","","","","","",""
"null","<img src='gifs/ChineseGender3a.gif' style='height:400px;''></img>","","html-keyboard-response","380","1145020","0.0-17.0-1.17","87903","ListB","woman","chinese","CFB4","","","","null","","","","","",""
"null","正在跟随","","html-keyboard-response","381","1148031","0.0-17.0-2.17","87903","ListB","woman","chinese","CFB4","","","","null","","","","","",""
"5283.700000047684","","","survey-text","382","1153317","0.0-17.0-3.17","87903","ListB","woman","chinese","CFB4","","","","","{""Q0"":""露丝正在跟随戴夫""}","<img src='gifs/ChineseGender3a.gif' style='height:400px;''></img>","跟随","正在跟随","chinese",""
"2825.399999976158","<p>Thank you for completing that task.</p><p>The final part of this session is a short questionnaire.</p><p>Press Continue.</p>","0","html-button-response","383","1156144","0.0-18.0","87903","ListB","woman","chinese","CFB4","","","","","","","","","",""
"31956.899999976158","","","survey-text","384","1189110","0.0-19.0","87903","ListB","woman","chinese","CFB4","","","","","{""Q0"":""22"",""Q1"":""Chinese"",""Q2"":""English"",""Q3"":""UK"",""Q4"":""Chinese"",""Q5"":""Asian"",""Q6"":""Female""}","","","","","demographics"
"4494.099999964237","<p>Have you lived in the UK for the last 5 years or more?</p>","0","html-button-response","385","1193606","0.0-20.0","87903","ListB","woman","chinese","CFB4","","","","","","","","","","fiveyears"
"70205.40000003576","","","external-html","386","1264865","0.0-21.0","87903","ListB","woman","chinese","CFB4","debrief.html","","","","","","","","",""
"9865.600000023842","","","survey-text","387","1274735","0.0-22.0","87903","ListB","woman","chinese","CFB4","","","","","{""ptpt_id"":""CFB4""}","","","","","worker_id"
