"rt","stimulus","button_pressed","trial_type","trial_index","time_elapsed","internal_node_id","subject","list","ppt_gender","ppt_language","ptptID","url","first_guess","correct","key_press","responses","image","verb","phrase","condition","test_part"
"2315.5999999046326","Welcome to the experiment. Press Continue to begin.","0","html-button-response","0","2317","0.0-0.0","83602","ListB","man","english","EMB1","","","","","","","","","",""
"26317.599999904633","","","external-html","1","29680","0.0-1.0","83602","ListB","man","english","EMB1","consent.html","","","","","","","","",""
"8202.599999904633","<p>On the next page, you will see portraits of 8 people and their names.</p><p>Your first task is to take a few minutes to memorise the names of these people.</p><p>You will have to recall their names during the rest of the experiment, so it is</p><p>essential that you try to memorise these people and their names as best as you can.</p><p><strong>You will then be tested on your memory of these names and portraits.</strong></p><p>The experiment will start after you have completed this memory test.</p><p>Ready?</p>","0","html-button-response","2","37884","0.0-2.0","83602","ListB","man","english","EMB1","","","","","","","","","",""
"30933.799999713898","<img src='img/portrait_matrix_listB.jpg' style='width:900px;height:500px;''></img><p>If you have memorised all the portraits and names and are ready to start, press Continue.</p><p><strong>Please note: Your memory of these faces will be tested 5 times during this experiment.</strong></p>","0","html-button-response","3","69819","0.0-3.0-0.0","83602","ListB","man","english","EMB1","","","","","","","","","",""
"8794.599999904633","<img src=""portrait/WW2.jpg""style=""height:400px;""></img>","2","html-button-response","4","79616","0.0-3.0-1.0","83602","ListB","man","english","EMB1","","true","3","","","","","","",""
"3434.5999999046326","<img src=""portrait/WW2.jpg""style=""height:400px;""></img>","3","html-button-response","5","84055","0.0-3.0-3.0-0.0","83602","ListB","man","english","EMB1","","false","3","","","","","","",""
"null","CORRECT","","html-keyboard-response","6","85567","0.0-3.0-3.0-1.0-0.0","83602","ListB","man","english","EMB1","","","","null","","","","","",""
"6932","<img src=""portrait/BW1.jpg""style=""height:400px;""></img>","7","html-button-response","7","92501","0.0-3.0-4.0","83602","ListB","man","english","EMB1","","true","0","","","","","","",""
"2095.5","<img src=""portrait/BW1.jpg""style=""height:400px;""></img>","0","html-button-response","8","95598","0.0-3.0-6.0-0.0","83602","ListB","man","english","EMB1","","false","0","","","","","","",""
"null","CORRECT","","html-keyboard-response","9","97102","0.0-3.0-6.0-1.0-0.0","83602","ListB","man","english","EMB1","","","","null","","","","","",""
"2030.6999998092651","<img src=""portrait/WM2.jpg""style=""height:400px;""></img>","7","html-button-response","10","99134","0.0-3.0-7.0","83602","ListB","man","english","EMB1","","true","7","","","","","","",""
"null","CORRECT","","html-keyboard-response","11","100635","0.0-3.0-8.0-0.0","83602","ListB","man","english","EMB1","","","","null","","","","","",""
"6204.39999961853","<img src=""portrait/BM1.jpg""style=""height:400px;""></img>","6","html-button-response","12","106841","0.0-3.0-10.0","83602","ListB","man","english","EMB1","","true","4","","","","","","",""
"1830.1999998092651","<img src=""portrait/BM1.jpg""style=""height:400px;""></img>","4","html-button-response","13","109676","0.0-3.0-12.0-0.0","83602","ListB","man","english","EMB1","","false","4","","","","","","",""
"null","CORRECT","","html-keyboard-response","14","111188","0.0-3.0-12.0-1.0-0.0","83602","ListB","man","english","EMB1","","","","null","","","","","",""
"2414","<img src=""portrait/BM2.jpg""style=""height:400px;""></img>","5","html-button-response","15","113604","0.0-3.0-13.0","83602","ListB","man","english","EMB1","","true","5","","","","","","",""
"null","CORRECT","","html-keyboard-response","16","115117","0.0-3.0-14.0-0.0","83602","ListB","man","english","EMB1","","","","null","","","","","",""
"4902.400000095367","<img src=""portrait/BW2.jpg""style=""height:400px;""></img>","0","html-button-response","17","120021","0.0-3.0-16.0","83602","ListB","man","english","EMB1","","true","2","","","","","","",""
"1585.5","<img src=""portrait/BW2.jpg""style=""height:400px;""></img>","2","html-button-response","18","122615","0.0-3.0-18.0-0.0","83602","ListB","man","english","EMB1","","false","2","","","","","","",""
"null","CORRECT","","html-keyboard-response","19","124122","0.0-3.0-18.0-1.0-0.0","83602","ListB","man","english","EMB1","","","","null","","","","","",""
"86666.5","<img src=""portrait/WW1.jpg""style=""height:400px;""></img>","2","html-button-response","20","210787","0.0-3.0-19.0","83602","ListB","man","english","EMB1","","true","1","","","","","","",""
"1827.3000001907349","<img src=""portrait/WW1.jpg""style=""height:400px;""></img>","1","html-button-response","21","213619","0.0-3.0-21.0-0.0","83602","ListB","man","english","EMB1","","false","1","","","","","","",""
"null","CORRECT","","html-keyboard-response","22","215134","0.0-3.0-21.0-1.0-0.0","83602","ListB","man","english","EMB1","","","","null","","","","","",""
"1974.7000002861023","<img src=""portrait/WM1.jpg""style=""height:400px;""></img>","7","html-button-response","23","217110","0.0-3.0-22.0","83602","ListB","man","english","EMB1","","true","6","","","","","","",""
"1743","<img src=""portrait/WM1.jpg""style=""height:400px;""></img>","6","html-button-response","24","219860","0.0-3.0-24.0-0.0","83602","ListB","man","english","EMB1","","false","6","","","","","","",""
"null","CORRECT","","html-keyboard-response","25","221367","0.0-3.0-24.0-1.0-0.0","83602","ListB","man","english","EMB1","","","","null","","","","","",""
"5153.299999713898","<p>You got 2 out of 8 right first time. Press Continue.</p>","0","html-button-response","26","226521","0.0-3.0-25.0","83602","ListB","man","english","EMB1","","","","","","","","","",""
"2740.6000003814697","As you did not score 100%, the memory game will repeat. Press Continue.","0","html-button-response","27","230267","0.0-3.0-26.0-0.0","83602","ListB","man","english","EMB1","","","","","","","","","",""
"8680.799999713898","<img src='img/portrait_matrix_listB.jpg' style='width:900px;height:500px;''></img><p>If you have memorised all the portraits and names and are ready to start, press Continue.</p><p><strong>Please note: Your memory of these faces will be tested 5 times during this experiment.</strong></p>","0","html-button-response","28","239950","0.0-3.1-0.1","83602","ListB","man","english","EMB1","","","","","","","","","",""
"1454.4000000953674","<img src=""portrait/WW2.jpg""style=""height:400px;""></img>","3","html-button-response","29","242405","0.0-3.1-1.1","83602","ListB","man","english","EMB1","","true","3","","","","","","",""
"null","CORRECT","","html-keyboard-response","30","243917","0.0-3.1-2.1-0.1","83602","ListB","man","english","EMB1","","","","null","","","","","",""
"3334.5999999046326","<img src=""portrait/BW1.jpg""style=""height:400px;""></img>","0","html-button-response","31","247253","0.0-3.1-4.1","83602","ListB","man","english","EMB1","","true","0","","","","","","",""
"null","CORRECT","","html-keyboard-response","32","248765","0.0-3.1-5.1-0.1","83602","ListB","man","english","EMB1","","","","null","","","","","",""
"2515.0999999046326","<img src=""portrait/WM2.jpg""style=""height:400px;""></img>","6","html-button-response","33","251282","0.0-3.1-7.1","83602","ListB","man","english","EMB1","","true","7","","","","","","",""
"1533.6999998092651","<img src=""portrait/WM2.jpg""style=""height:400px;""></img>","7","html-button-response","34","253817","0.0-3.1-9.1-0.1","83602","ListB","man","english","EMB1","","false","7","","","","","","",""
"null","CORRECT","","html-keyboard-response","35","255333","0.0-3.1-9.1-1.1-0.1","83602","ListB","man","english","EMB1","","","","null","","","","","",""
"2666.199999809265","<img src=""portrait/BM1.jpg""style=""height:400px;""></img>","4","html-button-response","36","258000","0.0-3.1-10.1","83602","ListB","man","english","EMB1","","true","4","","","","","","",""
"null","CORRECT","","html-keyboard-response","37","259509","0.0-3.1-11.1-0.1","83602","ListB","man","english","EMB1","","","","null","","","","","",""
"1322","<img src=""portrait/BM2.jpg""style=""height:400px;""></img>","5","html-button-response","38","260832","0.0-3.1-13.1","83602","ListB","man","english","EMB1","","true","5","","","","","","",""
"null","CORRECT","","html-keyboard-response","39","262340","0.0-3.1-14.1-0.1","83602","ListB","man","english","EMB1","","","","null","","","","","",""
"2829.5999999046326","<img src=""portrait/BW2.jpg""style=""height:400px;""></img>","2","html-button-response","40","265171","0.0-3.1-16.1","83602","ListB","man","english","EMB1","","true","2","","","","","","",""
"null","CORRECT","","html-keyboard-response","41","266684","0.0-3.1-17.1-0.1","83602","ListB","man","english","EMB1","","","","null","","","","","",""
"1957.2000002861023","<img src=""portrait/WW1.jpg""style=""height:400px;""></img>","1","html-button-response","42","268643","0.0-3.1-19.1","83602","ListB","man","english","EMB1","","true","1","","","","","","",""
"null","CORRECT","","html-keyboard-response","43","270154","0.0-3.1-20.1-0.1","83602","ListB","man","english","EMB1","","","","null","","","","","",""
"3694","<img src=""portrait/WM1.jpg""style=""height:400px;""></img>","7","html-button-response","44","273850","0.0-3.1-22.1","83602","ListB","man","english","EMB1","","true","6","","","","","","",""
"1136.9000000953674","<img src=""portrait/WM1.jpg""style=""height:400px;""></img>","6","html-button-response","45","275988","0.0-3.1-24.1-0.1","83602","ListB","man","english","EMB1","","false","6","","","","","","",""
"null","CORRECT","","html-keyboard-response","46","277499","0.0-3.1-24.1-1.1-0.1","83602","ListB","man","english","EMB1","","","","null","","","","","",""
"1752.4000000953674","<p>You got 6 out of 8 right first time. Press Continue.</p>","0","html-button-response","47","279252","0.0-3.1-25.1","83602","ListB","man","english","EMB1","","","","","","","","","",""
"1497.5","As you did not score 100%, the memory game will repeat. Press Continue.","0","html-button-response","48","281757","0.0-3.1-26.1-0.1","83602","ListB","man","english","EMB1","","","","","","","","","",""
"18346.099999904633","<img src='img/portrait_matrix_listB.jpg' style='width:900px;height:500px;''></img><p>If you have memorised all the portraits and names and are ready to start, press Continue.</p><p><strong>Please note: Your memory of these faces will be tested 5 times during this experiment.</strong></p>","0","html-button-response","49","301112","0.0-3.2-0.2","83602","ListB","man","english","EMB1","","","","","","","","","",""
"1564.6999998092651","<img src=""portrait/WW2.jpg""style=""height:400px;""></img>","3","html-button-response","50","303682","0.0-3.2-1.2","83602","ListB","man","english","EMB1","","true","3","","","","","","",""
"null","CORRECT","","html-keyboard-response","51","305183","0.0-3.2-2.2-0.2","83602","ListB","man","english","EMB1","","","","null","","","","","",""
"9756.5","<img src=""portrait/BW1.jpg""style=""height:400px;""></img>","2","html-button-response","52","314940","0.0-3.2-4.2","83602","ListB","man","english","EMB1","","true","0","","","","","","",""
"1110.0999999046326","<img src=""portrait/BW1.jpg""style=""height:400px;""></img>","0","html-button-response","53","317059","0.0-3.2-6.2-0.2","83602","ListB","man","english","EMB1","","false","0","","","","","","",""
"null","CORRECT","","html-keyboard-response","54","318567","0.0-3.2-6.2-1.2-0.2","83602","ListB","man","english","EMB1","","","","null","","","","","",""
"1919.3000001907349","<img src=""portrait/WM2.jpg""style=""height:400px;""></img>","6","html-button-response","55","320487","0.0-3.2-7.2","83602","ListB","man","english","EMB1","","true","7","","","","","","",""
"953.2000002861023","<img src=""portrait/WM2.jpg""style=""height:400px;""></img>","7","html-button-response","56","322446","0.0-3.2-9.2-0.2","83602","ListB","man","english","EMB1","","false","7","","","","","","",""
"null","CORRECT","","html-keyboard-response","57","323956","0.0-3.2-9.2-1.2-0.2","83602","ListB","man","english","EMB1","","","","null","","","","","",""
"1754","<img src=""portrait/BM1.jpg""style=""height:400px;""></img>","4","html-button-response","58","325711","0.0-3.2-10.2","83602","ListB","man","english","EMB1","","true","4","","","","","","",""
"null","CORRECT","","html-keyboard-response","59","327217","0.0-3.2-11.2-0.2","83602","ListB","man","english","EMB1","","","","null","","","","","",""
"1829.5999999046326","<img src=""portrait/BM2.jpg""style=""height:400px;""></img>","5","html-button-response","60","329047","0.0-3.2-13.2","83602","ListB","man","english","EMB1","","true","5","","","","","","",""
"null","CORRECT","","html-keyboard-response","61","330555","0.0-3.2-14.2-0.2","83602","ListB","man","english","EMB1","","","","null","","","","","",""
"1398.2999997138977","<img src=""portrait/BW2.jpg""style=""height:400px;""></img>","3","html-button-response","62","331954","0.0-3.2-16.2","83602","ListB","man","english","EMB1","","true","2","","","","","","",""
"958.5","<img src=""portrait/BW2.jpg""style=""height:400px;""></img>","2","html-button-response","63","333923","0.0-3.2-18.2-0.2","83602","ListB","man","english","EMB1","","false","2","","","","","","",""
"null","CORRECT","","html-keyboard-response","64","335434","0.0-3.2-18.2-1.2-0.2","83602","ListB","man","english","EMB1","","","","null","","","","","",""
"1552.6999998092651","<img src=""portrait/WW1.jpg""style=""height:400px;""></img>","1","html-button-response","65","336987","0.0-3.2-19.2","83602","ListB","man","english","EMB1","","true","1","","","","","","",""
"null","CORRECT","","html-keyboard-response","66","338499","0.0-3.2-20.2-0.2","83602","ListB","man","english","EMB1","","","","null","","","","","",""
"1378.2000002861023","<img src=""portrait/WM1.jpg""style=""height:400px;""></img>","6","html-button-response","67","339878","0.0-3.2-22.2","83602","ListB","man","english","EMB1","","true","6","","","","","","",""
"null","CORRECT","","html-keyboard-response","68","341386","0.0-3.2-23.2-0.2","83602","ListB","man","english","EMB1","","","","null","","","","","",""
"614","<p>You got 5 out of 8 right first time. Press Continue.</p>","0","html-button-response","69","342001","0.0-3.2-25.2","83602","ListB","man","english","EMB1","","","","","","","","","",""
"1585.4000000953674","As you did not score 100%, the memory game will repeat. Press Continue.","0","html-button-response","70","344594","0.0-3.2-26.2-0.2","83602","ListB","man","english","EMB1","","","","","","","","","",""
"6835.5","<img src='img/portrait_matrix_listB.jpg' style='width:900px;height:500px;''></img><p>If you have memorised all the portraits and names and are ready to start, press Continue.</p><p><strong>Please note: Your memory of these faces will be tested 5 times during this experiment.</strong></p>","0","html-button-response","71","352435","0.0-3.3-0.3","83602","ListB","man","english","EMB1","","","","","","","","","",""
"765.6999998092651","<img src=""portrait/WW2.jpg""style=""height:400px;""></img>","3","html-button-response","72","354208","0.0-3.3-1.3","83602","ListB","man","english","EMB1","","true","3","","","","","","",""
"null","CORRECT","","html-keyboard-response","73","355717","0.0-3.3-2.3-0.3","83602","ListB","man","english","EMB1","","","","null","","","","","",""
"6068.400000095367","<img src=""portrait/BW1.jpg""style=""height:400px;""></img>","0","html-button-response","74","361787","0.0-3.3-4.3","83602","ListB","man","english","EMB1","","true","0","","","","","","",""
"null","CORRECT","","html-keyboard-response","75","363300","0.0-3.3-5.3-0.3","83602","ListB","man","english","EMB1","","","","null","","","","","",""
"3092.699999809265","<img src=""portrait/WM2.jpg""style=""height:400px;""></img>","7","html-button-response","76","366394","0.0-3.3-7.3","83602","ListB","man","english","EMB1","","true","7","","","","","","",""
"null","CORRECT","","html-keyboard-response","77","367898","0.0-3.3-8.3-0.3","83602","ListB","man","english","EMB1","","","","null","","","","","",""
"2363.300000190735","<img src=""portrait/BM1.jpg""style=""height:400px;""></img>","4","html-button-response","78","370263","0.0-3.3-10.3","83602","ListB","man","english","EMB1","","true","4","","","","","","",""
"null","CORRECT","","html-keyboard-response","79","371766","0.0-3.3-11.3-0.3","83602","ListB","man","english","EMB1","","","","null","","","","","",""
"1167.4000000953674","<img src=""portrait/BM2.jpg""style=""height:400px;""></img>","5","html-button-response","80","372935","0.0-3.3-13.3","83602","ListB","man","english","EMB1","","true","5","","","","","","",""
"null","CORRECT","","html-keyboard-response","81","374450","0.0-3.3-14.3-0.3","83602","ListB","man","english","EMB1","","","","null","","","","","",""
"4331.199999809265","<img src=""portrait/BW2.jpg""style=""height:400px;""></img>","2","html-button-response","82","378782","0.0-3.3-16.3","83602","ListB","man","english","EMB1","","true","2","","","","","","",""
"null","CORRECT","","html-keyboard-response","83","380287","0.0-3.3-17.3-0.3","83602","ListB","man","english","EMB1","","","","null","","","","","",""
"1731.1999998092651","<img src=""portrait/WW1.jpg""style=""height:400px;""></img>","1","html-button-response","84","382020","0.0-3.3-19.3","83602","ListB","man","english","EMB1","","true","1","","","","","","",""
"null","CORRECT","","html-keyboard-response","85","383530","0.0-3.3-20.3-0.3","83602","ListB","man","english","EMB1","","","","null","","","","","",""
"14482.700000286102","<img src=""portrait/WM1.jpg""style=""height:400px;""></img>","6","html-button-response","86","398014","0.0-3.3-22.3","83602","ListB","man","english","EMB1","","true","6","","","","","","",""
"null","CORRECT","","html-keyboard-response","87","399518","0.0-3.3-23.3-0.3","83602","ListB","man","english","EMB1","","","","null","","","","","",""
"947","<p>You got 8 out of 8 right first time. Press Continue.</p>","0","html-button-response","88","400466","0.0-3.3-25.3","83602","ListB","man","english","EMB1","","","","","","","","","",""
"17843.400000095367","<p>In this experiment, you will view photographs of the people from the memory game.</p><p>By using the <strong>exact</strong> phrase given <i>after</i> the photograph appears and recalling the correct names of the people in the photographs, form a sentence describing an interaction. You do not need to capitalise names.</p><p>Type your answer in the space provided. Please complete every sentence before moving onto the next trial.</p><p>You will only have a few seconds to memorise each given photograph and phrase before you can respond, so try your best to focus.</p><p>An example is given below. Press 'Continue' when you are ready.</p><img src='img/speaking_example.jpg' style='width:800px;height:460px;''></img>","0","html-button-response","89","419319","0.0-4.0","83602","ListB","man","english","EMB1","","","","","","","","","",""
"1668.9000000953674","<p>Before the experiment starts, you will watch two example trials. Press 'Continue'.</p>","0","html-button-response","90","422000","0.0-5.0","83602","ListB","man","english","EMB1","","","","","","","","","",""
"null","<img src='img/meet.gif' style='height:400px;''></img>","","html-keyboard-response","91","425014","0.0-6.0","83602","ListB","man","english","EMB1","","","","null","","","","","",""
"null","<p>is meeting</p>","","html-keyboard-response","92","427016","0.0-7.0","83602","ListB","man","english","EMB1","","","","null","","","","","",""
"2694.1000003814697","<p><b>Answer:</b> jane is meeting ruth</p>","0","html-button-response","93","429711","0.0-8.0","83602","ListB","man","english","EMB1","","","","","","","","","",""
"null","<img src='img/spy.gif' style='height:400px;''></img>","","html-keyboard-response","94","432718","0.0-9.0","83602","ListB","man","english","EMB1","","","","null","","","","","",""
"null","<p>is being spied on by</p>","","html-keyboard-response","95","434729","0.0-10.0","83602","ListB","man","english","EMB1","","","","null","","","","","",""
"3364.5","<p><b>Answer:</b> fred is being spied on by mike</p>","0","html-button-response","96","438094","0.0-11.0","83602","ListB","man","english","EMB1","","","","","","","","","",""
"1618.0999999046326","<p>Ready to start the experiment?</p><br><p><strong>Remember to describe the picture using a full sentence,</strong></p><p><strong>that combines the names of the people with the <i>exact</i> phrase given.</strong></p><p><strong>To receive full payment you must do this correctly.</strong></p><p><strong> You do not need to capitalise names or use punctuation.</strong></p><br><p>Press 'Continue' to begin.</p>","0","html-button-response","97","440717","0.0-12.0","83602","ListB","man","english","EMB1","","","","","","","","","",""
"null","<div style=""font-size:60px;"">+</div>","","html-keyboard-response","98","442232","0.0-13.0-0.0","83602","ListB","man","english","EMB1","","","","null","","","","","",""
"null","<img src='gifs/MaleRace3a.gif' style='height:400px;''></img>","","html-keyboard-response","99","444239","0.0-13.0-1.0","83602","ListB","man","english","EMB1","","","","null","","","","","",""
"null","is convincing","","html-keyboard-response","100","447246","0.0-13.0-2.0","83602","ListB","man","english","EMB1","","","","null","","","","","",""
"18645.700000286102","","","survey-text","101","465895","0.0-13.0-3.0","83602","ListB","man","english","EMB1","","","","","{""Q0"":""Fred is convicing Dave""}","<img src='gifs/MaleRace3a.gif' style='height:400px;''></img>","convincing","is convincing","english",""
"null","<div style=""font-size:60px;"">+</div>","","html-keyboard-response","102","466399","0.0-13.0-0.1","83602","ListB","man","english","EMB1","","","","null","","","","","",""
"null","<img src='gifs/BlackGender4b.gif' style='height:400px;''></img>","","html-keyboard-response","103","468408","0.0-13.0-1.1","83602","ListB","man","english","EMB1","","","","null","","","","","",""
"null","is contacting","","html-keyboard-response","104","471415","0.0-13.0-2.1","83602","ListB","man","english","EMB1","","","","null","","","","","",""
"5038.599999904633","","","survey-text","105","476456","0.0-13.0-3.1","83602","ListB","man","english","EMB1","","","","","{""Q0"":""Mike is contacting Kate""}","<img src='gifs/BlackGender4b.gif' style='height:400px;''></img>","contacting","is contacting","english",""
"null","<div style=""font-size:60px;"">+</div>","","html-keyboard-response","106","476957","0.0-13.0-0.2","83602","ListB","man","english","EMB1","","","","null","","","","","",""
"null","<img src='gifs/MaleRace1b.gif' style='height:400px;''></img>","","html-keyboard-response","107","478965","0.0-13.0-1.2","83602","ListB","man","english","EMB1","","","","null","","","","","",""
"null","is looking at","","html-keyboard-response","108","481975","0.0-13.0-2.2","83602","ListB","man","english","EMB1","","","","null","","","","","",""
"13179.300000190735","","","survey-text","109","495157","0.0-13.0-3.2","83602","ListB","man","english","EMB1","","","","","{""Q0"":""Luke is looking at Fred""}","<img src='gifs/MaleRace1b.gif' style='height:400px;''></img>","looking at","is looking at","english",""
"null","<div style=""font-size:60px;"">+</div>","","html-keyboard-response","110","495665","0.0-13.0-0.3","83602","ListB","man","english","EMB1","","","","null","","","","","",""
"null","<img src='gifs/ChineseGender3b.gif' style='height:400px;''></img>","","html-keyboard-response","111","497672","0.0-13.0-1.3","83602","ListB","man","english","EMB1","","","","null","","","","","",""
"null","is introducing","","html-keyboard-response","112","500680","0.0-13.0-2.3","83602","ListB","man","english","EMB1","","","","null","","","","","",""
"6100.099999904633","","","survey-text","113","506781","0.0-13.0-3.3","83602","ListB","man","english","EMB1","","","","","{""Q0"":""Ruth is introducing Dave""}","<img src='gifs/ChineseGender3b.gif' style='height:400px;''></img>","introducing","is introducing","english",""
"null","<div style=""font-size:60px;"">+</div>","","html-keyboard-response","114","507284","0.0-13.0-0.4","83602","ListB","man","english","EMB1","","","","null","","","","","",""
"null","<img src='gifs/FemaleRace1a.gif' style='height:400px;''></img>","","html-keyboard-response","115","509286","0.0-13.0-1.4","83602","ListB","man","english","EMB1","","","","null","","","","","",""
"null","is mentioning","","html-keyboard-response","116","512295","0.0-13.0-2.4","83602","ListB","man","english","EMB1","","","","null","","","","","",""
"6916.5","","","survey-text","117","519214","0.0-13.0-3.4","83602","ListB","man","english","EMB1","","","","","{""Q0"":""Beth is mentioning Jane""}","<img src='gifs/FemaleRace1a.gif' style='height:400px;''></img>","mention","is mentioning","english",""
"null","<div style=""font-size:60px;"">+</div>","","html-keyboard-response","118","519717","0.0-13.0-0.5","83602","ListB","man","english","EMB1","","","","null","","","","","",""
"null","<img src='gifs/ChineseGender4b.gif' style='height:400px;''></img>","","html-keyboard-response","119","521724","0.0-13.0-1.5","83602","ListB","man","english","EMB1","","","","null","","","","","",""
"null","is accompanying","","html-keyboard-response","120","524731","0.0-13.0-2.5","83602","ListB","man","english","EMB1","","","","null","","","","","",""
"15792.599999904633","","","survey-text","121","540524","0.0-13.0-3.5","83602","ListB","man","english","EMB1","","","","","{""Q0"":""Jane is accompanying Luke""}","<img src='gifs/ChineseGender4b.gif' style='height:400px;''></img>","accompanying","is accompanying","english",""
"null","<div style=""font-size:60px;"">+</div>","","html-keyboard-response","122","541029","0.0-13.0-0.6","83602","ListB","man","english","EMB1","","","","null","","","","","",""
"null","<img src='gifs/BlackGender2b.gif' style='height:400px;''></img>","","html-keyboard-response","123","543030","0.0-13.0-1.6","83602","ListB","man","english","EMB1","","","","null","","","","","",""
"null","is joining","","html-keyboard-response","124","546039","0.0-13.0-2.6","83602","ListB","man","english","EMB1","","","","null","","","","","",""
"5981.800000190735","","","survey-text","125","552023","0.0-13.0-3.6","83602","ListB","man","english","EMB1","","","","","{""Q0"":""Mike is joining Beth""}","<img src='gifs/BlackGender2b.gif' style='height:400px;''></img>","join","is joining","english",""
"null","<div style=""font-size:60px;"">+</div>","","html-keyboard-response","126","552531","0.0-13.0-0.7","83602","ListB","man","english","EMB1","","","","null","","","","","",""
"null","<img src='gifs/ChineseGender2b.gif' style='height:400px;''></img>","","html-keyboard-response","127","554531","0.0-13.0-1.7","83602","ListB","man","english","EMB1","","","","null","","","","","",""
"null","is mentioning","","html-keyboard-response","128","557533","0.0-13.0-2.7","83602","ListB","man","english","EMB1","","","","null","","","","","",""
"9970.099999904633","","","survey-text","129","567504","0.0-13.0-3.7","83602","ListB","man","english","EMB1","","","","","{""Q0"":""Ruth is mentioning Luke""}","<img src='gifs/ChineseGender2b.gif' style='height:400px;''></img>","mention","is mentioning","english",""
"null","<div style=""font-size:60px;"">+</div>","","html-keyboard-response","130","568013","0.0-13.0-0.8","83602","ListB","man","english","EMB1","","","","null","","","","","",""
"null","<img src='gifs/ChineseGender3b.gif' style='height:400px;''></img>","","html-keyboard-response","131","570022","0.0-13.0-1.8","83602","ListB","man","english","EMB1","","","","null","","","","","",""
"null","is approaching","","html-keyboard-response","132","573030","0.0-13.0-2.8","83602","ListB","man","english","EMB1","","","","null","","","","","",""
"9384.699999809265","","","survey-text","133","582416","0.0-13.0-3.8","83602","ListB","man","english","EMB1","","","","","{""Q0"":""Ruth is approaching Dave""}","<img src='gifs/ChineseGender3b.gif' style='height:400px;''></img>","approaching","is approaching","english",""
"null","<div style=""font-size:60px;"">+</div>","","html-keyboard-response","134","582924","0.0-13.0-0.9","83602","ListB","man","english","EMB1","","","","null","","","","","",""
"null","<img src='gifs/FemaleRace4a.gif' style='height:400px;''></img>","","html-keyboard-response","135","584931","0.0-13.0-1.9","83602","ListB","man","english","EMB1","","","","null","","","","","",""
"null","is praising","","html-keyboard-response","136","587936","0.0-13.0-2.9","83602","ListB","man","english","EMB1","","","","null","","","","","",""
"7858.5","","","survey-text","137","595795","0.0-13.0-3.9","83602","ListB","man","english","EMB1","","","","","{""Q0"":""Ruth is praising Beth""}","<img src='gifs/FemaleRace4a.gif' style='height:400px;''></img>","praising","is praising","english",""
"null","<div style=""font-size:60px;"">+</div>","","html-keyboard-response","138","596297","0.0-13.0-0.10","83602","ListB","man","english","EMB1","","","","null","","","","","",""
"null","<img src='gifs/BlackGender1b.gif' style='height:400px;''></img>","","html-keyboard-response","139","598299","0.0-13.0-1.10","83602","ListB","man","english","EMB1","","","","null","","","","","",""
"null","is convincing","","html-keyboard-response","140","601307","0.0-13.0-2.10","83602","ListB","man","english","EMB1","","","","null","","","","","",""
"9511.200000286102","","","survey-text","141","610821","0.0-13.0-3.10","83602","ListB","man","english","EMB1","","","","","{""Q0"":""Fred is convincing Beth""}","<img src='gifs/BlackGender1b.gif' style='height:400px;''></img>","convincing","is convincing","english",""
"null","<div style=""font-size:60px;"">+</div>","","html-keyboard-response","142","611324","0.0-13.0-0.11","83602","ListB","man","english","EMB1","","","","null","","","","","",""
"null","<img src='gifs/BlackGender2b.gif' style='height:400px;''></img>","","html-keyboard-response","143","613331","0.0-13.0-1.11","83602","ListB","man","english","EMB1","","","","null","","","","","",""
"null","is introducing","","html-keyboard-response","144","616341","0.0-13.0-2.11","83602","ListB","man","english","EMB1","","","","null","","","","","",""
"7044","","","survey-text","145","623388","0.0-13.0-3.11","83602","ListB","man","english","EMB1","","","","","{""Q0"":""Fred is introducing Mike""}","<img src='gifs/BlackGender2b.gif' style='height:400px;''></img>","introducing","is introducing","english",""
"null","<div style=""font-size:60px;"">+</div>","","html-keyboard-response","146","623893","0.0-13.0-0.12","83602","ListB","man","english","EMB1","","","","null","","","","","",""
"null","<img src='gifs/FemaleRace3b.gif' style='height:400px;''></img>","","html-keyboard-response","147","625897","0.0-13.0-1.12","83602","ListB","man","english","EMB1","","","","null","","","","","",""
"null","is walking towards","","html-keyboard-response","148","628897","0.0-13.0-2.12","83602","ListB","man","english","EMB1","","","","null","","","","","",""
"9050.39999961853","","","survey-text","149","637949","0.0-13.0-3.12","83602","ListB","man","english","EMB1","","","","","{""Q0"":""Ruth is walking towards Kate""}","<img src='gifs/FemaleRace3b.gif' style='height:400px;''></img>","walking towards","is walking towards","english",""
"null","<div style=""font-size:60px;"">+</div>","","html-keyboard-response","150","638453","0.0-13.0-0.13","83602","ListB","man","english","EMB1","","","","null","","","","","",""
"null","<img src='gifs/MaleRace1b.gif' style='height:400px;''></img>","","html-keyboard-response","151","640458","0.0-13.0-1.13","83602","ListB","man","english","EMB1","","","","null","","","","","",""
"null","is walking towards","","html-keyboard-response","152","643464","0.0-13.0-2.13","83602","ListB","man","english","EMB1","","","","null","","","","","",""
"11378.799999713898","","","survey-text","153","654845","0.0-13.0-3.13","83602","ListB","man","english","EMB1","","","","","{""Q0"":""Luke is walking towards Fred""}","<img src='gifs/MaleRace1b.gif' style='height:400px;''></img>","walking towards","is walking towards","english",""
"null","<div style=""font-size:60px;"">+</div>","","html-keyboard-response","154","655347","0.0-13.0-0.14","83602","ListB","man","english","EMB1","","","","null","","","","","",""
"null","<img src='gifs/ChineseGender2a.gif' style='height:400px;''></img>","","html-keyboard-response","155","657354","0.0-13.0-1.14","83602","ListB","man","english","EMB1","","","","null","","","","","",""
"null","is contacting","","html-keyboard-response","156","660363","0.0-13.0-2.14","83602","ListB","man","english","EMB1","","","","null","","","","","",""
"6360.099999904633","","","survey-text","157","666724","0.0-13.0-3.14","83602","ListB","man","english","EMB1","","","","","{""Q0"":""Luke is contacting Ruth""}","<img src='gifs/ChineseGender2a.gif' style='height:400px;''></img>","contacting","is contacting","english",""
"null","<div style=""font-size:60px;"">+</div>","","html-keyboard-response","158","667228","0.0-13.0-0.15","83602","ListB","man","english","EMB1","","","","null","","","","","",""
"null","<img src='gifs/BlackGender1b.gif' style='height:400px;''></img>","","html-keyboard-response","159","669236","0.0-13.0-1.15","83602","ListB","man","english","EMB1","","","","null","","","","","",""
"null","is following","","html-keyboard-response","160","672237","0.0-13.0-2.15","83602","ListB","man","english","EMB1","","","","null","","","","","",""
"12077","","","survey-text","161","684315","0.0-13.0-3.15","83602","ListB","man","english","EMB1","","","","","{""Q0"":""Fred is following Beth""}","<img src='gifs/BlackGender1b.gif' style='height:400px;''></img>","following","is following","english",""
"null","<div style=""font-size:60px;"">+</div>","","html-keyboard-response","162","684820","0.0-13.0-0.16","83602","ListB","man","english","EMB1","","","","null","","","","","",""
"null","<img src='gifs/ChineseGender3a.gif' style='height:400px;''></img>","","html-keyboard-response","163","686828","0.0-13.0-1.16","83602","ListB","man","english","EMB1","","","","null","","","","","",""
"null","is walking towards","","html-keyboard-response","164","689829","0.0-13.0-2.16","83602","ListB","man","english","EMB1","","","","null","","","","","",""
"3543.5999999046326","","","survey-text","165","693375","0.0-13.0-3.16","83602","ListB","man","english","EMB1","","","","","{""Q0"":""Ruth is walking towards Dave""}","<img src='gifs/ChineseGender3a.gif' style='height:400px;''></img>","walking towards","is walking towards","english",""
"null","<div style=""font-size:60px;"">+</div>","","html-keyboard-response","166","693876","0.0-13.0-0.17","83602","ListB","man","english","EMB1","","","","null","","","","","",""
"null","<img src='gifs/MaleRace4a.gif' style='height:400px;''></img>","","html-keyboard-response","167","695880","0.0-13.0-1.17","83602","ListB","man","english","EMB1","","","","null","","","","","",""
"null","is praising","","html-keyboard-response","168","698883","0.0-13.0-2.17","83602","ListB","man","english","EMB1","","","","null","","","","","",""
"3549","","","survey-text","169","702434","0.0-13.0-3.17","83602","ListB","man","english","EMB1","","","","","{""Q0"":""Dave is praising Mike""}","<img src='gifs/MaleRace4a.gif' style='height:400px;''></img>","praising","is praising","english",""
"3650.5999999046326","<img src='img/portrait_matrix_listB.jpg' style='width:900px;height:500px;''></img><p>If you have memorised all the portraits and names and are ready to start, press Continue.</p><p><strong>Please note: Your memory of these faces will be tested 5 times during this experiment.</strong></p>","0","html-button-response","170","706086","0.0-14.0-0.0","83602","ListB","man","english","EMB1","","","","","","","","","",""
"2417.1000003814697","<img src=""portrait/BM2.jpg""style=""height:400px;""></img>","5","html-button-response","171","709509","0.0-14.0-1.0","83602","ListB","man","english","EMB1","","true","5","","","","","","",""
"null","CORRECT","","html-keyboard-response","172","711012","0.0-14.0-2.0-0.0","83602","ListB","man","english","EMB1","","","","null","","","","","",""
"1475.0999999046326","<img src=""portrait/WM1.jpg""style=""height:400px;""></img>","6","html-button-response","173","712488","0.0-14.0-4.0","83602","ListB","man","english","EMB1","","true","6","","","","","","",""
"null","CORRECT","","html-keyboard-response","174","713995","0.0-14.0-5.0-0.0","83602","ListB","man","english","EMB1","","","","null","","","","","",""
"1245.9000000953674","<img src=""portrait/WW2.jpg""style=""height:400px;""></img>","3","html-button-response","175","715241","0.0-14.0-7.0","83602","ListB","man","english","EMB1","","true","3","","","","","","",""
"null","CORRECT","","html-keyboard-response","176","716747","0.0-14.0-8.0-0.0","83602","ListB","man","english","EMB1","","","","null","","","","","",""
"1969.0999999046326","<img src=""portrait/BW2.jpg""style=""height:400px;""></img>","2","html-button-response","177","718718","0.0-14.0-10.0","83602","ListB","man","english","EMB1","","true","2","","","","","","",""
"null","CORRECT","","html-keyboard-response","178","720227","0.0-14.0-11.0-0.0","83602","ListB","man","english","EMB1","","","","null","","","","","",""
"3655.800000190735","<img src=""portrait/BW1.jpg""style=""height:400px;""></img>","0","html-button-response","179","723885","0.0-14.0-13.0","83602","ListB","man","english","EMB1","","true","0","","","","","","",""
"null","CORRECT","","html-keyboard-response","180","725395","0.0-14.0-14.0-0.0","83602","ListB","man","english","EMB1","","","","null","","","","","",""
"6830","<img src=""portrait/WM2.jpg""style=""height:400px;""></img>","7","html-button-response","181","732227","0.0-14.0-16.0","83602","ListB","man","english","EMB1","","true","7","","","","","","",""
"null","CORRECT","","html-keyboard-response","182","733730","0.0-14.0-17.0-0.0","83602","ListB","man","english","EMB1","","","","null","","","","","",""
"1896.5","<img src=""portrait/WW1.jpg""style=""height:400px;""></img>","1","html-button-response","183","735627","0.0-14.0-19.0","83602","ListB","man","english","EMB1","","true","1","","","","","","",""
"null","CORRECT","","html-keyboard-response","184","737140","0.0-14.0-20.0-0.0","83602","ListB","man","english","EMB1","","","","null","","","","","",""
"1375.5999999046326","<img src=""portrait/BM1.jpg""style=""height:400px;""></img>","4","html-button-response","185","738517","0.0-14.0-22.0","83602","ListB","man","english","EMB1","","true","4","","","","","","",""
"null","CORRECT","","html-keyboard-response","186","740024","0.0-14.0-23.0-0.0","83602","ListB","man","english","EMB1","","","","null","","","","","",""
"954.3000001907349","<p>You got 8 out of 8 right first time. Press Continue.</p>","0","html-button-response","187","740980","0.0-14.0-25.0","83602","ListB","man","english","EMB1","","","","","","","","","",""
"null","<div style=""font-size:60px;"">+</div>","","html-keyboard-response","188","742490","0.0-15.0-0.0","83602","ListB","man","english","EMB1","","","","null","","","","","",""
"null","<img src='gifs/BlackGender1a.gif' style='height:400px;''></img>","","html-keyboard-response","189","744497","0.0-15.0-1.0","83602","ListB","man","english","EMB1","","","","null","","","","","",""
"null","is contacting","","html-keyboard-response","190","747506","0.0-15.0-2.0","83602","ListB","man","english","EMB1","","","","null","","","","","",""
"6766.5","","","survey-text","191","754274","0.0-15.0-3.0","83602","ListB","man","english","EMB1","","","","","{""Q0"":""Fred is contacting Beth""}","<img src='gifs/BlackGender1a.gif' style='height:400px;''></img>","contacting","is contacting","english",""
"null","<div style=""font-size:60px;"">+</div>","","html-keyboard-response","192","754776","0.0-15.0-0.1","83602","ListB","man","english","EMB1","","","","null","","","","","",""
"null","<img src='gifs/BlackGender4a.gif' style='height:400px;''></img>","","html-keyboard-response","193","756779","0.0-15.0-1.1","83602","ListB","man","english","EMB1","","","","null","","","","","",""
"null","is looking at","","html-keyboard-response","194","759786","0.0-15.0-2.1","83602","ListB","man","english","EMB1","","","","null","","","","","",""
"3291.800000190735","","","survey-text","195","763079","0.0-15.0-3.1","83602","ListB","man","english","EMB1","","","","","{""Q0"":""Mike is looking at Kate""}","<img src='gifs/BlackGender4a.gif' style='height:400px;''></img>","looking at","is looking at","english",""
"null","<div style=""font-size:60px;"">+</div>","","html-keyboard-response","196","763586","0.0-15.0-0.2","83602","ListB","man","english","EMB1","","","","null","","","","","",""
"null","<img src='gifs/FemaleRace2a.gif' style='height:400px;''></img>","","html-keyboard-response","197","765592","0.0-15.0-1.2","83602","ListB","man","english","EMB1","","","","null","","","","","",""
"null","is listening to","","html-keyboard-response","198","768596","0.0-15.0-2.2","83602","ListB","man","english","EMB1","","","","null","","","","","",""
"4572.800000190735","","","survey-text","199","773171","0.0-15.0-3.2","83602","ListB","man","english","EMB1","","","","","{""Q0"":""Jane is listening to Kate""}","<img src='gifs/FemaleRace2a.gif' style='height:400px;''></img>","listening to","is listening to","english",""
"null","<div style=""font-size:60px;"">+</div>","","html-keyboard-response","200","773679","0.0-15.0-0.3","83602","ListB","man","english","EMB1","","","","null","","","","","",""
"null","<img src='gifs/MaleRace1a.gif' style='height:400px;''></img>","","html-keyboard-response","201","775681","0.0-15.0-1.3","83602","ListB","man","english","EMB1","","","","null","","","","","",""
"null","is listening to","","html-keyboard-response","202","778690","0.0-15.0-2.3","83602","ListB","man","english","EMB1","","","","null","","","","","",""
"6840.60000038147","","","survey-text","203","785534","0.0-15.0-3.3","83602","ListB","man","english","EMB1","","","","","{""Q0"":""Luke is listening to Fred""}","<img src='gifs/MaleRace1a.gif' style='height:400px;''></img>","listening to","is listening to","english",""
"null","<div style=""font-size:60px;"">+</div>","","html-keyboard-response","204","786040","0.0-15.0-0.4","83602","ListB","man","english","EMB1","","","","null","","","","","",""
"null","<img src='gifs/FemaleRace1b.gif' style='height:400px;''></img>","","html-keyboard-response","205","788046","0.0-15.0-1.4","83602","ListB","man","english","EMB1","","","","null","","","","","",""
"null","is promising","","html-keyboard-response","206","791048","0.0-15.0-2.4","83602","ListB","man","english","EMB1","","","","null","","","","","",""
"9978.900000095367","","","survey-text","207","801029","0.0-15.0-3.4","83602","ListB","man","english","EMB1","","","","","{""Q0"":""Jane is promosing Beth""}","<img src='gifs/FemaleRace1b.gif' style='height:400px;''></img>","promising","is promising","english",""
"null","<div style=""font-size:60px;"">+</div>","","html-keyboard-response","208","801538","0.0-15.0-0.5","83602","ListB","man","english","EMB1","","","","null","","","","","",""
"null","<img src='gifs/ChineseGender4a.gif' style='height:400px;''></img>","","html-keyboard-response","209","803545","0.0-15.0-1.5","83602","ListB","man","english","EMB1","","","","null","","","","","",""
"null","is facing","","html-keyboard-response","210","806546","0.0-15.0-2.5","83602","ListB","man","english","EMB1","","","","null","","","","","",""
"3751.3999996185303","","","survey-text","211","810298","0.0-15.0-3.5","83602","ListB","man","english","EMB1","","","","","{""Q0"":""Jane is facing Dave""}","<img src='gifs/ChineseGender4a.gif' style='height:400px;''></img>","facing","is facing","english",""
"null","<div style=""font-size:60px;"">+</div>","","html-keyboard-response","212","810801","0.0-15.0-0.6","83602","ListB","man","english","EMB1","","","","null","","","","","",""
"null","<img src='gifs/BlackGender4b.gif' style='height:400px;''></img>","","html-keyboard-response","213","812807","0.0-15.0-1.6","83602","ListB","man","english","EMB1","","","","null","","","","","",""
"null","is introducing","","html-keyboard-response","214","815811","0.0-15.0-2.6","83602","ListB","man","english","EMB1","","","","null","","","","","",""
"6231","","","survey-text","215","822044","0.0-15.0-3.6","83602","ListB","man","english","EMB1","","","","","{""Q0"":""Mike is introducing Kate""}","<img src='gifs/BlackGender4b.gif' style='height:400px;''></img>","introducing","is introducing","english",""
"null","<div style=""font-size:60px;"">+</div>","","html-keyboard-response","216","822546","0.0-15.0-0.7","83602","ListB","man","english","EMB1","","","","null","","","","","",""
"null","<img src='gifs/MaleRace4b.gif' style='height:400px;''></img>","","html-keyboard-response","217","824551","0.0-15.0-1.7","83602","ListB","man","english","EMB1","","","","null","","","","","",""
"null","is following","","html-keyboard-response","218","827560","0.0-15.0-2.7","83602","ListB","man","english","EMB1","","","","null","","","","","",""
"3751.300000190735","","","survey-text","219","831313","0.0-15.0-3.7","83602","ListB","man","english","EMB1","","","","","{""Q0"":""Mike is following Dave""}","<img src='gifs/MaleRace4b.gif' style='height:400px;''></img>","following","is following","english",""
"null","<div style=""font-size:60px;"">+</div>","","html-keyboard-response","220","831814","0.0-15.0-0.8","83602","ListB","man","english","EMB1","","","","null","","","","","",""
"null","<img src='gifs/MaleRace4a.gif' style='height:400px;''></img>","","html-keyboard-response","221","833825","0.0-15.0-1.8","83602","ListB","man","english","EMB1","","","","null","","","","","",""
"null","is employing","","html-keyboard-response","222","836829","0.0-15.0-2.8","83602","ListB","man","english","EMB1","","","","null","","","","","",""
"3317.699999809265","","","survey-text","223","840148","0.0-15.0-3.8","83602","ListB","man","english","EMB1","","","","","{""Q0"":""Mike is employing Dave""}","<img src='gifs/MaleRace4a.gif' style='height:400px;''></img>","employing","is employing","english",""
"null","<div style=""font-size:60px;"">+</div>","","html-keyboard-response","224","840657","0.0-15.0-0.9","83602","ListB","man","english","EMB1","","","","null","","","","","",""
"null","<img src='gifs/FemaleRace2b.gif' style='height:400px;''></img>","","html-keyboard-response","225","842662","0.0-15.0-1.9","83602","ListB","man","english","EMB1","","","","null","","","","","",""
"null","is joining","","html-keyboard-response","226","845670","0.0-15.0-2.9","83602","ListB","man","english","EMB1","","","","null","","","","","",""
"4135.099999904633","","","survey-text","227","849809","0.0-15.0-3.9","83602","ListB","man","english","EMB1","","","","","{""Q0"":""Jane is joining Beth""}","<img src='gifs/FemaleRace2b.gif' style='height:400px;''></img>","join","is joining","english",""
"null","<div style=""font-size:60px;"">+</div>","","html-keyboard-response","228","850310","0.0-15.0-0.10","83602","ListB","man","english","EMB1","","","","null","","","","","",""
"null","<img src='gifs/ChineseGender4b.gif' style='height:400px;''></img>","","html-keyboard-response","229","852321","0.0-15.0-1.10","83602","ListB","man","english","EMB1","","","","null","","","","","",""
"null","is mentioning","","html-keyboard-response","230","855328","0.0-15.0-2.10","83602","ListB","man","english","EMB1","","","","null","","","","","",""
"5400.200000286102","","","survey-text","231","860729","0.0-15.0-3.10","83602","ListB","man","english","EMB1","","","","","{""Q0"":""Jane is mentioning Luke""}","<img src='gifs/ChineseGender4b.gif' style='height:400px;''></img>","mention","is mentioning","english",""
"null","<div style=""font-size:60px;"">+</div>","","html-keyboard-response","232","861238","0.0-15.0-0.11","83602","ListB","man","english","EMB1","","","","null","","","","","",""
"null","<img src='gifs/FemaleRace2a.gif' style='height:400px;''></img>","","html-keyboard-response","233","863245","0.0-15.0-1.11","83602","ListB","man","english","EMB1","","","","null","","","","","",""
"null","is facing","","html-keyboard-response","234","866256","0.0-15.0-2.11","83602","ListB","man","english","EMB1","","","","null","","","","","",""
"6605.400000095367","","","survey-text","235","872863","0.0-15.0-3.11","83602","ListB","man","english","EMB1","","","","","{""Q0"":""Jane is facing Beth""}","<img src='gifs/FemaleRace2a.gif' style='height:400px;''></img>","facing","is facing","english",""
"null","<div style=""font-size:60px;"">+</div>","","html-keyboard-response","236","873366","0.0-15.0-0.12","83602","ListB","man","english","EMB1","","","","null","","","","","",""
"null","<img src='gifs/ChineseGender3a.gif' style='height:400px;''></img>","","html-keyboard-response","237","875376","0.0-15.0-1.12","83602","ListB","man","english","EMB1","","","","null","","","","","",""
"null","is praising","","html-keyboard-response","238","878378","0.0-15.0-2.12","83602","ListB","man","english","EMB1","","","","null","","","","","",""
"6303","","","survey-text","239","884684","0.0-15.0-3.12","83602","ListB","man","english","EMB1","","","","","{""Q0"":""Ruth is praising Dave""}","<img src='gifs/ChineseGender3a.gif' style='height:400px;''></img>","praising","is praising","english",""
"null","<div style=""font-size:60px;"">+</div>","","html-keyboard-response","240","885189","0.0-15.0-0.13","83602","ListB","man","english","EMB1","","","","null","","","","","",""
"null","<img src='gifs/FemaleRace3a.gif' style='height:400px;''></img>","","html-keyboard-response","241","887195","0.0-15.0-1.13","83602","ListB","man","english","EMB1","","","","null","","","","","",""
"null","is accompanying","","html-keyboard-response","242","890197","0.0-15.0-2.13","83602","ListB","man","english","EMB1","","","","null","","","","","",""
"3966.2999997138977","","","survey-text","243","894165","0.0-15.0-3.13","83602","ListB","man","english","EMB1","","","","","{""Q0"":""Ruth is accompanying Beth""}","<img src='gifs/FemaleRace3a.gif' style='height:400px;''></img>","accompanying","is accompanying","english",""
"null","<div style=""font-size:60px;"">+</div>","","html-keyboard-response","244","894672","0.0-15.0-0.14","83602","ListB","man","english","EMB1","","","","null","","","","","",""
"null","<img src='gifs/ChineseGender2b.gif' style='height:400px;''></img>","","html-keyboard-response","245","896678","0.0-15.0-1.14","83602","ListB","man","english","EMB1","","","","null","","","","","",""
"null","is employing","","html-keyboard-response","246","899680","0.0-15.0-2.14","83602","ListB","man","english","EMB1","","","","null","","","","","",""
"3766.699999809265","","","survey-text","247","903448","0.0-15.0-3.14","83602","ListB","man","english","EMB1","","","","","{""Q0"":""Luke is employing Ruth""}","<img src='gifs/ChineseGender2b.gif' style='height:400px;''></img>","employing","is employing","english",""
"null","<div style=""font-size:60px;"">+</div>","","html-keyboard-response","248","903952","0.0-15.0-0.15","83602","ListB","man","english","EMB1","","","","null","","","","","",""
"null","<img src='gifs/BlackGender1a.gif' style='height:400px;''></img>","","html-keyboard-response","249","905958","0.0-15.0-1.15","83602","ListB","man","english","EMB1","","","","null","","","","","",""
"null","is convincing","","html-keyboard-response","250","908961","0.0-15.0-2.15","83602","ListB","man","english","EMB1","","","","null","","","","","",""
"9547.599999904633","","","survey-text","251","918510","0.0-15.0-3.15","83602","ListB","man","english","EMB1","","","","","{""Q0"":""Fred is convincing Beth""}","<img src='gifs/BlackGender1a.gif' style='height:400px;''></img>","convincing","is convincing","english",""
"null","<div style=""font-size:60px;"">+</div>","","html-keyboard-response","252","919013","0.0-15.0-0.16","83602","ListB","man","english","EMB1","","","","null","","","","","",""
"null","<img src='gifs/MaleRace2a.gif' style='height:400px;''></img>","","html-keyboard-response","253","921024","0.0-15.0-1.16","83602","ListB","man","english","EMB1","","","","null","","","","","",""
"null","is accompanying","","html-keyboard-response","254","924028","0.0-15.0-2.16","83602","ListB","man","english","EMB1","","","","null","","","","","",""
"6988.5","","","survey-text","255","931019","0.0-15.0-3.16","83602","ListB","man","english","EMB1","","","","","{""Q0"":""Mike is accompanying Luke""}","<img src='gifs/MaleRace2a.gif' style='height:400px;''></img>","accompanying","is accompanying","english",""
"null","<div style=""font-size:60px;"">+</div>","","html-keyboard-response","256","931520","0.0-15.0-0.17","83602","ListB","man","english","EMB1","","","","null","","","","","",""
"null","<img src='gifs/MaleRace1a.gif' style='height:400px;''></img>","","html-keyboard-response","257","933527","0.0-15.0-1.17","83602","ListB","man","english","EMB1","","","","null","","","","","",""
"null","is facing","","html-keyboard-response","258","936528","0.0-15.0-2.17","83602","ListB","man","english","EMB1","","","","null","","","","","",""
"3430.4000000953674","","","survey-text","259","939961","0.0-15.0-3.17","83602","ListB","man","english","EMB1","","","","","{""Q0"":""Luke is facing Fred""}","<img src='gifs/MaleRace1a.gif' style='height:400px;''></img>","facing","is facing","english",""
"1988.9000000953674","<img src='img/portrait_matrix_listB.jpg' style='width:900px;height:500px;''></img><p>If you have memorised all the portraits and names and are ready to start, press Continue.</p><p><strong>Please note: Your memory of these faces will be tested 5 times during this experiment.</strong></p>","0","html-button-response","260","941951","0.0-16.0-0.0","83602","ListB","man","english","EMB1","","","","","","","","","",""
"3028.699999809265","<img src=""portrait/BW1.jpg""style=""height:400px;""></img>","2","html-button-response","261","945989","0.0-16.0-1.0","83602","ListB","man","english","EMB1","","true","0","","","","","","",""
"1452.3000001907349","<img src=""portrait/BW1.jpg""style=""height:400px;""></img>","0","html-button-response","262","948447","0.0-16.0-3.0-0.0","83602","ListB","man","english","EMB1","","false","0","","","","","","",""
"null","CORRECT","","html-keyboard-response","263","949960","0.0-16.0-3.0-1.0-0.0","83602","ListB","man","english","EMB1","","","","null","","","","","",""
"1213.1999998092651","<img src=""portrait/WM1.jpg""style=""height:400px;""></img>","6","html-button-response","264","951174","0.0-16.0-4.0","83602","ListB","man","english","EMB1","","true","6","","","","","","",""
"null","CORRECT","","html-keyboard-response","265","952678","0.0-16.0-5.0-0.0","83602","ListB","man","english","EMB1","","","","null","","","","","",""
"1186.3000001907349","<img src=""portrait/BM1.jpg""style=""height:400px;""></img>","4","html-button-response","266","953865","0.0-16.0-7.0","83602","ListB","man","english","EMB1","","true","4","","","","","","",""
"null","CORRECT","","html-keyboard-response","267","955378","0.0-16.0-8.0-0.0","83602","ListB","man","english","EMB1","","","","null","","","","","",""
"993.4000000953674","<img src=""portrait/BW2.jpg""style=""height:400px;""></img>","3","html-button-response","268","956374","0.0-16.0-10.0","83602","ListB","man","english","EMB1","","true","2","","","","","","",""
"849.6000003814697","<img src=""portrait/BW2.jpg""style=""height:400px;""></img>","2","html-button-response","269","958228","0.0-16.0-12.0-0.0","83602","ListB","man","english","EMB1","","false","2","","","","","","",""
"null","CORRECT","","html-keyboard-response","270","959743","0.0-16.0-12.0-1.0-0.0","83602","ListB","man","english","EMB1","","","","null","","","","","",""
"1465.8000001907349","<img src=""portrait/WW1.jpg""style=""height:400px;""></img>","1","html-button-response","271","961210","0.0-16.0-13.0","83602","ListB","man","english","EMB1","","true","1","","","","","","",""
"null","CORRECT","","html-keyboard-response","272","962718","0.0-16.0-14.0-0.0","83602","ListB","man","english","EMB1","","","","null","","","","","",""
"1538","<img src=""portrait/WM2.jpg""style=""height:400px;""></img>","7","html-button-response","273","964257","0.0-16.0-16.0","83602","ListB","man","english","EMB1","","true","7","","","","","","",""
"null","CORRECT","","html-keyboard-response","274","965761","0.0-16.0-17.0-0.0","83602","ListB","man","english","EMB1","","","","null","","","","","",""
"1126.2000002861023","<img src=""portrait/BM2.jpg""style=""height:400px;""></img>","5","html-button-response","275","966888","0.0-16.0-19.0","83602","ListB","man","english","EMB1","","true","5","","","","","","",""
"null","CORRECT","","html-keyboard-response","276","968394","0.0-16.0-20.0-0.0","83602","ListB","man","english","EMB1","","","","null","","","","","",""
"1200.6999998092651","<img src=""portrait/WW2.jpg""style=""height:400px;""></img>","3","html-button-response","277","969596","0.0-16.0-22.0","83602","ListB","man","english","EMB1","","true","3","","","","","","",""
"null","CORRECT","","html-keyboard-response","278","971108","0.0-16.0-23.0-0.0","83602","ListB","man","english","EMB1","","","","null","","","","","",""
"834.5999999046326","<p>You got 6 out of 8 right first time. Press Continue.</p>","0","html-button-response","279","971944","0.0-16.0-25.0","83602","ListB","man","english","EMB1","","","","","","","","","",""
"734","As you did not score 100%, the memory game will repeat. Press Continue.","0","html-button-response","280","973680","0.0-16.0-26.0-0.0","83602","ListB","man","english","EMB1","","","","","","","","","",""
"879.0999999046326","<img src='img/portrait_matrix_listB.jpg' style='width:900px;height:500px;''></img><p>If you have memorised all the portraits and names and are ready to start, press Continue.</p><p><strong>Please note: Your memory of these faces will be tested 5 times during this experiment.</strong></p>","0","html-button-response","281","975568","0.0-16.1-0.1","83602","ListB","man","english","EMB1","","","","","","","","","",""
"6065.699999809265","<img src=""portrait/BW1.jpg""style=""height:400px;""></img>","0","html-button-response","282","982642","0.0-16.1-1.1","83602","ListB","man","english","EMB1","","true","0","","","","","","",""
"null","CORRECT","","html-keyboard-response","283","984147","0.0-16.1-2.1-0.1","83602","ListB","man","english","EMB1","","","","null","","","","","",""
"2722.0999999046326","<img src=""portrait/WM1.jpg""style=""height:400px;""></img>","6","html-button-response","284","986870","0.0-16.1-4.1","83602","ListB","man","english","EMB1","","true","6","","","","","","",""
"null","CORRECT","","html-keyboard-response","285","988379","0.0-16.1-5.1-0.1","83602","ListB","man","english","EMB1","","","","null","","","","","",""
"1668.4000000953674","<img src=""portrait/BM1.jpg""style=""height:400px;""></img>","4","html-button-response","286","990048","0.0-16.1-7.1","83602","ListB","man","english","EMB1","","true","4","","","","","","",""
"null","CORRECT","","html-keyboard-response","287","991556","0.0-16.1-8.1-0.1","83602","ListB","man","english","EMB1","","","","null","","","","","",""
"3381.7000002861023","<img src=""portrait/BW2.jpg""style=""height:400px;""></img>","2","html-button-response","288","994939","0.0-16.1-10.1","83602","ListB","man","english","EMB1","","true","2","","","","","","",""
"null","CORRECT","","html-keyboard-response","289","996452","0.0-16.1-11.1-0.1","83602","ListB","man","english","EMB1","","","","null","","","","","",""
"1231.9000000953674","<img src=""portrait/WW1.jpg""style=""height:400px;""></img>","1","html-button-response","290","997686","0.0-16.1-13.1","83602","ListB","man","english","EMB1","","true","1","","","","","","",""
"null","CORRECT","","html-keyboard-response","291","999195","0.0-16.1-14.1-0.1","83602","ListB","man","english","EMB1","","","","null","","","","","",""
"3078.5","<img src=""portrait/WM2.jpg""style=""height:400px;""></img>","7","html-button-response","292","1002276","0.0-16.1-16.1","83602","ListB","man","english","EMB1","","true","7","","","","","","",""
"null","CORRECT","","html-keyboard-response","293","1003780","0.0-16.1-17.1-0.1","83602","ListB","man","english","EMB1","","","","null","","","","","",""
"1002.7000002861023","<img src=""portrait/BM2.jpg""style=""height:400px;""></img>","5","html-button-response","294","1004783","0.0-16.1-19.1","83602","ListB","man","english","EMB1","","true","5","","","","","","",""
"null","CORRECT","","html-keyboard-response","295","1006291","0.0-16.1-20.1-0.1","83602","ListB","man","english","EMB1","","","","null","","","","","",""
"1234.5","<img src=""portrait/WW2.jpg""style=""height:400px;""></img>","3","html-button-response","296","1007527","0.0-16.1-22.1","83602","ListB","man","english","EMB1","","true","3","","","","","","",""
"null","CORRECT","","html-keyboard-response","297","1009038","0.0-16.1-23.1-0.1","83602","ListB","man","english","EMB1","","","","null","","","","","",""
"1081.3000001907349","<p>You got 8 out of 8 right first time. Press Continue.</p>","0","html-button-response","298","1010121","0.0-16.1-25.1","83602","ListB","man","english","EMB1","","","","","","","","","",""
"null","<div style=""font-size:60px;"">+</div>","","html-keyboard-response","299","1011624","0.0-17.0-0.0","83602","ListB","man","english","EMB1","","","","null","","","","","",""
"null","<img src='gifs/ChineseGender2a.gif' style='height:400px;''></img>","","html-keyboard-response","300","1013627","0.0-17.0-1.0","83602","ListB","man","english","EMB1","","","","null","","","","","",""
"null","is employing","","html-keyboard-response","301","1016628","0.0-17.0-2.0","83602","ListB","man","english","EMB1","","","","null","","","","","",""
"3580","","","survey-text","302","1020209","0.0-17.0-3.0","83602","ListB","man","english","EMB1","","","","","{""Q0"":""Ruth is employing Luke""}","<img src='gifs/ChineseGender2a.gif' style='height:400px;''></img>","employing","is employing","english",""
"null","<div style=""font-size:60px;"">+</div>","","html-keyboard-response","303","1020711","0.0-17.0-0.1","83602","ListB","man","english","EMB1","","","","null","","","","","",""
"null","<img src='gifs/ChineseGender1a.gif' style='height:400px;''></img>","","html-keyboard-response","304","1022713","0.0-17.0-1.1","83602","ListB","man","english","EMB1","","","","null","","","","","",""
"null","is accompanying","","html-keyboard-response","305","1025717","0.0-17.0-2.1","83602","ListB","man","english","EMB1","","","","null","","","","","",""
"3412.199999809265","","","survey-text","306","1029133","0.0-17.0-3.1","83602","ListB","man","english","EMB1","","","","","{""Q0"":""Jane is accompanying Luke""}","<img src='gifs/ChineseGender1a.gif' style='height:400px;''></img>","accompanying","is accompanying","english",""
"null","<div style=""font-size:60px;"">+</div>","","html-keyboard-response","307","1029635","0.0-17.0-0.2","83602","ListB","man","english","EMB1","","","","null","","","","","",""
"null","<img src='gifs/MaleRace3a.gif' style='height:400px;''></img>","","html-keyboard-response","308","1031643","0.0-17.0-1.2","83602","ListB","man","english","EMB1","","","","null","","","","","",""
"null","is employing","","html-keyboard-response","309","1034645","0.0-17.0-2.2","83602","ListB","man","english","EMB1","","","","null","","","","","",""
"6258.400000095367","","","survey-text","310","1040906","0.0-17.0-3.2","83602","ListB","man","english","EMB1","","","","","{""Q0"":""Fred is employing Dave""}","<img src='gifs/MaleRace3a.gif' style='height:400px;''></img>","employing","is employing","english",""
"null","<div style=""font-size:60px;"">+</div>","","html-keyboard-response","311","1041411","0.0-17.0-0.3","83602","ListB","man","english","EMB1","","","","null","","","","","",""
"null","<img src='gifs/FemaleRace3a.gif' style='height:400px;''></img>","","html-keyboard-response","312","1043422","0.0-17.0-1.3","83602","ListB","man","english","EMB1","","","","null","","","","","",""
"null","is following","","html-keyboard-response","313","1046427","0.0-17.0-2.3","83602","ListB","man","english","EMB1","","","","null","","","","","",""
"21822.099999904633","","","survey-text","314","1068249","0.0-17.0-3.3","83602","ListB","man","english","EMB1","","","","","{""Q0"":""Ruth is following Beth""}","<img src='gifs/FemaleRace3a.gif' style='height:400px;''></img>","following","is following","english",""
"null","<div style=""font-size:60px;"">+</div>","","html-keyboard-response","315","1068754","0.0-17.0-0.4","83602","ListB","man","english","EMB1","","","","null","","","","","",""
"null","<img src='gifs/BlackGender3b.gif' style='height:400px;''></img>","","html-keyboard-response","316","1070761","0.0-17.0-1.4","83602","ListB","man","english","EMB1","","","","null","","","","","",""
"null","is mentioning","","html-keyboard-response","317","1073763","0.0-17.0-2.4","83602","ListB","man","english","EMB1","","","","null","","","","","",""
"4177.900000095367","","","survey-text","318","1077942","0.0-17.0-3.4","83602","ListB","man","english","EMB1","","","","","{""Q0"":""Fred is mentioning Kate""}","<img src='gifs/BlackGender3b.gif' style='height:400px;''></img>","mention","is mentioning","english",""
"null","<div style=""font-size:60px;"">+</div>","","html-keyboard-response","319","1078443","0.0-17.0-0.5","83602","ListB","man","english","EMB1","","","","null","","","","","",""
"null","<img src='gifs/ChineseGender1b.gif' style='height:400px;''></img>","","html-keyboard-response","320","1080450","0.0-17.0-1.5","83602","ListB","man","english","EMB1","","","","null","","","","","",""
"null","is praising","","html-keyboard-response","321","1083459","0.0-17.0-2.5","83602","ListB","man","english","EMB1","","","","null","","","","","",""
"4367.699999809265","","","survey-text","322","1087828","0.0-17.0-3.5","83602","ListB","man","english","EMB1","","","","","{""Q0"":""Jane is praising Luke""}","<img src='gifs/ChineseGender1b.gif' style='height:400px;''></img>","praising","is praising","english",""
"null","<div style=""font-size:60px;"">+</div>","","html-keyboard-response","323","1088332","0.0-17.0-0.6","83602","ListB","man","english","EMB1","","","","null","","","","","",""
"null","<img src='gifs/BlackGender3b.gif' style='height:400px;''></img>","","html-keyboard-response","324","1090342","0.0-17.0-1.6","83602","ListB","man","english","EMB1","","","","null","","","","","",""
"null","is touching","","html-keyboard-response","325","1093343","0.0-17.0-2.6","83602","ListB","man","english","EMB1","","","","null","","","","","",""
"4773.799999713898","","","survey-text","326","1098118","0.0-17.0-3.6","83602","ListB","man","english","EMB1","","","","","{""Q0"":""Kate is touching Fred""}","<img src='gifs/BlackGender3b.gif' style='height:400px;''></img>","touching","is touching","english",""
"null","<div style=""font-size:60px;"">+</div>","","html-keyboard-response","327","1098620","0.0-17.0-0.7","83602","ListB","man","english","EMB1","","","","null","","","","","",""
"null","<img src='gifs/FemaleRace2b.gif' style='height:400px;''></img>","","html-keyboard-response","328","1100627","0.0-17.0-1.7","83602","ListB","man","english","EMB1","","","","null","","","","","",""
"null","is touching","","html-keyboard-response","329","1103637","0.0-17.0-2.7","83602","ListB","man","english","EMB1","","","","null","","","","","",""
"3778","","","survey-text","330","1107417","0.0-17.0-3.7","83602","ListB","man","english","EMB1","","","","","{""Q0"":""Kate is touching Jane""}","<img src='gifs/FemaleRace2b.gif' style='height:400px;''></img>","touching","is touching","english",""
"null","<div style=""font-size:60px;"">+</div>","","html-keyboard-response","331","1107921","0.0-17.0-0.8","83602","ListB","man","english","EMB1","","","","null","","","","","",""
"null","<img src='gifs/BlackGender4a.gif' style='height:400px;''></img>","","html-keyboard-response","332","1109927","0.0-17.0-1.8","83602","ListB","man","english","EMB1","","","","null","","","","","",""
"null","is contacting","","html-keyboard-response","333","1112933","0.0-17.0-2.8","83602","ListB","man","english","EMB1","","","","null","","","","","",""
"3317.5","","","survey-text","334","1116252","0.0-17.0-3.8","83602","ListB","man","english","EMB1","","","","","{""Q0"":""Mike is contacting Kate""}","<img src='gifs/BlackGender4a.gif' style='height:400px;''></img>","contacting","is contacting","english",""
"null","<div style=""font-size:60px;"">+</div>","","html-keyboard-response","335","1116759","0.0-17.0-0.9","83602","ListB","man","english","EMB1","","","","null","","","","","",""
"null","<img src='gifs/ChineseGender1a.gif' style='height:400px;''></img>","","html-keyboard-response","336","1118763","0.0-17.0-1.9","83602","ListB","man","english","EMB1","","","","null","","","","","",""
"null","is approaching","","html-keyboard-response","337","1121772","0.0-17.0-2.9","83602","ListB","man","english","EMB1","","","","null","","","","","",""
"3748.699999809265","","","survey-text","338","1125522","0.0-17.0-3.9","83602","ListB","man","english","EMB1","","","","","{""Q0"":""Jane is approaching Luke""}","<img src='gifs/ChineseGender1a.gif' style='height:400px;''></img>","approaching","is approaching","english",""
"null","<div style=""font-size:60px;"">+</div>","","html-keyboard-response","339","1126026","0.0-17.0-0.10","83602","ListB","man","english","EMB1","","","","null","","","","","",""
"null","<img src='gifs/ChineseGender4a.gif' style='height:400px;''></img>","","html-keyboard-response","340","1128028","0.0-17.0-1.10","83602","ListB","man","english","EMB1","","","","null","","","","","",""
"null","is following","","html-keyboard-response","341","1131037","0.0-17.0-2.10","83602","ListB","man","english","EMB1","","","","null","","","","","",""
"2896.2000002861023","","","survey-text","342","1133937","0.0-17.0-3.10","83602","ListB","man","english","EMB1","","","","","{""Q0"":""Jane is following Dave""}","<img src='gifs/ChineseGender4a.gif' style='height:400px;''></img>","following","is following","english",""
"null","<div style=""font-size:60px;"">+</div>","","html-keyboard-response","343","1134442","0.0-17.0-0.11","83602","ListB","man","english","EMB1","","","","null","","","","","",""
"null","<img src='gifs/BlackGender3a.gif' style='height:400px;''></img>","","html-keyboard-response","344","1136449","0.0-17.0-1.11","83602","ListB","man","english","EMB1","","","","null","","","","","",""
"null","is listening to","","html-keyboard-response","345","1139458","0.0-17.0-2.11","83602","ListB","man","english","EMB1","","","","null","","","","","",""
"3747.7000002861023","","","survey-text","346","1143208","0.0-17.0-3.11","83602","ListB","man","english","EMB1","","","","","{""Q0"":""Fred is listening to Kate""}","<img src='gifs/BlackGender3a.gif' style='height:400px;''></img>","listening to","is listening to","english",""
"null","<div style=""font-size:60px;"">+</div>","","html-keyboard-response","347","1143710","0.0-17.0-0.12","83602","ListB","man","english","EMB1","","","","null","","","","","",""
"null","<img src='gifs/FemaleRace1a.gif' style='height:400px;''></img>","","html-keyboard-response","348","1145715","0.0-17.0-1.12","83602","ListB","man","english","EMB1","","","","null","","","","","",""
"null","is joining","","html-keyboard-response","349","1148724","0.0-17.0-2.12","83602","ListB","man","english","EMB1","","","","null","","","","","",""
"4202.300000190735","","","survey-text","350","1152929","0.0-17.0-3.12","83602","ListB","man","english","EMB1","","","","","{""Q0"":""Jane is joining Beth""}","<img src='gifs/FemaleRace1a.gif' style='height:400px;''></img>","join","is joining","english",""
"null","<div style=""font-size:60px;"">+</div>","","html-keyboard-response","351","1153435","0.0-17.0-0.13","83602","ListB","man","english","EMB1","","","","null","","","","","",""
"null","<img src='gifs/MaleRace2b.gif' style='height:400px;''></img>","","html-keyboard-response","352","1155441","0.0-17.0-1.13","83602","ListB","man","english","EMB1","","","","null","","","","","",""
"null","is walking towards","","html-keyboard-response","353","1158443","0.0-17.0-2.13","83602","ListB","man","english","EMB1","","","","null","","","","","",""
"5988.299999713898","","","survey-text","354","1164433","0.0-17.0-3.13","83602","ListB","man","english","EMB1","","","","","{""Q0"":""Luke is walking towards Mike""}","<img src='gifs/MaleRace2b.gif' style='height:400px;''></img>","walking towards","is walking towards","english",""
"null","<div style=""font-size:60px;"">+</div>","","html-keyboard-response","355","1164937","0.0-17.0-0.14","83602","ListB","man","english","EMB1","","","","null","","","","","",""
"null","<img src='gifs/BlackGender2a.gif' style='height:400px;''></img>","","html-keyboard-response","356","1166941","0.0-17.0-1.14","83602","ListB","man","english","EMB1","","","","null","","","","","",""
"null","is facing","","html-keyboard-response","357","1169943","0.0-17.0-2.14","83602","ListB","man","english","EMB1","","","","null","","","","","",""
"7175.400000095367","","","survey-text","358","1177122","0.0-17.0-3.14","83602","ListB","man","english","EMB1","","","","","{""Q0"":""Mike is facing Beth""}","<img src='gifs/BlackGender2a.gif' style='height:400px;''></img>","facing","is facing","english",""
"null","<div style=""font-size:60px;"">+</div>","","html-keyboard-response","359","1177626","0.0-17.0-0.15","83602","ListB","man","english","EMB1","","","","null","","","","","",""
"null","<img src='gifs/MaleRace3b.gif' style='height:400px;''></img>","","html-keyboard-response","360","1179632","0.0-17.0-1.15","83602","ListB","man","english","EMB1","","","","null","","","","","",""
"null","is listening to","","html-keyboard-response","361","1182640","0.0-17.0-2.15","83602","ListB","man","english","EMB1","","","","null","","","","","",""
"4905.200000286102","","","survey-text","362","1187547","0.0-17.0-3.15","83602","ListB","man","english","EMB1","","","","","{""Q0"":""Dave is listening to Fred""}","<img src='gifs/MaleRace3b.gif' style='height:400px;''></img>","listening to","is listening to","english",""
"null","<div style=""font-size:60px;"">+</div>","","html-keyboard-response","363","1188051","0.0-17.0-0.16","83602","ListB","man","english","EMB1","","","","null","","","","","",""
"null","<img src='gifs/BlackGender2a.gif' style='height:400px;''></img>","","html-keyboard-response","364","1190058","0.0-17.0-1.16","83602","ListB","man","english","EMB1","","","","null","","","","","",""
"null","is promising","","html-keyboard-response","365","1193059","0.0-17.0-2.16","83602","ListB","man","english","EMB1","","","","null","","","","","",""
"3350.6000003814697","","","survey-text","366","1196411","0.0-17.0-3.16","83602","ListB","man","english","EMB1","","","","","{""Q0"":""Mike is promising Beth""}","<img src='gifs/BlackGender2a.gif' style='height:400px;''></img>","promising","is promising","english",""
"null","<div style=""font-size:60px;"">+</div>","","html-keyboard-response","367","1196921","0.0-17.0-0.17","83602","ListB","man","english","EMB1","","","","null","","","","","",""
"null","<img src='gifs/FemaleRace1b.gif' style='height:400px;''></img>","","html-keyboard-response","368","1198924","0.0-17.0-1.17","83602","ListB","man","english","EMB1","","","","null","","","","","",""
"null","is joining","","html-keyboard-response","369","1201926","0.0-17.0-2.17","83602","ListB","man","english","EMB1","","","","null","","","","","",""
"4099.599999904633","","","survey-text","370","1206027","0.0-17.0-3.17","83602","ListB","man","english","EMB1","","","","","{""Q0"":""Jane is joining Beth""}","<img src='gifs/FemaleRace1b.gif' style='height:400px;''></img>","join","is joining","english",""
"3559.800000190735","<p>Thank you for completing that task.</p><p>The final part of this session is a short questionnaire.</p><p>Press Continue.</p>","0","html-button-response","371","1209588","0.0-18.0","83602","ListB","man","english","EMB1","","","","","","","","","",""
"29815.300000190735","","","survey-text","372","1240412","0.0-19.0","83602","ListB","man","english","EMB1","","","","","{""Q0"":""22"",""Q1"":""Chinese"",""Q2"":""English"",""Q3"":""Scotland"",""Q4"":""Chinese"",""Q5"":""Asia"",""Q6"":""Male""}","","","","","demographics"
"6749.5","<p>Have you lived in the UK for the last 5 years or more?</p>","0","html-button-response","373","1247163","0.0-20.0","83602","ListB","man","english","EMB1","","","","","","","","","","fiveyears"
"63596.90000009537","","","external-html","374","1311900","0.0-21.0","83602","ListB","man","english","EMB1","debrief.html","","","","","","","","",""
"1234421.5","","","survey-text","375","2546343","0.0-22.0","83602","ListB","man","english","EMB1","","","","","{""ptpt_id"":""EMB1""}","","","","","worker_id"
