"rt","stimulus","button_pressed","trial_type","trial_index","time_elapsed","internal_node_id","subject","list","ppt_race","ppt_gender","url","first_guess","correct","key_press","responses","image_type","phrase_type","test_part","response","stimulus1","stimulus2","question_type","survey_item"
"3325.2999999523163","Welcome to the experiment. Press Continue to begin.","0","html-button-response","0","3333","0.0-0.0","10193","List1A","white","woman","","","","","","","","","","","","",""
"73327","","","external-html","1","77854","0.0-1.0","10193","List1A","white","woman","consent.html","","","","","","","","","","","",""
"19270.599999904633","<p>On the next page, you will see portraits of 8 people and their names.</p><p>Your first task is to take a few minutes to memorise the names of these people.</p><p>You will have to recall their names during the rest of the experiment, so it is</p><p>essential that you try to memorise these people and their names as best as you can.</p><br><p><strong>You will then be tested on your memory of these names and portraits.</strong></p><br><p>The experiment will start after you have completed this memory test.</p><br><p>Ready?</p>","0","html-button-response","2","97129","0.0-2.0","10193","List1A","white","woman","","","","","","","","","","","","",""
"208971.29999995232","<img src='img/portrait_matrix_list1.jpg' style='width:900px;height:500px;''></img><p>If you have memorised all the portraits and names and are ready to start, press Continue.</p><p><strong>Please note: Your memory of these faces will be tested 4 times during this experiment.</strong></p>","0","html-button-response","3","307106","0.0-3.0-0.0","10193","List1A","white","woman","","","","","","","","","","","","",""
"5708.599999904633","<img src=""portrait/BW2.jpg""style=""height:400px;""></img>","2","html-button-response","4","313824","0.0-3.0-1.0","10193","List1A","white","woman","","true","2","","","","","","","","","",""
"null","CORRECT","","html-keyboard-response","5","315334","0.0-3.0-2.0-0.0","10193","List1A","white","woman","","","","null","","","","","","","","",""
"3190.399999856949","<img src=""portrait/WW2.jpg""style=""height:400px;""></img>","3","html-button-response","6","318528","0.0-3.0-4.0","10193","List1A","white","woman","","true","3","","","","","","","","","",""
"null","CORRECT","","html-keyboard-response","7","320047","0.0-3.0-5.0-0.0","10193","List1A","white","woman","","","","null","","","","","","","","",""
"2913.699999809265","<img src=""portrait/WM2.jpg""style=""height:400px;""></img>","7","html-button-response","8","322964","0.0-3.0-7.0","10193","List1A","white","woman","","true","7","","","","","","","","","",""
"null","CORRECT","","html-keyboard-response","9","324480","0.0-3.0-8.0-0.0","10193","List1A","white","woman","","","","null","","","","","","","","",""
"4058.4000000953674","<img src=""portrait/BW1.jpg""style=""height:400px;""></img>","0","html-button-response","10","328540","0.0-3.0-10.0","10193","List1A","white","woman","","true","0","","","","","","","","","",""
"null","CORRECT","","html-keyboard-response","11","330051","0.0-3.0-11.0-0.0","10193","List1A","white","woman","","","","null","","","","","","","","",""
"5318.899999856949","<img src=""portrait/BM2.jpg""style=""height:400px;""></img>","5","html-button-response","12","335373","0.0-3.0-13.0","10193","List1A","white","woman","","true","5","","","","","","","","","",""
"null","CORRECT","","html-keyboard-response","13","336878","0.0-3.0-14.0-0.0","10193","List1A","white","woman","","","","null","","","","","","","","",""
"7312.899999856949","<img src=""portrait/WW1.jpg""style=""height:400px;""></img>","1","html-button-response","14","344193","0.0-3.0-16.0","10193","List1A","white","woman","","true","1","","","","","","","","","",""
"null","CORRECT","","html-keyboard-response","15","345715","0.0-3.0-17.0-0.0","10193","List1A","white","woman","","","","null","","","","","","","","",""
"4202","<img src=""portrait/WM1.jpg""style=""height:400px;""></img>","6","html-button-response","16","349919","0.0-3.0-19.0","10193","List1A","white","woman","","true","6","","","","","","","","","",""
"null","CORRECT","","html-keyboard-response","17","351428","0.0-3.0-20.0-0.0","10193","List1A","white","woman","","","","null","","","","","","","","",""
"5147.699999809265","<img src=""portrait/BM1.jpg""style=""height:400px;""></img>","4","html-button-response","18","356579","0.0-3.0-22.0","10193","List1A","white","woman","","true","4","","","","","","","","","",""
"null","CORRECT","","html-keyboard-response","19","358095","0.0-3.0-23.0-0.0","10193","List1A","white","woman","","","","null","","","","","","","","",""
"2971.300000190735","<p>You got 8 out of 8 right first time. Press Continue.</p>","0","html-button-response","20","361070","0.0-3.0-25.0","10193","List1A","white","woman","","","","","","","","","","","","",""
"59050","<p>In this experiment, you will view photographs of the people from the memory game interacting.</p><p>By using the <strong>exact</strong> phrase given <i>after</i> the photograph appears and recalling the correct names of the people in the photographs, form a sentence describing the interaction. You do not need to capitalise names.</p><p>Type your answer in the space provided. Please complete every sentence before moving onto the next trial.</p><p>You will only have a few seconds to memorise each given photograph and phrase before you can respond, so try your best to focus.</p><p>An example is given below. Press 'Continue' when you are ready.</p><img src='img/speaking_example.jpg' style='width:800px;height:460px;''></img>","0","html-button-response","21","421133","0.0-4.0","10193","List1A","white","woman","","","","","","","","","","","","",""
"3815.7000000476837","<p>Before the experiment starts, you will watch two example trials. Press 'Continue'.</p>","0","html-button-response","22","425953","0.0-5.0","10193","List1A","white","woman","","","","","","","","","","","","",""
"null","<img src='img/play_eg.gif' style='height:400px;''></img>","","html-keyboard-response","23","428984","0.0-6.0","10193","List1A","white","woman","","","","null","","","","","","","","",""
"null","<p>is playing with</p>","","html-keyboard-response","24","430990","0.0-7.0","10193","List1A","white","woman","","","","null","","","","","","","","",""
"5569.799999952316","<p><b>Answer:</b> kate is playing with beth</p>","0","html-button-response","25","436562","0.0-8.0","10193","List1A","white","woman","","","","","","","","","","","","",""
"null","<img src='img/dance_eg.gif' style='height:400px;''></img>","","html-keyboard-response","26","439577","0.0-9.0","10193","List1A","white","woman","","","","null","","","","","","","","",""
"null","<p>is being entertained by</p>","","html-keyboard-response","27","441583","0.0-10.0","10193","List1A","white","woman","","","","null","","","","","","","","",""
"7362.700000047684","<p><b>Answer:</b> luke is being entertained by dave</p>","0","html-button-response","28","448948","0.0-11.0","10193","List1A","white","woman","","","","","","","","","","","","",""
"17850.099999904633","<p>Ready to start the experiment?</p><br><p><strong>Remember to describe the picture using a full sentence,</strong></p><p><strong>that combines the names of the people with the <i>exact</i> phrase given.</strong></p><p><strong>To receive full payment you must do this correctly.</strong></p><p><strong> You do not need to capitalise names or use punctuation.</strong></p><br><p>Press 'Continue' to begin.</p>","0","html-button-response","29","467804","0.0-12.0","10193","List1A","white","woman","","","","","","","","","","","","",""
"null","<div style=""font-size:60px;"">+</div>","","html-keyboard-response","30","469319","0.0-13.0-0.0","10193","List1A","white","woman","","","","null","","","","","","","","",""
"null","<img src=""stim_listA/greet3.gif""style=""height:400px;""></stim_listA>","","html-keyboard-response","31","471327","0.0-13.0-1.0","10193","List1A","white","woman","","","","null","","","","","","","","",""
"null","is greeting","","html-keyboard-response","32","473329","0.0-13.0-2.0","10193","List1A","white","woman","","","","null","","","","","","","","",""
"14615.700000047684","","","survey-text","33","487951","0.0-13.0-3.0","10193","List1A","white","woman","","","","","{""Q0"":""dave is greeting jane""}","<img src=""stim_listA/greet3.gif""style=""height:400px;""></stim_listA>","is greeting","","","","","",""
"null","<div style=""font-size:60px;"">+</div>","","html-keyboard-response","34","488462","0.0-13.0-0.1","10193","List1A","white","woman","","","","null","","","","","","","","",""
"null","<img src=""stim_listA/oppose7.gif""style=""height:400px;""></stim_listA>","","html-keyboard-response","35","490472","0.0-13.0-1.1","10193","List1A","white","woman","","","","null","","","","","","","","",""
"null","is opposing","","html-keyboard-response","36","492476","0.0-13.0-2.1","10193","List1A","white","woman","","","","null","","","","","","","","",""
"6530.099999904633","","","survey-text","37","499012","0.0-13.0-3.1","10193","List1A","white","woman","","","","","{""Q0"":""kate is opposing jane""}","<img src=""stim_listA/oppose7.gif""style=""height:400px;""></stim_listA>","is opposing","","","","","",""
"null","<div style=""font-size:60px;"">+</div>","","html-keyboard-response","38","499519","0.0-13.0-0.2","10193","List1A","white","woman","","","","null","","","","","","","","",""
"null","<img src=""stim_listA/hug5.gif""style=""height:400px;""></stim_listA>","","html-keyboard-response","39","501522","0.0-13.0-1.2","10193","List1A","white","woman","","","","null","","","","","","","","",""
"null","is hugging","","html-keyboard-response","40","503532","0.0-13.0-2.2","10193","List1A","white","woman","","","","null","","","","","","","","",""
"6545.199999809265","","","survey-text","41","510081","0.0-13.0-3.2","10193","List1A","white","woman","","","","","{""Q0"":""fred is hugging luke""}","<img src=""stim_listA/hug5.gif""style=""height:400px;""></stim_listA>","is hugging","","","","","",""
"null","<div style=""font-size:60px;"">+</div>","","html-keyboard-response","42","510594","0.0-13.0-0.3","10193","List1A","white","woman","","","","null","","","","","","","","",""
"null","<img src=""stim_listA/touch3.gif""style=""height:400px;""></stim_listA>","","html-keyboard-response","43","512599","0.0-13.0-1.3","10193","List1A","white","woman","","","","null","","","","","","","","",""
"null","is touching","","html-keyboard-response","44","514609","0.0-13.0-2.3","10193","List1A","white","woman","","","","null","","","","","","","","",""
"4869.299999952316","","","survey-text","45","519481","0.0-13.0-3.3","10193","List1A","white","woman","","","","","{""Q0"":""jane is touching dave""}","<img src=""stim_listA/touch3.gif""style=""height:400px;""></stim_listA>","is touching","","","","","",""
"null","<div style=""font-size:60px;"">+</div>","","html-keyboard-response","46","519996","0.0-13.0-0.4","10193","List1A","white","woman","","","","null","","","","","","","","",""
"null","<img src=""stim_listA/seduce8.gif""style=""height:400px;""></stim_listA>","","html-keyboard-response","47","522002","0.0-13.0-1.4","10193","List1A","white","woman","","","","null","","","","","","","","",""
"null","is being seduced by","","html-keyboard-response","48","524006","0.0-13.0-2.4","10193","List1A","white","woman","","","","null","","","","","","","","",""
"9481.599999904633","","","survey-text","49","533490","0.0-13.0-3.4","10193","List1A","white","woman","","","","","{""Q0"":""kate is being seduced by ruth""}","<img src=""stim_listA/seduce8.gif""style=""height:400px;""></stim_listA>","is being seduced by","","","","","",""
"null","<div style=""font-size:60px;"">+</div>","","html-keyboard-response","50","533996","0.0-13.0-0.5","10193","List1A","white","woman","","","","null","","","","","","","","",""
"null","<img src=""stim_listA/touch1.gif""style=""height:400px;""></stim_listA>","","html-keyboard-response","51","535999","0.0-13.0-1.5","10193","List1A","white","woman","","","","null","","","","","","","","",""
"null","is touching","","html-keyboard-response","52","538007","0.0-13.0-2.5","10193","List1A","white","woman","","","","null","","","","","","","","",""
"5770.699999809265","","","survey-text","53","543781","0.0-13.0-3.5","10193","List1A","white","woman","","","","","{""Q0"":""kate is touching mike""}","<img src=""stim_listA/touch1.gif""style=""height:400px;""></stim_listA>","is touching","","","","","",""
"null","<div style=""font-size:60px;"">+</div>","","html-keyboard-response","54","544296","0.0-13.0-0.6","10193","List1A","white","woman","","","","null","","","","","","","","",""
"null","<img src=""stim_listA/kiss7.gif""style=""height:400px;""></stim_listA>","","html-keyboard-response","55","546304","0.0-13.0-1.6","10193","List1A","white","woman","","","","null","","","","","","","","",""
"null","is kissing","","html-keyboard-response","56","548306","0.0-13.0-2.6","10193","List1A","white","woman","","","","null","","","","","","","","",""
"6663.5","","","survey-text","57","554973","0.0-13.0-3.6","10193","List1A","white","woman","","","","","{""Q0"":""beth is kissing ruth""}","<img src=""stim_listA/kiss7.gif""style=""height:400px;""></stim_listA>","is kissing","","","","","",""
"null","<div style=""font-size:60px;"">+</div>","","html-keyboard-response","58","555487","0.0-13.0-0.7","10193","List1A","white","woman","","","","null","","","","","","","","",""
"null","<img src=""stim_listA/challenge1.gif""style=""height:400px;""></stim_listA>","","html-keyboard-response","59","557496","0.0-13.0-1.7","10193","List1A","white","woman","","","","null","","","","","","","","",""
"null","is challenging","","html-keyboard-response","60","559497","0.0-13.0-2.7","10193","List1A","white","woman","","","","null","","","","","","","","",""
"8283.700000047684","","","survey-text","61","567783","0.0-13.0-3.7","10193","List1A","white","woman","","","","","{""Q0"":""beth is challenging mike""}","<img src=""stim_listA/challenge1.gif""style=""height:400px;""></stim_listA>","is challenging","","","","","",""
"null","<div style=""font-size:60px;"">+</div>","","html-keyboard-response","62","568301","0.0-13.0-0.8","10193","List1A","white","woman","","","","null","","","","","","","","",""
"null","<img src=""stim_listA/look5.gif""style=""height:400px;""></stim_listA>","","html-keyboard-response","63","570305","0.0-13.0-1.8","10193","List1A","white","woman","","","","null","","","","","","","","",""
"null","is looking at","","html-keyboard-response","64","572315","0.0-13.0-2.8","10193","List1A","white","woman","","","","null","","","","","","","","",""
"7116.299999952316","","","survey-text","65","579436","0.0-13.0-3.8","10193","List1A","white","woman","","","","","{""Q0"":""fred is looking at luke""}","<img src=""stim_listA/look5.gif""style=""height:400px;""></stim_listA>","is looking at","","","","","",""
"null","<div style=""font-size:60px;"">+</div>","","html-keyboard-response","66","579939","0.0-13.0-0.9","10193","List1A","white","woman","","","","null","","","","","","","","",""
"null","<img src=""stim_listA/challenge2.gif""style=""height:400px;""></stim_listA>","","html-keyboard-response","67","581942","0.0-13.0-1.9","10193","List1A","white","woman","","","","null","","","","","","","","",""
"null","is being challenged by","","html-keyboard-response","68","583951","0.0-13.0-2.9","10193","List1A","white","woman","","","","null","","","","","","","","",""
"8384.099999904633","","","survey-text","69","592339","0.0-13.0-3.9","10193","List1A","white","woman","","","","","{""Q0"":""kate is being challenged by fred""}","<img src=""stim_listA/challenge2.gif""style=""height:400px;""></stim_listA>","is being challenged by","","","","","",""
"null","<div style=""font-size:60px;"">+</div>","","html-keyboard-response","70","592852","0.0-13.0-0.10","10193","List1A","white","woman","","","","null","","","","","","","","",""
"null","<img src=""stim_listA/greet2.gif""style=""height:400px;""></stim_listA>","","html-keyboard-response","71","594860","0.0-13.0-1.10","10193","List1A","white","woman","","","","null","","","","","","","","",""
"null","is being greeted by","","html-keyboard-response","72","596864","0.0-13.0-2.10","10193","List1A","white","woman","","","","null","","","","","","","","",""
"5759.900000095367","","","survey-text","73","602628","0.0-13.0-3.10","10193","List1A","white","woman","","","","","{""Q0"":""kate is being greeted by fred""}","<img src=""stim_listA/greet2.gif""style=""height:400px;""></stim_listA>","is being greeted by","","","","","",""
"null","<div style=""font-size:60px;"">+</div>","","html-keyboard-response","74","603145","0.0-13.0-0.11","10193","List1A","white","woman","","","","null","","","","","","","","",""
"null","<img src=""stim_listA/hug3.gif""style=""height:400px;""></stim_listA>","","html-keyboard-response","75","605151","0.0-13.0-1.11","10193","List1A","white","woman","","","","null","","","","","","","","",""
"null","is hugging","","html-keyboard-response","76","607164","0.0-13.0-2.11","10193","List1A","white","woman","","","","null","","","","","","","","",""
"5975.299999952316","","","survey-text","77","613143","0.0-13.0-3.11","10193","List1A","white","woman","","","","","{""Q0"":""luke is hugging ruth""}","<img src=""stim_listA/hug3.gif""style=""height:400px;""></stim_listA>","is hugging","","","","","",""
"null","<div style=""font-size:60px;"">+</div>","","html-keyboard-response","78","613658","0.0-13.0-0.12","10193","List1A","white","woman","","","","null","","","","","","","","",""
"null","<img src=""stim_listA/hug2.gif""style=""height:400px;""></stim_listA>","","html-keyboard-response","79","615671","0.0-13.0-1.12","10193","List1A","white","woman","","","","null","","","","","","","","",""
"null","is being hugged by","","html-keyboard-response","80","617673","0.0-13.0-2.12","10193","List1A","white","woman","","","","null","","","","","","","","",""
"6386.299999952316","","","survey-text","81","624061","0.0-13.0-3.12","10193","List1A","white","woman","","","","","{""Q0"":""kate is being hugged by mike""}","<img src=""stim_listA/hug2.gif""style=""height:400px;""></stim_listA>","is being hugged by","","","","","",""
"null","<div style=""font-size:60px;"">+</div>","","html-keyboard-response","82","624579","0.0-13.0-0.13","10193","List1A","white","woman","","","","null","","","","","","","","",""
"null","<img src=""stim_listA/look8.gif""style=""height:400px;""></stim_listA>","","html-keyboard-response","83","626582","0.0-13.0-1.13","10193","List1A","white","woman","","","","null","","","","","","","","",""
"null","is being looked at by","","html-keyboard-response","84","628592","0.0-13.0-2.13","10193","List1A","white","woman","","","","null","","","","","","","","",""
"10395.900000095367","","","survey-text","85","638991","0.0-13.0-3.13","10193","List1A","white","woman","","","","","{""Q0"":""jane is being looked at by kate""}","<img src=""stim_listA/look8.gif""style=""height:400px;""></stim_listA>","is being looked at by","","","","","",""
"null","<div style=""font-size:60px;"">+</div>","","html-keyboard-response","86","639508","0.0-13.0-0.14","10193","List1A","white","woman","","","","null","","","","","","","","",""
"null","<img src=""stim_listA/oppose3.gif""style=""height:400px;""></stim_listA>","","html-keyboard-response","87","641513","0.0-13.0-1.14","10193","List1A","white","woman","","","","null","","","","","","","","",""
"null","is opposing","","html-keyboard-response","88","643516","0.0-13.0-2.14","10193","List1A","white","woman","","","","null","","","","","","","","",""
"22003.10000014305","","","survey-text","89","665521","0.0-13.0-3.14","10193","List1A","white","woman","","","","","{""Q0"":""jane is opposing dave""}","<img src=""stim_listA/oppose3.gif""style=""height:400px;""></stim_listA>","is opposing","","","","","",""
"null","<div style=""font-size:60px;"">+</div>","","html-keyboard-response","90","666034","0.0-13.0-0.15","10193","List1A","white","woman","","","","null","","","","","","","","",""
"null","<img src=""stim_listA/look3.gif""style=""height:400px;""></stim_listA>","","html-keyboard-response","91","668051","0.0-13.0-1.15","10193","List1A","white","woman","","","","null","","","","","","","","",""
"null","is looking at","","html-keyboard-response","92","670053","0.0-13.0-2.15","10193","List1A","white","woman","","","","null","","","","","","","","",""
"7372.5","","","survey-text","93","677431","0.0-13.0-3.15","10193","List1A","white","woman","","","","","{""Q0"":""luke is looking at ruth""}","<img src=""stim_listA/look3.gif""style=""height:400px;""></stim_listA>","is looking at","","","","","",""
"null","<div style=""font-size:60px;"">+</div>","","html-keyboard-response","94","677946","0.0-13.0-0.16","10193","List1A","white","woman","","","","null","","","","","","","","",""
"null","<img src=""stim_listA/shout5.gif""style=""height:400px;""></stim_listA>","","html-keyboard-response","95","679949","0.0-13.0-1.16","10193","List1A","white","woman","","","","null","","","","","","","","",""
"null","is shouting at","","html-keyboard-response","96","681953","0.0-13.0-2.16","10193","List1A","white","woman","","","","null","","","","","","","","",""
"7955.5","","","survey-text","97","689912","0.0-13.0-3.16","10193","List1A","white","woman","","","","","{""Q0"":""fred is shouting at luke""}","<img src=""stim_listA/shout5.gif""style=""height:400px;""></stim_listA>","is shouting at","","","","","",""
"null","<div style=""font-size:60px;"">+</div>","","html-keyboard-response","98","690424","0.0-13.0-0.17","10193","List1A","white","woman","","","","null","","","","","","","","",""
"null","<img src=""stim_listA/seduce6.gif""style=""height:400px;""></stim_listA>","","html-keyboard-response","99","692441","0.0-13.0-1.17","10193","List1A","white","woman","","","","null","","","","","","","","",""
"null","is being seduced by","","html-keyboard-response","100","694450","0.0-13.0-2.17","10193","List1A","white","woman","","","","null","","","","","","","","",""
"7836.700000047684","","","survey-text","101","702290","0.0-13.0-3.17","10193","List1A","white","woman","","","","","{""Q0"":""mike is being seduced by luke""}","<img src=""stim_listA/seduce6.gif""style=""height:400px;""></stim_listA>","is being seduced by","","","","","",""
"null","<div style=""font-size:60px;"">+</div>","","html-keyboard-response","102","702794","0.0-13.0-0.18","10193","List1A","white","woman","","","","null","","","","","","","","",""
"null","<img src=""stim_listA/copy3.gif""style=""height:400px;""></stim_listA>","","html-keyboard-response","103","704803","0.0-13.0-1.18","10193","List1A","white","woman","","","","null","","","","","","","","",""
"null","is copying","","html-keyboard-response","104","706810","0.0-13.0-2.18","10193","List1A","white","woman","","","","null","","","","","","","","",""
"4859.099999904633","","","survey-text","105","711672","0.0-13.0-3.18","10193","List1A","white","woman","","","","","{""Q0"":""dave is copying ruth""}","<img src=""stim_listA/copy3.gif""style=""height:400px;""></stim_listA>","is copying","","","","","",""
"null","<div style=""font-size:60px;"">+</div>","","html-keyboard-response","106","712180","0.0-13.0-0.19","10193","List1A","white","woman","","","","null","","","","","","","","",""
"null","<img src=""stim_listA/hug8.gif""style=""height:400px;""></stim_listA>","","html-keyboard-response","107","714199","0.0-13.0-1.19","10193","List1A","white","woman","","","","null","","","","","","","","",""
"null","is being hugged by","","html-keyboard-response","108","716205","0.0-13.0-2.19","10193","List1A","white","woman","","","","null","","","","","","","","",""
"6337.099999904633","","","survey-text","109","722546","0.0-13.0-3.19","10193","List1A","white","woman","","","","","{""Q0"":""jane is being hugged by kate""}","<img src=""stim_listA/hug8.gif""style=""height:400px;""></stim_listA>","is being hugged by","","","","","",""
"52012","<img src='img/portrait_matrix_list1.jpg' style='width:900px;height:500px;''></img><p>If you have memorised all the portraits and names and are ready to start, press Continue.</p><p><strong>Please note: Your memory of these faces will be tested 4 times during this experiment.</strong></p>","0","html-button-response","110","774561","0.0-14.0-0.0","10193","List1A","white","woman","","","","","","","","","","","","",""
"3169.4000000953674","<img src=""portrait/WW1.jpg""style=""height:400px;""></img>","1","html-button-response","111","778735","0.0-14.0-1.0","10193","List1A","white","woman","","true","1","","","","","","","","","",""
"null","CORRECT","","html-keyboard-response","112","780260","0.0-14.0-2.0-0.0","10193","List1A","white","woman","","","","null","","","","","","","","",""
"1359","<img src=""portrait/BW2.jpg""style=""height:400px;""></img>","2","html-button-response","113","781627","0.0-14.0-4.0","10193","List1A","white","woman","","true","2","","","","","","","","","",""
"null","CORRECT","","html-keyboard-response","114","783138","0.0-14.0-5.0-0.0","10193","List1A","white","woman","","","","null","","","","","","","","",""
"1937.4000000953674","<img src=""portrait/WM2.jpg""style=""height:400px;""></img>","7","html-button-response","115","785079","0.0-14.0-7.0","10193","List1A","white","woman","","true","7","","","","","","","","","",""
"null","CORRECT","","html-keyboard-response","116","786599","0.0-14.0-8.0-0.0","10193","List1A","white","woman","","","","null","","","","","","","","",""
"2150.2000000476837","<img src=""portrait/BM2.jpg""style=""height:400px;""></img>","5","html-button-response","117","788753","0.0-14.0-10.0","10193","List1A","white","woman","","true","5","","","","","","","","","",""
"null","CORRECT","","html-keyboard-response","118","790267","0.0-14.0-11.0-0.0","10193","List1A","white","woman","","","","null","","","","","","","","",""
"2916.5999999046326","<img src=""portrait/BM1.jpg""style=""height:400px;""></img>","4","html-button-response","119","793187","0.0-14.0-13.0","10193","List1A","white","woman","","true","4","","","","","","","","","",""
"null","CORRECT","","html-keyboard-response","120","794702","0.0-14.0-14.0-0.0","10193","List1A","white","woman","","","","null","","","","","","","","",""
"2722","<img src=""portrait/WW2.jpg""style=""height:400px;""></img>","3","html-button-response","121","797427","0.0-14.0-16.0","10193","List1A","white","woman","","true","3","","","","","","","","","",""
"null","CORRECT","","html-keyboard-response","122","798953","0.0-14.0-17.0-0.0","10193","List1A","white","woman","","","","null","","","","","","","","",""
"5074","<img src=""portrait/BW1.jpg""style=""height:400px;""></img>","0","html-button-response","123","804030","0.0-14.0-19.0","10193","List1A","white","woman","","true","0","","","","","","","","","",""
"null","CORRECT","","html-keyboard-response","124","805562","0.0-14.0-20.0-0.0","10193","List1A","white","woman","","","","null","","","","","","","","",""
"4159.900000095367","<img src=""portrait/WM1.jpg""style=""height:400px;""></img>","6","html-button-response","125","809726","0.0-14.0-22.0","10193","List1A","white","woman","","true","6","","","","","","","","","",""
"null","CORRECT","","html-keyboard-response","126","811246","0.0-14.0-23.0-0.0","10193","List1A","white","woman","","","","null","","","","","","","","",""
"3196.899999856949","<p>You got 8 out of 8 right first time. Press Continue.</p>","0","html-button-response","127","814446","0.0-14.0-25.0","10193","List1A","white","woman","","","","","","","","","","","","",""
"null","<div style=""font-size:60px;"">+</div>","","html-keyboard-response","128","815969","0.0-15.0-0.0","10193","List1A","white","woman","","","","null","","","","","","","","",""
"null","<img src=""stim_listA/touch5.gif""style=""height:400px;""></stim_listA>","","html-keyboard-response","129","817972","0.0-15.0-1.0","10193","List1A","white","woman","","","","null","","","","","","","","",""
"null","is touching","","html-keyboard-response","130","819989","0.0-15.0-2.0","10193","List1A","white","woman","","","","null","","","","","","","","",""
"9932.5","","","survey-text","131","829925","0.0-15.0-3.0","10193","List1A","white","woman","","","","","{""Q0"":""mike is touching dave""}","<img src=""stim_listA/touch5.gif""style=""height:400px;""></stim_listA>","is touching","","","","","",""
"null","<div style=""font-size:60px;"">+</div>","","html-keyboard-response","132","830432","0.0-15.0-0.1","10193","List1A","white","woman","","","","null","","","","","","","","",""
"null","<img src=""stim_listA/copy6.gif""style=""height:400px;""></stim_listA>","","html-keyboard-response","133","832436","0.0-15.0-1.1","10193","List1A","white","woman","","","","null","","","","","","","","",""
"null","is being copied by","","html-keyboard-response","134","834446","0.0-15.0-2.1","10193","List1A","white","woman","","","","null","","","","","","","","",""
"6668.900000095367","","","survey-text","135","841118","0.0-15.0-3.1","10193","List1A","white","woman","","","","","{""Q0"":""dave is being copied by fred""}","<img src=""stim_listA/copy6.gif""style=""height:400px;""></stim_listA>","is being copied by","","","","","",""
"null","<div style=""font-size:60px;"">+</div>","","html-keyboard-response","136","841621","0.0-15.0-0.2","10193","List1A","white","woman","","","","null","","","","","","","","",""
"null","<img src=""stim_listA/seduce3.gif""style=""height:400px;""></stim_listA>","","html-keyboard-response","137","843625","0.0-15.0-1.2","10193","List1A","white","woman","","","","null","","","","","","","","",""
"null","is seducing","","html-keyboard-response","138","845637","0.0-15.0-2.2","10193","List1A","white","woman","","","","null","","","","","","","","",""
"4961.399999856949","","","survey-text","139","850602","0.0-15.0-3.2","10193","List1A","white","woman","","","","","{""Q0"":""luke is seducing jane""}","<img src=""stim_listA/seduce3.gif""style=""height:400px;""></stim_listA>","is seducing","","","","","",""
"null","<div style=""font-size:60px;"">+</div>","","html-keyboard-response","140","851120","0.0-15.0-0.3","10193","List1A","white","woman","","","","null","","","","","","","","",""
"null","<img src=""stim_listA/touch8.gif""style=""height:400px;""></stim_listA>","","html-keyboard-response","141","853137","0.0-15.0-1.3","10193","List1A","white","woman","","","","null","","","","","","","","",""
"null","is being touched by","","html-keyboard-response","142","855139","0.0-15.0-2.3","10193","List1A","white","woman","","","","null","","","","","","","","",""
"7405.399999856949","","","survey-text","143","862548","0.0-15.0-3.3","10193","List1A","white","woman","","","","","{""Q0"":""ruth is being touched by beth""}","<img src=""stim_listA/touch8.gif""style=""height:400px;""></stim_listA>","is being touched by","","","","","",""
"null","<div style=""font-size:60px;"">+</div>","","html-keyboard-response","144","863064","0.0-15.0-0.4","10193","List1A","white","woman","","","","null","","","","","","","","",""
"null","<img src=""stim_listA/challenge8.gif""style=""height:400px;""></stim_listA>","","html-keyboard-response","145","865081","0.0-15.0-1.4","10193","List1A","white","woman","","","","null","","","","","","","","",""
"null","is being challenged by","","html-keyboard-response","146","867095","0.0-15.0-2.4","10193","List1A","white","woman","","","","null","","","","","","","","",""
"8008.100000143051","","","survey-text","147","875105","0.0-15.0-3.4","10193","List1A","white","woman","","","","","{""Q0"":""jane is being challenged by beth""}","<img src=""stim_listA/challenge8.gif""style=""height:400px;""></stim_listA>","is being challenged by","","","","","",""
"null","<div style=""font-size:60px;"">+</div>","","html-keyboard-response","148","875615","0.0-15.0-0.5","10193","List1A","white","woman","","","","null","","","","","","","","",""
"null","<img src=""stim_listA/shout2.gif""style=""height:400px;""></stim_listA>","","html-keyboard-response","149","877620","0.0-15.0-1.5","10193","List1A","white","woman","","","","null","","","","","","","","",""
"null","is being shouted at by","","html-keyboard-response","150","879628","0.0-15.0-2.5","10193","List1A","white","woman","","","","null","","","","","","","","",""
"9466.799999952316","","","survey-text","151","889099","0.0-15.0-3.5","10193","List1A","white","woman","","","","","{""Q0"":""kate is being shouted at by mike""}","<img src=""stim_listA/shout2.gif""style=""height:400px;""></stim_listA>","is being shouted at by","","","","","",""
"null","<div style=""font-size:60px;"">+</div>","","html-keyboard-response","152","889616","0.0-15.0-0.6","10193","List1A","white","woman","","","","null","","","","","","","","",""
"null","<img src=""stim_listA/oppose1.gif""style=""height:400px;""></stim_listA>","","html-keyboard-response","153","891619","0.0-15.0-1.6","10193","List1A","white","woman","","","","null","","","","","","","","",""
"null","is opposing","","html-keyboard-response","154","893635","0.0-15.0-2.6","10193","List1A","white","woman","","","","null","","","","","","","","",""
"6218.599999904633","","","survey-text","155","899858","0.0-15.0-3.6","10193","List1A","white","woman","","","","","{""Q0"":""mike is opposing kate""}","<img src=""stim_listA/oppose1.gif""style=""height:400px;""></stim_listA>","is opposing","","","","","",""
"null","<div style=""font-size:60px;"">+</div>","","html-keyboard-response","156","900365","0.0-15.0-0.7","10193","List1A","white","woman","","","","null","","","","","","","","",""
"null","<img src=""stim_listA/seduce7.gif""style=""height:400px;""></stim_listA>","","html-keyboard-response","157","902368","0.0-15.0-1.7","10193","List1A","white","woman","","","","null","","","","","","","","",""
"null","is seducing","","html-keyboard-response","158","904378","0.0-15.0-2.7","10193","List1A","white","woman","","","","null","","","","","","","","",""
"13772.400000095367","","","survey-text","159","918154","0.0-15.0-3.7","10193","List1A","white","woman","","","","","{""Q0"":""beth is seducing jane""}","<img src=""stim_listA/seduce7.gif""style=""height:400px;""></stim_listA>","is seducing","","","","","",""
"null","<div style=""font-size:60px;"">+</div>","","html-keyboard-response","160","918664","0.0-15.0-0.8","10193","List1A","white","woman","","","","null","","","","","","","","",""
"null","<img src=""stim_listA/shout1.gif""style=""height:400px;""></stim_listA>","","html-keyboard-response","161","920674","0.0-15.0-1.8","10193","List1A","white","woman","","","","null","","","","","","","","",""
"null","is shouting at","","html-keyboard-response","162","922677","0.0-15.0-2.8","10193","List1A","white","woman","","","","null","","","","","","","","",""
"7170.200000047684","","","survey-text","163","929851","0.0-15.0-3.8","10193","List1A","white","woman","","","","","{""Q0"":""fred is shouting at beth""}","<img src=""stim_listA/shout1.gif""style=""height:400px;""></stim_listA>","is shouting at","","","","","",""
"null","<div style=""font-size:60px;"">+</div>","","html-keyboard-response","164","930362","0.0-15.0-0.9","10193","List1A","white","woman","","","","null","","","","","","","","",""
"null","<img src=""stim_listA/kiss8.gif""style=""height:400px;""></stim_listA>","","html-keyboard-response","165","932366","0.0-15.0-1.9","10193","List1A","white","woman","","","","null","","","","","","","","",""
"null","is being kissed by","","html-keyboard-response","166","934378","0.0-15.0-2.9","10193","List1A","white","woman","","","","null","","","","","","","","",""
"6002.299999952316","","","survey-text","167","940384","0.0-15.0-3.9","10193","List1A","white","woman","","","","","{""Q0"":""jane is being kissed by kate""}","<img src=""stim_listA/kiss8.gif""style=""height:400px;""></stim_listA>","is being kissed by","","","","","",""
"null","<div style=""font-size:60px;"">+</div>","","html-keyboard-response","168","940888","0.0-15.0-0.10","10193","List1A","white","woman","","","","null","","","","","","","","",""
"null","<img src=""stim_listA/copy7.gif""style=""height:400px;""></stim_listA>","","html-keyboard-response","169","942893","0.0-15.0-1.10","10193","List1A","white","woman","","","","null","","","","","","","","",""
"null","is copying","","html-keyboard-response","170","944898","0.0-15.0-2.10","10193","List1A","white","woman","","","","null","","","","","","","","",""
"5813.899999856949","","","survey-text","171","950716","0.0-15.0-3.10","10193","List1A","white","woman","","","","","{""Q0"":""ruth is copying kate""}","<img src=""stim_listA/copy7.gif""style=""height:400px;""></stim_listA>","is copying","","","","","",""
"null","<div style=""font-size:60px;"">+</div>","","html-keyboard-response","172","951220","0.0-15.0-0.11","10193","List1A","white","woman","","","","null","","","","","","","","",""
"null","<img src=""stim_listA/oppose4.gif""style=""height:400px;""></stim_listA>","","html-keyboard-response","173","953225","0.0-15.0-1.11","10193","List1A","white","woman","","","","null","","","","","","","","",""
"null","is being opposed by","","html-keyboard-response","174","955228","0.0-15.0-2.11","10193","List1A","white","woman","","","","null","","","","","","","","",""
"9153.899999856949","","","survey-text","175","964386","0.0-15.0-3.11","10193","List1A","white","woman","","","","","{""Q0"":""luke is being opposed by ruth""}","<img src=""stim_listA/oppose4.gif""style=""height:400px;""></stim_listA>","is being opposed by","","","","","",""
"null","<div style=""font-size:60px;"">+</div>","","html-keyboard-response","176","964895","0.0-15.0-0.12","10193","List1A","white","woman","","","","null","","","","","","","","",""
"null","<img src=""stim_listA/greet4.gif""style=""height:400px;""></stim_listA>","","html-keyboard-response","177","966912","0.0-15.0-1.12","10193","List1A","white","woman","","","","null","","","","","","","","",""
"null","is being greeted by","","html-keyboard-response","178","968931","0.0-15.0-2.12","10193","List1A","white","woman","","","","null","","","","","","","","",""
"8215.299999952316","","","survey-text","179","977151","0.0-15.0-3.12","10193","List1A","white","woman","","","","","{""Q0"":""jane is being greeted by luke""}","<img src=""stim_listA/greet4.gif""style=""height:400px;""></stim_listA>","is being greeted by","","","","","",""
"null","<div style=""font-size:60px;"">+</div>","","html-keyboard-response","180","977667","0.0-15.0-0.13","10193","List1A","white","woman","","","","null","","","","","","","","",""
"null","<img src=""stim_listA/shout4.gif""style=""height:400px;""></stim_listA>","","html-keyboard-response","181","979671","0.0-15.0-1.13","10193","List1A","white","woman","","","","null","","","","","","","","",""
"null","is being shouted at by","","html-keyboard-response","182","981674","0.0-15.0-2.13","10193","List1A","white","woman","","","","null","","","","","","","","",""
"6851","","","survey-text","183","988529","0.0-15.0-3.13","10193","List1A","white","woman","","","","","{""Q0"":""jane is being shouted at by dave""}","<img src=""stim_listA/shout4.gif""style=""height:400px;""></stim_listA>","is being shouted at by","","","","","",""
"null","<div style=""font-size:60px;"">+</div>","","html-keyboard-response","184","989032","0.0-15.0-0.14","10193","List1A","white","woman","","","","null","","","","","","","","",""
"null","<img src=""stim_listA/look2.gif""style=""height:400px;""></stim_listA>","","html-keyboard-response","185","991049","0.0-15.0-1.14","10193","List1A","white","woman","","","","null","","","","","","","","",""
"null","is being looked at by","","html-keyboard-response","186","993057","0.0-15.0-2.14","10193","List1A","white","woman","","","","null","","","","","","","","",""
"6664.700000047684","","","survey-text","187","999726","0.0-15.0-3.14","10193","List1A","white","woman","","","","","{""Q0"":""kate is being looked at by mike""}","<img src=""stim_listA/look2.gif""style=""height:400px;""></stim_listA>","is being looked at by","","","","","",""
"null","<div style=""font-size:60px;"">+</div>","","html-keyboard-response","188","1000236","0.0-15.0-0.15","10193","List1A","white","woman","","","","null","","","","","","","","",""
"null","<img src=""stim_listA/oppose6.gif""style=""height:400px;""></stim_listA>","","html-keyboard-response","189","1002239","0.0-15.0-1.15","10193","List1A","white","woman","","","","null","","","","","","","","",""
"null","is being opposed by","","html-keyboard-response","190","1004256","0.0-15.0-2.15","10193","List1A","white","woman","","","","null","","","","","","","","",""
"8776.099999904633","","","survey-text","191","1013036","0.0-15.0-3.15","10193","List1A","white","woman","","","","","{""Q0"":""luke is being opposed by fred""}","<img src=""stim_listA/oppose6.gif""style=""height:400px;""></stim_listA>","is being opposed by","","","","","",""
"null","<div style=""font-size:60px;"">+</div>","","html-keyboard-response","192","1013551","0.0-15.0-0.16","10193","List1A","white","woman","","","","null","","","","","","","","",""
"null","<img src=""stim_listA/hug1.gif""style=""height:400px;""></stim_listA>","","html-keyboard-response","193","1015560","0.0-15.0-1.16","10193","List1A","white","woman","","","","null","","","","","","","","",""
"null","is hugging","","html-keyboard-response","194","1017571","0.0-15.0-2.16","10193","List1A","white","woman","","","","null","","","","","","","","",""
"4312.099999904633","","","survey-text","195","1021887","0.0-15.0-3.16","10193","List1A","white","woman","","","","","{""Q0"":""fred is hugging ruth""}","<img src=""stim_listA/hug1.gif""style=""height:400px;""></stim_listA>","is hugging","","","","","",""
"null","<div style=""font-size:60px;"">+</div>","","html-keyboard-response","196","1022406","0.0-15.0-0.17","10193","List1A","white","woman","","","","null","","","","","","","","",""
"null","<img src=""stim_listA/seduce5.gif""style=""height:400px;""></stim_listA>","","html-keyboard-response","197","1024409","0.0-15.0-1.17","10193","List1A","white","woman","","","","null","","","","","","","","",""
"null","is seducing","","html-keyboard-response","198","1026416","0.0-15.0-2.17","10193","List1A","white","woman","","","","null","","","","","","","","",""
"4668.5","","","survey-text","199","1031091","0.0-15.0-3.17","10193","List1A","white","woman","","","","","{""Q0"":""dave is seducing fred""}","<img src=""stim_listA/seduce5.gif""style=""height:400px;""></stim_listA>","is seducing","","","","","",""
"null","<div style=""font-size:60px;"">+</div>","","html-keyboard-response","200","1031599","0.0-15.0-0.18","10193","List1A","white","woman","","","","null","","","","","","","","",""
"null","<img src=""stim_listA/greet8.gif""style=""height:400px;""></stim_listA>","","html-keyboard-response","201","1033607","0.0-15.0-1.18","10193","List1A","white","woman","","","","null","","","","","","","","",""
"null","is being greeted by","","html-keyboard-response","202","1035613","0.0-15.0-2.18","10193","List1A","white","woman","","","","null","","","","","","","","",""
"11539.299999952316","","","survey-text","203","1047157","0.0-15.0-3.18","10193","List1A","white","woman","","","","","{""Q0"":""jane is being greeted by beth""}","<img src=""stim_listA/greet8.gif""style=""height:400px;""></stim_listA>","is being greeted by","","","","","",""
"null","<div style=""font-size:60px;"">+</div>","","html-keyboard-response","204","1047666","0.0-15.0-0.19","10193","List1A","white","woman","","","","null","","","","","","","","",""
"null","<img src=""stim_listA/touch7.gif""style=""height:400px;""></stim_listA>","","html-keyboard-response","205","1049675","0.0-15.0-1.19","10193","List1A","white","woman","","","","null","","","","","","","","",""
"null","is touching","","html-keyboard-response","206","1051680","0.0-15.0-2.19","10193","List1A","white","woman","","","","null","","","","","","","","",""
"5135.299999952316","","","survey-text","207","1056820","0.0-15.0-3.19","10193","List1A","white","woman","","","","","{""Q0"":""jane is touching kate""}","<img src=""stim_listA/touch7.gif""style=""height:400px;""></stim_listA>","is touching","","","","","",""
"57766.700000047684","<img src='img/portrait_matrix_list1.jpg' style='width:900px;height:500px;''></img><p>If you have memorised all the portraits and names and are ready to start, press Continue.</p><p><strong>Please note: Your memory of these faces will be tested 4 times during this experiment.</strong></p>","0","html-button-response","208","1114590","0.0-16.0-0.0","10193","List1A","white","woman","","","","","","","","","","","","",""
"3599.7000000476837","<img src=""portrait/BW2.jpg""style=""height:400px;""></img>","2","html-button-response","209","1119195","0.0-16.0-1.0","10193","List1A","white","woman","","true","2","","","","","","","","","",""
"null","CORRECT","","html-keyboard-response","210","1120713","0.0-16.0-2.0-0.0","10193","List1A","white","woman","","","","null","","","","","","","","",""
"2499.2999999523163","<img src=""portrait/WW1.jpg""style=""height:400px;""></img>","1","html-button-response","211","1123215","0.0-16.0-4.0","10193","List1A","white","woman","","true","1","","","","","","","","","",""
"null","CORRECT","","html-keyboard-response","212","1124724","0.0-16.0-5.0-0.0","10193","List1A","white","woman","","","","null","","","","","","","","",""
"1924.2000000476837","<img src=""portrait/BM2.jpg""style=""height:400px;""></img>","5","html-button-response","213","1126651","0.0-16.0-7.0","10193","List1A","white","woman","","true","5","","","","","","","","","",""
"null","CORRECT","","html-keyboard-response","214","1128167","0.0-16.0-8.0-0.0","10193","List1A","white","woman","","","","null","","","","","","","","",""
"1458.7999999523163","<img src=""portrait/WM2.jpg""style=""height:400px;""></img>","7","html-button-response","215","1129629","0.0-16.0-10.0","10193","List1A","white","woman","","true","7","","","","","","","","","",""
"null","CORRECT","","html-keyboard-response","216","1131147","0.0-16.0-11.0-0.0","10193","List1A","white","woman","","","","null","","","","","","","","",""
"2548.2999999523163","<img src=""portrait/WW2.jpg""style=""height:400px;""></img>","3","html-button-response","217","1133698","0.0-16.0-13.0","10193","List1A","white","woman","","true","3","","","","","","","","","",""
"null","CORRECT","","html-keyboard-response","218","1135207","0.0-16.0-14.0-0.0","10193","List1A","white","woman","","","","null","","","","","","","","",""
"3270.5","<img src=""portrait/BW1.jpg""style=""height:400px;""></img>","0","html-button-response","219","1138480","0.0-16.0-16.0","10193","List1A","white","woman","","true","0","","","","","","","","","",""
"null","CORRECT","","html-keyboard-response","220","1139997","0.0-16.0-17.0-0.0","10193","List1A","white","woman","","","","null","","","","","","","","",""
"4173.700000047684","<img src=""portrait/WM1.jpg""style=""height:400px;""></img>","6","html-button-response","221","1144174","0.0-16.0-19.0","10193","List1A","white","woman","","true","6","","","","","","","","","",""
"null","CORRECT","","html-keyboard-response","222","1145705","0.0-16.0-20.0-0.0","10193","List1A","white","woman","","","","null","","","","","","","","",""
"2611.2000000476837","<img src=""portrait/BM1.jpg""style=""height:400px;""></img>","4","html-button-response","223","1148319","0.0-16.0-22.0","10193","List1A","white","woman","","true","4","","","","","","","","","",""
"null","CORRECT","","html-keyboard-response","224","1149824","0.0-16.0-23.0-0.0","10193","List1A","white","woman","","","","null","","","","","","","","",""
"4270.799999952316","<p>You got 8 out of 8 right first time. Press Continue.</p>","0","html-button-response","225","1154098","0.0-16.0-25.0","10193","List1A","white","woman","","","","","","","","","","","","",""
"null","<div style=""font-size:60px;"">+</div>","","html-keyboard-response","226","1155615","0.0-17.0-0.0","10193","List1A","white","woman","","","","null","","","","","","","","",""
"null","<img src=""stim_listA/greet7.gif""style=""height:400px;""></stim_listA>","","html-keyboard-response","227","1157620","0.0-17.0-1.0","10193","List1A","white","woman","","","","null","","","","","","","","",""
"null","is greeting","","html-keyboard-response","228","1159636","0.0-17.0-2.0","10193","List1A","white","woman","","","","null","","","","","","","","",""
"4617.5","","","survey-text","229","1164260","0.0-17.0-3.0","10193","List1A","white","woman","","","","","{""Q0"":""ruth is greeting kate""}","<img src=""stim_listA/greet7.gif""style=""height:400px;""></stim_listA>","is greeting","","","","","",""
"null","<div style=""font-size:60px;"">+</div>","","html-keyboard-response","230","1164776","0.0-17.0-0.1","10193","List1A","white","woman","","","","null","","","","","","","","",""
"null","<img src=""stim_listA/touch4.gif""style=""height:400px;""></stim_listA>","","html-keyboard-response","231","1166785","0.0-17.0-1.1","10193","List1A","white","woman","","","","null","","","","","","","","",""
"null","is being touched by","","html-keyboard-response","232","1168800","0.0-17.0-2.1","10193","List1A","white","woman","","","","null","","","","","","","","",""
"6261.700000047684","","","survey-text","233","1175065","0.0-17.0-3.1","10193","List1A","white","woman","","","","","{""Q0"":""ruth is being touched by luke""}","<img src=""stim_listA/touch4.gif""style=""height:400px;""></stim_listA>","is being touched by","","","","","",""
"null","<div style=""font-size:60px;"">+</div>","","html-keyboard-response","234","1175580","0.0-17.0-0.2","10193","List1A","white","woman","","","","null","","","","","","","","",""
"null","<img src=""stim_listA/look4.gif""style=""height:400px;""></stim_listA>","","html-keyboard-response","235","1177584","0.0-17.0-1.2","10193","List1A","white","woman","","","","null","","","","","","","","",""
"null","is being looked at by","","html-keyboard-response","236","1179593","0.0-17.0-2.2","10193","List1A","white","woman","","","","null","","","","","","","","",""
"6801.5","","","survey-text","237","1186399","0.0-17.0-3.2","10193","List1A","white","woman","","","","","{""Q0"":""jane is being looked at by dave""}","<img src=""stim_listA/look4.gif""style=""height:400px;""></stim_listA>","is being looked at by","","","","","",""
"null","<div style=""font-size:60px;"">+</div>","","html-keyboard-response","238","1186903","0.0-17.0-0.3","10193","List1A","white","woman","","","","null","","","","","","","","",""
"null","<img src=""stim_listA/kiss1.gif""style=""height:400px;""></stim_listA>","","html-keyboard-response","239","1188909","0.0-17.0-1.3","10193","List1A","white","woman","","","","null","","","","","","","","",""
"null","is kissing","","html-keyboard-response","240","1190914","0.0-17.0-2.3","10193","List1A","white","woman","","","","null","","","","","","","","",""
"5590.799999952316","","","survey-text","241","1196509","0.0-17.0-3.3","10193","List1A","white","woman","","","","","{""Q0"":""fred is kissing ruth""}","<img src=""stim_listA/kiss1.gif""style=""height:400px;""></stim_listA>","is kissing","","","","","",""
"null","<div style=""font-size:60px;"">+</div>","","html-keyboard-response","242","1197016","0.0-17.0-0.4","10193","List1A","white","woman","","","","null","","","","","","","","",""
"null","<img src=""stim_listA/seduce4.gif""style=""height:400px;""></stim_listA>","","html-keyboard-response","243","1199025","0.0-17.0-1.4","10193","List1A","white","woman","","","","null","","","","","","","","",""
"null","is being seduced by","","html-keyboard-response","244","1201033","0.0-17.0-2.4","10193","List1A","white","woman","","","","null","","","","","","","","",""
"7389.100000143051","","","survey-text","245","1208426","0.0-17.0-3.4","10193","List1A","white","woman","","","","","{""Q0"":""ruth is being seduced by dave""}","<img src=""stim_listA/seduce4.gif""style=""height:400px;""></stim_listA>","is being seduced by","","","","","",""
"null","<div style=""font-size:60px;"">+</div>","","html-keyboard-response","246","1208943","0.0-17.0-0.5","10193","List1A","white","woman","","","","null","","","","","","","","",""
"null","<img src=""stim_listA/kiss6.gif""style=""height:400px;""></stim_listA>","","html-keyboard-response","247","1210959","0.0-17.0-1.5","10193","List1A","white","woman","","","","null","","","","","","","","",""
"null","is being kissed by","","html-keyboard-response","248","1212968","0.0-17.0-2.5","10193","List1A","white","woman","","","","null","","","","","","","","",""
"48653.299999952316","","","survey-text","249","1261625","0.0-17.0-3.5","10193","List1A","white","woman","","","","","{""Q0"":""dave is being kissed by mike""}","<img src=""stim_listA/kiss6.gif""style=""height:400px;""></stim_listA>","is being kissed by","","","","","",""
"null","<div style=""font-size:60px;"">+</div>","","html-keyboard-response","250","1262138","0.0-17.0-0.6","10193","List1A","white","woman","","","","null","","","","","","","","",""
"null","<img src=""stim_listA/copy5.gif""style=""height:400px;""></stim_listA>","","html-keyboard-response","251","1264141","0.0-17.0-1.6","10193","List1A","white","woman","","","","null","","","","","","","","",""
"null","is copying","","html-keyboard-response","252","1266154","0.0-17.0-2.6","10193","List1A","white","woman","","","","null","","","","","","","","",""
"4951.199999809265","","","survey-text","253","1271111","0.0-17.0-3.6","10193","List1A","white","woman","","","","","{""Q0"":""mike is copying luke""}","<img src=""stim_listA/copy5.gif""style=""height:400px;""></stim_listA>","is copying","","","","","",""
"null","<div style=""font-size:60px;"">+</div>","","html-keyboard-response","254","1271626","0.0-17.0-0.7","10193","List1A","white","woman","","","","null","","","","","","","","",""
"null","<img src=""stim_listA/challenge7.gif""style=""height:400px;""></stim_listA>","","html-keyboard-response","255","1273632","0.0-17.0-1.7","10193","List1A","white","woman","","","","null","","","","","","","","",""
"null","is challenging","","html-keyboard-response","256","1275650","0.0-17.0-2.7","10193","List1A","white","woman","","","","null","","","","","","","","",""
"5792.899999856949","","","survey-text","257","1281447","0.0-17.0-3.7","10193","List1A","white","woman","","","","","{""Q0"":""kate is challenging ruth""}","<img src=""stim_listA/challenge7.gif""style=""height:400px;""></stim_listA>","is challenging","","","","","",""
"null","<div style=""font-size:60px;"">+</div>","","html-keyboard-response","258","1281964","0.0-17.0-0.8","10193","List1A","white","woman","","","","null","","","","","","","","",""
"null","<img src=""stim_listA/greet1.gif""style=""height:400px;""></stim_listA>","","html-keyboard-response","259","1283973","0.0-17.0-1.8","10193","List1A","white","woman","","","","null","","","","","","","","",""
"null","is greeting","","html-keyboard-response","260","1285988","0.0-17.0-2.8","10193","List1A","white","woman","","","","null","","","","","","","","",""
"5413","","","survey-text","261","1291405","0.0-17.0-3.8","10193","List1A","white","woman","","","","","{""Q0"":""beth is greeting mike""}","<img src=""stim_listA/greet1.gif""style=""height:400px;""></stim_listA>","is greeting","","","","","",""
"null","<div style=""font-size:60px;"">+</div>","","html-keyboard-response","262","1291919","0.0-17.0-0.9","10193","List1A","white","woman","","","","null","","","","","","","","",""
"null","<img src=""stim_listA/shout3.gif""style=""height:400px;""></stim_listA>","","html-keyboard-response","263","1293924","0.0-17.0-1.9","10193","List1A","white","woman","","","","null","","","","","","","","",""
"null","is shouting at","","html-keyboard-response","264","1295929","0.0-17.0-2.9","10193","List1A","white","woman","","","","null","","","","","","","","",""
"5993.299999952316","","","survey-text","265","1301926","0.0-17.0-3.9","10193","List1A","white","woman","","","","","{""Q0"":""ruth is shouting at luke""}","<img src=""stim_listA/shout3.gif""style=""height:400px;""></stim_listA>","is shouting at","","","","","",""
"null","<div style=""font-size:60px;"">+</div>","","html-keyboard-response","266","1302432","0.0-17.0-0.10","10193","List1A","white","woman","","","","null","","","","","","","","",""
"null","<img src=""stim_listA/shout8.gif""style=""height:400px;""></stim_listA>","","html-keyboard-response","267","1304440","0.0-17.0-1.10","10193","List1A","white","woman","","","","null","","","","","","","","",""
"null","is being shouted at by","","html-keyboard-response","268","1306456","0.0-17.0-2.10","10193","List1A","white","woman","","","","null","","","","","","","","",""
"5668","","","survey-text","269","1312128","0.0-17.0-3.10","10193","List1A","white","woman","","","","","{""Q0"":""jane is being shouted at by kate""}","<img src=""stim_listA/shout8.gif""style=""height:400px;""></stim_listA>","is being shouted at by","","","","","",""
"null","<div style=""font-size:60px;"">+</div>","","html-keyboard-response","270","1312635","0.0-17.0-0.11","10193","List1A","white","woman","","","","null","","","","","","","","",""
"null","<img src=""stim_listA/hug6.gif""style=""height:400px;""></stim_listA>","","html-keyboard-response","271","1314640","0.0-17.0-1.11","10193","List1A","white","woman","","","","null","","","","","","","","",""
"null","is being hugged by","","html-keyboard-response","272","1316657","0.0-17.0-2.11","10193","List1A","white","woman","","","","null","","","","","","","","",""
"8097.099999904633","","","survey-text","273","1324758","0.0-17.0-3.11","10193","List1A","white","woman","","","","","{""Q0"":""dave is being hugged by mike""}","<img src=""stim_listA/hug6.gif""style=""height:400px;""></stim_listA>","is being hugged by","","","","","",""
"null","<div style=""font-size:60px;"">+</div>","","html-keyboard-response","274","1325261","0.0-17.0-0.12","10193","List1A","white","woman","","","","null","","","","","","","","",""
"null","<img src=""stim_listA/oppose2.gif""style=""height:400px;""></stim_listA>","","html-keyboard-response","275","1327269","0.0-17.0-1.12","10193","List1A","white","woman","","","","null","","","","","","","","",""
"null","is being opposed by","","html-keyboard-response","276","1329272","0.0-17.0-2.12","10193","List1A","white","woman","","","","null","","","","","","","","",""
"6548","","","survey-text","277","1335823","0.0-17.0-3.12","10193","List1A","white","woman","","","","","{""Q0"":""fred is being opposed by ruth""}","<img src=""stim_listA/oppose2.gif""style=""height:400px;""></stim_listA>","is being opposed by","","","","","",""
"null","<div style=""font-size:60px;"">+</div>","","html-keyboard-response","278","1336339","0.0-17.0-0.13","10193","List1A","white","woman","","","","null","","","","","","","","",""
"null","<img src=""stim_listA/kiss3.gif""style=""height:400px;""></stim_listA>","","html-keyboard-response","279","1338356","0.0-17.0-1.13","10193","List1A","white","woman","","","","null","","","","","","","","",""
"null","is kissing","","html-keyboard-response","280","1340360","0.0-17.0-2.13","10193","List1A","white","woman","","","","null","","","","","","","","",""
"3489.5","","","survey-text","281","1343853","0.0-17.0-3.13","10193","List1A","white","woman","","","","","{""Q0"":""ruth is kissing luke""}","<img src=""stim_listA/kiss3.gif""style=""height:400px;""></stim_listA>","is kissing","","","","","",""
"null","<div style=""font-size:60px;"">+</div>","","html-keyboard-response","282","1344355","0.0-17.0-0.14","10193","List1A","white","woman","","","","null","","","","","","","","",""
"null","<img src=""stim_listA/oppose5.gif""style=""height:400px;""></stim_listA>","","html-keyboard-response","283","1346359","0.0-17.0-1.14","10193","List1A","white","woman","","","","null","","","","","","","","",""
"null","is opposing","","html-keyboard-response","284","1348368","0.0-17.0-2.14","10193","List1A","white","woman","","","","null","","","","","","","","",""
"5562.800000190735","","","survey-text","285","1353934","0.0-17.0-3.14","10193","List1A","white","woman","","","","","{""Q0"":""mike is opposing dave""}","<img src=""stim_listA/oppose5.gif""style=""height:400px;""></stim_listA>","is opposing","","","","","",""
"null","<div style=""font-size:60px;"">+</div>","","html-keyboard-response","286","1354451","0.0-17.0-0.15","10193","List1A","white","woman","","","","null","","","","","","","","",""
"null","<img src=""stim_listA/oppose8.gif""style=""height:400px;""></stim_listA>","","html-keyboard-response","287","1356456","0.0-17.0-1.15","10193","List1A","white","woman","","","","null","","","","","","","","",""
"null","is being opposed by","","html-keyboard-response","288","1358472","0.0-17.0-2.15","10193","List1A","white","woman","","","","null","","","","","","","","",""
"7186","","","survey-text","289","1365660","0.0-17.0-3.15","10193","List1A","white","woman","","","","","{""Q0"":""beth is being opposed by ruth""}","<img src=""stim_listA/oppose8.gif""style=""height:400px;""></stim_listA>","is being opposed by","","","","","",""
"null","<div style=""font-size:60px;"">+</div>","","html-keyboard-response","290","1366173","0.0-17.0-0.16","10193","List1A","white","woman","","","","null","","","","","","","","",""
"null","<img src=""stim_listA/look1.gif""style=""height:400px;""></stim_listA>","","html-keyboard-response","291","1368176","0.0-17.0-1.16","10193","List1A","white","woman","","","","null","","","","","","","","",""
"null","is looking at","","html-keyboard-response","292","1370184","0.0-17.0-2.16","10193","List1A","white","woman","","","","null","","","","","","","","",""
"4199.700000047684","","","survey-text","293","1374387","0.0-17.0-3.16","10193","List1A","white","woman","","","","","{""Q0"":""fred is looking at ruth""}","<img src=""stim_listA/look1.gif""style=""height:400px;""></stim_listA>","is looking at","","","","","",""
"null","<div style=""font-size:60px;"">+</div>","","html-keyboard-response","294","1374890","0.0-17.0-0.17","10193","List1A","white","woman","","","","null","","","","","","","","",""
"null","<img src=""stim_listA/kiss2.gif""style=""height:400px;""></stim_listA>","","html-keyboard-response","295","1376893","0.0-17.0-1.17","10193","List1A","white","woman","","","","null","","","","","","","","",""
"null","is being kissed by","","html-keyboard-response","296","1378898","0.0-17.0-2.17","10193","List1A","white","woman","","","","null","","","","","","","","",""
"8095.899999856949","","","survey-text","297","1386998","0.0-17.0-3.17","10193","List1A","white","woman","","","","","{""Q0"":""kate is being kissed by mike""}","<img src=""stim_listA/kiss2.gif""style=""height:400px;""></stim_listA>","is being kissed by","","","","","",""
"null","<div style=""font-size:60px;"">+</div>","","html-keyboard-response","298","1387505","0.0-17.0-0.18","10193","List1A","white","woman","","","","null","","","","","","","","",""
"null","<img src=""stim_listA/challenge5.gif""style=""height:400px;""></stim_listA>","","html-keyboard-response","299","1389509","0.0-17.0-1.18","10193","List1A","white","woman","","","","null","","","","","","","","",""
"null","is challenging","","html-keyboard-response","300","1391516","0.0-17.0-2.18","10193","List1A","white","woman","","","","null","","","","","","","","",""
"6165.099999904633","","","survey-text","301","1397685","0.0-17.0-3.18","10193","List1A","white","woman","","","","","{""Q0"":""mike is challenging luke""}","<img src=""stim_listA/challenge5.gif""style=""height:400px;""></stim_listA>","is challenging","","","","","",""
"null","<div style=""font-size:60px;"">+</div>","","html-keyboard-response","302","1398192","0.0-17.0-0.19","10193","List1A","white","woman","","","","null","","","","","","","","",""
"null","<img src=""stim_listA/challenge4.gif""style=""height:400px;""></stim_listA>","","html-keyboard-response","303","1400196","0.0-17.0-1.19","10193","List1A","white","woman","","","","null","","","","","","","","",""
"null","is being challenged by","","html-keyboard-response","304","1402200","0.0-17.0-2.19","10193","List1A","white","woman","","","","null","","","","","","","","",""
"5903.599999904633","","","survey-text","305","1408108","0.0-17.0-3.19","10193","List1A","white","woman","","","","","{""Q0"":""jane is being challenged by luke""}","<img src=""stim_listA/challenge4.gif""style=""height:400px;""></stim_listA>","is being challenged by","","","","","",""
"21300.199999809265","<img src='img/portrait_matrix_list1.jpg' style='width:900px;height:500px;''></img><p>If you have memorised all the portraits and names and are ready to start, press Continue.</p><p><strong>Please note: Your memory of these faces will be tested 4 times during this experiment.</strong></p>","0","html-button-response","306","1429411","0.0-18.0-0.0","10193","List1A","white","woman","","","","","","","","","","","","",""
"2847.100000143051","<img src=""portrait/WW1.jpg""style=""height:400px;""></img>","1","html-button-response","307","1433276","0.0-18.0-1.0","10193","List1A","white","woman","","true","1","","","","","","","","","",""
"null","CORRECT","","html-keyboard-response","308","1434787","0.0-18.0-2.0-0.0","10193","List1A","white","woman","","","","null","","","","","","","","",""
"2558.5","<img src=""portrait/WM1.jpg""style=""height:400px;""></img>","6","html-button-response","309","1437349","0.0-18.0-4.0","10193","List1A","white","woman","","true","6","","","","","","","","","",""
"null","CORRECT","","html-keyboard-response","310","1438868","0.0-18.0-5.0-0.0","10193","List1A","white","woman","","","","null","","","","","","","","",""
"1819.2000000476837","<img src=""portrait/WM2.jpg""style=""height:400px;""></img>","7","html-button-response","311","1440690","0.0-18.0-7.0","10193","List1A","white","woman","","true","7","","","","","","","","","",""
"null","CORRECT","","html-keyboard-response","312","1442205","0.0-18.0-8.0-0.0","10193","List1A","white","woman","","","","null","","","","","","","","",""
"3628.2000000476837","<img src=""portrait/WW2.jpg""style=""height:400px;""></img>","3","html-button-response","313","1445837","0.0-18.0-10.0","10193","List1A","white","woman","","true","3","","","","","","","","","",""
"null","CORRECT","","html-keyboard-response","314","1447357","0.0-18.0-11.0-0.0","10193","List1A","white","woman","","","","null","","","","","","","","",""
"1946.3999998569489","<img src=""portrait/BM2.jpg""style=""height:400px;""></img>","3","html-button-response","315","1449306","0.0-18.0-13.0","10193","List1A","white","woman","","true","5","","","","","","","","","",""
"16984.199999809265","<img src=""portrait/BM2.jpg""style=""height:400px;""></img>","5","html-button-response","316","1467306","0.0-18.0-15.0-0.0","10193","List1A","white","woman","","false","5","","","","","","","","","",""
"null","CORRECT","","html-keyboard-response","317","1468811","0.0-18.0-15.0-1.0-0.0","10193","List1A","white","woman","","","","null","","","","","","","","",""
"2592.5","<img src=""portrait/BW1.jpg""style=""height:400px;""></img>","0","html-button-response","318","1471406","0.0-18.0-16.0","10193","List1A","white","woman","","true","0","","","","","","","","","",""
"null","CORRECT","","html-keyboard-response","319","1472920","0.0-18.0-17.0-0.0","10193","List1A","white","woman","","","","null","","","","","","","","",""
"1479.7000000476837","<img src=""portrait/BM1.jpg""style=""height:400px;""></img>","4","html-button-response","320","1474403","0.0-18.0-19.0","10193","List1A","white","woman","","true","4","","","","","","","","","",""
"null","CORRECT","","html-keyboard-response","321","1475909","0.0-18.0-20.0-0.0","10193","List1A","white","woman","","","","null","","","","","","","","",""
"2068.5","<img src=""portrait/BW2.jpg""style=""height:400px;""></img>","2","html-button-response","322","1477981","0.0-18.0-22.0","10193","List1A","white","woman","","true","2","","","","","","","","","",""
"null","CORRECT","","html-keyboard-response","323","1479504","0.0-18.0-23.0-0.0","10193","List1A","white","woman","","","","null","","","","","","","","",""
"9797.800000190735","<p>You got 7 out of 8 right first time. Press Continue.</p>","0","html-button-response","324","1489305","0.0-18.0-25.0","10193","List1A","white","woman","","","","","","","","","","","","",""
"9534.299999952316","As you did not score 100%, the memory game will repeat. Press Continue.","0","html-button-response","325","1499846","0.0-18.0-26.0-0.0","10193","List1A","white","woman","","","","","","","","","","","","",""
"6675.800000190735","<img src='img/portrait_matrix_list1.jpg' style='width:900px;height:500px;''></img><p>If you have memorised all the portraits and names and are ready to start, press Continue.</p><p><strong>Please note: Your memory of these faces will be tested 4 times during this experiment.</strong></p>","0","html-button-response","326","1507532","0.0-18.1-0.1","10193","List1A","white","woman","","","","","","","","","","","","",""
"1559.0999999046326","<img src=""portrait/WW1.jpg""style=""height:400px;""></img>","1","html-button-response","327","1510111","0.0-18.1-1.1","10193","List1A","white","woman","","true","1","","","","","","","","","",""
"null","CORRECT","","html-keyboard-response","328","1511637","0.0-18.1-2.1-0.1","10193","List1A","white","woman","","","","null","","","","","","","","",""
"2928.2000000476837","<img src=""portrait/WM1.jpg""style=""height:400px;""></img>","6","html-button-response","329","1514569","0.0-18.1-4.1","10193","List1A","white","woman","","true","6","","","","","","","","","",""
"null","CORRECT","","html-keyboard-response","330","1516073","0.0-18.1-5.1-0.1","10193","List1A","white","woman","","","","null","","","","","","","","",""
"1443.0999999046326","<img src=""portrait/WM2.jpg""style=""height:400px;""></img>","7","html-button-response","331","1517520","0.0-18.1-7.1","10193","List1A","white","woman","","true","7","","","","","","","","","",""
"null","CORRECT","","html-keyboard-response","332","1519038","0.0-18.1-8.1-0.1","10193","List1A","white","woman","","","","null","","","","","","","","",""
"2580.0999999046326","<img src=""portrait/WW2.jpg""style=""height:400px;""></img>","3","html-button-response","333","1521622","0.0-18.1-10.1","10193","List1A","white","woman","","true","3","","","","","","","","","",""
"null","CORRECT","","html-keyboard-response","334","1523133","0.0-18.1-11.1-0.1","10193","List1A","white","woman","","","","null","","","","","","","","",""
"2123.100000143051","<img src=""portrait/BM2.jpg""style=""height:400px;""></img>","5","html-button-response","335","1525264","0.0-18.1-13.1","10193","List1A","white","woman","","true","5","","","","","","","","","",""
"null","CORRECT","","html-keyboard-response","336","1526768","0.0-18.1-14.1-0.1","10193","List1A","white","woman","","","","null","","","","","","","","",""
"3159.5","<img src=""portrait/BW1.jpg""style=""height:400px;""></img>","0","html-button-response","337","1529931","0.0-18.1-16.1","10193","List1A","white","woman","","true","0","","","","","","","","","",""
"null","CORRECT","","html-keyboard-response","338","1531445","0.0-18.1-17.1-0.1","10193","List1A","white","woman","","","","null","","","","","","","","",""
"2074.7000000476837","<img src=""portrait/BM1.jpg""style=""height:400px;""></img>","4","html-button-response","339","1533523","0.0-18.1-19.1","10193","List1A","white","woman","","true","4","","","","","","","","","",""
"null","CORRECT","","html-keyboard-response","340","1535037","0.0-18.1-20.1-0.1","10193","List1A","white","woman","","","","null","","","","","","","","",""
"2295.7000000476837","<img src=""portrait/BW2.jpg""style=""height:400px;""></img>","2","html-button-response","341","1537335","0.0-18.1-22.1","10193","List1A","white","woman","","true","2","","","","","","","","","",""
"null","CORRECT","","html-keyboard-response","342","1538865","0.0-18.1-23.1-0.1","10193","List1A","white","woman","","","","null","","","","","","","","",""
"2672.2000000476837","<p>You got 8 out of 8 right first time. Press Continue.</p>","0","html-button-response","343","1541540","0.0-18.1-25.1","10193","List1A","white","woman","","","","","","","","","","","","",""
"null","<div style=""font-size:60px;"">+</div>","","html-keyboard-response","344","1543069","0.0-19.0-0.0","10193","List1A","white","woman","","","","null","","","","","","","","",""
"null","<img src=""stim_listA/seduce1.gif""style=""height:400px;""></stim_listA>","","html-keyboard-response","345","1545075","0.0-19.0-1.0","10193","List1A","white","woman","","","","null","","","","","","","","",""
"null","is seducing","","html-keyboard-response","346","1547087","0.0-19.0-2.0","10193","List1A","white","woman","","","","null","","","","","","","","",""
"4446.5","","","survey-text","347","1551537","0.0-19.0-3.0","10193","List1A","white","woman","","","","","{""Q0"":""fred is seducing kate""}","<img src=""stim_listA/seduce1.gif""style=""height:400px;""></stim_listA>","is seducing","","","","","",""
"null","<div style=""font-size:60px;"">+</div>","","html-keyboard-response","348","1552054","0.0-19.0-0.1","10193","List1A","white","woman","","","","null","","","","","","","","",""
"null","<img src=""stim_listA/seduce2.gif""style=""height:400px;""></stim_listA>","","html-keyboard-response","349","1554058","0.0-19.0-1.1","10193","List1A","white","woman","","","","null","","","","","","","","",""
"null","is being seduced by","","html-keyboard-response","350","1556074","0.0-19.0-2.1","10193","List1A","white","woman","","","","null","","","","","","","","",""
"6544.799999952316","","","survey-text","351","1562622","0.0-19.0-3.1","10193","List1A","white","woman","","","","","{""Q0"":""mike is being seduced by beth""}","<img src=""stim_listA/seduce2.gif""style=""height:400px;""></stim_listA>","is being seduced by","","","","","",""
"null","<div style=""font-size:60px;"">+</div>","","html-keyboard-response","352","1563126","0.0-19.0-0.2","10193","List1A","white","woman","","","","null","","","","","","","","",""
"null","<img src=""stim_listA/copy4.gif""style=""height:400px;""></stim_listA>","","html-keyboard-response","353","1565144","0.0-19.0-1.2","10193","List1A","white","woman","","","","null","","","","","","","","",""
"null","is being copied by","","html-keyboard-response","354","1567155","0.0-19.0-2.2","10193","List1A","white","woman","","","","null","","","","","","","","",""
"9578.799999952316","","","survey-text","355","1576738","0.0-19.0-3.2","10193","List1A","white","woman","","","","","{""Q0"":""jane is being copied by luke""}","<img src=""stim_listA/copy4.gif""style=""height:400px;""></stim_listA>","is being copied by","","","","","",""
"null","<div style=""font-size:60px;"">+</div>","","html-keyboard-response","356","1577246","0.0-19.0-0.3","10193","List1A","white","woman","","","","null","","","","","","","","",""
"null","<img src=""stim_listA/challenge3.gif""style=""height:400px;""></stim_listA>","","html-keyboard-response","357","1579248","0.0-19.0-1.3","10193","List1A","white","woman","","","","null","","","","","","","","",""
"null","is challenging","","html-keyboard-response","358","1581252","0.0-19.0-2.3","10193","List1A","white","woman","","","","null","","","","","","","","",""
"5352.5","","","survey-text","359","1586608","0.0-19.0-3.3","10193","List1A","white","woman","","","","","{""Q0"":""dave is challenging ruth""}","<img src=""stim_listA/challenge3.gif""style=""height:400px;""></stim_listA>","is challenging","","","","","",""
"null","<div style=""font-size:60px;"">+</div>","","html-keyboard-response","360","1587123","0.0-19.0-0.4","10193","List1A","white","woman","","","","null","","","","","","","","",""
"null","<img src=""stim_listA/kiss4.gif""style=""height:400px;""></stim_listA>","","html-keyboard-response","361","1589127","0.0-19.0-1.4","10193","List1A","white","woman","","","","null","","","","","","","","",""
"null","is being kissed by","","html-keyboard-response","362","1591141","0.0-19.0-2.4","10193","List1A","white","woman","","","","null","","","","","","","","",""
"6567","","","survey-text","363","1597712","0.0-19.0-3.4","10193","List1A","white","woman","","","","","{""Q0"":""dave is being kissed by jane""}","<img src=""stim_listA/kiss4.gif""style=""height:400px;""></stim_listA>","is being kissed by","","","","","",""
"null","<div style=""font-size:60px;"">+</div>","","html-keyboard-response","364","1598215","0.0-19.0-0.5","10193","List1A","white","woman","","","","null","","","","","","","","",""
"null","<img src=""stim_listA/look6.gif""style=""height:400px;""></stim_listA>","","html-keyboard-response","365","1600220","0.0-19.0-1.5","10193","List1A","white","woman","","","","null","","","","","","","","",""
"null","is being looked at by","","html-keyboard-response","366","1602228","0.0-19.0-2.5","10193","List1A","white","woman","","","","null","","","","","","","","",""
"6703.5","","","survey-text","367","1608935","0.0-19.0-3.5","10193","List1A","white","woman","","","","","{""Q0"":""mike is being looked at by dave""}","<img src=""stim_listA/look6.gif""style=""height:400px;""></stim_listA>","is being looked at by","","","","","",""
"null","<div style=""font-size:60px;"">+</div>","","html-keyboard-response","368","1609438","0.0-19.0-0.6","10193","List1A","white","woman","","","","null","","","","","","","","",""
"null","<img src=""stim_listA/greet6.gif""style=""height:400px;""></stim_listA>","","html-keyboard-response","369","1611442","0.0-19.0-1.6","10193","List1A","white","woman","","","","null","","","","","","","","",""
"null","is being greeted by","","html-keyboard-response","370","1613458","0.0-19.0-2.6","10193","List1A","white","woman","","","","null","","","","","","","","",""
"6352.799999952316","","","survey-text","371","1619815","0.0-19.0-3.6","10193","List1A","white","woman","","","","","{""Q0"":""dave is being greeted by fred""}","<img src=""stim_listA/greet6.gif""style=""height:400px;""></stim_listA>","is being greeted by","","","","","",""
"null","<div style=""font-size:60px;"">+</div>","","html-keyboard-response","372","1620332","0.0-19.0-0.7","10193","List1A","white","woman","","","","null","","","","","","","","",""
"null","<img src=""stim_listA/greet5.gif""style=""height:400px;""></stim_listA>","","html-keyboard-response","373","1622336","0.0-19.0-1.7","10193","List1A","white","woman","","","","null","","","","","","","","",""
"null","is greeting","","html-keyboard-response","374","1624338","0.0-19.0-2.7","10193","List1A","white","woman","","","","null","","","","","","","","",""
"4991.900000095367","","","survey-text","375","1629333","0.0-19.0-3.7","10193","List1A","white","woman","","","","","{""Q0"":""mike is greeting luke""}","<img src=""stim_listA/greet5.gif""style=""height:400px;""></stim_listA>","is greeting","","","","","",""
"null","<div style=""font-size:60px;"">+</div>","","html-keyboard-response","376","1629840","0.0-19.0-0.8","10193","List1A","white","woman","","","","null","","","","","","","","",""
"null","<img src=""stim_listA/copy1.gif""style=""height:400px;""></stim_listA>","","html-keyboard-response","377","1631856","0.0-19.0-1.8","10193","List1A","white","woman","","","","null","","","","","","","","",""
"null","is copying","","html-keyboard-response","378","1633864","0.0-19.0-2.8","10193","List1A","white","woman","","","","null","","","","","","","","",""
"6536.899999856949","","","survey-text","379","1640407","0.0-19.0-3.8","10193","List1A","white","woman","","","","","{""Q0"":""beth is copying mike""}","<img src=""stim_listA/copy1.gif""style=""height:400px;""></stim_listA>","is copying","","","","","",""
"null","<div style=""font-size:60px;"">+</div>","","html-keyboard-response","380","1640912","0.0-19.0-0.9","10193","List1A","white","woman","","","","null","","","","","","","","",""
"null","<img src=""stim_listA/challenge6.gif""style=""height:400px;""></stim_listA>","","html-keyboard-response","381","1642915","0.0-19.0-1.9","10193","List1A","white","woman","","","","null","","","","","","","","",""
"null","is being challenged by","","html-keyboard-response","382","1644919","0.0-19.0-2.9","10193","List1A","white","woman","","","","null","","","","","","","","",""
"5522.699999809265","","","survey-text","383","1650445","0.0-19.0-3.9","10193","List1A","white","woman","","","","","{""Q0"":""dave is being challenged by fred""}","<img src=""stim_listA/challenge6.gif""style=""height:400px;""></stim_listA>","is being challenged by","","","","","",""
"null","<div style=""font-size:60px;"">+</div>","","html-keyboard-response","384","1650964","0.0-19.0-0.10","10193","List1A","white","woman","","","","null","","","","","","","","",""
"null","<img src=""stim_listA/touch2.gif""style=""height:400px;""></stim_listA>","","html-keyboard-response","385","1652967","0.0-19.0-1.10","10193","List1A","white","woman","","","","null","","","","","","","","",""
"null","is being touched by","","html-keyboard-response","386","1654969","0.0-19.0-2.10","10193","List1A","white","woman","","","","null","","","","","","","","",""
"27124.39999985695","","","survey-text","387","1682101","0.0-19.0-3.10","10193","List1A","white","woman","","","","","{""Q0"":""beth is being touched by fred""}","<img src=""stim_listA/touch2.gif""style=""height:400px;""></stim_listA>","is being touched by","","","","","",""
"null","<div style=""font-size:60px;"">+</div>","","html-keyboard-response","388","1682605","0.0-19.0-0.11","10193","List1A","white","woman","","","","null","","","","","","","","",""
"null","<img src=""stim_listA/look7.gif""style=""height:400px;""></stim_listA>","","html-keyboard-response","389","1684609","0.0-19.0-1.11","10193","List1A","white","woman","","","","null","","","","","","","","",""
"null","is looking at","","html-keyboard-response","390","1686611","0.0-19.0-2.11","10193","List1A","white","woman","","","","null","","","","","","","","",""
"10076.5","","","survey-text","391","1696693","0.0-19.0-3.11","10193","List1A","white","woman","","","","","{""Q0"":""beth is looking at ruth""}","<img src=""stim_listA/look7.gif""style=""height:400px;""></stim_listA>","is looking at","","","","","",""
"null","<div style=""font-size:60px;"">+</div>","","html-keyboard-response","392","1697212","0.0-19.0-0.12","10193","List1A","white","woman","","","","null","","","","","","","","",""
"null","<img src=""stim_listA/kiss5.gif""style=""height:400px;""></stim_listA>","","html-keyboard-response","393","1699218","0.0-19.0-1.12","10193","List1A","white","woman","","","","null","","","","","","","","",""
"null","is kissing","","html-keyboard-response","394","1701222","0.0-19.0-2.12","10193","List1A","white","woman","","","","null","","","","","","","","",""
"5263.799999952316","","","survey-text","395","1706490","0.0-19.0-3.12","10193","List1A","white","woman","","","","","{""Q0"":""fred is kissing luke""}","<img src=""stim_listA/kiss5.gif""style=""height:400px;""></stim_listA>","is kissing","","","","","",""
"null","<div style=""font-size:60px;"">+</div>","","html-keyboard-response","396","1707001","0.0-19.0-0.13","10193","List1A","white","woman","","","","null","","","","","","","","",""
"null","<img src=""stim_listA/touch6.gif""style=""height:400px;""></stim_listA>","","html-keyboard-response","397","1709005","0.0-19.0-1.13","10193","List1A","white","woman","","","","null","","","","","","","","",""
"null","is being touched by","","html-keyboard-response","398","1711007","0.0-19.0-2.13","10193","List1A","white","woman","","","","null","","","","","","","","",""
"7132.799999952316","","","survey-text","399","1718144","0.0-19.0-3.13","10193","List1A","white","woman","","","","","{""Q0"":""fred is being touched by luke""}","<img src=""stim_listA/touch6.gif""style=""height:400px;""></stim_listA>","is being touched by","","","","","",""
"null","<div style=""font-size:60px;"">+</div>","","html-keyboard-response","400","1718651","0.0-19.0-0.14","10193","List1A","white","woman","","","","null","","","","","","","","",""
"null","<img src=""stim_listA/copy2.gif""style=""height:400px;""></stim_listA>","","html-keyboard-response","401","1720656","0.0-19.0-1.14","10193","List1A","white","woman","","","","null","","","","","","","","",""
"null","is being copied by","","html-keyboard-response","402","1722668","0.0-19.0-2.14","10193","List1A","white","woman","","","","null","","","","","","","","",""
"13008.599999904633","","","survey-text","403","1735682","0.0-19.0-3.14","10193","List1A","white","woman","","","","","{""Q0"":""fred is being copied by kate""}","<img src=""stim_listA/copy2.gif""style=""height:400px;""></stim_listA>","is being copied by","","","","","",""
"null","<div style=""font-size:60px;"">+</div>","","html-keyboard-response","404","1736199","0.0-19.0-0.15","10193","List1A","white","woman","","","","null","","","","","","","","",""
"null","<img src=""stim_listA/hug7.gif""style=""height:400px;""></stim_listA>","","html-keyboard-response","405","1738214","0.0-19.0-1.15","10193","List1A","white","woman","","","","null","","","","","","","","",""
"null","is hugging","","html-keyboard-response","406","1740216","0.0-19.0-2.15","10193","List1A","white","woman","","","","null","","","","","","","","",""
"4703.700000047684","","","survey-text","407","1744926","0.0-19.0-3.15","10193","List1A","white","woman","","","","","{""Q0"":""ruth is hugging beth""}","<img src=""stim_listA/hug7.gif""style=""height:400px;""></stim_listA>","is hugging","","","","","",""
"null","<div style=""font-size:60px;"">+</div>","","html-keyboard-response","408","1745434","0.0-19.0-0.16","10193","List1A","white","woman","","","","null","","","","","","","","",""
"null","<img src=""stim_listA/hug4.gif""style=""height:400px;""></stim_listA>","","html-keyboard-response","409","1747440","0.0-19.0-1.16","10193","List1A","white","woman","","","","null","","","","","","","","",""
"null","is being hugged by","","html-keyboard-response","410","1749444","0.0-19.0-2.16","10193","List1A","white","woman","","","","null","","","","","","","","",""
"6420.5","","","survey-text","411","1755869","0.0-19.0-3.16","10193","List1A","white","woman","","","","","{""Q0"":""jane is being hugged by dave""}","<img src=""stim_listA/hug4.gif""style=""height:400px;""></stim_listA>","is being hugged by","","","","","",""
"null","<div style=""font-size:60px;"">+</div>","","html-keyboard-response","412","1756387","0.0-19.0-0.17","10193","List1A","white","woman","","","","null","","","","","","","","",""
"null","<img src=""stim_listA/copy8.gif""style=""height:400px;""></stim_listA>","","html-keyboard-response","413","1758400","0.0-19.0-1.17","10193","List1A","white","woman","","","","null","","","","","","","","",""
"null","is being copied by","","html-keyboard-response","414","1760416","0.0-19.0-2.17","10193","List1A","white","woman","","","","null","","","","","","","","",""
"9405.800000190735","","","survey-text","415","1769826","0.0-19.0-3.17","10193","List1A","white","woman","","","","","{""Q0"":""jane is being copied by beth""}","<img src=""stim_listA/copy8.gif""style=""height:400px;""></stim_listA>","is being copied by","","","","","",""
"null","<div style=""font-size:60px;"">+</div>","","html-keyboard-response","416","1770343","0.0-19.0-0.18","10193","List1A","white","woman","","","","null","","","","","","","","",""
"null","<img src=""stim_listA/shout6.gif""style=""height:400px;""></stim_listA>","","html-keyboard-response","417","1772360","0.0-19.0-1.18","10193","List1A","white","woman","","","","null","","","","","","","","",""
"null","is being shouted at by","","html-keyboard-response","418","1774364","0.0-19.0-2.18","10193","List1A","white","woman","","","","null","","","","","","","","",""
"9255.799999952316","","","survey-text","419","1783625","0.0-19.0-3.18","10193","List1A","white","woman","","","","","{""Q0"":""mike is being shouted at by dave""}","<img src=""stim_listA/shout6.gif""style=""height:400px;""></stim_listA>","is being shouted at by","","","","","",""
"null","<div style=""font-size:60px;"">+</div>","","html-keyboard-response","420","1784142","0.0-19.0-0.19","10193","List1A","white","woman","","","","null","","","","","","","","",""
"null","<img src=""stim_listA/shout7.gif""style=""height:400px;""></stim_listA>","","html-keyboard-response","421","1786146","0.0-19.0-1.19","10193","List1A","white","woman","","","","null","","","","","","","","",""
"null","is shouting at","","html-keyboard-response","422","1788153","0.0-19.0-2.19","10193","List1A","white","woman","","","","null","","","","","","","","",""
"8214.800000190735","","","survey-text","423","1796371","0.0-19.0-3.19","10193","List1A","white","woman","","","","","{""Q0"":""ruth is shouting at beth""}","<img src=""stim_listA/shout7.gif""style=""height:400px;""></stim_listA>","is shouting at","","","","","",""
"3878.9000000953674","<p>Thank you for completing that task.</p><p>The final part of this session is a questionnaire that will take about 4 minutes.</p><p>Press Continue.</p>","0","html-button-response","424","1800253","0.0-20.0","10193","List1A","white","woman","","","","","","","","","","","","",""
"31594.700000047684","","","survey-text","425","1832856","0.0-21.0","10193","List1A","white","woman","","","","","{""Q0"":""24"",""Q1"":""English"",""Q2"":""English"",""Q3"":""United states"",""Q4"":""American"",""Q5"":""White"",""Q6"":""Female""}","","","demographics","","","","",""
"5529.700000047684","<p>Have you lived in the USA for the last 5 years or more?</p>","0","html-button-response","426","1838392","0.0-22.0","10193","List1A","white","woman","","","","","","","","fiveyears","","","","",""
"10976.799999952316","<p>Move the slider to show the extent to which you agree with the following statements.</p>","0","html-button-response","427","1850379","0.0-23.0","10193","List1A","white","woman","","","","","","","","","","","","",""
"7749.5","","","html-slider-response","428","1859151","0.0-24.0-0.0-0.0","10193","List1A","white","woman","","","","","","","","survey_gender","94","","","I am glad to be my gender.","glad"
"11139.5","","","html-slider-response","429","1870296","0.0-24.0-0.0-0.1","10193","List1A","white","woman","","","","","","","","survey_gender","86","","","Being my gender is an important part of how I see myself.","important"
"11108.5","","","html-slider-response","430","1881410","0.0-24.0-0.0-0.2","10193","List1A","white","woman","","","","","","","","survey_gender","80","","","I often think about my actions.","filler"
"14164.799999952316","","","html-slider-response","431","1895581","0.0-24.0-0.0-0.3","10193","List1A","white","woman","","","","","","","","survey_gender","93","","","Being around my friends gives me a good feeling.","filler"
"7244.5","","","html-slider-response","432","1902830","0.0-24.0-0.0-0.4","10193","List1A","white","woman","","","","","","","","survey_gender","27","","","Routine is not important to me.","filler"
"23564.400000095367","","","html-slider-response","433","1926398","0.0-24.0-0.0-0.5","10193","List1A","white","woman","","","","","","","","survey_gender","60","","","I feel a bond with my gender.","bond"
"4367.899999856949","","","html-slider-response","434","1930770","0.0-24.0-0.0-0.6","10193","List1A","white","woman","","","","","","","","survey_gender","66","","","I would say I am an animal person.","filler"
"7526.099999904633","","","html-slider-response","435","1938300","0.0-24.0-0.0-0.7","10193","List1A","white","woman","","","","","","","","survey_gender","70","","","My friends have a lot in common with each other.","filler"
"14429.5","","","html-slider-response","436","1952733","0.0-24.0-0.0-0.8","10193","List1A","white","woman","","","","","","","","survey_gender","67","","","I feel solidarity with my friends.","filler"
"5005.200000047684","","","html-slider-response","437","1957743","0.0-24.0-0.0-0.9","10193","List1A","white","woman","","","","","","","","survey_gender","76","","","I consider myself a highly empathetic person.","filler"
"4941","","","html-slider-response","438","1962689","0.0-24.0-0.0-0.10","10193","List1A","white","woman","","","","","","","","survey_gender","75","","","I have a lot in common with the average person of my gender.","average"
"5845","","","html-slider-response","439","1968539","0.0-24.0-0.0-0.11","10193","List1A","white","woman","","","","","","","","survey_gender","83","","","I think that my gender has a lot to be proud of.","proud"
"22949.799999952316","","","html-slider-response","440","1991493","0.0-24.0-0.0-0.12","10193","List1A","white","woman","","","","","","","","survey_gender","86","","","It is not always easy for people to know what I am thinking.","filler"
"4176.099999904633","","","html-slider-response","441","1995674","0.0-24.0-0.0-0.13","10193","List1A","white","woman","","","","","","","","survey_gender","63","","","People of my gender have a lot in common with each other.","common"
"23588.300000190735","","","html-slider-response","442","2019266","0.0-24.0-0.0-0.14","10193","List1A","white","woman","","","","","","","","survey_gender","81","","","I am glad to have the friends that I have.","filler"
"8115.399999856949","","","html-slider-response","443","2027386","0.0-24.0-0.0-0.15","10193","List1A","white","woman","","","","","","","","survey_gender","53","","","Family is not more important to me than friendship.","filler"
"4379.700000047684","","","html-slider-response","444","2031770","0.0-24.0-0.0-0.16","10193","List1A","white","woman","","","","","","","","survey_gender","90","","","Being my gender gives me a good feeling.","feeling"
"3685.7999999523163","","","html-slider-response","445","2035460","0.0-24.0-0.0-0.17","10193","List1A","white","woman","","","","","","","","survey_gender","66","","","I am similar to the average person of my gender.","similar"
"13093.599999904633","","","html-slider-response","446","2048559","0.0-24.0-0.0-0.18","10193","List1A","white","woman","","","","","","","","survey_gender","52","","","I often think about the fact that I am my gender.","often"
"4930.300000190735","","","html-slider-response","447","2053495","0.0-24.0-0.0-0.19","10193","List1A","white","woman","","","","","","","","survey_gender","85","","","I feel committed to my gender.","committed"
"4090.2999999523163","","","html-slider-response","448","2057590","0.0-24.0-0.0-0.20","10193","List1A","white","woman","","","","","","","","survey_gender","76","","","I have a lot in common with my friends.","filler"
"5162.400000095367","","","html-slider-response","449","2062756","0.0-24.0-0.0-0.21","10193","List1A","white","woman","","","","","","","","survey_gender","80","","","Most of the friends in my life are very similar to me.","filler"
"9342.899999856949","","","html-slider-response","450","2072105","0.0-24.0-0.0-0.22","10193","List1A","white","woman","","","","","","","","survey_gender","64","","","I feel solidarity with my gender.","solidarity"
"5790.100000143051","","","html-slider-response","451","2077899","0.0-24.0-0.0-0.23","10193","List1A","white","woman","","","","","","","","survey_gender","75","","","The fact that I am my gender is an important part of my identity.","identity"
"4058.7999999523163","","","html-slider-response","452","2081963","0.0-24.0-0.0-0.24","10193","List1A","white","woman","","","","","","","","survey_gender","63","","","My friends understand me.","filler"
"28186.700000047684","","","html-slider-response","453","2110154","0.0-24.0-0.0-0.25","10193","List1A","white","woman","","","","","","","","survey_gender","63","","","It is pleasant to be my gender.","pleasant"
"26374.099999904633","","","html-slider-response","454","2136534","0.0-24.0-0.0-0.26","10193","List1A","white","woman","","","","","","","","survey_gender","53","","","People of my gender are very similar to each other.","verysimilar"
"4440.5","","","html-slider-response","455","2140979","0.0-24.0-0.0-0.27","10193","List1A","white","woman","","","","","","","","survey_gender","61","","","I feel a bond with my friends.","filler"
"4448","","","html-slider-response","456","2145430","0.0-24.0-1.0-0.0","10193","List1A","white","woman","","","","","","","","survey_race","43","","","Being my age gives me a good feeling.","filler"
"10318","","","html-slider-response","457","2155752","0.0-24.0-1.0-0.1","10193","List1A","white","woman","","","","","","","","survey_race","53","","","It is pleasant to be my race.","pleasant"
"4574.900000095367","","","html-slider-response","458","2160332","0.0-24.0-1.0-0.2","10193","List1A","white","woman","","","","","","","","survey_race","11","","","I consider myself an extrovert.","filler"
"3675.800000190735","","","html-slider-response","459","2164012","0.0-24.0-1.0-0.3","10193","List1A","white","woman","","","","","","","","survey_race","42","","","I am glad to be the age I am.","filler"
"5075.299999952316","","","html-slider-response","460","2169091","0.0-24.0-1.0-0.4","10193","List1A","white","woman","","","","","","","","survey_race","30","","","I feel committed to my race.","committed"
"7334.600000143051","","","html-slider-response","461","2176431","0.0-24.0-1.0-0.5","10193","List1A","white","woman","","","","","","","","survey_race","64","","","I feel solidarity with people the same age as me.","filler"
"5153.799999952316","","","html-slider-response","462","2181590","0.0-24.0-1.0-0.6","10193","List1A","white","woman","","","","","","","","survey_race","25","","","I enjoy being in large groups.","filler"
"6158.699999809265","","","html-slider-response","463","2187755","0.0-24.0-1.0-0.7","10193","List1A","white","woman","","","","","","","","survey_race","18","","","Getting older does not worry me.","filler"
"3539.2000000476837","","","html-slider-response","464","2191298","0.0-24.0-1.0-0.8","10193","List1A","white","woman","","","","","","","","survey_race","37","","","I am glad to be my age.","filler"
"4570.200000047684","","","html-slider-response","465","2195874","0.0-24.0-1.0-0.9","10193","List1A","white","woman","","","","","","","","survey_race","64","","","I feel a bond with people the same age as me.","filler"
"11223","","","html-slider-response","466","2207101","0.0-24.0-1.0-0.10","10193","List1A","white","woman","","","","","","","","survey_race","39","","","Being my race is an important part of how I see myself.","important"
"6912.700000047684","","","html-slider-response","467","2214018","0.0-24.0-1.0-0.11","10193","List1A","white","woman","","","","","","","","survey_race","54","","","People my age have a lot in common with each other.","filler"
"13005.699999809265","","","html-slider-response","468","2227027","0.0-24.0-1.0-0.12","10193","List1A","white","woman","","","","","","","","survey_race","38","","","My age is not an important part of who I am.","filler"
"3922.2000000476837","","","html-slider-response","469","2230954","0.0-24.0-1.0-0.13","10193","List1A","white","woman","","","","","","","","survey_race","28","","","The fact that I am my race is an important part of my identity.","identity"
"3785.100000143051","","","html-slider-response","470","2234742","0.0-24.0-1.0-0.14","10193","List1A","white","woman","","","","","","","","survey_race","83","","","I consider myself an introvert.","filler"
"4810.799999952316","","","html-slider-response","471","2239557","0.0-24.0-1.0-0.15","10193","List1A","white","woman","","","","","","","","survey_race","5","","","I think that my race has a lot to be proud of.","proud"
"4341","","","html-slider-response","472","2243903","0.0-24.0-1.0-0.16","10193","List1A","white","woman","","","","","","","","survey_race","6","","","I feel a bond with my race.","bond"
"6461.200000047684","","","html-slider-response","473","2250368","0.0-24.0-1.0-0.17","10193","List1A","white","woman","","","","","","","","survey_race","47","","","People of my race are very similar to each other.","verysimilar"
"7675.200000047684","","","html-slider-response","474","2258049","0.0-24.0-1.0-0.18","10193","List1A","white","woman","","","","","","","","survey_race","72","","","I often think about the fact that I am my age.","filler"
"5001.700000047684","","","html-slider-response","475","2263055","0.0-24.0-1.0-0.19","10193","List1A","white","woman","","","","","","","","survey_race","35","","","I am glad to be my race.","glad"
