rt,stimulus,button_pressed,trial_type,trial_index,time_elapsed,internal_node_id,subject,list,ppt_race,ppt_gender,url,first_guess,correct,key_press,responses,image_type,phrase_type,test_part,response,stimulus1,stimulus2,question_type,survey_item
35412.9,Welcome to the experiment. Press Continue to begin.,0,html-button-response,0,35417,0.0-0.0,10771,List2B,white,woman,,,,,,,,,,,,,
52502.9,,,external-html,1,89190,0.0-1.0,10771,List2B,white,woman,consent.html,,,,,,,,,,,,
23110.5,"<p>On the next page, you will see portraits of 8 people and their names.</p><p>Your first task is to take a few minutes to memorise the names of these people.</p><p>You will have to recall their names during the rest of the experiment, so it is</p><p>essential that you try to memorise these people and their names as best as you can.</p><br><p><strong>You will then be tested on your memory of these names and portraits.</strong></p><br><p>The experiment will start after you have completed this memory test.</p><br><p>Ready?</p>",0,html-button-response,2,112303,0.0-2.0,10771,List2B,white,woman,,,,,,,,,,,,,
90670.4,"<img src='img/portrait_matrix_list2.jpg' style='width:900px;height:500px;''></img><p>If you have memorised all the portraits and names and are ready to start, press Continue.</p><p><strong>Please note: Your memory of these faces will be tested 4 times during this experiment.</strong></p>",0,html-button-response,3,203987,0.0-3.0-0.0,10771,List2B,white,woman,,,,,,,,,,,,,
2687.3,"<img src=""portrait/WM1.jpg""style=""height:400px;""></img>",6,html-button-response,4,207679,0.0-3.0-1.0,10771,List2B,white,woman,,TRUE,6,,,,,,,,,,
null,CORRECT,,html-keyboard-response,5,209207,0.0-3.0-2.0-0.0,10771,List2B,white,woman,,,,null,,,,,,,,,
5717.4,"<img src=""portrait/BM2.jpg""style=""height:400px;""></img>",5,html-button-response,6,214926,0.0-3.0-4.0,10771,List2B,white,woman,,TRUE,5,,,,,,,,,,
null,CORRECT,,html-keyboard-response,7,216447,0.0-3.0-5.0-0.0,10771,List2B,white,woman,,,,null,,,,,,,,,
10445.7,"<img src=""portrait/BM1.jpg""style=""height:400px;""></img>",4,html-button-response,8,226895,0.0-3.0-7.0,10771,List2B,white,woman,,TRUE,4,,,,,,,,,,
null,CORRECT,,html-keyboard-response,9,228408,0.0-3.0-8.0-0.0,10771,List2B,white,woman,,,,null,,,,,,,,,
2365.1,"<img src=""portrait/BW1.jpg""style=""height:400px;""></img>",0,html-button-response,10,230775,0.0-3.0-10.0,10771,List2B,white,woman,,TRUE,0,,,,,,,,,,
null,CORRECT,,html-keyboard-response,11,232284,0.0-3.0-11.0-0.0,10771,List2B,white,woman,,,,null,,,,,,,,,
1953,"<img src=""portrait/WM2.jpg""style=""height:400px;""></img>",7,html-button-response,12,234238,0.0-3.0-13.0,10771,List2B,white,woman,,TRUE,7,,,,,,,,,,
null,CORRECT,,html-keyboard-response,13,235745,0.0-3.0-14.0-0.0,10771,List2B,white,woman,,,,null,,,,,,,,,
15435.3,"<img src=""portrait/WW1.jpg""style=""height:400px;""></img>",1,html-button-response,14,251182,0.0-3.0-16.0,10771,List2B,white,woman,,TRUE,1,,,,,,,,,,
null,CORRECT,,html-keyboard-response,15,252698,0.0-3.0-17.0-0.0,10771,List2B,white,woman,,,,null,,,,,,,,,
4010.6,"<img src=""portrait/BW2.jpg""style=""height:400px;""></img>",2,html-button-response,16,256710,0.0-3.0-19.0,10771,List2B,white,woman,,TRUE,2,,,,,,,,,,
null,CORRECT,,html-keyboard-response,17,258235,0.0-3.0-20.0-0.0,10771,List2B,white,woman,,,,null,,,,,,,,,
2775.8,"<img src=""portrait/WW2.jpg""style=""height:400px;""></img>",3,html-button-response,18,261013,0.0-3.0-22.0,10771,List2B,white,woman,,TRUE,3,,,,,,,,,,
null,CORRECT,,html-keyboard-response,19,262519,0.0-3.0-23.0-0.0,10771,List2B,white,woman,,,,null,,,,,,,,,
2236.1,<p>You got 8 out of 8 right first time. Press Continue.</p>,0,html-button-response,20,264757,0.0-3.0-25.0,10771,List2B,white,woman,,,,,,,,,,,,,
32625,"<p>In this experiment, you will view photographs of the people from the memory game interacting.</p><p>By using the <strong>exact</strong> phrase given <i>after</i> the photograph appears and recalling the correct names of the people in the photographs, form a sentence describing the interaction. You do not need to capitalise names.</p><p>Type your answer in the space provided. Please complete every sentence before moving onto the next trial.</p><p>You will only have a few seconds to memorise each given photograph and phrase before you can respond, so try your best to focus.</p><p>An example is given below. Press 'Continue' when you are ready.</p><img src='img/speaking_example.jpg' style='width:800px;height:460px;''></img>",0,html-button-response,21,298386,0.0-4.0,10771,List2B,white,woman,,,,,,,,,,,,,
3101.5,"<p>Before the experiment starts, you will watch two example trials. Press 'Continue'.</p>",0,html-button-response,22,302490,0.0-5.0,10771,List2B,white,woman,,,,,,,,,,,,,
null,<img src='img/play_eg.gif' style='height:400px;''></img>,,html-keyboard-response,23,305511,0.0-6.0,10771,List2B,white,woman,,,,null,,,,,,,,,
null,<p>is playing with</p>,,html-keyboard-response,24,307527,0.0-7.0,10771,List2B,white,woman,,,,null,,,,,,,,,
4496.9,<p><b>Answer:</b> jane is playing with ruth</p>,0,html-button-response,25,312025,0.0-8.0,10771,List2B,white,woman,,,,,,,,,,,,,
null,<img src='img/dance_eg.gif' style='height:400px;''></img>,,html-keyboard-response,26,315040,0.0-9.0,10771,List2B,white,woman,,,,null,,,,,,,,,
null,<p>is being entertained by</p>,,html-keyboard-response,27,317057,0.0-10.0,10771,List2B,white,woman,,,,null,,,,,,,,,
1967.5,<p><b>Answer:</b> fred is being entertained by mike</p>,0,html-button-response,28,319026,0.0-11.0,10771,List2B,white,woman,,,,,,,,,,,,,
7938.4,"<p>Ready to start the experiment?</p><br><p><strong>Remember to describe the picture using a full sentence,</strong></p><p><strong>that combines the names of the people with the <i>exact</i> phrase given.</strong></p><p><strong>To receive full payment you must do this correctly.</strong></p><p><strong> You do not need to capitalise names or use punctuation.</strong></p><br><p>Press 'Continue' to begin.</p>",0,html-button-response,29,327981,0.0-12.0,10771,List2B,white,woman,,,,,,,,,,,,,
null,"<div style=""font-size:60px;"">+</div>",,html-keyboard-response,30,329500,0.0-13.0-0.0,10771,List2B,white,woman,,,,null,,,,,,,,,
null,"<img src=""stim_listB/look6.gif""style=""height:400px;""></stim_listB>",,html-keyboard-response,31,331518,0.0-13.0-1.0,10771,List2B,white,woman,,,,null,,,,,,,,,
null,is being looked at by,,html-keyboard-response,32,333534,0.0-13.0-2.0,10771,List2B,white,woman,,,,null,,,,,,,,,
12074,,,survey-text,33,345611,0.0-13.0-3.0,10771,List2B,white,woman,,,,,"{""Q0"":""Mike is being looked at by Dave.""}","<img src=""stim_listB/look6.gif""style=""height:400px;""></stim_listB>",is being looked at by,,,,,,
null,"<div style=""font-size:60px;"">+</div>",,html-keyboard-response,34,346118,0.0-13.0-0.1,10771,List2B,white,woman,,,,null,,,,,,,,,
null,"<img src=""stim_listB/hug7.gif""style=""height:400px;""></stim_listB>",,html-keyboard-response,35,348122,0.0-13.0-1.1,10771,List2B,white,woman,,,,null,,,,,,,,,
null,is hugging,,html-keyboard-response,36,350124,0.0-13.0-2.1,10771,List2B,white,woman,,,,null,,,,,,,,,
10867.1,,,survey-text,37,360995,0.0-13.0-3.1,10771,List2B,white,woman,,,,,"{""Q0"":""Ruth is hugging Beth.""}","<img src=""stim_listB/hug7.gif""style=""height:400px;""></stim_listB>",is hugging,,,,,,
null,"<div style=""font-size:60px;"">+</div>",,html-keyboard-response,38,361497,0.0-13.0-0.2,10771,List2B,white,woman,,,,null,,,,,,,,,
null,"<img src=""stim_listB/challenge8.gif""style=""height:400px;""></stim_listB>",,html-keyboard-response,39,363501,0.0-13.0-1.2,10771,List2B,white,woman,,,,null,,,,,,,,,
null,is being challenged by,,html-keyboard-response,40,365519,0.0-13.0-2.2,10771,List2B,white,woman,,,,null,,,,,,,,,
12593.4,,,survey-text,41,378115,0.0-13.0-3.2,10771,List2B,white,woman,,,,,"{""Q0"":""Kate is being challenged by Ruth.""}","<img src=""stim_listB/challenge8.gif""style=""height:400px;""></stim_listB>",is being challenged by,,,,,,
null,"<div style=""font-size:60px;"">+</div>",,html-keyboard-response,42,378623,0.0-13.0-0.3,10771,List2B,white,woman,,,,null,,,,,,,,,
null,"<img src=""stim_listB/shout2.gif""style=""height:400px;""></stim_listB>",,html-keyboard-response,43,380640,0.0-13.0-1.3,10771,List2B,white,woman,,,,null,,,,,,,,,
null,is being shouted at by,,html-keyboard-response,44,382656,0.0-13.0-2.3,10771,List2B,white,woman,,,,null,,,,,,,,,
15239.2,,,survey-text,45,397898,0.0-13.0-3.3,10771,List2B,white,woman,,,,,"{""Q0"":""Ruth is being shouted at by Dave.""}","<img src=""stim_listB/shout2.gif""style=""height:400px;""></stim_listB>",is being shouted at by,,,,,,
null,"<div style=""font-size:60px;"">+</div>",,html-keyboard-response,46,398404,0.0-13.0-0.4,10771,List2B,white,woman,,,,null,,,,,,,,,
null,"<img src=""stim_listB/look4.gif""style=""height:400px;""></stim_listB>",,html-keyboard-response,47,400418,0.0-13.0-1.4,10771,List2B,white,woman,,,,null,,,,,,,,,
null,is being looked at by,,html-keyboard-response,48,402420,0.0-13.0-2.4,10771,List2B,white,woman,,,,null,,,,,,,,,
10680.3,,,survey-text,49,413103,0.0-13.0-3.4,10771,List2B,white,woman,,,,,"{""Q0"":""Kate is being looked at by Mike.""}","<img src=""stim_listB/look4.gif""style=""height:400px;""></stim_listB>",is being looked at by,,,,,,
null,"<div style=""font-size:60px;"">+</div>",,html-keyboard-response,50,413607,0.0-13.0-0.5,10771,List2B,white,woman,,,,null,,,,,,,,,
null,"<img src=""stim_listB/touch6.gif""style=""height:400px;""></stim_listB>",,html-keyboard-response,51,415616,0.0-13.0-1.5,10771,List2B,white,woman,,,,null,,,,,,,,,
null,is being touched by,,html-keyboard-response,52,417627,0.0-13.0-2.5,10771,List2B,white,woman,,,,null,,,,,,,,,
19812.5,,,survey-text,53,437442,0.0-13.0-3.5,10771,List2B,white,woman,,,,,"{""Q0"":""Fred is being touched by Luke. ""}","<img src=""stim_listB/touch6.gif""style=""height:400px;""></stim_listB>",is being touched by,,,,,,
null,"<div style=""font-size:60px;"">+</div>",,html-keyboard-response,54,437954,0.0-13.0-0.6,10771,List2B,white,woman,,,,null,,,,,,,,,
null,"<img src=""stim_listB/oppose7.gif""style=""height:400px;""></stim_listB>",,html-keyboard-response,55,439957,0.0-13.0-1.6,10771,List2B,white,woman,,,,null,,,,,,,,,
null,is opposing,,html-keyboard-response,56,441958,0.0-13.0-2.6,10771,List2B,white,woman,,,,null,,,,,,,,,
7601.4,,,survey-text,57,449562,0.0-13.0-3.6,10771,List2B,white,woman,,,,,"{""Q0"":""Jane is opposing Kate.""}","<img src=""stim_listB/oppose7.gif""style=""height:400px;""></stim_listB>",is opposing,,,,,,
null,"<div style=""font-size:60px;"">+</div>",,html-keyboard-response,58,450071,0.0-13.0-0.7,10771,List2B,white,woman,,,,null,,,,,,,,,
null,"<img src=""stim_listB/shout3.gif""style=""height:400px;""></stim_listB>",,html-keyboard-response,59,452081,0.0-13.0-1.7,10771,List2B,white,woman,,,,null,,,,,,,,,
null,is shouting at,,html-keyboard-response,60,454084,0.0-13.0-2.7,10771,List2B,white,woman,,,,null,,,,,,,,,
18539.7,,,survey-text,61,472626,0.0-13.0-3.7,10771,List2B,white,woman,,,,,"{""Q0"":""Beth is shouting at Fred.""}","<img src=""stim_listB/shout3.gif""style=""height:400px;""></stim_listB>",is shouting at,,,,,,
null,"<div style=""font-size:60px;"">+</div>",,html-keyboard-response,62,473138,0.0-13.0-0.8,10771,List2B,white,woman,,,,null,,,,,,,,,
null,"<img src=""stim_listB/copy7.gif""style=""height:400px;""></stim_listB>",,html-keyboard-response,63,475150,0.0-13.0-1.8,10771,List2B,white,woman,,,,null,,,,,,,,,
null,is copying,,html-keyboard-response,64,477166,0.0-13.0-2.8,10771,List2B,white,woman,,,,null,,,,,,,,,
14513.7,,,survey-text,65,491683,0.0-13.0-3.8,10771,List2B,white,woman,,,,,"{""Q0"":""Jane is copying Beth.""}","<img src=""stim_listB/copy7.gif""style=""height:400px;""></stim_listB>",is copying,,,,,,
null,"<div style=""font-size:60px;"">+</div>",,html-keyboard-response,66,492188,0.0-13.0-0.9,10771,List2B,white,woman,,,,null,,,,,,,,,
null,"<img src=""stim_listB/seduce2.gif""style=""height:400px;""></stim_listB>",,html-keyboard-response,67,494195,0.0-13.0-1.9,10771,List2B,white,woman,,,,null,,,,,,,,,
null,is being seduced by,,html-keyboard-response,68,496205,0.0-13.0-2.9,10771,List2B,white,woman,,,,null,,,,,,,,,
16314.8,,,survey-text,69,512523,0.0-13.0-3.9,10771,List2B,white,woman,,,,,"{""Q0"":""Dave is being seduced by Kate.""}","<img src=""stim_listB/seduce2.gif""style=""height:400px;""></stim_listB>",is being seduced by,,,,,,
null,"<div style=""font-size:60px;"">+</div>",,html-keyboard-response,70,513039,0.0-13.0-0.10,10771,List2B,white,woman,,,,null,,,,,,,,,
null,"<img src=""stim_listB/oppose5.gif""style=""height:400px;""></stim_listB>",,html-keyboard-response,71,515045,0.0-13.0-1.10,10771,List2B,white,woman,,,,null,,,,,,,,,
null,is opposing,,html-keyboard-response,72,517061,0.0-13.0-2.10,10771,List2B,white,woman,,,,null,,,,,,,,,
6147.5,,,survey-text,73,523211,0.0-13.0-3.10,10771,List2B,white,woman,,,,,"{""Q0"":""Dave is opposing Mike.""}","<img src=""stim_listB/oppose5.gif""style=""height:400px;""></stim_listB>",is opposing,,,,,,
null,"<div style=""font-size:60px;"">+</div>",,html-keyboard-response,74,523713,0.0-13.0-0.11,10771,List2B,white,woman,,,,null,,,,,,,,,
null,"<img src=""stim_listB/oppose1.gif""style=""height:400px;""></stim_listB>",,html-keyboard-response,75,525728,0.0-13.0-1.11,10771,List2B,white,woman,,,,null,,,,,,,,,
null,is opposing,,html-keyboard-response,76,527737,0.0-13.0-2.11,10771,List2B,white,woman,,,,null,,,,,,,,,
8006.5,,,survey-text,77,535747,0.0-13.0-3.11,10771,List2B,white,woman,,,,,"{""Q0"":""Jane is opposing Dave.""}","<img src=""stim_listB/oppose1.gif""style=""height:400px;""></stim_listB>",is opposing,,,,,,
null,"<div style=""font-size:60px;"">+</div>",,html-keyboard-response,78,536262,0.0-13.0-0.12,10771,List2B,white,woman,,,,null,,,,,,,,,
null,"<img src=""stim_listB/touch4.gif""style=""height:400px;""></stim_listB>",,html-keyboard-response,79,538278,0.0-13.0-1.12,10771,List2B,white,woman,,,,null,,,,,,,,,
null,is being touched by,,html-keyboard-response,80,540288,0.0-13.0-2.12,10771,List2B,white,woman,,,,null,,,,,,,,,
8376,,,survey-text,81,548667,0.0-13.0-3.12,10771,List2B,white,woman,,,,,"{""Q0"":""Fred is being touched by Beth.""}","<img src=""stim_listB/touch4.gif""style=""height:400px;""></stim_listB>",is being touched by,,,,,,
null,"<div style=""font-size:60px;"">+</div>",,html-keyboard-response,82,549173,0.0-13.0-0.13,10771,List2B,white,woman,,,,null,,,,,,,,,
null,"<img src=""stim_listB/greet7.gif""style=""height:400px;""></stim_listB>",,html-keyboard-response,83,551189,0.0-13.0-1.13,10771,List2B,white,woman,,,,null,,,,,,,,,
null,is greeting,,html-keyboard-response,84,553199,0.0-13.0-2.13,10771,List2B,white,woman,,,,null,,,,,,,,,
13674.4,,,survey-text,85,566875,0.0-13.0-3.13,10771,List2B,white,woman,,,,,"{""Q0"":""Ruth is greeting Beth.""}","<img src=""stim_listB/greet7.gif""style=""height:400px;""></stim_listB>",is greeting,,,,,,
null,"<div style=""font-size:60px;"">+</div>",,html-keyboard-response,86,567379,0.0-13.0-0.14,10771,List2B,white,woman,,,,null,,,,,,,,,
null,"<img src=""stim_listB/touch5.gif""style=""height:400px;""></stim_listB>",,html-keyboard-response,87,569391,0.0-13.0-1.14,10771,List2B,white,woman,,,,null,,,,,,,,,
null,is touching,,html-keyboard-response,88,571393,0.0-13.0-2.14,10771,List2B,white,woman,,,,null,,,,,,,,,
8190.1,,,survey-text,89,579586,0.0-13.0-3.14,10771,List2B,white,woman,,,,,"{""Q0"":""Dave is touching Mike. ""}","<img src=""stim_listB/touch5.gif""style=""height:400px;""></stim_listB>",is touching,,,,,,
null,"<div style=""font-size:60px;"">+</div>",,html-keyboard-response,90,580089,0.0-13.0-0.15,10771,List2B,white,woman,,,,null,,,,,,,,,
null,"<img src=""stim_listB/oppose4.gif""style=""height:400px;""></stim_listB>",,html-keyboard-response,91,582104,0.0-13.0-1.15,10771,List2B,white,woman,,,,null,,,,,,,,,
null,is being opposed by,,html-keyboard-response,92,584107,0.0-13.0-2.15,10771,List2B,white,woman,,,,null,,,,,,,,,
12069.1,,,survey-text,93,596178,0.0-13.0-3.15,10771,List2B,white,woman,,,,,"{""Q0"":""Fred is being opposed by Beth.""}","<img src=""stim_listB/oppose4.gif""style=""height:400px;""></stim_listB>",is being opposed by,,,,,,
null,"<div style=""font-size:60px;"">+</div>",,html-keyboard-response,94,596680,0.0-13.0-0.16,10771,List2B,white,woman,,,,null,,,,,,,,,
null,"<img src=""stim_listB/copy6.gif""style=""height:400px;""></stim_listB>",,html-keyboard-response,95,598681,0.0-13.0-1.16,10771,List2B,white,woman,,,,null,,,,,,,,,
null,is being copied by,,html-keyboard-response,96,600691,0.0-13.0-2.16,10771,List2B,white,woman,,,,null,,,,,,,,,
15172.7,,,survey-text,97,615866,0.0-13.0-3.16,10771,List2B,white,woman,,,,,"{""Q0"":""Luke is being copied by Fred.""}","<img src=""stim_listB/copy6.gif""style=""height:400px;""></stim_listB>",is being copied by,,,,,,
null,"<div style=""font-size:60px;"">+</div>",,html-keyboard-response,98,616377,0.0-13.0-0.17,10771,List2B,white,woman,,,,null,,,,,,,,,
null,"<img src=""stim_listB/look2.gif""style=""height:400px;""></stim_listB>",,html-keyboard-response,99,618386,0.0-13.0-1.17,10771,List2B,white,woman,,,,null,,,,,,,,,
null,is being looked at by,,html-keyboard-response,100,620398,0.0-13.0-2.17,10771,List2B,white,woman,,,,null,,,,,,,,,
9833.5,,,survey-text,101,630234,0.0-13.0-3.17,10771,List2B,white,woman,,,,,"{""Q0"":""Dave is being looked at by Jane.""}","<img src=""stim_listB/look2.gif""style=""height:400px;""></stim_listB>",is being looked at by,,,,,,
null,"<div style=""font-size:60px;"">+</div>",,html-keyboard-response,102,630737,0.0-13.0-0.18,10771,List2B,white,woman,,,,null,,,,,,,,,
null,"<img src=""stim_listB/seduce1.gif""style=""height:400px;""></stim_listB>",,html-keyboard-response,103,632744,0.0-13.0-1.18,10771,List2B,white,woman,,,,null,,,,,,,,,
null,is seducing,,html-keyboard-response,104,634755,0.0-13.0-2.18,10771,List2B,white,woman,,,,null,,,,,,,,,
7677.9,,,survey-text,105,642435,0.0-13.0-3.18,10771,List2B,white,woman,,,,,"{""Q0"":""Luke is seducing Jane. ""}","<img src=""stim_listB/seduce1.gif""style=""height:400px;""></stim_listB>",is seducing,,,,,,
null,"<div style=""font-size:60px;"">+</div>",,html-keyboard-response,106,642939,0.0-13.0-0.19,10771,List2B,white,woman,,,,null,,,,,,,,,
null,"<img src=""stim_listB/hug8.gif""style=""height:400px;""></stim_listB>",,html-keyboard-response,107,644956,0.0-13.0-1.19,10771,List2B,white,woman,,,,null,,,,,,,,,
null,is being hugged by,,html-keyboard-response,108,646964,0.0-13.0-2.19,10771,List2B,white,woman,,,,null,,,,,,,,,
19228.7,,,survey-text,109,666195,0.0-13.0-3.19,10771,List2B,white,woman,,,,,"{""Q0"":"" Kate is being hugged by Jane.""}","<img src=""stim_listB/hug8.gif""style=""height:400px;""></stim_listB>",is being hugged by,,,,,,
25725.5,"<img src='img/portrait_matrix_list2.jpg' style='width:900px;height:500px;''></img><p>If you have memorised all the portraits and names and are ready to start, press Continue.</p><p><strong>Please note: Your memory of these faces will be tested 4 times during this experiment.</strong></p>",0,html-button-response,110,691923,0.0-14.0-0.0,10771,List2B,white,woman,,,,,,,,,,,,,
2162.8,"<img src=""portrait/WM2.jpg""style=""height:400px;""></img>",7,html-button-response,111,695100,0.0-14.0-1.0,10771,List2B,white,woman,,TRUE,7,,,,,,,,,,
null,CORRECT,,html-keyboard-response,112,696613,0.0-14.0-2.0-0.0,10771,List2B,white,woman,,,,null,,,,,,,,,
2119.9,"<img src=""portrait/BM1.jpg""style=""height:400px;""></img>",4,html-button-response,113,698735,0.0-14.0-4.0,10771,List2B,white,woman,,TRUE,4,,,,,,,,,,
null,CORRECT,,html-keyboard-response,114,700253,0.0-14.0-5.0-0.0,10771,List2B,white,woman,,,,null,,,,,,,,,
2199.9,"<img src=""portrait/BW1.jpg""style=""height:400px;""></img>",1,html-button-response,115,702455,0.0-14.0-7.0,10771,List2B,white,woman,,TRUE,0,,,,,,,,,,
5542.6,"<img src=""portrait/BW1.jpg""style=""height:400px;""></img>",0,html-button-response,116,709015,0.0-14.0-9.0-0.0,10771,List2B,white,woman,,FALSE,0,,,,,,,,,,
null,CORRECT,,html-keyboard-response,117,710540,0.0-14.0-9.0-1.0-0.0,10771,List2B,white,woman,,,,null,,,,,,,,,
2705.6,"<img src=""portrait/WW1.jpg""style=""height:400px;""></img>",1,html-button-response,118,713248,0.0-14.0-10.0,10771,List2B,white,woman,,TRUE,1,,,,,,,,,,
null,CORRECT,,html-keyboard-response,119,714776,0.0-14.0-11.0-0.0,10771,List2B,white,woman,,,,null,,,,,,,,,
1525.7,"<img src=""portrait/WW2.jpg""style=""height:400px;""></img>",3,html-button-response,120,716303,0.0-14.0-13.0,10771,List2B,white,woman,,TRUE,3,,,,,,,,,,
null,CORRECT,,html-keyboard-response,121,717822,0.0-14.0-14.0-0.0,10771,List2B,white,woman,,,,null,,,,,,,,,
1911.6,"<img src=""portrait/WM1.jpg""style=""height:400px;""></img>",6,html-button-response,122,719735,0.0-14.0-16.0,10771,List2B,white,woman,,TRUE,6,,,,,,,,,,
null,CORRECT,,html-keyboard-response,123,721261,0.0-14.0-17.0-0.0,10771,List2B,white,woman,,,,null,,,,,,,,,
2607.4,"<img src=""portrait/BM2.jpg""style=""height:400px;""></img>",5,html-button-response,124,723870,0.0-14.0-19.0,10771,List2B,white,woman,,TRUE,5,,,,,,,,,,
null,CORRECT,,html-keyboard-response,125,725374,0.0-14.0-20.0-0.0,10771,List2B,white,woman,,,,null,,,,,,,,,
2799.5,"<img src=""portrait/BW2.jpg""style=""height:400px;""></img>",2,html-button-response,126,728175,0.0-14.0-22.0,10771,List2B,white,woman,,TRUE,2,,,,,,,,,,
null,CORRECT,,html-keyboard-response,127,729693,0.0-14.0-23.0-0.0,10771,List2B,white,woman,,,,null,,,,,,,,,
2392.3,<p>You got 7 out of 8 right first time. Press Continue.</p>,0,html-button-response,128,732087,0.0-14.0-25.0,10771,List2B,white,woman,,,,,,,,,,,,,
3287.5,"As you did not score 100%, the memory game will repeat. Press Continue.",0,html-button-response,129,736382,0.0-14.0-26.0-0.0,10771,List2B,white,woman,,,,,,,,,,,,,
1653.9,"<img src='img/portrait_matrix_list2.jpg' style='width:900px;height:500px;''></img><p>If you have memorised all the portraits and names and are ready to start, press Continue.</p><p><strong>Please note: Your memory of these faces will be tested 4 times during this experiment.</strong></p>",0,html-button-response,130,739047,0.0-14.1-0.1,10771,List2B,white,woman,,,,,,,,,,,,,
1517.5,"<img src=""portrait/WM2.jpg""style=""height:400px;""></img>",7,html-button-response,131,741567,0.0-14.1-1.1,10771,List2B,white,woman,,TRUE,7,,,,,,,,,,
null,CORRECT,,html-keyboard-response,132,743088,0.0-14.1-2.1-0.1,10771,List2B,white,woman,,,,null,,,,,,,,,
2177.7,"<img src=""portrait/BM1.jpg""style=""height:400px;""></img>",4,html-button-response,133,745267,0.0-14.1-4.1,10771,List2B,white,woman,,TRUE,4,,,,,,,,,,
null,CORRECT,,html-keyboard-response,134,746790,0.0-14.1-5.1-0.1,10771,List2B,white,woman,,,,null,,,,,,,,,
2579.2,"<img src=""portrait/BW1.jpg""style=""height:400px;""></img>",0,html-button-response,135,749371,0.0-14.1-7.1,10771,List2B,white,woman,,TRUE,0,,,,,,,,,,
null,CORRECT,,html-keyboard-response,136,750886,0.0-14.1-8.1-0.1,10771,List2B,white,woman,,,,null,,,,,,,,,
1781.3,"<img src=""portrait/WW1.jpg""style=""height:400px;""></img>",1,html-button-response,137,752671,0.0-14.1-10.1,10771,List2B,white,woman,,TRUE,1,,,,,,,,,,
null,CORRECT,,html-keyboard-response,138,754184,0.0-14.1-11.1-0.1,10771,List2B,white,woman,,,,null,,,,,,,,,
1577.1,"<img src=""portrait/WW2.jpg""style=""height:400px;""></img>",3,html-button-response,139,755763,0.0-14.1-13.1,10771,List2B,white,woman,,TRUE,3,,,,,,,,,,
null,CORRECT,,html-keyboard-response,140,757288,0.0-14.1-14.1-0.1,10771,List2B,white,woman,,,,null,,,,,,,,,
2588.5,"<img src=""portrait/WM1.jpg""style=""height:400px;""></img>",6,html-button-response,141,759879,0.0-14.1-16.1,10771,List2B,white,woman,,TRUE,6,,,,,,,,,,
null,CORRECT,,html-keyboard-response,142,761404,0.0-14.1-17.1-0.1,10771,List2B,white,woman,,,,null,,,,,,,,,
1593.2,"<img src=""portrait/BM2.jpg""style=""height:400px;""></img>",5,html-button-response,143,762999,0.0-14.1-19.1,10771,List2B,white,woman,,TRUE,5,,,,,,,,,,
null,CORRECT,,html-keyboard-response,144,764520,0.0-14.1-20.1-0.1,10771,List2B,white,woman,,,,null,,,,,,,,,
1181.3,"<img src=""portrait/BW2.jpg""style=""height:400px;""></img>",2,html-button-response,145,765703,0.0-14.1-22.1,10771,List2B,white,woman,,TRUE,2,,,,,,,,,,
null,CORRECT,,html-keyboard-response,146,767213,0.0-14.1-23.1-0.1,10771,List2B,white,woman,,,,null,,,,,,,,,
1119,<p>You got 8 out of 8 right first time. Press Continue.</p>,0,html-button-response,147,768334,0.0-14.1-25.1,10771,List2B,white,woman,,,,,,,,,,,,,
null,"<div style=""font-size:60px;"">+</div>",,html-keyboard-response,148,769865,0.0-15.0-0.0,10771,List2B,white,woman,,,,null,,,,,,,,,
null,"<img src=""stim_listB/hug1.gif""style=""height:400px;""></stim_listB>",,html-keyboard-response,149,771870,0.0-15.0-1.0,10771,List2B,white,woman,,,,null,,,,,,,,,
null,is hugging,,html-keyboard-response,150,773880,0.0-15.0-2.0,10771,List2B,white,woman,,,,null,,,,,,,,,
10924.1,,,survey-text,151,784807,0.0-15.0-3.0,10771,List2B,white,woman,,,,,"{""Q0"":""Ruth is hugging Luke.""}","<img src=""stim_listB/hug1.gif""style=""height:400px;""></stim_listB>",is hugging,,,,,,
null,"<div style=""font-size:60px;"">+</div>",,html-keyboard-response,152,785312,0.0-15.0-0.1,10771,List2B,white,woman,,,,null,,,,,,,,,
null,"<img src=""stim_listB/challenge1.gif""style=""height:400px;""></stim_listB>",,html-keyboard-response,153,787328,0.0-15.0-1.1,10771,List2B,white,woman,,,,null,,,,,,,,,
null,is challenging,,html-keyboard-response,154,789336,0.0-15.0-2.1,10771,List2B,white,woman,,,,null,,,,,,,,,
7748.7,,,survey-text,155,797087,0.0-15.0-3.1,10771,List2B,white,woman,,,,,"{""Q0"":""Dave is challenging Ruth.""}","<img src=""stim_listB/challenge1.gif""style=""height:400px;""></stim_listB>",is challenging,,,,,,
null,"<div style=""font-size:60px;"">+</div>",,html-keyboard-response,156,797597,0.0-15.0-0.2,10771,List2B,white,woman,,,,null,,,,,,,,,
null,"<img src=""stim_listB/look5.gif""style=""height:400px;""></stim_listB>",,html-keyboard-response,157,799606,0.0-15.0-1.2,10771,List2B,white,woman,,,,null,,,,,,,,,
null,is looking at,,html-keyboard-response,158,801622,0.0-15.0-2.2,10771,List2B,white,woman,,,,null,,,,,,,,,
7454.1,,,survey-text,159,809078,0.0-15.0-3.2,10771,List2B,white,woman,,,,,"{""Q0"":""Luke is looking at Fred.""}","<img src=""stim_listB/look5.gif""style=""height:400px;""></stim_listB>",is looking at,,,,,,
null,"<div style=""font-size:60px;"">+</div>",,html-keyboard-response,160,809586,0.0-15.0-0.3,10771,List2B,white,woman,,,,null,,,,,,,,,
null,"<img src=""stim_listB/look3.gif""style=""height:400px;""></stim_listB>",,html-keyboard-response,161,811594,0.0-15.0-1.3,10771,List2B,white,woman,,,,null,,,,,,,,,
null,is looking at,,html-keyboard-response,162,813598,0.0-15.0-2.3,10771,List2B,white,woman,,,,null,,,,,,,,,
8637.4,,,survey-text,163,822237,0.0-15.0-3.3,10771,List2B,white,woman,,,,,"{""Q0"":""Beth is looking at Fred.""}","<img src=""stim_listB/look3.gif""style=""height:400px;""></stim_listB>",is looking at,,,,,,
null,"<div style=""font-size:60px;"">+</div>",,html-keyboard-response,164,822743,0.0-15.0-0.4,10771,List2B,white,woman,,,,null,,,,,,,,,
null,"<img src=""stim_listB/shout8.gif""style=""height:400px;""></stim_listB>",,html-keyboard-response,165,824754,0.0-15.0-1.4,10771,List2B,white,woman,,,,null,,,,,,,,,
null,is being shouted at by,,html-keyboard-response,166,826755,0.0-15.0-2.4,10771,List2B,white,woman,,,,null,,,,,,,,,
10512.5,,,survey-text,167,837269,0.0-15.0-3.4,10771,List2B,white,woman,,,,,"{""Q0"":""Kate is being shouted at by Jane. ""}","<img src=""stim_listB/shout8.gif""style=""height:400px;""></stim_listB>",is being shouted at by,,,,,,
null,"<div style=""font-size:60px;"">+</div>",,html-keyboard-response,168,837772,0.0-15.0-0.5,10771,List2B,white,woman,,,,null,,,,,,,,,
null,"<img src=""stim_listB/challenge4.gif""style=""height:400px;""></stim_listB>",,html-keyboard-response,169,839777,0.0-15.0-1.5,10771,List2B,white,woman,,,,null,,,,,,,,,
null,is being challenged by,,html-keyboard-response,170,841781,0.0-15.0-2.5,10771,List2B,white,woman,,,,null,,,,,,,,,
16528.3,,,survey-text,171,858312,0.0-15.0-3.5,10771,List2B,white,woman,,,,,"{""Q0"":""Kate is being challenged by Fred.""}","<img src=""stim_listB/challenge4.gif""style=""height:400px;""></stim_listB>",is being challenged by,,,,,,
null,"<div style=""font-size:60px;"">+</div>",,html-keyboard-response,172,858814,0.0-15.0-0.6,10771,List2B,white,woman,,,,null,,,,,,,,,
null,"<img src=""stim_listB/oppose8.gif""style=""height:400px;""></stim_listB>",,html-keyboard-response,173,860826,0.0-15.0-1.6,10771,List2B,white,woman,,,,null,,,,,,,,,
null,is being opposed by,,html-keyboard-response,174,862831,0.0-15.0-2.6,10771,List2B,white,woman,,,,null,,,,,,,,,
9380.4,,,survey-text,175,872211,0.0-15.0-3.6,10771,List2B,white,woman,,,,,"{""Q0"":""Beth is being opposed by Ruth.""}","<img src=""stim_listB/oppose8.gif""style=""height:400px;""></stim_listB>",is being opposed by,,,,,,
null,"<div style=""font-size:60px;"">+</div>",,html-keyboard-response,176,872723,0.0-15.0-0.7,10771,List2B,white,woman,,,,null,,,,,,,,,
null,"<img src=""stim_listB/kiss3.gif""style=""height:400px;""></stim_listB>",,html-keyboard-response,177,874726,0.0-15.0-1.7,10771,List2B,white,woman,,,,null,,,,,,,,,
null,is kissing,,html-keyboard-response,178,876730,0.0-15.0-2.7,10771,List2B,white,woman,,,,null,,,,,,,,,
7069.9,,,survey-text,179,883802,0.0-15.0-3.7,10771,List2B,white,woman,,,,,"{""Q0"":""Beth is kissing Fred.""}","<img src=""stim_listB/kiss3.gif""style=""height:400px;""></stim_listB>",is kissing,,,,,,
null,"<div style=""font-size:60px;"">+</div>",,html-keyboard-response,180,884310,0.0-15.0-0.8,10771,List2B,white,woman,,,,null,,,,,,,,,
null,"<img src=""stim_listB/hug4.gif""style=""height:400px;""></stim_listB>",,html-keyboard-response,181,886320,0.0-15.0-1.8,10771,List2B,white,woman,,,,null,,,,,,,,,
null,is being hugged by,,html-keyboard-response,182,888325,0.0-15.0-2.8,10771,List2B,white,woman,,,,null,,,,,,,,,
15503.7,,,survey-text,183,903831,0.0-15.0-3.8,10771,List2B,white,woman,,,,,"{""Q0"":""Kate is being hugged by Mike. ""}","<img src=""stim_listB/hug4.gif""style=""height:400px;""></stim_listB>",is being hugged by,,,,,,
null,"<div style=""font-size:60px;"">+</div>",,html-keyboard-response,184,904334,0.0-15.0-0.9,10771,List2B,white,woman,,,,null,,,,,,,,,
null,"<img src=""stim_listB/touch7.gif""style=""height:400px;""></stim_listB>",,html-keyboard-response,185,906351,0.0-15.0-1.9,10771,List2B,white,woman,,,,null,,,,,,,,,
null,is touching,,html-keyboard-response,186,908364,0.0-15.0-2.9,10771,List2B,white,woman,,,,null,,,,,,,,,
6736.5,,,survey-text,187,915103,0.0-15.0-3.9,10771,List2B,white,woman,,,,,"{""Q0"":""Jane is touching Kate.""}","<img src=""stim_listB/touch7.gif""style=""height:400px;""></stim_listB>",is touching,,,,,,
null,"<div style=""font-size:60px;"">+</div>",,html-keyboard-response,188,915606,0.0-15.0-0.10,10771,List2B,white,woman,,,,null,,,,,,,,,
null,"<img src=""stim_listB/greet8.gif""style=""height:400px;""></stim_listB>",,html-keyboard-response,189,917620,0.0-15.0-1.10,10771,List2B,white,woman,,,,null,,,,,,,,,
null,is being greeted by,,html-keyboard-response,190,919635,0.0-15.0-2.10,10771,List2B,white,woman,,,,null,,,,,,,,,
14038.5,,,survey-text,191,933672,0.0-15.0-3.10,10771,List2B,white,woman,,,,,"{""Q0"":""Ruth is being greeted by Kate.""}","<img src=""stim_listB/greet8.gif""style=""height:400px;""></stim_listB>",is being greeted by,,,,,,
null,"<div style=""font-size:60px;"">+</div>",,html-keyboard-response,192,934174,0.0-15.0-0.11,10771,List2B,white,woman,,,,null,,,,,,,,,
null,"<img src=""stim_listB/copy4.gif""style=""height:400px;""></stim_listB>",,html-keyboard-response,193,936187,0.0-15.0-1.11,10771,List2B,white,woman,,,,null,,,,,,,,,
null,is being copied by,,html-keyboard-response,194,938190,0.0-15.0-2.11,10771,List2B,white,woman,,,,null,,,,,,,,,
10359,,,survey-text,195,948552,0.0-15.0-3.11,10771,List2B,white,woman,,,,,"{""Q0"":""Fred is being copied by Kate.""}","<img src=""stim_listB/copy4.gif""style=""height:400px;""></stim_listB>",is being copied by,,,,,,
null,"<div style=""font-size:60px;"">+</div>",,html-keyboard-response,196,949060,0.0-15.0-0.12,10771,List2B,white,woman,,,,null,,,,,,,,,
null,"<img src=""stim_listB/kiss2.gif""style=""height:400px;""></stim_listB>",,html-keyboard-response,197,951071,0.0-15.0-1.12,10771,List2B,white,woman,,,,null,,,,,,,,,
null,is being kissed by,,html-keyboard-response,198,953073,0.0-15.0-2.12,10771,List2B,white,woman,,,,null,,,,,,,,,
13515.5,,,survey-text,199,966592,0.0-15.0-3.12,10771,List2B,white,woman,,,,,"{""Q0"":""Dave is being kissed by Jane. ""}","<img src=""stim_listB/kiss2.gif""style=""height:400px;""></stim_listB>",is being kissed by,,,,,,
null,"<div style=""font-size:60px;"">+</div>",,html-keyboard-response,200,967094,0.0-15.0-0.13,10771,List2B,white,woman,,,,null,,,,,,,,,
null,"<img src=""stim_listB/seduce6.gif""style=""height:400px;""></stim_listB>",,html-keyboard-response,201,969108,0.0-15.0-1.13,10771,List2B,white,woman,,,,null,,,,,,,,,
null,is being seduced by,,html-keyboard-response,202,971118,0.0-15.0-2.13,10771,List2B,white,woman,,,,null,,,,,,,,,
15638.4,,,survey-text,203,986760,0.0-15.0-3.13,10771,List2B,white,woman,,,,,"{""Q0"":""Dave is being seduced by Fred.""}","<img src=""stim_listB/seduce6.gif""style=""height:400px;""></stim_listB>",is being seduced by,,,,,,
null,"<div style=""font-size:60px;"">+</div>",,html-keyboard-response,204,987268,0.0-15.0-0.14,10771,List2B,white,woman,,,,null,,,,,,,,,
null,"<img src=""stim_listB/kiss1.gif""style=""height:400px;""></stim_listB>",,html-keyboard-response,205,989271,0.0-15.0-1.14,10771,List2B,white,woman,,,,null,,,,,,,,,
null,is kissing,,html-keyboard-response,206,991278,0.0-15.0-2.14,10771,List2B,white,woman,,,,null,,,,,,,,,
5837,,,survey-text,207,997117,0.0-15.0-3.14,10771,List2B,white,woman,,,,,"{""Q0"":""Luke is kissing Ruth.""}","<img src=""stim_listB/kiss1.gif""style=""height:400px;""></stim_listB>",is kissing,,,,,,
null,"<div style=""font-size:60px;"">+</div>",,html-keyboard-response,208,997621,0.0-15.0-0.15,10771,List2B,white,woman,,,,null,,,,,,,,,
null,"<img src=""stim_listB/challenge5.gif""style=""height:400px;""></stim_listB>",,html-keyboard-response,209,999634,0.0-15.0-1.15,10771,List2B,white,woman,,,,null,,,,,,,,,
null,is challenging,,html-keyboard-response,210,1001640,0.0-15.0-2.15,10771,List2B,white,woman,,,,null,,,,,,,,,
8910.7,,,survey-text,211,1010553,0.0-15.0-3.15,10771,List2B,white,woman,,,,,"{""Q0"":""Dave is challenging Fred.""}","<img src=""stim_listB/challenge5.gif""style=""height:400px;""></stim_listB>",is challenging,,,,,,
null,"<div style=""font-size:60px;"">+</div>",,html-keyboard-response,212,1011056,0.0-15.0-0.16,10771,List2B,white,woman,,,,null,,,,,,,,,
null,"<img src=""stim_listB/greet3.gif""style=""height:400px;""></stim_listB>",,html-keyboard-response,213,1013066,0.0-15.0-1.16,10771,List2B,white,woman,,,,null,,,,,,,,,
null,is greeting,,html-keyboard-response,214,1015068,0.0-15.0-2.16,10771,List2B,white,woman,,,,null,,,,,,,,,
9031.5,,,survey-text,215,1024102,0.0-15.0-3.16,10771,List2B,white,woman,,,,,"{""Q0"":""Mike is greeting Beth.""}","<img src=""stim_listB/greet3.gif""style=""height:400px;""></stim_listB>",is greeting,,,,,,
null,"<div style=""font-size:60px;"">+</div>",,html-keyboard-response,216,1024607,0.0-15.0-0.17,10771,List2B,white,woman,,,,null,,,,,,,,,
null,"<img src=""stim_listB/seduce8.gif""style=""height:400px;""></stim_listB>",,html-keyboard-response,217,1026617,0.0-15.0-1.17,10771,List2B,white,woman,,,,null,,,,,,,,,
null,is being seduced by,,html-keyboard-response,218,1028621,0.0-15.0-2.17,10771,List2B,white,woman,,,,null,,,,,,,,,
16850.7,,,survey-text,219,1045474,0.0-15.0-3.17,10771,List2B,white,woman,,,,,"{""Q0"":""Beth is being seduced by Jane. ""}","<img src=""stim_listB/seduce8.gif""style=""height:400px;""></stim_listB>",is being seduced by,,,,,,
null,"<div style=""font-size:60px;"">+</div>",,html-keyboard-response,220,1045980,0.0-15.0-0.18,10771,List2B,white,woman,,,,null,,,,,,,,,
null,"<img src=""stim_listB/kiss5.gif""style=""height:400px;""></stim_listB>",,html-keyboard-response,221,1047987,0.0-15.0-1.18,10771,List2B,white,woman,,,,null,,,,,,,,,
null,is kissing,,html-keyboard-response,222,1049997,0.0-15.0-2.18,10771,List2B,white,woman,,,,null,,,,,,,,,
5918.5,,,survey-text,223,1055918,0.0-15.0-3.18,10771,List2B,white,woman,,,,,"{""Q0"":""Luke is kissing Fred.""}","<img src=""stim_listB/kiss5.gif""style=""height:400px;""></stim_listB>",is kissing,,,,,,
null,"<div style=""font-size:60px;"">+</div>",,html-keyboard-response,224,1056428,0.0-15.0-0.19,10771,List2B,white,woman,,,,null,,,,,,,,,
null,"<img src=""stim_listB/hug2.gif""style=""height:400px;""></stim_listB>",,html-keyboard-response,225,1058435,0.0-15.0-1.19,10771,List2B,white,woman,,,,null,,,,,,,,,
null,is being hugged by,,html-keyboard-response,226,1060443,0.0-15.0-2.19,10771,List2B,white,woman,,,,null,,,,,,,,,
6431.9,,,survey-text,227,1066878,0.0-15.0-3.19,10771,List2B,white,woman,,,,,"{""Q0"":""Dave is being hugged by Jane.""}","<img src=""stim_listB/hug2.gif""style=""height:400px;""></stim_listB>",is being hugged by,,,,,,
2642.2,"<img src='img/portrait_matrix_list2.jpg' style='width:900px;height:500px;''></img><p>If you have memorised all the portraits and names and are ready to start, press Continue.</p><p><strong>Please note: Your memory of these faces will be tested 4 times during this experiment.</strong></p>",0,html-button-response,228,1069522,0.0-16.0-0.0,10771,List2B,white,woman,,,,,,,,,,,,,
1590.9,"<img src=""portrait/BM2.jpg""style=""height:400px;""></img>",5,html-button-response,229,1072118,0.0-16.0-1.0,10771,List2B,white,woman,,TRUE,5,,,,,,,,,,
null,CORRECT,,html-keyboard-response,230,1073630,0.0-16.0-2.0-0.0,10771,List2B,white,woman,,,,null,,,,,,,,,
1666.5,"<img src=""portrait/WW1.jpg""style=""height:400px;""></img>",1,html-button-response,231,1075298,0.0-16.0-4.0,10771,List2B,white,woman,,TRUE,1,,,,,,,,,,
null,CORRECT,,html-keyboard-response,232,1076812,0.0-16.0-5.0-0.0,10771,List2B,white,woman,,,,null,,,,,,,,,
1791.8,"<img src=""portrait/BW1.jpg""style=""height:400px;""></img>",0,html-button-response,233,1078606,0.0-16.0-7.0,10771,List2B,white,woman,,TRUE,0,,,,,,,,,,
null,CORRECT,,html-keyboard-response,234,1080113,0.0-16.0-8.0-0.0,10771,List2B,white,woman,,,,null,,,,,,,,,
1567.1,"<img src=""portrait/WW2.jpg""style=""height:400px;""></img>",3,html-button-response,235,1081682,0.0-16.0-10.0,10771,List2B,white,woman,,TRUE,3,,,,,,,,,,
null,CORRECT,,html-keyboard-response,236,1083191,0.0-16.0-11.0-0.0,10771,List2B,white,woman,,,,null,,,,,,,,,
1532.7,"<img src=""portrait/WM2.jpg""style=""height:400px;""></img>",7,html-button-response,237,1084726,0.0-16.0-13.0,10771,List2B,white,woman,,TRUE,7,,,,,,,,,,
null,CORRECT,,html-keyboard-response,238,1086251,0.0-16.0-14.0-0.0,10771,List2B,white,woman,,,,null,,,,,,,,,
2780.8,"<img src=""portrait/BW2.jpg""style=""height:400px;""></img>",2,html-button-response,239,1089034,0.0-16.0-16.0,10771,List2B,white,woman,,TRUE,2,,,,,,,,,,
null,CORRECT,,html-keyboard-response,240,1090553,0.0-16.0-17.0-0.0,10771,List2B,white,woman,,,,null,,,,,,,,,
2298.3,"<img src=""portrait/WM1.jpg""style=""height:400px;""></img>",6,html-button-response,241,1092854,0.0-16.0-19.0,10771,List2B,white,woman,,TRUE,6,,,,,,,,,,
null,CORRECT,,html-keyboard-response,242,1094381,0.0-16.0-20.0-0.0,10771,List2B,white,woman,,,,null,,,,,,,,,
3527.1,"<img src=""portrait/BM1.jpg""style=""height:400px;""></img>",4,html-button-response,243,1097911,0.0-16.0-22.0,10771,List2B,white,woman,,TRUE,4,,,,,,,,,,
null,CORRECT,,html-keyboard-response,244,1099424,0.0-16.0-23.0-0.0,10771,List2B,white,woman,,,,null,,,,,,,,,
1127.5,<p>You got 8 out of 8 right first time. Press Continue.</p>,0,html-button-response,245,1100554,0.0-16.0-25.0,10771,List2B,white,woman,,,,,,,,,,,,,
null,"<div style=""font-size:60px;"">+</div>",,html-keyboard-response,246,1102083,0.0-17.0-0.0,10771,List2B,white,woman,,,,null,,,,,,,,,
null,"<img src=""stim_listB/seduce7.gif""style=""height:400px;""></stim_listB>",,html-keyboard-response,247,1104087,0.0-17.0-1.0,10771,List2B,white,woman,,,,null,,,,,,,,,
null,is seducing,,html-keyboard-response,248,1106091,0.0-17.0-2.0,10771,List2B,white,woman,,,,null,,,,,,,,,
24320.2,,,survey-text,249,1130412,0.0-17.0-3.0,10771,List2B,white,woman,,,,,"{""Q0"":""Ruth is being seduced by Kate.""}","<img src=""stim_listB/seduce7.gif""style=""height:400px;""></stim_listB>",is seducing,,,,,,
null,"<div style=""font-size:60px;"">+</div>",,html-keyboard-response,250,1130915,0.0-17.0-0.1,10771,List2B,white,woman,,,,null,,,,,,,,,
null,"<img src=""stim_listB/copy3.gif""style=""height:400px;""></stim_listB>",,html-keyboard-response,251,1132931,0.0-17.0-1.1,10771,List2B,white,woman,,,,null,,,,,,,,,
null,is copying,,html-keyboard-response,252,1134933,0.0-17.0-2.1,10771,List2B,white,woman,,,,null,,,,,,,,,
9995.8,,,survey-text,253,1144932,0.0-17.0-3.1,10771,List2B,white,woman,,,,,"{""Q0"":""Beth is copying Mike""}","<img src=""stim_listB/copy3.gif""style=""height:400px;""></stim_listB>",is copying,,,,,,
null,"<div style=""font-size:60px;"">+</div>",,html-keyboard-response,254,1145441,0.0-17.0-0.2,10771,List2B,white,woman,,,,null,,,,,,,,,
null,"<img src=""stim_listB/hug5.gif""style=""height:400px;""></stim_listB>",,html-keyboard-response,255,1147453,0.0-17.0-1.2,10771,List2B,white,woman,,,,null,,,,,,,,,
null,is hugging,,html-keyboard-response,256,1149467,0.0-17.0-2.2,10771,List2B,white,woman,,,,null,,,,,,,,,
7829.8,,,survey-text,257,1157300,0.0-17.0-3.2,10771,List2B,white,woman,,,,,"{""Q0"":""Fred is hugging Luke.""}","<img src=""stim_listB/hug5.gif""style=""height:400px;""></stim_listB>",is hugging,,,,,,
null,"<div style=""font-size:60px;"">+</div>",,html-keyboard-response,258,1157802,0.0-17.0-0.3,10771,List2B,white,woman,,,,null,,,,,,,,,
null,"<img src=""stim_listB/touch8.gif""style=""height:400px;""></stim_listB>",,html-keyboard-response,259,1159812,0.0-17.0-1.3,10771,List2B,white,woman,,,,null,,,,,,,,,
null,is being touched by,,html-keyboard-response,260,1161821,0.0-17.0-2.3,10771,List2B,white,woman,,,,null,,,,,,,,,
11109,,,survey-text,261,1172932,0.0-17.0-3.3,10771,List2B,white,woman,,,,,"{""Q0"":""Ruth is being touched by Kate. ""}","<img src=""stim_listB/touch8.gif""style=""height:400px;""></stim_listB>",is being touched by,,,,,,
null,"<div style=""font-size:60px;"">+</div>",,html-keyboard-response,262,1173447,0.0-17.0-0.4,10771,List2B,white,woman,,,,null,,,,,,,,,
null,"<img src=""stim_listB/look7.gif""style=""height:400px;""></stim_listB>",,html-keyboard-response,263,1175453,0.0-17.0-1.4,10771,List2B,white,woman,,,,null,,,,,,,,,
null,is looking at,,html-keyboard-response,264,1177457,0.0-17.0-2.4,10771,List2B,white,woman,,,,null,,,,,,,,,
8024.5,,,survey-text,265,1185485,0.0-17.0-3.4,10771,List2B,white,woman,,,,,"{""Q0"":""Ruth is looking at Beth. ""}","<img src=""stim_listB/look7.gif""style=""height:400px;""></stim_listB>",is looking at,,,,,,
null,"<div style=""font-size:60px;"">+</div>",,html-keyboard-response,266,1185997,0.0-17.0-0.5,10771,List2B,white,woman,,,,null,,,,,,,,,
null,"<img src=""stim_listB/greet5.gif""style=""height:400px;""></stim_listB>",,html-keyboard-response,267,1188015,0.0-17.0-1.5,10771,List2B,white,woman,,,,null,,,,,,,,,
null,is greeting,,html-keyboard-response,268,1190016,0.0-17.0-2.5,10771,List2B,white,woman,,,,null,,,,,,,,,
11432.8,,,survey-text,269,1201452,0.0-17.0-3.5,10771,List2B,white,woman,,,,,"{""Q0"":""Dave is greeting Fred.""}","<img src=""stim_listB/greet5.gif""style=""height:400px;""></stim_listB>",is greeting,,,,,,
null,"<div style=""font-size:60px;"">+</div>",,html-keyboard-response,270,1201963,0.0-17.0-0.6,10771,List2B,white,woman,,,,null,,,,,,,,,
null,"<img src=""stim_listB/copy2.gif""style=""height:400px;""></stim_listB>",,html-keyboard-response,271,1203973,0.0-17.0-1.6,10771,List2B,white,woman,,,,null,,,,,,,,,
null,is being copied by,,html-keyboard-response,272,1205992,0.0-17.0-2.6,10771,List2B,white,woman,,,,null,,,,,,,,,
10329.7,,,survey-text,273,1216324,0.0-17.0-3.6,10771,List2B,white,woman,,,,,"{""Q0"":""Jane is being copied by Luke. ""}","<img src=""stim_listB/copy2.gif""style=""height:400px;""></stim_listB>",is being copied by,,,,,,
null,"<div style=""font-size:60px;"">+</div>",,html-keyboard-response,274,1216843,0.0-17.0-0.7,10771,List2B,white,woman,,,,null,,,,,,,,,
null,"<img src=""stim_listB/copy8.gif""style=""height:400px;""></stim_listB>",,html-keyboard-response,275,1218857,0.0-17.0-1.7,10771,List2B,white,woman,,,,null,,,,,,,,,
null,is being copied by,,html-keyboard-response,276,1220870,0.0-17.0-2.7,10771,List2B,white,woman,,,,null,,,,,,,,,
12339.2,,,survey-text,277,1233211,0.0-17.0-3.7,10771,List2B,white,woman,,,,,"{""Q0"":""Ruth is being copied by Kate. ""}","<img src=""stim_listB/copy8.gif""style=""height:400px;""></stim_listB>",is being copied by,,,,,,
null,"<div style=""font-size:60px;"">+</div>",,html-keyboard-response,278,1233716,0.0-17.0-0.8,10771,List2B,white,woman,,,,null,,,,,,,,,
null,"<img src=""stim_listB/greet4.gif""style=""height:400px;""></stim_listB>",,html-keyboard-response,279,1235733,0.0-17.0-1.8,10771,List2B,white,woman,,,,null,,,,,,,,,
null,is being greeted by,,html-keyboard-response,280,1237747,0.0-17.0-2.8,10771,List2B,white,woman,,,,null,,,,,,,,,
14933.5,,,survey-text,281,1252683,0.0-17.0-3.8,10771,List2B,white,woman,,,,,"{""Q0"":""Fred is being greeted by Kate. ""}","<img src=""stim_listB/greet4.gif""style=""height:400px;""></stim_listB>",is being greeted by,,,,,,
null,"<div style=""font-size:60px;"">+</div>",,html-keyboard-response,282,1253193,0.0-17.0-0.9,10771,List2B,white,woman,,,,null,,,,,,,,,
null,"<img src=""stim_listB/touch2.gif""style=""height:400px;""></stim_listB>",,html-keyboard-response,283,1255206,0.0-17.0-1.9,10771,List2B,white,woman,,,,null,,,,,,,,,
null,is being touched by,,html-keyboard-response,284,1257211,0.0-17.0-2.9,10771,List2B,white,woman,,,,null,,,,,,,,,
12374.3,,,survey-text,285,1269587,0.0-17.0-3.9,10771,List2B,white,woman,,,,,"{""Q0"":""Luke is being touched by Ruth.""}","<img src=""stim_listB/touch2.gif""style=""height:400px;""></stim_listB>",is being touched by,,,,,,
null,"<div style=""font-size:60px;"">+</div>",,html-keyboard-response,286,1270098,0.0-17.0-0.10,10771,List2B,white,woman,,,,null,,,,,,,,,
null,"<img src=""stim_listB/greet1.gif""style=""height:400px;""></stim_listB>",,html-keyboard-response,287,1272106,0.0-17.0-1.10,10771,List2B,white,woman,,,,null,,,,,,,,,
null,is greeting,,html-keyboard-response,288,1274114,0.0-17.0-2.10,10771,List2B,white,woman,,,,null,,,,,,,,,
15559.6,,,survey-text,289,1289677,0.0-17.0-3.10,10771,List2B,white,woman,,,,,"{""Q0"":""Dave is greeting Ruth. ""}","<img src=""stim_listB/greet1.gif""style=""height:400px;""></stim_listB>",is greeting,,,,,,
null,"<div style=""font-size:60px;"">+</div>",,html-keyboard-response,290,1290190,0.0-17.0-0.11,10771,List2B,white,woman,,,,null,,,,,,,,,
null,"<img src=""stim_listB/kiss7.gif""style=""height:400px;""></stim_listB>",,html-keyboard-response,291,1292195,0.0-17.0-1.11,10771,List2B,white,woman,,,,null,,,,,,,,,
null,is kissing,,html-keyboard-response,292,1294208,0.0-17.0-2.11,10771,List2B,white,woman,,,,null,,,,,,,,,
8669.5,,,survey-text,293,1302880,0.0-17.0-3.11,10771,List2B,white,woman,,,,,"{""Q0"":""Ruth is kissing Beth.""}","<img src=""stim_listB/kiss7.gif""style=""height:400px;""></stim_listB>",is kissing,,,,,,
null,"<div style=""font-size:60px;"">+</div>",,html-keyboard-response,294,1303387,0.0-17.0-0.12,10771,List2B,white,woman,,,,null,,,,,,,,,
null,"<img src=""stim_listB/oppose6.gif""style=""height:400px;""></stim_listB>",,html-keyboard-response,295,1305391,0.0-17.0-1.12,10771,List2B,white,woman,,,,null,,,,,,,,,
null,is being opposed by,,html-keyboard-response,296,1307396,0.0-17.0-2.12,10771,List2B,white,woman,,,,null,,,,,,,,,
7278.1,,,survey-text,297,1314676,0.0-17.0-3.12,10771,List2B,white,woman,,,,,"{""Q0"":""Fred is opposing Luke. ""}","<img src=""stim_listB/oppose6.gif""style=""height:400px;""></stim_listB>",is being opposed by,,,,,,
null,"<div style=""font-size:60px;"">+</div>",,html-keyboard-response,298,1315179,0.0-17.0-0.13,10771,List2B,white,woman,,,,null,,,,,,,,,
null,"<img src=""stim_listB/shout6.gif""style=""height:400px;""></stim_listB>",,html-keyboard-response,299,1317193,0.0-17.0-1.13,10771,List2B,white,woman,,,,null,,,,,,,,,
null,is being shouted at by,,html-keyboard-response,300,1319195,0.0-17.0-2.13,10771,List2B,white,woman,,,,null,,,,,,,,,
11997.6,,,survey-text,301,1331195,0.0-17.0-3.13,10771,List2B,white,woman,,,,,"{""Q0"":""Dave is being shouted at by Mike. ""}","<img src=""stim_listB/shout6.gif""style=""height:400px;""></stim_listB>",is being shouted at by,,,,,,
null,"<div style=""font-size:60px;"">+</div>",,html-keyboard-response,302,1331708,0.0-17.0-0.14,10771,List2B,white,woman,,,,null,,,,,,,,,
null,"<img src=""stim_listB/shout5.gif""style=""height:400px;""></stim_listB>",,html-keyboard-response,303,1333718,0.0-17.0-1.14,10771,List2B,white,woman,,,,null,,,,,,,,,
null,is shouting at,,html-keyboard-response,304,1335730,0.0-17.0-2.14,10771,List2B,white,woman,,,,null,,,,,,,,,
7759.9,,,survey-text,305,1343492,0.0-17.0-3.14,10771,List2B,white,woman,,,,,"{""Q0"":""Fred is shouting at Luke. ""}","<img src=""stim_listB/shout5.gif""style=""height:400px;""></stim_listB>",is shouting at,,,,,,
null,"<div style=""font-size:60px;"">+</div>",,html-keyboard-response,306,1343996,0.0-17.0-0.15,10771,List2B,white,woman,,,,null,,,,,,,,,
null,"<img src=""stim_listB/look1.gif""style=""height:400px;""></stim_listB>",,html-keyboard-response,307,1346002,0.0-17.0-1.15,10771,List2B,white,woman,,,,null,,,,,,,,,
null,is looking at,,html-keyboard-response,308,1348006,0.0-17.0-2.15,10771,List2B,white,woman,,,,null,,,,,,,,,
10395.8,,,survey-text,309,1358404,0.0-17.0-3.15,10771,List2B,white,woman,,,,,"{""Q0"":""Ruth is looking at Luke. ""}","<img src=""stim_listB/look1.gif""style=""height:400px;""></stim_listB>",is looking at,,,,,,
null,"<div style=""font-size:60px;"">+</div>",,html-keyboard-response,310,1358908,0.0-17.0-0.16,10771,List2B,white,woman,,,,null,,,,,,,,,
null,"<img src=""stim_listB/challenge7.gif""style=""height:400px;""></stim_listB>",,html-keyboard-response,311,1360921,0.0-17.0-1.16,10771,List2B,white,woman,,,,null,,,,,,,,,
null,is challenging,,html-keyboard-response,312,1362930,0.0-17.0-2.16,10771,List2B,white,woman,,,,null,,,,,,,,,
5759.6,,,survey-text,313,1368692,0.0-17.0-3.16,10771,List2B,white,woman,,,,,"{""Q0"":""Jane is challenging Beth. ""}","<img src=""stim_listB/challenge7.gif""style=""height:400px;""></stim_listB>",is challenging,,,,,,
null,"<div style=""font-size:60px;"">+</div>",,html-keyboard-response,314,1369210,0.0-17.0-0.17,10771,List2B,white,woman,,,,null,,,,,,,,,
null,"<img src=""stim_listB/oppose3.gif""style=""height:400px;""></stim_listB>",,html-keyboard-response,315,1371220,0.0-17.0-1.17,10771,List2B,white,woman,,,,null,,,,,,,,,
null,is opposing,,html-keyboard-response,316,1373222,0.0-17.0-2.17,10771,List2B,white,woman,,,,null,,,,,,,,,
7042.3,,,survey-text,317,1380268,0.0-17.0-3.17,10771,List2B,white,woman,,,,,"{""Q0"":""Mike is opposing Kate.""}","<img src=""stim_listB/oppose3.gif""style=""height:400px;""></stim_listB>",is opposing,,,,,,
null,"<div style=""font-size:60px;"">+</div>",,html-keyboard-response,318,1380769,0.0-17.0-0.18,10771,List2B,white,woman,,,,null,,,,,,,,,
null,"<img src=""stim_listB/copy1.gif""style=""height:400px;""></stim_listB>",,html-keyboard-response,319,1382786,0.0-17.0-1.18,10771,List2B,white,woman,,,,null,,,,,,,,,
null,is copying,,html-keyboard-response,320,1384803,0.0-17.0-2.18,10771,List2B,white,woman,,,,null,,,,,,,,,
7302,,,survey-text,321,1392108,0.0-17.0-3.18,10771,List2B,white,woman,,,,,"{""Q0"":""Dave is copying Kate.""}","<img src=""stim_listB/copy1.gif""style=""height:400px;""></stim_listB>",is copying,,,,,,
null,"<div style=""font-size:60px;"">+</div>",,html-keyboard-response,322,1392620,0.0-17.0-0.19,10771,List2B,white,woman,,,,null,,,,,,,,,
null,"<img src=""stim_listB/hug3.gif""style=""height:400px;""></stim_listB>",,html-keyboard-response,323,1394626,0.0-17.0-1.19,10771,List2B,white,woman,,,,null,,,,,,,,,
null,is hugging,,html-keyboard-response,324,1396633,0.0-17.0-2.19,10771,List2B,white,woman,,,,null,,,,,,,,,
8376.8,,,survey-text,325,1405012,0.0-17.0-3.19,10771,List2B,white,woman,,,,,"{""Q0"":""Beth is hugging Fred.""}","<img src=""stim_listB/hug3.gif""style=""height:400px;""></stim_listB>",is hugging,,,,,,
1533.3,"<img src='img/portrait_matrix_list2.jpg' style='width:900px;height:500px;''></img><p>If you have memorised all the portraits and names and are ready to start, press Continue.</p><p><strong>Please note: Your memory of these faces will be tested 4 times during this experiment.</strong></p>",0,html-button-response,326,1406547,0.0-18.0-0.0,10771,List2B,white,woman,,,,,,,,,,,,,
2234.3,"<img src=""portrait/BW2.jpg""style=""height:400px;""></img>",2,html-button-response,327,1409780,0.0-18.0-1.0,10771,List2B,white,woman,,TRUE,2,,,,,,,,,,
null,CORRECT,,html-keyboard-response,328,1411299,0.0-18.0-2.0-0.0,10771,List2B,white,woman,,,,null,,,,,,,,,
1695.3,"<img src=""portrait/BW1.jpg""style=""height:400px;""></img>",0,html-button-response,329,1412996,0.0-18.0-4.0,10771,List2B,white,woman,,TRUE,0,,,,,,,,,,
null,CORRECT,,html-keyboard-response,330,1414503,0.0-18.0-5.0-0.0,10771,List2B,white,woman,,,,null,,,,,,,,,
1591,"<img src=""portrait/WM2.jpg""style=""height:400px;""></img>",7,html-button-response,331,1416096,0.0-18.0-7.0,10771,List2B,white,woman,,TRUE,7,,,,,,,,,,
null,CORRECT,,html-keyboard-response,332,1417603,0.0-18.0-8.0-0.0,10771,List2B,white,woman,,,,null,,,,,,,,,
1283.7,"<img src=""portrait/BM2.jpg""style=""height:400px;""></img>",5,html-button-response,333,1418889,0.0-18.0-10.0,10771,List2B,white,woman,,TRUE,5,,,,,,,,,,
null,CORRECT,,html-keyboard-response,334,1420410,0.0-18.0-11.0-0.0,10771,List2B,white,woman,,,,null,,,,,,,,,
1840.7,"<img src=""portrait/WM1.jpg""style=""height:400px;""></img>",6,html-button-response,335,1422252,0.0-18.0-13.0,10771,List2B,white,woman,,TRUE,6,,,,,,,,,,
null,CORRECT,,html-keyboard-response,336,1423767,0.0-18.0-14.0-0.0,10771,List2B,white,woman,,,,null,,,,,,,,,
1435.6,"<img src=""portrait/WW2.jpg""style=""height:400px;""></img>",3,html-button-response,337,1425204,0.0-18.0-16.0,10771,List2B,white,woman,,TRUE,3,,,,,,,,,,
null,CORRECT,,html-keyboard-response,338,1426724,0.0-18.0-17.0-0.0,10771,List2B,white,woman,,,,null,,,,,,,,,
1750.5,"<img src=""portrait/BM1.jpg""style=""height:400px;""></img>",4,html-button-response,339,1428476,0.0-18.0-19.0,10771,List2B,white,woman,,TRUE,4,,,,,,,,,,
null,CORRECT,,html-keyboard-response,340,1429990,0.0-18.0-20.0-0.0,10771,List2B,white,woman,,,,null,,,,,,,,,
1688.3,"<img src=""portrait/WW1.jpg""style=""height:400px;""></img>",1,html-button-response,341,1431680,0.0-18.0-22.0,10771,List2B,white,woman,,TRUE,1,,,,,,,,,,
null,CORRECT,,html-keyboard-response,342,1433201,0.0-18.0-23.0-0.0,10771,List2B,white,woman,,,,null,,,,,,,,,
2176.3,<p>You got 8 out of 8 right first time. Press Continue.</p>,0,html-button-response,343,1435380,0.0-18.0-25.0,10771,List2B,white,woman,,,,,,,,,,,,,
null,"<div style=""font-size:60px;"">+</div>",,html-keyboard-response,344,1436887,0.0-19.0-0.0,10771,List2B,white,woman,,,,null,,,,,,,,,
null,"<img src=""stim_listB/greet6.gif""style=""height:400px;""></stim_listB>",,html-keyboard-response,345,1438898,0.0-19.0-1.0,10771,List2B,white,woman,,,,null,,,,,,,,,
null,is being greeted by,,html-keyboard-response,346,1440911,0.0-19.0-2.0,10771,List2B,white,woman,,,,null,,,,,,,,,
14930.8,,,survey-text,347,1455844,0.0-19.0-3.0,10771,List2B,white,woman,,,,,"{""Q0"":""Luke is being greeted by Mike. ""}","<img src=""stim_listB/greet6.gif""style=""height:400px;""></stim_listB>",is being greeted by,,,,,,
null,"<div style=""font-size:60px;"">+</div>",,html-keyboard-response,348,1456346,0.0-19.0-0.1,10771,List2B,white,woman,,,,null,,,,,,,,,
null,"<img src=""stim_listB/challenge2.gif""style=""height:400px;""></stim_listB>",,html-keyboard-response,349,1458356,0.0-19.0-1.1,10771,List2B,white,woman,,,,null,,,,,,,,,
null,is being challenged by,,html-keyboard-response,350,1460357,0.0-19.0-2.1,10771,List2B,white,woman,,,,null,,,,,,,,,
9516.4,,,survey-text,351,1469874,0.0-19.0-3.1,10771,List2B,white,woman,,,,,"{""Q0"":""Jane is being challenged by Luke. ""}","<img src=""stim_listB/challenge2.gif""style=""height:400px;""></stim_listB>",is being challenged by,,,,,,
null,"<div style=""font-size:60px;"">+</div>",,html-keyboard-response,352,1470379,0.0-19.0-0.2,10771,List2B,white,woman,,,,null,,,,,,,,,
null,"<img src=""stim_listB/shout7.gif""style=""height:400px;""></stim_listB>",,html-keyboard-response,353,1472386,0.0-19.0-1.2,10771,List2B,white,woman,,,,null,,,,,,,,,
null,is shouting at,,html-keyboard-response,354,1474389,0.0-19.0-2.2,10771,List2B,white,woman,,,,null,,,,,,,,,
17810.6,,,survey-text,355,1492203,0.0-19.0-3.2,10771,List2B,white,woman,,,,,"{""Q0"":""Beth is being shouted at by Ruth.""}","<img src=""stim_listB/shout7.gif""style=""height:400px;""></stim_listB>",is shouting at,,,,,,
null,"<div style=""font-size:60px;"">+</div>",,html-keyboard-response,356,1492705,0.0-19.0-0.3,10771,List2B,white,woman,,,,null,,,,,,,,,
null,"<img src=""stim_listB/greet2.gif""style=""height:400px;""></stim_listB>",,html-keyboard-response,357,1494717,0.0-19.0-1.3,10771,List2B,white,woman,,,,null,,,,,,,,,
null,is being greeted by,,html-keyboard-response,358,1496725,0.0-19.0-2.3,10771,List2B,white,woman,,,,null,,,,,,,,,
11754.9,,,survey-text,359,1508483,0.0-19.0-3.3,10771,List2B,white,woman,,,,,"{""Q0"":""Luke is being greeted by Jane. ""}","<img src=""stim_listB/greet2.gif""style=""height:400px;""></stim_listB>",is being greeted by,,,,,,
null,"<div style=""font-size:60px;"">+</div>",,html-keyboard-response,360,1508998,0.0-19.0-0.4,10771,List2B,white,woman,,,,null,,,,,,,,,
null,"<img src=""stim_listB/touch1.gif""style=""height:400px;""></stim_listB>",,html-keyboard-response,361,1511002,0.0-19.0-1.4,10771,List2B,white,woman,,,,null,,,,,,,,,
null,is touching,,html-keyboard-response,362,1513008,0.0-19.0-2.4,10771,List2B,white,woman,,,,null,,,,,,,,,
6791.2,,,survey-text,363,1519802,0.0-19.0-3.4,10771,List2B,white,woman,,,,,"{""Q0"":""Dave is touching Jane.""}","<img src=""stim_listB/touch1.gif""style=""height:400px;""></stim_listB>",is touching,,,,,,
null,"<div style=""font-size:60px;"">+</div>",,html-keyboard-response,364,1520313,0.0-19.0-0.5,10771,List2B,white,woman,,,,null,,,,,,,,,
null,"<img src=""stim_listB/shout4.gif""style=""height:400px;""></stim_listB>",,html-keyboard-response,365,1522320,0.0-19.0-1.5,10771,List2B,white,woman,,,,null,,,,,,,,,
null,is being shouted at by,,html-keyboard-response,366,1524322,0.0-19.0-2.5,10771,List2B,white,woman,,,,null,,,,,,,,,
16342,,,survey-text,367,1540671,0.0-19.0-3.5,10771,List2B,white,woman,,,,,"{""Q0"":""Mike is being shouted at by Kate. ""}","<img src=""stim_listB/shout4.gif""style=""height:400px;""></stim_listB>",is being shouted at by,,,,,,
null,"<div style=""font-size:60px;"">+</div>",,html-keyboard-response,368,1541187,0.0-19.0-0.6,10771,List2B,white,woman,,,,null,,,,,,,,,
null,"<img src=""stim_listB/oppose2.gif""style=""height:400px;""></stim_listB>",,html-keyboard-response,369,1543196,0.0-19.0-1.6,10771,List2B,white,woman,,,,null,,,,,,,,,
null,is being opposed by,,html-keyboard-response,370,1545211,0.0-19.0-2.6,10771,List2B,white,woman,,,,null,,,,,,,,,
10186.3,,,survey-text,371,1555400,0.0-19.0-3.6,10771,List2B,white,woman,,,,,"{""Q0"":""Luke is being opposed by Kate. ""}","<img src=""stim_listB/oppose2.gif""style=""height:400px;""></stim_listB>",is being opposed by,,,,,,
null,"<div style=""font-size:60px;"">+</div>",,html-keyboard-response,372,1555902,0.0-19.0-0.7,10771,List2B,white,woman,,,,null,,,,,,,,,
null,"<img src=""stim_listB/shout1.gif""style=""height:400px;""></stim_listB>",,html-keyboard-response,373,1557915,0.0-19.0-1.7,10771,List2B,white,woman,,,,null,,,,,,,,,
null,is shouting at,,html-keyboard-response,374,1559920,0.0-19.0-2.7,10771,List2B,white,woman,,,,null,,,,,,,,,
8101.1,,,survey-text,375,1568023,0.0-19.0-3.7,10771,List2B,white,woman,,,,,"{""Q0"":""Ruth is shouting at Luke. ""}","<img src=""stim_listB/shout1.gif""style=""height:400px;""></stim_listB>",is shouting at,,,,,,
null,"<div style=""font-size:60px;"">+</div>",,html-keyboard-response,376,1568525,0.0-19.0-0.8,10771,List2B,white,woman,,,,null,,,,,,,,,
null,"<img src=""stim_listB/seduce4.gif""style=""height:400px;""></stim_listB>",,html-keyboard-response,377,1570533,0.0-19.0-1.8,10771,List2B,white,woman,,,,null,,,,,,,,,
null,is being seduced by,,html-keyboard-response,378,1572550,0.0-19.0-2.8,10771,List2B,white,woman,,,,null,,,,,,,,,
10527.2,,,survey-text,379,1583079,0.0-19.0-3.8,10771,List2B,white,woman,,,,,"{""Q0"":""Mike is being seduced by Beth.""}","<img src=""stim_listB/seduce4.gif""style=""height:400px;""></stim_listB>",is being seduced by,,,,,,
null,"<div style=""font-size:60px;"">+</div>",,html-keyboard-response,380,1583593,0.0-19.0-0.9,10771,List2B,white,woman,,,,null,,,,,,,,,
null,"<img src=""stim_listB/challenge6.gif""style=""height:400px;""></stim_listB>",,html-keyboard-response,381,1585610,0.0-19.0-1.9,10771,List2B,white,woman,,,,null,,,,,,,,,
null,is being challenged by,,html-keyboard-response,382,1587619,0.0-19.0-2.9,10771,List2B,white,woman,,,,null,,,,,,,,,
10042.2,,,survey-text,383,1597658,0.0-19.0-3.9,10771,List2B,white,woman,,,,,"{""Q0"":""Luke is being challenged by Mike. ""}","<img src=""stim_listB/challenge6.gif""style=""height:400px;""></stim_listB>",is being challenged by,,,,,,
null,"<div style=""font-size:60px;"">+</div>",,html-keyboard-response,384,1598168,0.0-19.0-0.10,10771,List2B,white,woman,,,,null,,,,,,,,,
null,"<img src=""stim_listB/challenge3.gif""style=""height:400px;""></stim_listB>",,html-keyboard-response,385,1600176,0.0-19.0-1.10,10771,List2B,white,woman,,,,null,,,,,,,,,
null,is challenging,,html-keyboard-response,386,1602192,0.0-19.0-2.10,10771,List2B,white,woman,,,,null,,,,,,,,,
9102.3,,,survey-text,387,1611299,0.0-19.0-3.10,10771,List2B,white,woman,,,,,"{""Q0"":""Mike is challenging Beth.""}","<img src=""stim_listB/challenge3.gif""style=""height:400px;""></stim_listB>",is challenging,,,,,,
null,"<div style=""font-size:60px;"">+</div>",,html-keyboard-response,388,1611807,0.0-19.0-0.11,10771,List2B,white,woman,,,,null,,,,,,,,,
null,"<img src=""stim_listB/look8.gif""style=""height:400px;""></stim_listB>",,html-keyboard-response,389,1613824,0.0-19.0-1.11,10771,List2B,white,woman,,,,null,,,,,,,,,
null,is being looked at by,,html-keyboard-response,390,1615829,0.0-19.0-2.11,10771,List2B,white,woman,,,,null,,,,,,,,,
14946,,,survey-text,391,1630778,0.0-19.0-3.11,10771,List2B,white,woman,,,,,"{""Q0"":""Kate is being at by Jane.""}","<img src=""stim_listB/look8.gif""style=""height:400px;""></stim_listB>",is being looked at by,,,,,,
null,"<div style=""font-size:60px;"">+</div>",,html-keyboard-response,392,1631280,0.0-19.0-0.12,10771,List2B,white,woman,,,,null,,,,,,,,,
null,"<img src=""stim_listB/hug6.gif""style=""height:400px;""></stim_listB>",,html-keyboard-response,393,1633291,0.0-19.0-1.12,10771,List2B,white,woman,,,,null,,,,,,,,,
null,is being hugged by,,html-keyboard-response,394,1635298,0.0-19.0-2.12,10771,List2B,white,woman,,,,null,,,,,,,,,
9789.5,,,survey-text,395,1645089,0.0-19.0-3.12,10771,List2B,white,woman,,,,,"{""Q0"":""Dave is hugging Mike. ""}","<img src=""stim_listB/hug6.gif""style=""height:400px;""></stim_listB>",is being hugged by,,,,,,
null,"<div style=""font-size:60px;"">+</div>",,html-keyboard-response,396,1645601,0.0-19.0-0.13,10771,List2B,white,woman,,,,null,,,,,,,,,
null,"<img src=""stim_listB/kiss8.gif""style=""height:400px;""></stim_listB>",,html-keyboard-response,397,1647610,0.0-19.0-1.13,10771,List2B,white,woman,,,,null,,,,,,,,,
null,is being kissed by,,html-keyboard-response,398,1649628,0.0-19.0-2.13,10771,List2B,white,woman,,,,null,,,,,,,,,
31553.2,,,survey-text,399,1681184,0.0-19.0-3.13,10771,List2B,white,woman,,,,,"{""Q0"":""Kate is being kissed by Jane.""}","<img src=""stim_listB/kiss8.gif""style=""height:400px;""></stim_listB>",is being kissed by,,,,,,
null,"<div style=""font-size:60px;"">+</div>",,html-keyboard-response,400,1681699,0.0-19.0-0.14,10771,List2B,white,woman,,,,null,,,,,,,,,
null,"<img src=""stim_listB/copy5.gif""style=""height:400px;""></stim_listB>",,html-keyboard-response,401,1683715,0.0-19.0-1.14,10771,List2B,white,woman,,,,null,,,,,,,,,
null,is copying,,html-keyboard-response,402,1685724,0.0-19.0-2.14,10771,List2B,white,woman,,,,null,,,,,,,,,
9202.5,,,survey-text,403,1694929,0.0-19.0-3.14,10771,List2B,white,woman,,,,,"{""Q0"":""Fred is copying Dave.""}","<img src=""stim_listB/copy5.gif""style=""height:400px;""></stim_listB>",is copying,,,,,,
null,"<div style=""font-size:60px;"">+</div>",,html-keyboard-response,404,1695431,0.0-19.0-0.15,10771,List2B,white,woman,,,,null,,,,,,,,,
null,"<img src=""stim_listB/kiss6.gif""style=""height:400px;""></stim_listB>",,html-keyboard-response,405,1697441,0.0-19.0-1.15,10771,List2B,white,woman,,,,null,,,,,,,,,
null,is being kissed by,,html-keyboard-response,406,1699447,0.0-19.0-2.15,10771,List2B,white,woman,,,,null,,,,,,,,,
9110.9,,,survey-text,407,1708561,0.0-19.0-3.15,10771,List2B,white,woman,,,,,"{""Q0"":""Dave is being kissed by Mike. ""}","<img src=""stim_listB/kiss6.gif""style=""height:400px;""></stim_listB>",is being kissed by,,,,,,
null,"<div style=""font-size:60px;"">+</div>",,html-keyboard-response,408,1709063,0.0-19.0-0.16,10771,List2B,white,woman,,,,null,,,,,,,,,
null,"<img src=""stim_listB/seduce5.gif""style=""height:400px;""></stim_listB>",,html-keyboard-response,409,1711066,0.0-19.0-1.16,10771,List2B,white,woman,,,,null,,,,,,,,,
null,is seducing,,html-keyboard-response,410,1713083,0.0-19.0-2.16,10771,List2B,white,woman,,,,null,,,,,,,,,
6267.5,,,survey-text,411,1719353,0.0-19.0-3.16,10771,List2B,white,woman,,,,,"{""Q0"":""Mike is seducing Luke. ""}","<img src=""stim_listB/seduce5.gif""style=""height:400px;""></stim_listB>",is seducing,,,,,,
null,"<div style=""font-size:60px;"">+</div>",,html-keyboard-response,412,1719860,0.0-19.0-0.17,10771,List2B,white,woman,,,,null,,,,,,,,,
null,"<img src=""stim_listB/touch3.gif""style=""height:400px;""></stim_listB>",,html-keyboard-response,413,1721865,0.0-19.0-1.17,10771,List2B,white,woman,,,,null,,,,,,,,,
null,is touching,,html-keyboard-response,414,1723868,0.0-19.0-2.17,10771,List2B,white,woman,,,,null,,,,,,,,,
10846.8,,,survey-text,415,1734717,0.0-19.0-3.17,10771,List2B,white,woman,,,,,"{""Q0"":""Mike is touching Kate.""}","<img src=""stim_listB/touch3.gif""style=""height:400px;""></stim_listB>",is touching,,,,,,
null,"<div style=""font-size:60px;"">+</div>",,html-keyboard-response,416,1735221,0.0-19.0-0.18,10771,List2B,white,woman,,,,null,,,,,,,,,
null,"<img src=""stim_listB/seduce3.gif""style=""height:400px;""></stim_listB>",,html-keyboard-response,417,1737234,0.0-19.0-1.18,10771,List2B,white,woman,,,,null,,,,,,,,,
null,is seducing,,html-keyboard-response,418,1739236,0.0-19.0-2.18,10771,List2B,white,woman,,,,null,,,,,,,,,
8727.3,,,survey-text,419,1747965,0.0-19.0-3.18,10771,List2B,white,woman,,,,,"{""Q0"":""Kate is seducing Fred. ""}","<img src=""stim_listB/seduce3.gif""style=""height:400px;""></stim_listB>",is seducing,,,,,,
null,"<div style=""font-size:60px;"">+</div>",,html-keyboard-response,420,1748470,0.0-19.0-0.19,10771,List2B,white,woman,,,,null,,,,,,,,,
null,"<img src=""stim_listB/kiss4.gif""style=""height:400px;""></stim_listB>",,html-keyboard-response,421,1750482,0.0-19.0-1.19,10771,List2B,white,woman,,,,null,,,,,,,,,
null,is being kissed by,,html-keyboard-response,422,1752485,0.0-19.0-2.19,10771,List2B,white,woman,,,,null,,,,,,,,,
6465.6,,,survey-text,423,1758953,0.0-19.0-3.19,10771,List2B,white,woman,,,,,"{""Q0"":""Kate is being kissed by Mike. ""}","<img src=""stim_listB/kiss4.gif""style=""height:400px;""></stim_listB>",is being kissed by,,,,,,
3914.1,<p>Thank you for completing that task.</p><p>The final part of this session is a questionnaire that will take about 4 minutes.</p><p>Press Continue.</p>,0,html-button-response,424,1762869,0.0-20.0,10771,List2B,white,woman,,,,,,,,,,,,,
27671.3,,,survey-text,425,1791548,0.0-21.0,10771,List2B,white,woman,,,,,"{""Q0"":""29"",""Q1"":""English"",""Q2"":""English"",""Q3"":""United States"",""Q4"":""Caucasian"",""Q5"":""White"",""Q6"":""Female""}",,,demographics,,,,,
2084,<p>Have you lived in the USA for the last 5 years or more?</p>,0,html-button-response,426,1793636,0.0-22.0,10771,List2B,white,woman,,,,,,,,fiveyears,,,,,
3507.5,<p>Move the slider to show the extent to which you agree with the following statements.</p>,0,html-button-response,427,1798148,0.0-23.0,10771,List2B,white,woman,,,,,,,,,,,,,
5244.2,,,html-slider-response,428,1804403,0.0-24.0-0.0-0.0,10771,List2B,white,woman,,,,,,,,survey_race,18,,,I enjoy being in large groups.,filler
12573.6,,,html-slider-response,429,1816979,0.0-24.0-0.0-0.1,10771,List2B,white,woman,,,,,,,,survey_race,71,,,I often think about the fact that I am my race.,often
4829.6,,,html-slider-response,430,1821812,0.0-24.0-0.0-0.2,10771,List2B,white,woman,,,,,,,,survey_race,40,,,I have a lot in common with people of a similar age to me.,filler
2965.1,,,html-slider-response,431,1824779,0.0-24.0-0.0-0.3,10771,List2B,white,woman,,,,,,,,survey_race,37,,,Being my race gives me a good feeling.,feeling
3526.7,,,html-slider-response,432,1828307,0.0-24.0-0.0-0.4,10771,List2B,white,woman,,,,,,,,survey_race,33,,,I have a lot in common with the average person of my race.,average
3245.9,,,html-slider-response,433,1831554,0.0-24.0-0.0-0.5,10771,List2B,white,woman,,,,,,,,survey_race,42,,,I feel a bond with people the same age as me.,filler
3509.5,,,html-slider-response,434,1835067,0.0-24.0-0.0-0.6,10771,List2B,white,woman,,,,,,,,survey_race,70,,,People my age have a lot in common with each other.,filler
3293.2,,,html-slider-response,435,1838362,0.0-24.0-0.0-0.7,10771,List2B,white,woman,,,,,,,,survey_race,56,,,"The older I get, the wiser I feel.",filler
4565.8,,,html-slider-response,436,1842930,0.0-24.0-0.0-0.8,10771,List2B,white,woman,,,,,,,,survey_race,73,,,I consider myself an introvert.,filler
3613.9,,,html-slider-response,437,1846546,0.0-24.0-0.0-0.9,10771,List2B,white,woman,,,,,,,,survey_race,33,,,People of my race have a lot in common with each other.,common
4757.8,,,html-slider-response,438,1851306,0.0-24.0-0.0-0.10,10771,List2B,white,woman,,,,,,,,survey_race,33,,,My age is not an important part of who I am.,filler
3285.1,,,html-slider-response,439,1854594,0.0-24.0-0.0-0.11,10771,List2B,white,woman,,,,,,,,survey_race,31,,,Getting older does not worry me.,filler
2698,,,html-slider-response,440,1857294,0.0-24.0-0.0-0.12,10771,List2B,white,woman,,,,,,,,survey_race,41,,,I am glad to be my age.,filler
3146.5,,,html-slider-response,441,1860442,0.0-24.0-0.0-0.13,10771,List2B,white,woman,,,,,,,,survey_race,32,,,I consider myself an extrovert.,filler
2494.3,,,html-slider-response,442,1862938,0.0-24.0-0.0-0.14,10771,List2B,white,woman,,,,,,,,survey_race,40,,,I am glad to be the age I am.,filler
5998.3,,,html-slider-response,443,1868938,0.0-24.0-0.0-0.15,10771,List2B,white,woman,,,,,,,,survey_race,61,,,People of my race are very similar to each other.,verysimilar
4381,,,html-slider-response,444,1873322,0.0-24.0-0.0-0.16,10771,List2B,white,woman,,,,,,,,survey_race,63,,,I feel solidarity with people the same age as me.,filler
4926.6,,,html-slider-response,445,1878250,0.0-24.0-0.0-0.17,10771,List2B,white,woman,,,,,,,,survey_race,37,,,I am glad to be my race.,glad
3653.8,,,html-slider-response,446,1881906,0.0-24.0-0.0-0.18,10771,List2B,white,woman,,,,,,,,survey_race,43,,,Being my race is an important part of how I see myself.,important
2202.2,,,html-slider-response,447,1884110,0.0-24.0-0.0-0.19,10771,List2B,white,woman,,,,,,,,survey_race,42,,,I feel a bond with my race.,bond
2634.2,,,html-slider-response,448,1886747,0.0-24.0-0.0-0.20,10771,List2B,white,woman,,,,,,,,survey_race,43,,,Being my age gives me a good feeling.,filler
6726.2,,,html-slider-response,449,1893473,0.0-24.0-0.0-0.21,10771,List2B,white,woman,,,,,,,,survey_race,55,,,I often think about the fact that I am my age.,filler
3885.1,,,html-slider-response,450,1897360,0.0-24.0-0.0-0.22,10771,List2B,white,woman,,,,,,,,survey_race,43,,,I am similar to the average person of my race.,similar
3166.7,,,html-slider-response,451,1900529,0.0-24.0-0.0-0.23,10771,List2B,white,woman,,,,,,,,survey_race,42,,,The fact that I am my race is an important part of my identity.,identity
5445.3,,,html-slider-response,452,1905977,0.0-24.0-0.0-0.24,10771,List2B,white,woman,,,,,,,,survey_race,47,,,It is pleasant to be my race.,pleasant
2557.8,,,html-slider-response,453,1908537,0.0-24.0-0.0-0.25,10771,List2B,white,woman,,,,,,,,survey_race,47,,,I feel committed to my race.,committed
2550,,,html-slider-response,454,1911089,0.0-24.0-0.0-0.26,10771,List2B,white,woman,,,,,,,,survey_race,45,,,I feel solidarity with my race.,solidarity
5195.4,,,html-slider-response,455,1916289,0.0-24.0-0.0-0.27,10771,List2B,white,woman,,,,,,,,survey_race,7,,,I think that my race has a lot to be proud of.,proud
3477.2,,,html-slider-response,456,1919769,0.0-24.0-1.0-0.0,10771,List2B,white,woman,,,,,,,,survey_gender,26,,,Routine is not important to me.,filler
3453,,,html-slider-response,457,1923224,0.0-24.0-1.0-0.1,10771,List2B,white,woman,,,,,,,,survey_gender,100,,,The fact that I am my gender is an important part of my identity.,identity
2758.6,,,html-slider-response,458,1925984,0.0-24.0-1.0-0.2,10771,List2B,white,woman,,,,,,,,survey_gender,60,,,I consider myself a highly empathetic person.,filler
6070.3,,,html-slider-response,459,1932057,0.0-24.0-1.0-0.3,10771,List2B,white,woman,,,,,,,,survey_gender,100,,,I think that my gender has a lot to be proud of.,proud
4013.3,,,html-slider-response,460,1936073,0.0-24.0-1.0-0.4,10771,List2B,white,woman,,,,,,,,survey_gender,75,,,People of my gender have a lot in common with each other.,common
3997.5,,,html-slider-response,461,1940073,0.0-24.0-1.0-0.5,10771,List2B,white,woman,,,,,,,,survey_gender,64,,,I am glad to have the friends that I have.,filler
3884.6,,,html-slider-response,462,1943960,0.0-24.0-1.0-0.6,10771,List2B,white,woman,,,,,,,,survey_gender,64,,,I have a lot in common with the average person of my gender.,average
3014.5,,,html-slider-response,463,1946977,0.0-24.0-1.0-0.7,10771,List2B,white,woman,,,,,,,,survey_gender,79,,,I feel a bond with my gender.,bond
4570.8,,,html-slider-response,464,1951550,0.0-24.0-1.0-0.8,10771,List2B,white,woman,,,,,,,,survey_gender,62,,,Most of the friends in my life are very similar to me.,filler
6336.6,,,html-slider-response,465,1957880,0.0-24.0-1.0-0.9,10771,List2B,white,woman,,,,,,,,survey_gender,80,,,My friends have a lot in common with each other.,filler
4132.9,,,html-slider-response,466,1962016,0.0-24.0-1.0-0.10,10771,List2B,white,woman,,,,,,,,survey_gender,100,,,I feel solidarity with my gender.,solidarity
2701.6,,,html-slider-response,467,1964720,0.0-24.0-1.0-0.11,10771,List2B,white,woman,,,,,,,,survey_gender,62,,,My friends understand me.,filler
2462,,,html-slider-response,468,1967184,0.0-24.0-1.0-0.12,10771,List2B,white,woman,,,,,,,,survey_gender,72,,,I feel a bond with my friends.,filler
3310.1,,,html-slider-response,469,1970495,0.0-24.0-1.0-0.13,10771,List2B,white,woman,,,,,,,,survey_gender,100,,,I often think about the fact that I am my gender.,often
2957.9,,,html-slider-response,470,1973456,0.0-24.0-1.0-0.14,10771,List2B,white,woman,,,,,,,,survey_gender,100,,,I often think about my actions.,filler
4893.8,,,html-slider-response,471,1978351,0.0-24.0-1.0-0.15,10771,List2B,white,woman,,,,,,,,survey_gender,65,,,Being my gender gives me a good feeling.,feeling
9318.6,,,html-slider-response,472,1987672,0.0-24.0-1.0-0.16,10771,List2B,white,woman,,,,,,,,survey_gender,47,,,People of my gender are very similar to each other.,verysimilar
4365.2,,,html-slider-response,473,1992040,0.0-24.0-1.0-0.17,10771,List2B,white,woman,,,,,,,,survey_gender,19,,,Family is not more important to me than friendship.,filler
2590.3,,,html-slider-response,474,1994633,0.0-24.0-1.0-0.18,10771,List2B,white,woman,,,,,,,,survey_gender,90,,,I feel committed to my gender.,committed
3293.3,,,html-slider-response,475,1997927,0.0-24.0-1.0-0.19,10771,List2B,white,woman,,,,,,,,survey_gender,62,,,Being around my friends gives me a good feeling.,filler
3014,,,html-slider-response,476,2000944,0.0-24.0-1.0-0.20,10771,List2B,white,woman,,,,,,,,survey_gender,56,,,I am glad to be my gender.,glad
2722.1,,,html-slider-response,477,2003667,0.0-24.0-1.0-0.21,10771,List2B,white,woman,,,,,,,,survey_gender,70,,,I feel solidarity with my friends.,filler
4331,,,html-slider-response,478,2008000,0.0-24.0-1.0-0.22,10771,List2B,white,woman,,,,,,,,survey_gender,58,,,I am similar to the average person of my gender.,similar
3160.9,,,html-slider-response,479,2011164,0.0-24.0-1.0-0.23,10771,List2B,white,woman,,,,,,,,survey_gender,68,,,I have a lot in common with my friends.,filler
4322.5,,,html-slider-response,480,2015493,0.0-24.0-1.0-0.24,10771,List2B,white,woman,,,,,,,,survey_gender,76,,,It is not always easy for people to know what I am thinking.,filler
2501.8,,,html-slider-response,481,2017998,0.0-24.0-1.0-0.25,10771,List2B,white,woman,,,,,,,,survey_gender,100,,,I would say I am an animal person.,filler
3635.5,,,html-slider-response,482,2021637,0.0-24.0-1.0-0.26,10771,List2B,white,woman,,,,,,,,survey_gender,41,,,It is pleasant to be my gender.,pleasant
2990.1,,,html-slider-response,483,2024629,0.0-24.0-1.0-0.27,10771,List2B,white,woman,,,,,,,,survey_gender,100,,,Being my gender is an important part of how I see myself.,important
3794.2,,,survey-text,484,2028426,0.0-25.0,10771,List2B,white,woman,,,,,"{""Q0"":""ccc""}",,,worker_id,,,,,
29951,,,external-html,485,2058793,0.0-26.0,10771,List2B,white,woman,debrief.html,,,,,,,,,,,,
