"rt","stimulus","button_pressed","trial_type","trial_index","time_elapsed","internal_node_id","subject","list","ppt_race","ppt_gender","url","first_guess","correct","key_press","responses","image_type","phrase_type","test_part","response","stimulus1","stimulus2","question_type","survey_item"
"2175.400000035763","Welcome to the experiment. Press Continue to begin.","0","html-button-response","0","2181","0.0-0.0","11061","List2B","white","man","","","","","","","","","","","","",""
"12031.599999964237","","","external-html","1","15435","0.0-1.0","11061","List2B","white","man","consent.html","","","","","","","","","","","",""
"11678.399999976158","<p>On the next page, you will see portraits of 8 people and their names.</p><p>Your first task is to take a few minutes to memorise the names of these people.</p><p>You will have to recall their names during the rest of the experiment, so it is</p><p>essential that you try to memorise these people and their names as best as you can.</p><br><p><strong>You will then be tested on your memory of these names and portraits.</strong></p><br><p>The experiment will start after you have completed this memory test.</p><br><p>Ready?</p>","0","html-button-response","2","27116","0.0-2.0","11061","List2B","white","man","","","","","","","","","","","","",""
"39536","<img src='img/portrait_matrix_list2.jpg' style='width:900px;height:500px;''></img><p>If you have memorised all the portraits and names and are ready to start, press Continue.</p><p><strong>Please note: Your memory of these faces will be tested 4 times during this experiment.</strong></p>","0","html-button-response","3","67659","0.0-3.0-0.0","11061","List2B","white","man","","","","","","","","","","","","",""
"11178.599999964237","<img src=""portrait/BW1.jpg""style=""height:400px;""></img>","0","html-button-response","4","79841","0.0-3.0-1.0","11061","List2B","white","man","","true","0","","","","","","","","","",""
"null","CORRECT","","html-keyboard-response","5","81356","0.0-3.0-2.0-0.0","11061","List2B","white","man","","","","null","","","","","","","","",""
"6114.099999964237","<img src=""portrait/WM1.jpg""style=""height:400px;""></img>","6","html-button-response","6","87472","0.0-3.0-4.0","11061","List2B","white","man","","true","6","","","","","","","","","",""
"null","CORRECT","","html-keyboard-response","7","88979","0.0-3.0-5.0-0.0","11061","List2B","white","man","","","","null","","","","","","","","",""
"4348.700000047684","<img src=""portrait/WW2.jpg""style=""height:400px;""></img>","3","html-button-response","8","93337","0.0-3.0-7.0","11061","List2B","white","man","","true","3","","","","","","","","","",""
"null","CORRECT","","html-keyboard-response","9","94847","0.0-3.0-8.0-0.0","11061","List2B","white","man","","","","null","","","","","","","","",""
"4076","<img src=""portrait/BM2.jpg""style=""height:400px;""></img>","5","html-button-response","10","98924","0.0-3.0-10.0","11061","List2B","white","man","","true","5","","","","","","","","","",""
"null","CORRECT","","html-keyboard-response","11","100435","0.0-3.0-11.0-0.0","11061","List2B","white","man","","","","null","","","","","","","","",""
"3515.2999999523163","<img src=""portrait/WW1.jpg""style=""height:400px;""></img>","1","html-button-response","12","103951","0.0-3.0-13.0","11061","List2B","white","man","","true","1","","","","","","","","","",""
"null","CORRECT","","html-keyboard-response","13","105458","0.0-3.0-14.0-0.0","11061","List2B","white","man","","","","null","","","","","","","","",""
"4762.699999988079","<img src=""portrait/BM1.jpg""style=""height:400px;""></img>","4","html-button-response","14","110223","0.0-3.0-16.0","11061","List2B","white","man","","true","4","","","","","","","","","",""
"null","CORRECT","","html-keyboard-response","15","111730","0.0-3.0-17.0-0.0","11061","List2B","white","man","","","","null","","","","","","","","",""
"3294.300000011921","<img src=""portrait/BW2.jpg""style=""height:400px;""></img>","2","html-button-response","16","115026","0.0-3.0-19.0","11061","List2B","white","man","","true","2","","","","","","","","","",""
"null","CORRECT","","html-keyboard-response","17","116535","0.0-3.0-20.0-0.0","11061","List2B","white","man","","","","null","","","","","","","","",""
"3527.2000000476837","<img src=""portrait/WM2.jpg""style=""height:400px;""></img>","7","html-button-response","18","120064","0.0-3.0-22.0","11061","List2B","white","man","","true","7","","","","","","","","","",""
"null","CORRECT","","html-keyboard-response","19","121570","0.0-3.0-23.0-0.0","11061","List2B","white","man","","","","null","","","","","","","","",""
"1725.3999999761581","<p>You got 8 out of 8 right first time. Press Continue.</p>","0","html-button-response","20","123306","0.0-3.0-25.0","11061","List2B","white","man","","","","","","","","","","","","",""
"43572.30000001192","<p>In this experiment, you will view photographs of the people from the memory game interacting.</p><p>By using the <strong>exact</strong> phrase given <i>after</i> the photograph appears and recalling the correct names of the people in the photographs, form a sentence describing the interaction. You do not need to capitalise names.</p><p>Type your answer in the space provided. Please complete every sentence before moving onto the next trial.</p><p>You will only have a few seconds to memorise each given photograph and phrase before you can respond, so try your best to focus.</p><p>An example is given below. Press 'Continue' when you are ready.</p><img src='img/speaking_example.jpg' style='width:800px;height:460px;''></img>","0","html-button-response","21","167886","0.0-4.0","11061","List2B","white","man","","","","","","","","","","","","",""
"6590.5","<p>Before the experiment starts, you will watch two example trials. Press 'Continue'.</p>","0","html-button-response","22","175482","0.0-5.0","11061","List2B","white","man","","","","","","","","","","","","",""
"null","<img src='img/play_eg.gif' style='height:400px;''></img>","","html-keyboard-response","23","178490","0.0-6.0","11061","List2B","white","man","","","","null","","","","","","","","",""
"null","<p>is playing with</p>","","html-keyboard-response","24","180496","0.0-7.0","11061","List2B","white","man","","","","null","","","","","","","","",""
"4456.5","<p><b>Answer:</b> jane is playing with ruth</p>","0","html-button-response","25","184953","0.0-8.0","11061","List2B","white","man","","","","","","","","","","","","",""
"null","<img src='img/dance_eg.gif' style='height:400px;''></img>","","html-keyboard-response","26","187965","0.0-9.0","11061","List2B","white","man","","","","null","","","","","","","","",""
"null","<p>is being entertained by</p>","","html-keyboard-response","27","189971","0.0-10.0","11061","List2B","white","man","","","","null","","","","","","","","",""
"4438","<p><b>Answer:</b> fred is being entertained by mike</p>","0","html-button-response","28","194410","0.0-11.0","11061","List2B","white","man","","","","","","","","","","","","",""
"22796.099999964237","<p>Ready to start the experiment?</p><br><p><strong>Remember to describe the picture using a full sentence,</strong></p><p><strong>that combines the names of the people with the <i>exact</i> phrase given.</strong></p><p><strong>To receive full payment you must do this correctly.</strong></p><p><strong> You do not need to capitalise names or use punctuation.</strong></p><br><p>Press 'Continue' to begin.</p>","0","html-button-response","29","218211","0.0-12.0","11061","List2B","white","man","","","","","","","","","","","","",""
"null","<div style=""font-size:60px;"">+</div>","","html-keyboard-response","30","219723","0.0-13.0-0.0","11061","List2B","white","man","","","","null","","","","","","","","",""
"null","<img src=""stim_listB/copy6.gif""style=""height:400px;""></stim_listB>","","html-keyboard-response","31","221748","0.0-13.0-1.0","11061","List2B","white","man","","","","null","","","","","","","","",""
"null","is being copied by","","html-keyboard-response","32","223752","0.0-13.0-2.0","11061","List2B","white","man","","","","null","","","","","","","","",""
"16017.300000011921","","","survey-text","33","239805","0.0-13.0-3.0","11061","List2B","white","man","","","","","{""Q0"":""Mike and Luke""}","<img src=""stim_listB/copy6.gif""style=""height:400px;""></stim_listB>","is being copied by","","","","","",""
"null","<div style=""font-size:60px;"">+</div>","","html-keyboard-response","34","240309","0.0-13.0-0.1","11061","List2B","white","man","","","","null","","","","","","","","",""
"null","<img src=""stim_listB/challenge8.gif""style=""height:400px;""></stim_listB>","","html-keyboard-response","35","242315","0.0-13.0-1.1","11061","List2B","white","man","","","","null","","","","","","","","",""
"null","is being challenged by","","html-keyboard-response","36","244319","0.0-13.0-2.1","11061","List2B","white","man","","","","null","","","","","","","","",""
"23641.399999976158","","","survey-text","37","267965","0.0-13.0-3.1","11061","List2B","white","man","","","","","{""Q0"":""Ruth is being challenged by Beth""}","<img src=""stim_listB/challenge8.gif""style=""height:400px;""></stim_listB>","is being challenged by","","","","","",""
"null","<div style=""font-size:60px;"">+</div>","","html-keyboard-response","38","268468","0.0-13.0-0.2","11061","List2B","white","man","","","","null","","","","","","","","",""
"null","<img src=""stim_listB/oppose1.gif""style=""height:400px;""></stim_listB>","","html-keyboard-response","39","270472","0.0-13.0-1.2","11061","List2B","white","man","","","","null","","","","","","","","",""
"null","is opposing","","html-keyboard-response","40","272473","0.0-13.0-2.2","11061","List2B","white","man","","","","null","","","","","","","","",""
"18617.5","","","survey-text","41","291093","0.0-13.0-3.2","11061","List2B","white","man","","","","","{""Q0"":""Jane is opposing Dave""}","<img src=""stim_listB/oppose1.gif""style=""height:400px;""></stim_listB>","is opposing","","","","","",""
"null","<div style=""font-size:60px;"">+</div>","","html-keyboard-response","42","291598","0.0-13.0-0.3","11061","List2B","white","man","","","","null","","","","","","","","",""
"null","<img src=""stim_listB/seduce5.gif""style=""height:400px;""></stim_listB>","","html-keyboard-response","43","293604","0.0-13.0-1.3","11061","List2B","white","man","","","","null","","","","","","","","",""
"null","is seducing","","html-keyboard-response","44","295609","0.0-13.0-2.3","11061","List2B","white","man","","","","null","","","","","","","","",""
"13895.199999988079","","","survey-text","45","309507","0.0-13.0-3.3","11061","List2B","white","man","","","","","{""Q0"":""Luke is seducing Mike""}","<img src=""stim_listB/seduce5.gif""style=""height:400px;""></stim_listB>","is seducing","","","","","",""
"null","<div style=""font-size:60px;"">+</div>","","html-keyboard-response","46","310012","0.0-13.0-0.4","11061","List2B","white","man","","","","null","","","","","","","","",""
"null","<img src=""stim_listB/kiss8.gif""style=""height:400px;""></stim_listB>","","html-keyboard-response","47","312014","0.0-13.0-1.4","11061","List2B","white","man","","","","null","","","","","","","","",""
"null","is being kissed by","","html-keyboard-response","48","314016","0.0-13.0-2.4","11061","List2B","white","man","","","","null","","","","","","","","",""
"24220.5","","","survey-text","49","338240","0.0-13.0-3.4","11061","List2B","white","man","","","","","{""Q0"":""Jane is being kissed by Kate""}","<img src=""stim_listB/kiss8.gif""style=""height:400px;""></stim_listB>","is being kissed by","","","","","",""
"null","<div style=""font-size:60px;"">+</div>","","html-keyboard-response","50","338744","0.0-13.0-0.5","11061","List2B","white","man","","","","null","","","","","","","","",""
"null","<img src=""stim_listB/touch4.gif""style=""height:400px;""></stim_listB>","","html-keyboard-response","51","340751","0.0-13.0-1.5","11061","List2B","white","man","","","","null","","","","","","","","",""
"null","is being touched by","","html-keyboard-response","52","342756","0.0-13.0-2.5","11061","List2B","white","man","","","","null","","","","","","","","",""
"16764.399999976158","","","survey-text","53","359523","0.0-13.0-3.5","11061","List2B","white","man","","","","","{""Q0"":""Beth is high-fiving Fred""}","<img src=""stim_listB/touch4.gif""style=""height:400px;""></stim_listB>","is being touched by","","","","","",""
"null","<div style=""font-size:60px;"">+</div>","","html-keyboard-response","54","360025","0.0-13.0-0.6","11061","List2B","white","man","","","","null","","","","","","","","",""
"null","<img src=""stim_listB/oppose3.gif""style=""height:400px;""></stim_listB>","","html-keyboard-response","55","362032","0.0-13.0-1.6","11061","List2B","white","man","","","","null","","","","","","","","",""
"null","is opposing","","html-keyboard-response","56","364037","0.0-13.0-2.6","11061","List2B","white","man","","","","null","","","","","","","","",""
"13425.199999988079","","","survey-text","57","377465","0.0-13.0-3.6","11061","List2B","white","man","","","","","{""Q0"":""Mike is opposing Kate""}","<img src=""stim_listB/oppose3.gif""style=""height:400px;""></stim_listB>","is opposing","","","","","",""
"null","<div style=""font-size:60px;"">+</div>","","html-keyboard-response","58","377967","0.0-13.0-0.7","11061","List2B","white","man","","","","null","","","","","","","","",""
"null","<img src=""stim_listB/greet1.gif""style=""height:400px;""></stim_listB>","","html-keyboard-response","59","379969","0.0-13.0-1.7","11061","List2B","white","man","","","","null","","","","","","","","",""
"null","is greeting","","html-keyboard-response","60","381970","0.0-13.0-2.7","11061","List2B","white","man","","","","null","","","","","","","","",""
"21515.19999998808","","","survey-text","61","403489","0.0-13.0-3.7","11061","List2B","white","man","","","","","{""Q0"":""Dave is greeting Ruth""}","<img src=""stim_listB/greet1.gif""style=""height:400px;""></stim_listB>","is greeting","","","","","",""
"null","<div style=""font-size:60px;"">+</div>","","html-keyboard-response","62","403993","0.0-13.0-0.8","11061","List2B","white","man","","","","null","","","","","","","","",""
"null","<img src=""stim_listB/greet4.gif""style=""height:400px;""></stim_listB>","","html-keyboard-response","63","405999","0.0-13.0-1.8","11061","List2B","white","man","","","","null","","","","","","","","",""
"null","is being greeted by","","html-keyboard-response","64","408001","0.0-13.0-2.8","11061","List2B","white","man","","","","null","","","","","","","","",""
"42736.200000047684","","","survey-text","65","450740","0.0-13.0-3.8","11061","List2B","white","man","","","","","{""Q0"":""Fred is being greeted by Kate""}","<img src=""stim_listB/greet4.gif""style=""height:400px;""></stim_listB>","is being greeted by","","","","","",""
"null","<div style=""font-size:60px;"">+</div>","","html-keyboard-response","66","451242","0.0-13.0-0.9","11061","List2B","white","man","","","","null","","","","","","","","",""
"null","<img src=""stim_listB/hug5.gif""style=""height:400px;""></stim_listB>","","html-keyboard-response","67","453249","0.0-13.0-1.9","11061","List2B","white","man","","","","null","","","","","","","","",""
"null","is hugging","","html-keyboard-response","68","455253","0.0-13.0-2.9","11061","List2B","white","man","","","","null","","","","","","","","",""
"14304.300000011921","","","survey-text","69","469560","0.0-13.0-3.9","11061","List2B","white","man","","","","","{""Q0"":""Luke is hugging Fred""}","<img src=""stim_listB/hug5.gif""style=""height:400px;""></stim_listB>","is hugging","","","","","",""
"null","<div style=""font-size:60px;"">+</div>","","html-keyboard-response","70","470065","0.0-13.0-0.10","11061","List2B","white","man","","","","null","","","","","","","","",""
"null","<img src=""stim_listB/challenge1.gif""style=""height:400px;""></stim_listB>","","html-keyboard-response","71","472069","0.0-13.0-1.10","11061","List2B","white","man","","","","null","","","","","","","","",""
"null","is challenging","","html-keyboard-response","72","474073","0.0-13.0-2.10","11061","List2B","white","man","","","","null","","","","","","","","",""
"24710.299999952316","","","survey-text","73","498787","0.0-13.0-3.10","11061","List2B","white","man","","","","","{""Q0"":""Ruth is challenging Dave""}","<img src=""stim_listB/challenge1.gif""style=""height:400px;""></stim_listB>","is challenging","","","","","",""
"null","<div style=""font-size:60px;"">+</div>","","html-keyboard-response","74","499290","0.0-13.0-0.11","11061","List2B","white","man","","","","null","","","","","","","","",""
"null","<img src=""stim_listB/copy3.gif""style=""height:400px;""></stim_listB>","","html-keyboard-response","75","501297","0.0-13.0-1.11","11061","List2B","white","man","","","","null","","","","","","","","",""
"null","is copying","","html-keyboard-response","76","503302","0.0-13.0-2.11","11061","List2B","white","man","","","","null","","","","","","","","",""
"32768.60000002384","","","survey-text","77","536073","0.0-13.0-3.11","11061","List2B","white","man","","","","","{""Q0"":""Mike is copying Beth""}","<img src=""stim_listB/copy3.gif""style=""height:400px;""></stim_listB>","is copying","","","","","",""
"null","<div style=""font-size:60px;"">+</div>","","html-keyboard-response","78","536576","0.0-13.0-0.12","11061","List2B","white","man","","","","null","","","","","","","","",""
"null","<img src=""stim_listB/copy1.gif""style=""height:400px;""></stim_listB>","","html-keyboard-response","79","538581","0.0-13.0-1.12","11061","List2B","white","man","","","","null","","","","","","","","",""
"null","is copying","","html-keyboard-response","80","540585","0.0-13.0-2.12","11061","List2B","white","man","","","","null","","","","","","","","",""
"16201.099999964237","","","survey-text","81","556789","0.0-13.0-3.12","11061","List2B","white","man","","","","","{""Q0"":""Dave is copying Ruth""}","<img src=""stim_listB/copy1.gif""style=""height:400px;""></stim_listB>","is copying","","","","","",""
"null","<div style=""font-size:60px;"">+</div>","","html-keyboard-response","82","557293","0.0-13.0-0.13","11061","List2B","white","man","","","","null","","","","","","","","",""
"null","<img src=""stim_listB/challenge7.gif""style=""height:400px;""></stim_listB>","","html-keyboard-response","83","559295","0.0-13.0-1.13","11061","List2B","white","man","","","","null","","","","","","","","",""
"null","is challenging","","html-keyboard-response","84","561297","0.0-13.0-2.13","11061","List2B","white","man","","","","null","","","","","","","","",""
"21647.599999964237","","","survey-text","85","582947","0.0-13.0-3.13","11061","List2B","white","man","","","","","{""Q0"":""Jane is challenging Beth""}","<img src=""stim_listB/challenge7.gif""style=""height:400px;""></stim_listB>","is challenging","","","","","",""
"null","<div style=""font-size:60px;"">+</div>","","html-keyboard-response","86","583449","0.0-13.0-0.14","11061","List2B","white","man","","","","null","","","","","","","","",""
"null","<img src=""stim_listB/look5.gif""style=""height:400px;""></stim_listB>","","html-keyboard-response","87","585455","0.0-13.0-1.14","11061","List2B","white","man","","","","null","","","","","","","","",""
"null","is looking at","","html-keyboard-response","88","587461","0.0-13.0-2.14","11061","List2B","white","man","","","","null","","","","","","","","",""
"13062.699999988079","","","survey-text","89","600527","0.0-13.0-3.14","11061","List2B","white","man","","","","","{""Q0"":""Fred is looking at Luke""}","<img src=""stim_listB/look5.gif""style=""height:400px;""></stim_listB>","is looking at","","","","","",""
"null","<div style=""font-size:60px;"">+</div>","","html-keyboard-response","90","601029","0.0-13.0-0.15","11061","List2B","white","man","","","","null","","","","","","","","",""
"null","<img src=""stim_listB/look2.gif""style=""height:400px;""></stim_listB>","","html-keyboard-response","91","603035","0.0-13.0-1.15","11061","List2B","white","man","","","","null","","","","","","","","",""
"null","is being looked at by","","html-keyboard-response","92","605040","0.0-13.0-2.15","11061","List2B","white","man","","","","null","","","","","","","","",""
"15721.5","","","survey-text","93","620764","0.0-13.0-3.15","11061","List2B","white","man","","","","","{""Q0"":""Jane is being looked at by Dave""}","<img src=""stim_listB/look2.gif""style=""height:400px;""></stim_listB>","is being looked at by","","","","","",""
"null","<div style=""font-size:60px;"">+</div>","","html-keyboard-response","94","621269","0.0-13.0-0.16","11061","List2B","white","man","","","","null","","","","","","","","",""
"null","<img src=""stim_listB/greet7.gif""style=""height:400px;""></stim_listB>","","html-keyboard-response","95","623275","0.0-13.0-1.16","11061","List2B","white","man","","","","null","","","","","","","","",""
"null","is greeting","","html-keyboard-response","96","625276","0.0-13.0-2.16","11061","List2B","white","man","","","","null","","","","","","","","",""
"13893.899999976158","","","survey-text","97","639173","0.0-13.0-3.16","11061","List2B","white","man","","","","","{""Q0"":""Beth is greeting Jane""}","<img src=""stim_listB/greet7.gif""style=""height:400px;""></stim_listB>","is greeting","","","","","",""
"null","<div style=""font-size:60px;"">+</div>","","html-keyboard-response","98","639677","0.0-13.0-0.17","11061","List2B","white","man","","","","null","","","","","","","","",""
"null","<img src=""stim_listB/kiss4.gif""style=""height:400px;""></stim_listB>","","html-keyboard-response","99","641680","0.0-13.0-1.17","11061","List2B","white","man","","","","null","","","","","","","","",""
"null","is being kissed by","","html-keyboard-response","100","643681","0.0-13.0-2.17","11061","List2B","white","man","","","","null","","","","","","","","",""
"19117.400000035763","","","survey-text","101","662804","0.0-13.0-3.17","11061","List2B","white","man","","","","","{""Q0"":""Kate is being kissed by Mike""}","<img src=""stim_listB/kiss4.gif""style=""height:400px;""></stim_listB>","is being kissed by","","","","","",""
"null","<div style=""font-size:60px;"">+</div>","","html-keyboard-response","102","663306","0.0-13.0-0.18","11061","List2B","white","man","","","","null","","","","","","","","",""
"null","<img src=""stim_listB/copy8.gif""style=""height:400px;""></stim_listB>","","html-keyboard-response","103","665313","0.0-13.0-1.18","11061","List2B","white","man","","","","null","","","","","","","","",""
"null","is being copied by","","html-keyboard-response","104","667318","0.0-13.0-2.18","11061","List2B","white","man","","","","null","","","","","","","","",""
"20434","","","survey-text","105","687755","0.0-13.0-3.18","11061","List2B","white","man","","","","","{""Q0"":""Kate is copying Ruth""}","<img src=""stim_listB/copy8.gif""style=""height:400px;""></stim_listB>","is being copied by","","","","","",""
"null","<div style=""font-size:60px;"">+</div>","","html-keyboard-response","106","688259","0.0-13.0-0.19","11061","List2B","white","man","","","","null","","","","","","","","",""
"null","<img src=""stim_listB/seduce4.gif""style=""height:400px;""></stim_listB>","","html-keyboard-response","107","690265","0.0-13.0-1.19","11061","List2B","white","man","","","","null","","","","","","","","",""
"null","is being seduced by","","html-keyboard-response","108","692270","0.0-13.0-2.19","11061","List2B","white","man","","","","null","","","","","","","","",""
"24971.69999998808","","","survey-text","109","717328","0.0-13.0-3.19","11061","List2B","white","man","","","","","{""Q0"":""Beth is being seduced by Mike""}","<img src=""stim_listB/seduce4.gif""style=""height:400px;""></stim_listB>","is being seduced by","","","","","",""
"15187.200000047684","<img src='img/portrait_matrix_list2.jpg' style='width:900px;height:500px;''></img><p>If you have memorised all the portraits and names and are ready to start, press Continue.</p><p><strong>Please note: Your memory of these faces will be tested 4 times during this experiment.</strong></p>","0","html-button-response","110","732530","0.0-14.0-0.0","11061","List2B","white","man","","","","","","","","","","","","",""
"3982","<img src=""portrait/BW2.jpg""style=""height:400px;""></img>","2","html-button-response","111","737530","0.0-14.0-1.0","11061","List2B","white","man","","true","2","","","","","","","","","",""
"null","CORRECT","","html-keyboard-response","112","739039","0.0-14.0-2.0-0.0","11061","List2B","white","man","","","","null","","","","","","","","",""
"2663.800000011921","<img src=""portrait/WW1.jpg""style=""height:400px;""></img>","1","html-button-response","113","741705","0.0-14.0-4.0","11061","List2B","white","man","","true","1","","","","","","","","","",""
"null","CORRECT","","html-keyboard-response","114","743217","0.0-14.0-5.0-0.0","11061","List2B","white","man","","","","null","","","","","","","","",""
"3889.300000011921","<img src=""portrait/WW2.jpg""style=""height:400px;""></img>","3","html-button-response","115","747109","0.0-14.0-7.0","11061","List2B","white","man","","true","3","","","","","","","","","",""
"null","CORRECT","","html-keyboard-response","116","748614","0.0-14.0-8.0-0.0","11061","List2B","white","man","","","","null","","","","","","","","",""
"3335.099999964237","<img src=""portrait/BM2.jpg""style=""height:400px;""></img>","5","html-button-response","117","751952","0.0-14.0-10.0","11061","List2B","white","man","","true","5","","","","","","","","","",""
"null","CORRECT","","html-keyboard-response","118","753464","0.0-14.0-11.0-0.0","11061","List2B","white","man","","","","null","","","","","","","","",""
"4516.799999952316","<img src=""portrait/BW1.jpg""style=""height:400px;""></img>","0","html-button-response","119","757982","0.0-14.0-13.0","11061","List2B","white","man","","true","0","","","","","","","","","",""
"null","CORRECT","","html-keyboard-response","120","759494","0.0-14.0-14.0-0.0","11061","List2B","white","man","","","","null","","","","","","","","",""
"2964.7000000476837","<img src=""portrait/WM2.jpg""style=""height:400px;""></img>","7","html-button-response","121","762461","0.0-14.0-16.0","11061","List2B","white","man","","true","7","","","","","","","","","",""
"null","CORRECT","","html-keyboard-response","122","763971","0.0-14.0-17.0-0.0","11061","List2B","white","man","","","","null","","","","","","","","",""
"5140.099999964237","<img src=""portrait/WM1.jpg""style=""height:400px;""></img>","6","html-button-response","123","769113","0.0-14.0-19.0","11061","List2B","white","man","","true","6","","","","","","","","","",""
"null","CORRECT","","html-keyboard-response","124","770621","0.0-14.0-20.0-0.0","11061","List2B","white","man","","","","null","","","","","","","","",""
"5291","<img src=""portrait/BM1.jpg""style=""height:400px;""></img>","4","html-button-response","125","775913","0.0-14.0-22.0","11061","List2B","white","man","","true","4","","","","","","","","","",""
"null","CORRECT","","html-keyboard-response","126","777420","0.0-14.0-23.0-0.0","11061","List2B","white","man","","","","null","","","","","","","","",""
"1356.9000000357628","<p>You got 8 out of 8 right first time. Press Continue.</p>","0","html-button-response","127","778795","0.0-14.0-25.0","11061","List2B","white","man","","","","","","","","","","","","",""
"null","<div style=""font-size:60px;"">+</div>","","html-keyboard-response","128","780319","0.0-15.0-0.0","11061","List2B","white","man","","","","null","","","","","","","","",""
"null","<img src=""stim_listB/kiss3.gif""style=""height:400px;""></stim_listB>","","html-keyboard-response","129","782323","0.0-15.0-1.0","11061","List2B","white","man","","","","null","","","","","","","","",""
"null","is kissing","","html-keyboard-response","130","784330","0.0-15.0-2.0","11061","List2B","white","man","","","","null","","","","","","","","",""
"11832.599999964237","","","survey-text","131","796165","0.0-15.0-3.0","11061","List2B","white","man","","","","","{""Q0"":""Beth is kissing Fred""}","<img src=""stim_listB/kiss3.gif""style=""height:400px;""></stim_listB>","is kissing","","","","","",""
"null","<div style=""font-size:60px;"">+</div>","","html-keyboard-response","132","796670","0.0-15.0-0.1","11061","List2B","white","man","","","","null","","","","","","","","",""
"null","<img src=""stim_listB/look3.gif""style=""height:400px;""></stim_listB>","","html-keyboard-response","133","798673","0.0-15.0-1.1","11061","List2B","white","man","","","","null","","","","","","","","",""
"null","is looking at","","html-keyboard-response","134","800676","0.0-15.0-2.1","11061","List2B","white","man","","","","null","","","","","","","","",""
"12877.199999988079","","","survey-text","135","813556","0.0-15.0-3.1","11061","List2B","white","man","","","","","{""Q0"":""Beth is looking at Fred""}","<img src=""stim_listB/look3.gif""style=""height:400px;""></stim_listB>","is looking at","","","","","",""
"null","<div style=""font-size:60px;"">+</div>","","html-keyboard-response","136","814060","0.0-15.0-0.2","11061","List2B","white","man","","","","null","","","","","","","","",""
"null","<img src=""stim_listB/copy5.gif""style=""height:400px;""></stim_listB>","","html-keyboard-response","137","816069","0.0-15.0-1.2","11061","List2B","white","man","","","","null","","","","","","","","",""
"null","is copying","","html-keyboard-response","138","818070","0.0-15.0-2.2","11061","List2B","white","man","","","","null","","","","","","","","",""
"24658.30000001192","","","survey-text","139","842731","0.0-15.0-3.2","11061","List2B","white","man","","","","","{""Q0"":""Fred is copying Dave""}","<img src=""stim_listB/copy5.gif""style=""height:400px;""></stim_listB>","is copying","","","","","",""
"null","<div style=""font-size:60px;"">+</div>","","html-keyboard-response","140","843235","0.0-15.0-0.3","11061","List2B","white","man","","","","null","","","","","","","","",""
"null","<img src=""stim_listB/shout7.gif""style=""height:400px;""></stim_listB>","","html-keyboard-response","141","845242","0.0-15.0-1.3","11061","List2B","white","man","","","","null","","","","","","","","",""
"null","is shouting at","","html-keyboard-response","142","847247","0.0-15.0-2.3","11061","List2B","white","man","","","","null","","","","","","","","",""
"15727.699999988079","","","survey-text","143","862978","0.0-15.0-3.3","11061","List2B","white","man","","","","","{""Q0"":""Ruth is shouting at Beth""}","<img src=""stim_listB/shout7.gif""style=""height:400px;""></stim_listB>","is shouting at","","","","","",""
"null","<div style=""font-size:60px;"">+</div>","","html-keyboard-response","144","863482","0.0-15.0-0.4","11061","List2B","white","man","","","","null","","","","","","","","",""
"null","<img src=""stim_listB/challenge6.gif""style=""height:400px;""></stim_listB>","","html-keyboard-response","145","865485","0.0-15.0-1.4","11061","List2B","white","man","","","","null","","","","","","","","",""
"null","is being challenged by","","html-keyboard-response","146","867489","0.0-15.0-2.4","11061","List2B","white","man","","","","null","","","","","","","","",""
"23432.400000035763","","","survey-text","147","890925","0.0-15.0-3.4","11061","List2B","white","man","","","","","{""Q0"":""Luke is being challenged by Mike""}","<img src=""stim_listB/challenge6.gif""style=""height:400px;""></stim_listB>","is being challenged by","","","","","",""
"null","<div style=""font-size:60px;"">+</div>","","html-keyboard-response","148","891427","0.0-15.0-0.5","11061","List2B","white","man","","","","null","","","","","","","","",""
"null","<img src=""stim_listB/touch6.gif""style=""height:400px;""></stim_listB>","","html-keyboard-response","149","893430","0.0-15.0-1.5","11061","List2B","white","man","","","","null","","","","","","","","",""
"null","is being touched by","","html-keyboard-response","150","895434","0.0-15.0-2.5","11061","List2B","white","man","","","","null","","","","","","","","",""
"15794.300000011921","","","survey-text","151","911232","0.0-15.0-3.5","11061","List2B","white","man","","","","","{""Q0"":""Fred is being touched by Luke""}","<img src=""stim_listB/touch6.gif""style=""height:400px;""></stim_listB>","is being touched by","","","","","",""
"null","<div style=""font-size:60px;"">+</div>","","html-keyboard-response","152","911737","0.0-15.0-0.6","11061","List2B","white","man","","","","null","","","","","","","","",""
"null","<img src=""stim_listB/look1.gif""style=""height:400px;""></stim_listB>","","html-keyboard-response","153","913743","0.0-15.0-1.6","11061","List2B","white","man","","","","null","","","","","","","","",""
"null","is looking at","","html-keyboard-response","154","915749","0.0-15.0-2.6","11061","List2B","white","man","","","","null","","","","","","","","",""
"14419.199999988079","","","survey-text","155","930171","0.0-15.0-3.6","11061","List2B","white","man","","","","","{""Q0"":""Ruth is looking at Luke""}","<img src=""stim_listB/look1.gif""style=""height:400px;""></stim_listB>","is looking at","","","","","",""
"null","<div style=""font-size:60px;"">+</div>","","html-keyboard-response","156","930673","0.0-15.0-0.7","11061","List2B","white","man","","","","null","","","","","","","","",""
"null","<img src=""stim_listB/touch5.gif""style=""height:400px;""></stim_listB>","","html-keyboard-response","157","932678","0.0-15.0-1.7","11061","List2B","white","man","","","","null","","","","","","","","",""
"null","is touching","","html-keyboard-response","158","934683","0.0-15.0-2.7","11061","List2B","white","man","","","","null","","","","","","","","",""
"12826.5","","","survey-text","159","947513","0.0-15.0-3.7","11061","List2B","white","man","","","","","{""Q0"":""Mike is touching Dave""}","<img src=""stim_listB/touch5.gif""style=""height:400px;""></stim_listB>","is touching","","","","","",""
"null","<div style=""font-size:60px;"">+</div>","","html-keyboard-response","160","948014","0.0-15.0-0.8","11061","List2B","white","man","","","","null","","","","","","","","",""
"null","<img src=""stim_listB/greet8.gif""style=""height:400px;""></stim_listB>","","html-keyboard-response","161","950016","0.0-15.0-1.8","11061","List2B","white","man","","","","null","","","","","","","","",""
"null","is being greeted by","","html-keyboard-response","162","952021","0.0-15.0-2.8","11061","List2B","white","man","","","","null","","","","","","","","",""
"14276.300000011921","","","survey-text","163","966301","0.0-15.0-3.8","11061","List2B","white","man","","","","","{""Q0"":""Ruth is being greeted by Kate ""}","<img src=""stim_listB/greet8.gif""style=""height:400px;""></stim_listB>","is being greeted by","","","","","",""
"null","<div style=""font-size:60px;"">+</div>","","html-keyboard-response","164","966805","0.0-15.0-0.9","11061","List2B","white","man","","","","null","","","","","","","","",""
"null","<img src=""stim_listB/copy2.gif""style=""height:400px;""></stim_listB>","","html-keyboard-response","165","968812","0.0-15.0-1.9","11061","List2B","white","man","","","","null","","","","","","","","",""
"null","is being copied by","","html-keyboard-response","166","970817","0.0-15.0-2.9","11061","List2B","white","man","","","","null","","","","","","","","",""
"12251.399999976158","","","survey-text","167","983071","0.0-15.0-3.9","11061","List2B","white","man","","","","","{""Q0"":""Luke is being copied by Jane""}","<img src=""stim_listB/copy2.gif""style=""height:400px;""></stim_listB>","is being copied by","","","","","",""
"null","<div style=""font-size:60px;"">+</div>","","html-keyboard-response","168","983573","0.0-15.0-0.10","11061","List2B","white","man","","","","null","","","","","","","","",""
"null","<img src=""stim_listB/copy4.gif""style=""height:400px;""></stim_listB>","","html-keyboard-response","169","985578","0.0-15.0-1.10","11061","List2B","white","man","","","","null","","","","","","","","",""
"null","is being copied by","","html-keyboard-response","170","987581","0.0-15.0-2.10","11061","List2B","white","man","","","","null","","","","","","","","",""
"12514.099999964237","","","survey-text","171","1000098","0.0-15.0-3.10","11061","List2B","white","man","","","","","{""Q0"":""Fred is being copied by Kate""}","<img src=""stim_listB/copy4.gif""style=""height:400px;""></stim_listB>","is being copied by","","","","","",""
"null","<div style=""font-size:60px;"">+</div>","","html-keyboard-response","172","1000600","0.0-15.0-0.11","11061","List2B","white","man","","","","null","","","","","","","","",""
"null","<img src=""stim_listB/seduce1.gif""style=""height:400px;""></stim_listB>","","html-keyboard-response","173","1002602","0.0-15.0-1.11","11061","List2B","white","man","","","","null","","","","","","","","",""
"null","is seducing","","html-keyboard-response","174","1004607","0.0-15.0-2.11","11061","List2B","white","man","","","","null","","","","","","","","",""
"11212.199999988079","","","survey-text","175","1015822","0.0-15.0-3.11","11061","List2B","white","man","","","","","{""Q0"":""Luke is seducing Jane""}","<img src=""stim_listB/seduce1.gif""style=""height:400px;""></stim_listB>","is seducing","","","","","",""
"null","<div style=""font-size:60px;"">+</div>","","html-keyboard-response","176","1016326","0.0-15.0-0.12","11061","List2B","white","man","","","","null","","","","","","","","",""
"null","<img src=""stim_listB/kiss7.gif""style=""height:400px;""></stim_listB>","","html-keyboard-response","177","1018333","0.0-15.0-1.12","11061","List2B","white","man","","","","null","","","","","","","","",""
"null","is kissing","","html-keyboard-response","178","1020338","0.0-15.0-2.12","11061","List2B","white","man","","","","null","","","","","","","","",""
"11704.800000011921","","","survey-text","179","1032046","0.0-15.0-3.12","11061","List2B","white","man","","","","","{""Q0"":""Beth is kissing Ruth ""}","<img src=""stim_listB/kiss7.gif""style=""height:400px;""></stim_listB>","is kissing","","","","","",""
"null","<div style=""font-size:60px;"">+</div>","","html-keyboard-response","180","1032551","0.0-15.0-0.13","11061","List2B","white","man","","","","null","","","","","","","","",""
"null","<img src=""stim_listB/shout1.gif""style=""height:400px;""></stim_listB>","","html-keyboard-response","181","1034555","0.0-15.0-1.13","11061","List2B","white","man","","","","null","","","","","","","","",""
"null","is shouting at","","html-keyboard-response","182","1036561","0.0-15.0-2.13","11061","List2B","white","man","","","","null","","","","","","","","",""
"10495.799999952316","","","survey-text","183","1047060","0.0-15.0-3.13","11061","List2B","white","man","","","","","{""Q0"":""Ruth is shouting at Luke""}","<img src=""stim_listB/shout1.gif""style=""height:400px;""></stim_listB>","is shouting at","","","","","",""
"null","<div style=""font-size:60px;"">+</div>","","html-keyboard-response","184","1047562","0.0-15.0-0.14","11061","List2B","white","man","","","","null","","","","","","","","",""
"null","<img src=""stim_listB/oppose4.gif""style=""height:400px;""></stim_listB>","","html-keyboard-response","185","1049568","0.0-15.0-1.14","11061","List2B","white","man","","","","null","","","","","","","","",""
"null","is being opposed by","","html-keyboard-response","186","1051573","0.0-15.0-2.14","11061","List2B","white","man","","","","null","","","","","","","","",""
"12914.400000035763","","","survey-text","187","1064491","0.0-15.0-3.14","11061","List2B","white","man","","","","","{""Q0"":""Fred is being opposed by Beth""}","<img src=""stim_listB/oppose4.gif""style=""height:400px;""></stim_listB>","is being opposed by","","","","","",""
"null","<div style=""font-size:60px;"">+</div>","","html-keyboard-response","188","1064993","0.0-15.0-0.15","11061","List2B","white","man","","","","null","","","","","","","","",""
"null","<img src=""stim_listB/hug6.gif""style=""height:400px;""></stim_listB>","","html-keyboard-response","189","1066995","0.0-15.0-1.15","11061","List2B","white","man","","","","null","","","","","","","","",""
"null","is being hugged by","","html-keyboard-response","190","1068999","0.0-15.0-2.15","11061","List2B","white","man","","","","null","","","","","","","","",""
"15145.5","","","survey-text","191","1084148","0.0-15.0-3.15","11061","List2B","white","man","","","","","{""Q0"":""Dave is being hugged by Mike""}","<img src=""stim_listB/hug6.gif""style=""height:400px;""></stim_listB>","is being hugged by","","","","","",""
"null","<div style=""font-size:60px;"">+</div>","","html-keyboard-response","192","1084649","0.0-15.0-0.16","11061","List2B","white","man","","","","null","","","","","","","","",""
"null","<img src=""stim_listB/hug2.gif""style=""height:400px;""></stim_listB>","","html-keyboard-response","193","1086658","0.0-15.0-1.16","11061","List2B","white","man","","","","null","","","","","","","","",""
"null","is being hugged by","","html-keyboard-response","194","1088662","0.0-15.0-2.16","11061","List2B","white","man","","","","null","","","","","","","","",""
"10548.5","","","survey-text","195","1099213","0.0-15.0-3.16","11061","List2B","white","man","","","","","{""Q0"":""Dave is being hugged by Jane""}","<img src=""stim_listB/hug2.gif""style=""height:400px;""></stim_listB>","is being hugged by","","","","","",""
"null","<div style=""font-size:60px;"">+</div>","","html-keyboard-response","196","1099714","0.0-15.0-0.17","11061","List2B","white","man","","","","null","","","","","","","","",""
"null","<img src=""stim_listB/oppose7.gif""style=""height:400px;""></stim_listB>","","html-keyboard-response","197","1101721","0.0-15.0-1.17","11061","List2B","white","man","","","","null","","","","","","","","",""
"null","is opposing","","html-keyboard-response","198","1103724","0.0-15.0-2.17","11061","List2B","white","man","","","","null","","","","","","","","",""
"11718.800000011921","","","survey-text","199","1115446","0.0-15.0-3.17","11061","List2B","white","man","","","","","{""Q0"":""Kate is opposing Jane""}","<img src=""stim_listB/oppose7.gif""style=""height:400px;""></stim_listB>","is opposing","","","","","",""
"null","<div style=""font-size:60px;"">+</div>","","html-keyboard-response","200","1115950","0.0-15.0-0.18","11061","List2B","white","man","","","","null","","","","","","","","",""
"null","<img src=""stim_listB/seduce2.gif""style=""height:400px;""></stim_listB>","","html-keyboard-response","201","1117957","0.0-15.0-1.18","11061","List2B","white","man","","","","null","","","","","","","","",""
"null","is being seduced by","","html-keyboard-response","202","1119962","0.0-15.0-2.18","11061","List2B","white","man","","","","null","","","","","","","","",""
"14607.400000035763","","","survey-text","203","1134572","0.0-15.0-3.18","11061","List2B","white","man","","","","","{""Q0"":""Dave is being seduced by Ruth""}","<img src=""stim_listB/seduce2.gif""style=""height:400px;""></stim_listB>","is being seduced by","","","","","",""
"null","<div style=""font-size:60px;"">+</div>","","html-keyboard-response","204","1135074","0.0-15.0-0.19","11061","List2B","white","man","","","","null","","","","","","","","",""
"null","<img src=""stim_listB/shout4.gif""style=""height:400px;""></stim_listB>","","html-keyboard-response","205","1137080","0.0-15.0-1.19","11061","List2B","white","man","","","","null","","","","","","","","",""
"null","is being shouted at by","","html-keyboard-response","206","1139086","0.0-15.0-2.19","11061","List2B","white","man","","","","null","","","","","","","","",""
"17419","","","survey-text","207","1156508","0.0-15.0-3.19","11061","List2B","white","man","","","","","{""Q0"":""Mike is being shouted at by Kate ""}","<img src=""stim_listB/shout4.gif""style=""height:400px;""></stim_listB>","is being shouted at by","","","","","",""
"8271.800000011921","<img src='img/portrait_matrix_list2.jpg' style='width:900px;height:500px;''></img><p>If you have memorised all the portraits and names and are ready to start, press Continue.</p><p><strong>Please note: Your memory of these faces will be tested 4 times during this experiment.</strong></p>","0","html-button-response","208","1164781","0.0-16.0-0.0","11061","List2B","white","man","","","","","","","","","","","","",""
"3167.600000023842","<img src=""portrait/WM1.jpg""style=""height:400px;""></img>","6","html-button-response","209","1168955","0.0-16.0-1.0","11061","List2B","white","man","","true","6","","","","","","","","","",""
"null","CORRECT","","html-keyboard-response","210","1170462","0.0-16.0-2.0-0.0","11061","List2B","white","man","","","","null","","","","","","","","",""
"4997.300000011921","<img src=""portrait/BM1.jpg""style=""height:400px;""></img>","4","html-button-response","211","1175461","0.0-16.0-4.0","11061","List2B","white","man","","true","4","","","","","","","","","",""
"null","CORRECT","","html-keyboard-response","212","1176972","0.0-16.0-5.0-0.0","11061","List2B","white","man","","","","null","","","","","","","","",""
"5494.100000023842","<img src=""portrait/BW1.jpg""style=""height:400px;""></img>","0","html-button-response","213","1182468","0.0-16.0-7.0","11061","List2B","white","man","","true","0","","","","","","","","","",""
"null","CORRECT","","html-keyboard-response","214","1183980","0.0-16.0-8.0-0.0","11061","List2B","white","man","","","","null","","","","","","","","",""
"3189.699999988079","<img src=""portrait/BM2.jpg""style=""height:400px;""></img>","5","html-button-response","215","1187171","0.0-16.0-10.0","11061","List2B","white","man","","true","5","","","","","","","","","",""
"null","CORRECT","","html-keyboard-response","216","1188681","0.0-16.0-11.0-0.0","11061","List2B","white","man","","","","null","","","","","","","","",""
"1434.5","<img src=""portrait/WW2.jpg""style=""height:400px;""></img>","3","html-button-response","217","1190118","0.0-16.0-13.0","11061","List2B","white","man","","true","3","","","","","","","","","",""
"null","CORRECT","","html-keyboard-response","218","1191630","0.0-16.0-14.0-0.0","11061","List2B","white","man","","","","null","","","","","","","","",""
"6509.399999976158","<img src=""portrait/WW1.jpg""style=""height:400px;""></img>","1","html-button-response","219","1198142","0.0-16.0-16.0","11061","List2B","white","man","","true","1","","","","","","","","","",""
"null","CORRECT","","html-keyboard-response","220","1199652","0.0-16.0-17.0-0.0","11061","List2B","white","man","","","","null","","","","","","","","",""
"3620.900000035763","<img src=""portrait/BW2.jpg""style=""height:400px;""></img>","2","html-button-response","221","1203275","0.0-16.0-19.0","11061","List2B","white","man","","true","2","","","","","","","","","",""
"null","CORRECT","","html-keyboard-response","222","1204787","0.0-16.0-20.0-0.0","11061","List2B","white","man","","","","null","","","","","","","","",""
"2127.300000011921","<img src=""portrait/WM2.jpg""style=""height:400px;""></img>","7","html-button-response","223","1206915","0.0-16.0-22.0","11061","List2B","white","man","","true","7","","","","","","","","","",""
"null","CORRECT","","html-keyboard-response","224","1208422","0.0-16.0-23.0-0.0","11061","List2B","white","man","","","","null","","","","","","","","",""
"1655.3999999761581","<p>You got 8 out of 8 right first time. Press Continue.</p>","0","html-button-response","225","1210087","0.0-16.0-25.0","11061","List2B","white","man","","","","","","","","","","","","",""
"null","<div style=""font-size:60px;"">+</div>","","html-keyboard-response","226","1211594","0.0-17.0-0.0","11061","List2B","white","man","","","","null","","","","","","","","",""
"null","<img src=""stim_listB/copy7.gif""style=""height:400px;""></stim_listB>","","html-keyboard-response","227","1213601","0.0-17.0-1.0","11061","List2B","white","man","","","","null","","","","","","","","",""
"null","is copying","","html-keyboard-response","228","1215609","0.0-17.0-2.0","11061","List2B","white","man","","","","null","","","","","","","","",""
"10440.800000011921","","","survey-text","229","1226053","0.0-17.0-3.0","11061","List2B","white","man","","","","","{""Q0"":""Jane is copying Beth""}","<img src=""stim_listB/copy7.gif""style=""height:400px;""></stim_listB>","is copying","","","","","",""
"null","<div style=""font-size:60px;"">+</div>","","html-keyboard-response","230","1226556","0.0-17.0-0.1","11061","List2B","white","man","","","","null","","","","","","","","",""
"null","<img src=""stim_listB/challenge5.gif""style=""height:400px;""></stim_listB>","","html-keyboard-response","231","1228562","0.0-17.0-1.1","11061","List2B","white","man","","","","null","","","","","","","","",""
"null","is challenging","","html-keyboard-response","232","1230567","0.0-17.0-2.1","11061","List2B","white","man","","","","null","","","","","","","","",""
"12184.599999964237","","","survey-text","233","1242755","0.0-17.0-3.1","11061","List2B","white","man","","","","","{""Q0"":""Dave is challenging Fred""}","<img src=""stim_listB/challenge5.gif""style=""height:400px;""></stim_listB>","is challenging","","","","","",""
"null","<div style=""font-size:60px;"">+</div>","","html-keyboard-response","234","1243259","0.0-17.0-0.2","11061","List2B","white","man","","","","null","","","","","","","","",""
"null","<img src=""stim_listB/hug4.gif""style=""height:400px;""></stim_listB>","","html-keyboard-response","235","1245266","0.0-17.0-1.2","11061","List2B","white","man","","","","null","","","","","","","","",""
"null","is being hugged by","","html-keyboard-response","236","1247267","0.0-17.0-2.2","11061","List2B","white","man","","","","null","","","","","","","","",""
"10281.800000011921","","","survey-text","237","1257551","0.0-17.0-3.2","11061","List2B","white","man","","","","","{""Q0"":""Mike is being hugged by Kate""}","<img src=""stim_listB/hug4.gif""style=""height:400px;""></stim_listB>","is being hugged by","","","","","",""
"null","<div style=""font-size:60px;"">+</div>","","html-keyboard-response","238","1258056","0.0-17.0-0.3","11061","List2B","white","man","","","","null","","","","","","","","",""
"null","<img src=""stim_listB/look6.gif""style=""height:400px;""></stim_listB>","","html-keyboard-response","239","1260061","0.0-17.0-1.3","11061","List2B","white","man","","","","null","","","","","","","","",""
"null","is being looked at by","","html-keyboard-response","240","1262066","0.0-17.0-2.3","11061","List2B","white","man","","","","null","","","","","","","","",""
"9703.199999988079","","","survey-text","241","1271772","0.0-17.0-3.3","11061","List2B","white","man","","","","","{""Q0"":""Dave is being looked at by Mike""}","<img src=""stim_listB/look6.gif""style=""height:400px;""></stim_listB>","is being looked at by","","","","","",""
"null","<div style=""font-size:60px;"">+</div>","","html-keyboard-response","242","1272277","0.0-17.0-0.4","11061","List2B","white","man","","","","null","","","","","","","","",""
"null","<img src=""stim_listB/oppose5.gif""style=""height:400px;""></stim_listB>","","html-keyboard-response","243","1274282","0.0-17.0-1.4","11061","List2B","white","man","","","","null","","","","","","","","",""
"null","is opposing","","html-keyboard-response","244","1276287","0.0-17.0-2.4","11061","List2B","white","man","","","","null","","","","","","","","",""
"6882.100000023842","","","survey-text","245","1283172","0.0-17.0-3.4","11061","List2B","white","man","","","","","{""Q0"":""Mike is opposing Dave""}","<img src=""stim_listB/oppose5.gif""style=""height:400px;""></stim_listB>","is opposing","","","","","",""
"null","<div style=""font-size:60px;"">+</div>","","html-keyboard-response","246","1283674","0.0-17.0-0.5","11061","List2B","white","man","","","","null","","","","","","","","",""
"null","<img src=""stim_listB/challenge3.gif""style=""height:400px;""></stim_listB>","","html-keyboard-response","247","1285677","0.0-17.0-1.5","11061","List2B","white","man","","","","null","","","","","","","","",""
"null","is challenging","","html-keyboard-response","248","1287683","0.0-17.0-2.5","11061","List2B","white","man","","","","null","","","","","","","","",""
"8510.800000011921","","","survey-text","249","1296197","0.0-17.0-3.5","11061","List2B","white","man","","","","","{""Q0"":""Mike is challenging Beth""}","<img src=""stim_listB/challenge3.gif""style=""height:400px;""></stim_listB>","is challenging","","","","","",""
"null","<div style=""font-size:60px;"">+</div>","","html-keyboard-response","250","1296701","0.0-17.0-0.6","11061","List2B","white","man","","","","null","","","","","","","","",""
"null","<img src=""stim_listB/kiss2.gif""style=""height:400px;""></stim_listB>","","html-keyboard-response","251","1298707","0.0-17.0-1.6","11061","List2B","white","man","","","","null","","","","","","","","",""
"null","is being kissed by","","html-keyboard-response","252","1300712","0.0-17.0-2.6","11061","List2B","white","man","","","","null","","","","","","","","",""
"8362.5","","","survey-text","253","1309077","0.0-17.0-3.6","11061","List2B","white","man","","","","","{""Q0"":""Dave is being kissed by Jane""}","<img src=""stim_listB/kiss2.gif""style=""height:400px;""></stim_listB>","is being kissed by","","","","","",""
"null","<div style=""font-size:60px;"">+</div>","","html-keyboard-response","254","1309582","0.0-17.0-0.7","11061","List2B","white","man","","","","null","","","","","","","","",""
"null","<img src=""stim_listB/seduce6.gif""style=""height:400px;""></stim_listB>","","html-keyboard-response","255","1311587","0.0-17.0-1.7","11061","List2B","white","man","","","","null","","","","","","","","",""
"null","is being seduced by","","html-keyboard-response","256","1313592","0.0-17.0-2.7","11061","List2B","white","man","","","","null","","","","","","","","",""
"10052.600000023842","","","survey-text","257","1323648","0.0-17.0-3.7","11061","List2B","white","man","","","","","{""Q0"":""Dave is being seduced by Fred""}","<img src=""stim_listB/seduce6.gif""style=""height:400px;""></stim_listB>","is being seduced by","","","","","",""
"null","<div style=""font-size:60px;"">+</div>","","html-keyboard-response","258","1324150","0.0-17.0-0.8","11061","List2B","white","man","","","","null","","","","","","","","",""
"null","<img src=""stim_listB/oppose8.gif""style=""height:400px;""></stim_listB>","","html-keyboard-response","259","1326153","0.0-17.0-1.8","11061","List2B","white","man","","","","null","","","","","","","","",""
"null","is being opposed by","","html-keyboard-response","260","1328159","0.0-17.0-2.8","11061","List2B","white","man","","","","null","","","","","","","","",""
"15095.299999952316","","","survey-text","261","1343257","0.0-17.0-3.8","11061","List2B","white","man","","","","","{""Q0"":""Beth is being opposed by Ruth""}","<img src=""stim_listB/oppose8.gif""style=""height:400px;""></stim_listB>","is being opposed by","","","","","",""
"null","<div style=""font-size:60px;"">+</div>","","html-keyboard-response","262","1343759","0.0-17.0-0.9","11061","List2B","white","man","","","","null","","","","","","","","",""
"null","<img src=""stim_listB/kiss5.gif""style=""height:400px;""></stim_listB>","","html-keyboard-response","263","1345765","0.0-17.0-1.9","11061","List2B","white","man","","","","null","","","","","","","","",""
"null","is kissing","","html-keyboard-response","264","1347767","0.0-17.0-2.9","11061","List2B","white","man","","","","null","","","","","","","","",""
"9606.399999976158","","","survey-text","265","1357377","0.0-17.0-3.9","11061","List2B","white","man","","","","","{""Q0"":""Fred is kissing Luke""}","<img src=""stim_listB/kiss5.gif""style=""height:400px;""></stim_listB>","is kissing","","","","","",""
"null","<div style=""font-size:60px;"">+</div>","","html-keyboard-response","266","1357881","0.0-17.0-0.10","11061","List2B","white","man","","","","null","","","","","","","","",""
"null","<img src=""stim_listB/kiss1.gif""style=""height:400px;""></stim_listB>","","html-keyboard-response","267","1359888","0.0-17.0-1.10","11061","List2B","white","man","","","","null","","","","","","","","",""
"null","is kissing","","html-keyboard-response","268","1361893","0.0-17.0-2.10","11061","List2B","white","man","","","","null","","","","","","","","",""
"6862.299999952316","","","survey-text","269","1368758","0.0-17.0-3.10","11061","List2B","white","man","","","","","{""Q0"":""Ruth is kissing Luke""}","<img src=""stim_listB/kiss1.gif""style=""height:400px;""></stim_listB>","is kissing","","","","","",""
"null","<div style=""font-size:60px;"">+</div>","","html-keyboard-response","270","1369260","0.0-17.0-0.11","11061","List2B","white","man","","","","null","","","","","","","","",""
"null","<img src=""stim_listB/greet6.gif""style=""height:400px;""></stim_listB>","","html-keyboard-response","271","1371268","0.0-17.0-1.11","11061","List2B","white","man","","","","null","","","","","","","","",""
"null","is being greeted by","","html-keyboard-response","272","1373271","0.0-17.0-2.11","11061","List2B","white","man","","","","null","","","","","","","","",""
"13265.599999964237","","","survey-text","273","1386540","0.0-17.0-3.11","11061","List2B","white","man","","","","","{""Q0"":""Luke is being greeted by Mike""}","<img src=""stim_listB/greet6.gif""style=""height:400px;""></stim_listB>","is being greeted by","","","","","",""
"null","<div style=""font-size:60px;"">+</div>","","html-keyboard-response","274","1387046","0.0-17.0-0.12","11061","List2B","white","man","","","","null","","","","","","","","",""
"null","<img src=""stim_listB/shout3.gif""style=""height:400px;""></stim_listB>","","html-keyboard-response","275","1389052","0.0-17.0-1.12","11061","List2B","white","man","","","","null","","","","","","","","",""
"null","is shouting at","","html-keyboard-response","276","1391058","0.0-17.0-2.12","11061","List2B","white","man","","","","null","","","","","","","","",""
"9373.899999976158","","","survey-text","277","1400434","0.0-17.0-3.12","11061","List2B","white","man","","","","","{""Q0"":""Fred is shouting at Beth""}","<img src=""stim_listB/shout3.gif""style=""height:400px;""></stim_listB>","is shouting at","","","","","",""
"null","<div style=""font-size:60px;"">+</div>","","html-keyboard-response","278","1400941","0.0-17.0-0.13","11061","List2B","white","man","","","","null","","","","","","","","",""
"null","<img src=""stim_listB/look8.gif""style=""height:400px;""></stim_listB>","","html-keyboard-response","279","1402947","0.0-17.0-1.13","11061","List2B","white","man","","","","null","","","","","","","","",""
"null","is being looked at by","","html-keyboard-response","280","1404953","0.0-17.0-2.13","11061","List2B","white","man","","","","null","","","","","","","","",""
"12767.199999988079","","","survey-text","281","1417723","0.0-17.0-3.13","11061","List2B","white","man","","","","","{""Q0"":""Jane is being looked at by Kate""}","<img src=""stim_listB/look8.gif""style=""height:400px;""></stim_listB>","is being looked at by","","","","","",""
"null","<div style=""font-size:60px;"">+</div>","","html-keyboard-response","282","1418229","0.0-17.0-0.14","11061","List2B","white","man","","","","null","","","","","","","","",""
"null","<img src=""stim_listB/challenge4.gif""style=""height:400px;""></stim_listB>","","html-keyboard-response","283","1420232","0.0-17.0-1.14","11061","List2B","white","man","","","","null","","","","","","","","",""
"null","is being challenged by","","html-keyboard-response","284","1422237","0.0-17.0-2.14","11061","List2B","white","man","","","","null","","","","","","","","",""
"11569.799999952316","","","survey-text","285","1433810","0.0-17.0-3.14","11061","List2B","white","man","","","","","{""Q0"":""Fred is being challenged by Kate""}","<img src=""stim_listB/challenge4.gif""style=""height:400px;""></stim_listB>","is being challenged by","","","","","",""
"null","<div style=""font-size:60px;"">+</div>","","html-keyboard-response","286","1434316","0.0-17.0-0.15","11061","List2B","white","man","","","","null","","","","","","","","",""
"null","<img src=""stim_listB/touch3.gif""style=""height:400px;""></stim_listB>","","html-keyboard-response","287","1436323","0.0-17.0-1.15","11061","List2B","white","man","","","","null","","","","","","","","",""
"null","is touching","","html-keyboard-response","288","1438328","0.0-17.0-2.15","11061","List2B","white","man","","","","null","","","","","","","","",""
"6050.5","","","survey-text","289","1444381","0.0-17.0-3.15","11061","List2B","white","man","","","","","{""Q0"":""Kate is touching Mike""}","<img src=""stim_listB/touch3.gif""style=""height:400px;""></stim_listB>","is touching","","","","","",""
"null","<div style=""font-size:60px;"">+</div>","","html-keyboard-response","290","1444883","0.0-17.0-0.16","11061","List2B","white","man","","","","null","","","","","","","","",""
"null","<img src=""stim_listB/touch7.gif""style=""height:400px;""></stim_listB>","","html-keyboard-response","291","1446890","0.0-17.0-1.16","11061","List2B","white","man","","","","null","","","","","","","","",""
"null","is touching","","html-keyboard-response","292","1448894","0.0-17.0-2.16","11061","List2B","white","man","","","","null","","","","","","","","",""
"10446.300000011921","","","survey-text","293","1459343","0.0-17.0-3.16","11061","List2B","white","man","","","","","{""Q0"":""Kate is touching Jane""}","<img src=""stim_listB/touch7.gif""style=""height:400px;""></stim_listB>","is touching","","","","","",""
"null","<div style=""font-size:60px;"">+</div>","","html-keyboard-response","294","1459850","0.0-17.0-0.17","11061","List2B","white","man","","","","null","","","","","","","","",""
"null","<img src=""stim_listB/challenge2.gif""style=""height:400px;""></stim_listB>","","html-keyboard-response","295","1461856","0.0-17.0-1.17","11061","List2B","white","man","","","","null","","","","","","","","",""
"null","is being challenged by","","html-keyboard-response","296","1463861","0.0-17.0-2.17","11061","List2B","white","man","","","","null","","","","","","","","",""
"12984.800000011921","","","survey-text","297","1476849","0.0-17.0-3.17","11061","List2B","white","man","","","","","{""Q0"":""Jane is being challenged by Luke""}","<img src=""stim_listB/challenge2.gif""style=""height:400px;""></stim_listB>","is being challenged by","","","","","",""
"null","<div style=""font-size:60px;"">+</div>","","html-keyboard-response","298","1477351","0.0-17.0-0.18","11061","List2B","white","man","","","","null","","","","","","","","",""
"null","<img src=""stim_listB/look4.gif""style=""height:400px;""></stim_listB>","","html-keyboard-response","299","1479358","0.0-17.0-1.18","11061","List2B","white","man","","","","null","","","","","","","","",""
"null","is being looked at by","","html-keyboard-response","300","1481363","0.0-17.0-2.18","11061","List2B","white","man","","","","null","","","","","","","","",""
"8867.300000011921","","","survey-text","301","1490233","0.0-17.0-3.18","11061","List2B","white","man","","","","","{""Q0"":""Mike is being looked at by Kate""}","<img src=""stim_listB/look4.gif""style=""height:400px;""></stim_listB>","is being looked at by","","","","","",""
"null","<div style=""font-size:60px;"">+</div>","","html-keyboard-response","302","1490740","0.0-17.0-0.19","11061","List2B","white","man","","","","null","","","","","","","","",""
"null","<img src=""stim_listB/kiss6.gif""style=""height:400px;""></stim_listB>","","html-keyboard-response","303","1492746","0.0-17.0-1.19","11061","List2B","white","man","","","","null","","","","","","","","",""
"null","is being kissed by","","html-keyboard-response","304","1494751","0.0-17.0-2.19","11061","List2B","white","man","","","","null","","","","","","","","",""
"6961.5","","","survey-text","305","1501716","0.0-17.0-3.19","11061","List2B","white","man","","","","","{""Q0"":""Dave is being kissed by Mike""}","<img src=""stim_listB/kiss6.gif""style=""height:400px;""></stim_listB>","is being kissed by","","","","","",""
"3207.300000011921","<img src='img/portrait_matrix_list2.jpg' style='width:900px;height:500px;''></img><p>If you have memorised all the portraits and names and are ready to start, press Continue.</p><p><strong>Please note: Your memory of these faces will be tested 4 times during this experiment.</strong></p>","0","html-button-response","306","1504925","0.0-18.0-0.0","11061","List2B","white","man","","","","","","","","","","","","",""
"1777.300000011921","<img src=""portrait/WM2.jpg""style=""height:400px;""></img>","7","html-button-response","307","1507710","0.0-18.0-1.0","11061","List2B","white","man","","true","7","","","","","","","","","",""
"null","CORRECT","","html-keyboard-response","308","1509220","0.0-18.0-2.0-0.0","11061","List2B","white","man","","","","null","","","","","","","","",""
"6646.5","<img src=""portrait/BW1.jpg""style=""height:400px;""></img>","0","html-button-response","309","1515868","0.0-18.0-4.0","11061","List2B","white","man","","true","0","","","","","","","","","",""
"null","CORRECT","","html-keyboard-response","310","1517380","0.0-18.0-5.0-0.0","11061","List2B","white","man","","","","null","","","","","","","","",""
"1981.5","<img src=""portrait/BM1.jpg""style=""height:400px;""></img>","4","html-button-response","311","1519364","0.0-18.0-7.0","11061","List2B","white","man","","true","4","","","","","","","","","",""
"null","CORRECT","","html-keyboard-response","312","1520870","0.0-18.0-8.0-0.0","11061","List2B","white","man","","","","null","","","","","","","","",""
"2194.199999988079","<img src=""portrait/BW2.jpg""style=""height:400px;""></img>","2","html-button-response","313","1523066","0.0-18.0-10.0","11061","List2B","white","man","","true","2","","","","","","","","","",""
"null","CORRECT","","html-keyboard-response","314","1524575","0.0-18.0-11.0-0.0","11061","List2B","white","man","","","","null","","","","","","","","",""
"1529","<img src=""portrait/WW1.jpg""style=""height:400px;""></img>","1","html-button-response","315","1526106","0.0-18.0-13.0","11061","List2B","white","man","","true","1","","","","","","","","","",""
"null","CORRECT","","html-keyboard-response","316","1527618","0.0-18.0-14.0-0.0","11061","List2B","white","man","","","","null","","","","","","","","",""
"1432.5999999642372","<img src=""portrait/WW2.jpg""style=""height:400px;""></img>","3","html-button-response","317","1529053","0.0-18.0-16.0","11061","List2B","white","man","","true","3","","","","","","","","","",""
"null","CORRECT","","html-keyboard-response","318","1530565","0.0-18.0-17.0-0.0","11061","List2B","white","man","","","","null","","","","","","","","",""
"1536.6000000238419","<img src=""portrait/BM2.jpg""style=""height:400px;""></img>","5","html-button-response","319","1532103","0.0-18.0-19.0","11061","List2B","white","man","","true","5","","","","","","","","","",""
"null","CORRECT","","html-keyboard-response","320","1533608","0.0-18.0-20.0-0.0","11061","List2B","white","man","","","","null","","","","","","","","",""
"2377.699999988079","<img src=""portrait/WM1.jpg""style=""height:400px;""></img>","6","html-button-response","321","1535988","0.0-18.0-22.0","11061","List2B","white","man","","true","6","","","","","","","","","",""
"null","CORRECT","","html-keyboard-response","322","1537498","0.0-18.0-23.0-0.0","11061","List2B","white","man","","","","null","","","","","","","","",""
"1606","<p>You got 8 out of 8 right first time. Press Continue.</p>","0","html-button-response","323","1539114","0.0-18.0-25.0","11061","List2B","white","man","","","","","","","","","","","","",""
"null","<div style=""font-size:60px;"">+</div>","","html-keyboard-response","324","1540621","0.0-19.0-0.0","11061","List2B","white","man","","","","null","","","","","","","","",""
"null","<img src=""stim_listB/shout5.gif""style=""height:400px;""></stim_listB>","","html-keyboard-response","325","1542623","0.0-19.0-1.0","11061","List2B","white","man","","","","null","","","","","","","","",""
"null","is shouting at","","html-keyboard-response","326","1544629","0.0-19.0-2.0","11061","List2B","white","man","","","","null","","","","","","","","",""
"10899.099999964237","","","survey-text","327","1555531","0.0-19.0-3.0","11061","List2B","white","man","","","","","{""Q0"":""Fred is shouting at Luke""}","<img src=""stim_listB/shout5.gif""style=""height:400px;""></stim_listB>","is shouting at","","","","","",""
"null","<div style=""font-size:60px;"">+</div>","","html-keyboard-response","328","1556037","0.0-19.0-0.1","11061","List2B","white","man","","","","null","","","","","","","","",""
"null","<img src=""stim_listB/hug7.gif""style=""height:400px;""></stim_listB>","","html-keyboard-response","329","1558040","0.0-19.0-1.1","11061","List2B","white","man","","","","null","","","","","","","","",""
"null","is hugging","","html-keyboard-response","330","1560046","0.0-19.0-2.1","11061","List2B","white","man","","","","null","","","","","","","","",""
"7706.5","","","survey-text","331","1567755","0.0-19.0-3.1","11061","List2B","white","man","","","","","{""Q0"":""Ruth is hugging Beth""}","<img src=""stim_listB/hug7.gif""style=""height:400px;""></stim_listB>","is hugging","","","","","",""
"null","<div style=""font-size:60px;"">+</div>","","html-keyboard-response","332","1568261","0.0-19.0-0.2","11061","List2B","white","man","","","","null","","","","","","","","",""
"null","<img src=""stim_listB/seduce7.gif""style=""height:400px;""></stim_listB>","","html-keyboard-response","333","1570268","0.0-19.0-1.2","11061","List2B","white","man","","","","null","","","","","","","","",""
"null","is seducing","","html-keyboard-response","334","1572269","0.0-19.0-2.2","11061","List2B","white","man","","","","null","","","","","","","","",""
"10799.600000023842","","","survey-text","335","1583071","0.0-19.0-3.2","11061","List2B","white","man","","","","","{""Q0"":""Kate is seducing Ruth""}","<img src=""stim_listB/seduce7.gif""style=""height:400px;""></stim_listB>","is seducing","","","","","",""
"null","<div style=""font-size:60px;"">+</div>","","html-keyboard-response","336","1583577","0.0-19.0-0.3","11061","List2B","white","man","","","","null","","","","","","","","",""
"null","<img src=""stim_listB/oppose6.gif""style=""height:400px;""></stim_listB>","","html-keyboard-response","337","1585584","0.0-19.0-1.3","11061","List2B","white","man","","","","null","","","","","","","","",""
"null","is being opposed by","","html-keyboard-response","338","1587589","0.0-19.0-2.3","11061","List2B","white","man","","","","null","","","","","","","","",""
"8395.300000011921","","","survey-text","339","1595987","0.0-19.0-3.3","11061","List2B","white","man","","","","","{""Q0"":""Luke is being opposed by Fred""}","<img src=""stim_listB/oppose6.gif""style=""height:400px;""></stim_listB>","is being opposed by","","","","","",""
"null","<div style=""font-size:60px;"">+</div>","","html-keyboard-response","340","1596493","0.0-19.0-0.4","11061","List2B","white","man","","","","null","","","","","","","","",""
"null","<img src=""stim_listB/shout2.gif""style=""height:400px;""></stim_listB>","","html-keyboard-response","341","1598500","0.0-19.0-1.4","11061","List2B","white","man","","","","null","","","","","","","","",""
"null","is being shouted at by","","html-keyboard-response","342","1600505","0.0-19.0-2.4","11061","List2B","white","man","","","","null","","","","","","","","",""
"15803","","","survey-text","343","1616311","0.0-19.0-3.4","11061","List2B","white","man","","","","","{""Q0"":""Dave is being shouted at by Jane""}","<img src=""stim_listB/shout2.gif""style=""height:400px;""></stim_listB>","is being shouted at by","","","","","",""
"null","<div style=""font-size:60px;"">+</div>","","html-keyboard-response","344","1616818","0.0-19.0-0.5","11061","List2B","white","man","","","","null","","","","","","","","",""
"null","<img src=""stim_listB/touch2.gif""style=""height:400px;""></stim_listB>","","html-keyboard-response","345","1618823","0.0-19.0-1.5","11061","List2B","white","man","","","","null","","","","","","","","",""
"null","is being touched by","","html-keyboard-response","346","1620829","0.0-19.0-2.5","11061","List2B","white","man","","","","null","","","","","","","","",""
"11785.799999952316","","","survey-text","347","1632618","0.0-19.0-3.5","11061","List2B","white","man","","","","","{""Q0"":""Luke is being touched by Beth""}","<img src=""stim_listB/touch2.gif""style=""height:400px;""></stim_listB>","is being touched by","","","","","",""
"null","<div style=""font-size:60px;"">+</div>","","html-keyboard-response","348","1633124","0.0-19.0-0.6","11061","List2B","white","man","","","","null","","","","","","","","",""
"null","<img src=""stim_listB/greet3.gif""style=""height:400px;""></stim_listB>","","html-keyboard-response","349","1635131","0.0-19.0-1.6","11061","List2B","white","man","","","","null","","","","","","","","",""
"null","is greeting","","html-keyboard-response","350","1637138","0.0-19.0-2.6","11061","List2B","white","man","","","","null","","","","","","","","",""
"14507.699999988079","","","survey-text","351","1651654","0.0-19.0-3.6","11061","List2B","white","man","","","","","{""Q0"":""Beth is greeting Luke""}","<img src=""stim_listB/greet3.gif""style=""height:400px;""></stim_listB>","is greeting","","","","","",""
"null","<div style=""font-size:60px;"">+</div>","","html-keyboard-response","352","1652161","0.0-19.0-0.7","11061","List2B","white","man","","","","null","","","","","","","","",""
"null","<img src=""stim_listB/shout8.gif""style=""height:400px;""></stim_listB>","","html-keyboard-response","353","1654168","0.0-19.0-1.7","11061","List2B","white","man","","","","null","","","","","","","","",""
"null","is being shouted at by","","html-keyboard-response","354","1656174","0.0-19.0-2.7","11061","List2B","white","man","","","","null","","","","","","","","",""
"8407.899999976158","","","survey-text","355","1664586","0.0-19.0-3.7","11061","List2B","white","man","","","","","{""Q0"":""Jane is being shouted at by Kate""}","<img src=""stim_listB/shout8.gif""style=""height:400px;""></stim_listB>","is being shouted at by","","","","","",""
"null","<div style=""font-size:60px;"">+</div>","","html-keyboard-response","356","1665092","0.0-19.0-0.8","11061","List2B","white","man","","","","null","","","","","","","","",""
"null","<img src=""stim_listB/hug3.gif""style=""height:400px;""></stim_listB>","","html-keyboard-response","357","1667097","0.0-19.0-1.8","11061","List2B","white","man","","","","null","","","","","","","","",""
"null","is hugging","","html-keyboard-response","358","1669102","0.0-19.0-2.8","11061","List2B","white","man","","","","null","","","","","","","","",""
"6732.800000011921","","","survey-text","359","1675838","0.0-19.0-3.8","11061","List2B","white","man","","","","","{""Q0"":""Beth is hugging Fred""}","<img src=""stim_listB/hug3.gif""style=""height:400px;""></stim_listB>","is hugging","","","","","",""
"null","<div style=""font-size:60px;"">+</div>","","html-keyboard-response","360","1676341","0.0-19.0-0.9","11061","List2B","white","man","","","","null","","","","","","","","",""
"null","<img src=""stim_listB/greet5.gif""style=""height:400px;""></stim_listB>","","html-keyboard-response","361","1678348","0.0-19.0-1.9","11061","List2B","white","man","","","","null","","","","","","","","",""
"null","is greeting","","html-keyboard-response","362","1680354","0.0-19.0-2.9","11061","List2B","white","man","","","","null","","","","","","","","",""
"6182.300000011921","","","survey-text","363","1686540","0.0-19.0-3.9","11061","List2B","white","man","","","","","{""Q0"":""Fred is greeting Dave""}","<img src=""stim_listB/greet5.gif""style=""height:400px;""></stim_listB>","is greeting","","","","","",""
"null","<div style=""font-size:60px;"">+</div>","","html-keyboard-response","364","1687046","0.0-19.0-0.10","11061","List2B","white","man","","","","null","","","","","","","","",""
"null","<img src=""stim_listB/seduce8.gif""style=""height:400px;""></stim_listB>","","html-keyboard-response","365","1689050","0.0-19.0-1.10","11061","List2B","white","man","","","","null","","","","","","","","",""
"null","is being seduced by","","html-keyboard-response","366","1691056","0.0-19.0-2.10","11061","List2B","white","man","","","","null","","","","","","","","",""
"8325.399999976158","","","survey-text","367","1699385","0.0-19.0-3.10","11061","List2B","white","man","","","","","{""Q0"":""Jane is being seduced by Beth""}","<img src=""stim_listB/seduce8.gif""style=""height:400px;""></stim_listB>","is being seduced by","","","","","",""
"null","<div style=""font-size:60px;"">+</div>","","html-keyboard-response","368","1699892","0.0-19.0-0.11","11061","List2B","white","man","","","","null","","","","","","","","",""
"null","<img src=""stim_listB/oppose2.gif""style=""height:400px;""></stim_listB>","","html-keyboard-response","369","1701898","0.0-19.0-1.11","11061","List2B","white","man","","","","null","","","","","","","","",""
"null","is being opposed by","","html-keyboard-response","370","1703904","0.0-19.0-2.11","11061","List2B","white","man","","","","null","","","","","","","","",""
"9476.699999988079","","","survey-text","371","1713384","0.0-19.0-3.11","11061","List2B","white","man","","","","","{""Q0"":""Luke is being opposed by Ruth""}","<img src=""stim_listB/oppose2.gif""style=""height:400px;""></stim_listB>","is being opposed by","","","","","",""
"null","<div style=""font-size:60px;"">+</div>","","html-keyboard-response","372","1713885","0.0-19.0-0.12","11061","List2B","white","man","","","","null","","","","","","","","",""
"null","<img src=""stim_listB/shout6.gif""style=""height:400px;""></stim_listB>","","html-keyboard-response","373","1715891","0.0-19.0-1.12","11061","List2B","white","man","","","","null","","","","","","","","",""
"null","is being shouted at by","","html-keyboard-response","374","1717896","0.0-19.0-2.12","11061","List2B","white","man","","","","null","","","","","","","","",""
"11913.899999976158","","","survey-text","375","1729813","0.0-19.0-3.12","11061","List2B","white","man","","","","","{""Q0"":""Dave is being shouted at by Mike""}","<img src=""stim_listB/shout6.gif""style=""height:400px;""></stim_listB>","is being shouted at by","","","","","",""
"null","<div style=""font-size:60px;"">+</div>","","html-keyboard-response","376","1730317","0.0-19.0-0.13","11061","List2B","white","man","","","","null","","","","","","","","",""
"null","<img src=""stim_listB/look7.gif""style=""height:400px;""></stim_listB>","","html-keyboard-response","377","1732321","0.0-19.0-1.13","11061","List2B","white","man","","","","null","","","","","","","","",""
"null","is looking at","","html-keyboard-response","378","1734326","0.0-19.0-2.13","11061","List2B","white","man","","","","null","","","","","","","","",""
"6546.5","","","survey-text","379","1740875","0.0-19.0-3.13","11061","List2B","white","man","","","","","{""Q0"":""Ruth is looking at Beth""}","<img src=""stim_listB/look7.gif""style=""height:400px;""></stim_listB>","is looking at","","","","","",""
"null","<div style=""font-size:60px;"">+</div>","","html-keyboard-response","380","1741377","0.0-19.0-0.14","11061","List2B","white","man","","","","null","","","","","","","","",""
"null","<img src=""stim_listB/hug1.gif""style=""height:400px;""></stim_listB>","","html-keyboard-response","381","1743382","0.0-19.0-1.14","11061","List2B","white","man","","","","null","","","","","","","","",""
"null","is hugging","","html-keyboard-response","382","1745383","0.0-19.0-2.14","11061","List2B","white","man","","","","null","","","","","","","","",""
"7197.900000035763","","","survey-text","383","1752584","0.0-19.0-3.14","11061","List2B","white","man","","","","","{""Q0"":""Luke is hugging Ruth""}","<img src=""stim_listB/hug1.gif""style=""height:400px;""></stim_listB>","is hugging","","","","","",""
"null","<div style=""font-size:60px;"">+</div>","","html-keyboard-response","384","1753091","0.0-19.0-0.15","11061","List2B","white","man","","","","null","","","","","","","","",""
"null","<img src=""stim_listB/greet2.gif""style=""height:400px;""></stim_listB>","","html-keyboard-response","385","1755097","0.0-19.0-1.15","11061","List2B","white","man","","","","null","","","","","","","","",""
"null","is being greeted by","","html-keyboard-response","386","1757102","0.0-19.0-2.15","11061","List2B","white","man","","","","null","","","","","","","","",""
"9023.699999988079","","","survey-text","387","1766129","0.0-19.0-3.15","11061","List2B","white","man","","","","","{""Q0"":""Jane is being greeted by Luke""}","<img src=""stim_listB/greet2.gif""style=""height:400px;""></stim_listB>","is being greeted by","","","","","",""
"null","<div style=""font-size:60px;"">+</div>","","html-keyboard-response","388","1766630","0.0-19.0-0.16","11061","List2B","white","man","","","","null","","","","","","","","",""
"null","<img src=""stim_listB/touch1.gif""style=""height:400px;""></stim_listB>","","html-keyboard-response","389","1768637","0.0-19.0-1.16","11061","List2B","white","man","","","","null","","","","","","","","",""
"null","is touching","","html-keyboard-response","390","1770642","0.0-19.0-2.16","11061","List2B","white","man","","","","null","","","","","","","","",""
"6906.699999988079","","","survey-text","391","1777554","0.0-19.0-3.16","11061","List2B","white","man","","","","","{""Q0"":""Jane is touching Dave""}","<img src=""stim_listB/touch1.gif""style=""height:400px;""></stim_listB>","is touching","","","","","",""
"null","<div style=""font-size:60px;"">+</div>","","html-keyboard-response","392","1778056","0.0-19.0-0.17","11061","List2B","white","man","","","","null","","","","","","","","",""
"null","<img src=""stim_listB/seduce3.gif""style=""height:400px;""></stim_listB>","","html-keyboard-response","393","1780059","0.0-19.0-1.17","11061","List2B","white","man","","","","null","","","","","","","","",""
"null","is seducing","","html-keyboard-response","394","1782062","0.0-19.0-2.17","11061","List2B","white","man","","","","null","","","","","","","","",""
"6864.399999976158","","","survey-text","395","1788930","0.0-19.0-3.17","11061","List2B","white","man","","","","","{""Q0"":""Kate is seducing Fred""}","<img src=""stim_listB/seduce3.gif""style=""height:400px;""></stim_listB>","is seducing","","","","","",""
"null","<div style=""font-size:60px;"">+</div>","","html-keyboard-response","396","1789432","0.0-19.0-0.18","11061","List2B","white","man","","","","null","","","","","","","","",""
"null","<img src=""stim_listB/hug8.gif""style=""height:400px;""></stim_listB>","","html-keyboard-response","397","1791437","0.0-19.0-1.18","11061","List2B","white","man","","","","null","","","","","","","","",""
"null","is being hugged by","","html-keyboard-response","398","1793443","0.0-19.0-2.18","11061","List2B","white","man","","","","null","","","","","","","","",""
"7833.199999988079","","","survey-text","399","1801279","0.0-19.0-3.18","11061","List2B","white","man","","","","","{""Q0"":""Jane is being hugged by Kate""}","<img src=""stim_listB/hug8.gif""style=""height:400px;""></stim_listB>","is being hugged by","","","","","",""
"null","<div style=""font-size:60px;"">+</div>","","html-keyboard-response","400","1801782","0.0-19.0-0.19","11061","List2B","white","man","","","","null","","","","","","","","",""
"null","<img src=""stim_listB/touch8.gif""style=""height:400px;""></stim_listB>","","html-keyboard-response","401","1803784","0.0-19.0-1.19","11061","List2B","white","man","","","","null","","","","","","","","",""
"null","is being touched by","","html-keyboard-response","402","1805789","0.0-19.0-2.19","11061","List2B","white","man","","","","null","","","","","","","","",""
"8015.900000035763","","","survey-text","403","1813808","0.0-19.0-3.19","11061","List2B","white","man","","","","","{""Q0"":""Ruth is being touched by Beth""}","<img src=""stim_listB/touch8.gif""style=""height:400px;""></stim_listB>","is being touched by","","","","","",""
"3046.7999999523163","<p>Thank you for completing that task.</p><p>The final part of this session is a questionnaire that will take about 4 minutes.</p><p>Press Continue.</p>","0","html-button-response","404","1816856","0.0-20.0","11061","List2B","white","man","","","","","","","","","","","","",""
"30102.30000001192","","","survey-text","405","1847978","0.0-21.0","11061","List2B","white","man","","","","","{""Q0"":""23"",""Q1"":""English"",""Q2"":""English"",""Q3"":""USA"",""Q4"":""South Africa"",""Q5"":""White"",""Q6"":""Male""}","","","demographics","","","","",""
"3429.300000011921","<p>Have you lived in the USA for the last 5 years or more?</p>","0","html-button-response","406","1851410","0.0-22.0","11061","List2B","white","man","","","","","","","","fiveyears","","","","",""
"2734.800000011921","<p>Move the slider to show the extent to which you agree with the following statements.</p>","0","html-button-response","407","1855152","0.0-23.0","11061","List2B","white","man","","","","","","","","","","","","",""
"5800.099999964237","","","html-slider-response","408","1861968","0.0-24.0-0.0-0.0","11061","List2B","white","man","","","","","","","","survey_race","76","","","I feel solidarity with people the same age as me.","filler"
"7894.800000011921","","","html-slider-response","409","1869865","0.0-24.0-0.0-0.1","11061","List2B","white","man","","","","","","","","survey_race","81","","","The fact that I am my race is an important part of my identity.","identity"
"3779.399999976158","","","html-slider-response","410","1873656","0.0-24.0-0.0-0.2","11061","List2B","white","man","","","","","","","","survey_race","77","","","I have a lot in common with people of a similar age to me.","filler"
"4941.800000011921","","","html-slider-response","411","1878600","0.0-24.0-0.0-0.3","11061","List2B","white","man","","","","","","","","survey_race","49","","","I am glad to be my race.","glad"
"5660.400000035763","","","html-slider-response","412","1884263","0.0-24.0-0.0-0.4","11061","List2B","white","man","","","","","","","","survey_race","30","","","My age is not an important part of who I am.","filler"
"3515.699999988079","","","html-slider-response","413","1887781","0.0-24.0-0.0-0.5","11061","List2B","white","man","","","","","","","","survey_race","54","","","I feel a bond with people the same age as me.","filler"
"8032","","","html-slider-response","414","1895815","0.0-24.0-0.0-0.6","11061","List2B","white","man","","","","","","","","survey_race","48","","","Being my race gives me a good feeling.","feeling"
"2766.599999964237","","","html-slider-response","415","1898592","0.0-24.0-0.0-0.7","11061","List2B","white","man","","","","","","","","survey_race","100","","","I am glad to be the age I am.","filler"
"2722.600000023842","","","html-slider-response","416","1901317","0.0-24.0-0.0-0.8","11061","List2B","white","man","","","","","","","","survey_race","100","","","I am glad to be my age.","filler"
"3456.7000000476837","","","html-slider-response","417","1904775","0.0-24.0-0.0-0.9","11061","List2B","white","man","","","","","","","","survey_race","64","","","People my age have a lot in common with each other.","filler"
"2501.899999976158","","","html-slider-response","418","1907279","0.0-24.0-0.0-0.10","11061","List2B","white","man","","","","","","","","survey_race","74","","","Being my age gives me a good feeling.","filler"
"6234.300000011921","","","html-slider-response","419","1913515","0.0-24.0-0.0-0.11","11061","List2B","white","man","","","","","","","","survey_race","61","","","I often think about the fact that I am my race.","often"
"3583.900000035763","","","html-slider-response","420","1917101","0.0-24.0-0.0-0.12","11061","List2B","white","man","","","","","","","","survey_race","67","","","I have a lot in common with the average person of my race.","average"
"3263.800000011921","","","html-slider-response","421","1920368","0.0-24.0-0.0-0.13","11061","List2B","white","man","","","","","","","","survey_race","40","","","Getting older does not worry me.","filler"
"3780.400000035763","","","html-slider-response","422","1924151","0.0-24.0-0.0-0.14","11061","List2B","white","man","","","","","","","","survey_race","58","","","People of my race have a lot in common with each other.","common"
"3455.199999988079","","","html-slider-response","423","1927608","0.0-24.0-0.0-0.15","11061","List2B","white","man","","","","","","","","survey_race","53","","","I consider myself an extrovert.","filler"
"3777","","","html-slider-response","424","1931387","0.0-24.0-0.0-0.16","11061","List2B","white","man","","","","","","","","survey_race","12","","","I think that my race has a lot to be proud of.","proud"
"3183.400000035763","","","html-slider-response","425","1934573","0.0-24.0-0.0-0.17","11061","List2B","white","man","","","","","","","","survey_race","72","","","I feel committed to my race.","committed"
"6404.800000011921","","","html-slider-response","426","1940981","0.0-24.0-0.0-0.18","11061","List2B","white","man","","","","","","","","survey_race","97","","","It is pleasant to be my race.","pleasant"
"2894.199999988079","","","html-slider-response","427","1943877","0.0-24.0-0.0-0.19","11061","List2B","white","man","","","","","","","","survey_race","53","","","I feel a bond with my race.","bond"
"3812.900000035763","","","html-slider-response","428","1947692","0.0-24.0-0.0-0.20","11061","List2B","white","man","","","","","","","","survey_race","29","","","I consider myself an introvert.","filler"
"2479.100000023842","","","html-slider-response","429","1950173","0.0-24.0-0.0-0.21","11061","List2B","white","man","","","","","","","","survey_race","90","","","I enjoy being in large groups.","filler"
"2999.100000023842","","","html-slider-response","430","1953175","0.0-24.0-0.0-0.22","11061","List2B","white","man","","","","","","","","survey_race","80","","","I am similar to the average person of my race.","similar"
"2306.399999976158","","","html-slider-response","431","1955483","0.0-24.0-0.0-0.23","11061","List2B","white","man","","","","","","","","survey_race","83","","","The older I get, the wiser I feel.","filler"
"3336.2999999523163","","","html-slider-response","432","1958821","0.0-24.0-0.0-0.24","11061","List2B","white","man","","","","","","","","survey_race","77","","","Being my race is an important part of how I see myself.","important"
"4441.600000023842","","","html-slider-response","433","1963266","0.0-24.0-0.0-0.25","11061","List2B","white","man","","","","","","","","survey_race","72","","","I often think about the fact that I am my age.","filler"
"2906.199999988079","","","html-slider-response","434","1966174","0.0-24.0-0.0-0.26","11061","List2B","white","man","","","","","","","","survey_race","58","","","I feel solidarity with my race.","solidarity"
"3704","","","html-slider-response","435","1969881","0.0-24.0-0.0-0.27","11061","List2B","white","man","","","","","","","","survey_race","76","","","People of my race are very similar to each other.","verysimilar"
"2558.699999988079","","","html-slider-response","436","1972441","0.0-24.0-1.0-0.0","11061","List2B","white","man","","","","","","","","survey_gender","71","","","People of my gender are very similar to each other.","verysimilar"
"3941","","","html-slider-response","437","1976385","0.0-24.0-1.0-0.1","11061","List2B","white","man","","","","","","","","survey_gender","94","","","I often think about the fact that I am my gender.","often"
"4065.099999964237","","","html-slider-response","438","1980452","0.0-24.0-1.0-0.2","11061","List2B","white","man","","","","","","","","survey_gender","72","","","I feel a bond with my gender.","bond"
"3175.199999988079","","","html-slider-response","439","1983630","0.0-24.0-1.0-0.3","11061","List2B","white","man","","","","","","","","survey_gender","97","","","I feel a bond with my friends.","filler"
"2775.800000011921","","","html-slider-response","440","1986407","0.0-24.0-1.0-0.4","11061","List2B","white","man","","","","","","","","survey_gender","87","","","I am glad to be my gender.","glad"
"2281.800000011921","","","html-slider-response","441","1988691","0.0-24.0-1.0-0.5","11061","List2B","white","man","","","","","","","","survey_gender","89","","","I feel solidarity with my friends.","filler"
"2575.199999988079","","","html-slider-response","442","1991268","0.0-24.0-1.0-0.6","11061","List2B","white","man","","","","","","","","survey_gender","15","","","Routine is not important to me.","filler"
"3004.300000011921","","","html-slider-response","443","1994274","0.0-24.0-1.0-0.7","11061","List2B","white","man","","","","","","","","survey_gender","80","","","Being around my friends gives me a good feeling.","filler"
"4448.699999988079","","","html-slider-response","444","1998725","0.0-24.0-1.0-0.8","11061","List2B","white","man","","","","","","","","survey_gender","27","","","Family is not more important to me than friendship.","filler"
"9324.899999976158","","","html-slider-response","445","2008053","0.0-24.0-1.0-0.9","11061","List2B","white","man","","","","","","","","survey_gender","66","","","I feel solidarity with my gender.","solidarity"
"2313.600000023842","","","html-slider-response","446","2010373","0.0-24.0-1.0-0.10","11061","List2B","white","man","","","","","","","","survey_gender","70","","","I often think about my actions.","filler"
"2731.2000000476837","","","html-slider-response","447","2013106","0.0-24.0-1.0-0.11","11061","List2B","white","man","","","","","","","","survey_gender","89","","","I consider myself a highly empathetic person.","filler"
"2510.899999976158","","","html-slider-response","448","2015619","0.0-24.0-1.0-0.12","11061","List2B","white","man","","","","","","","","survey_gender","66","","","I have a lot in common with my friends.","filler"
"3087.7000000476837","","","html-slider-response","449","2018708","0.0-24.0-1.0-0.13","11061","List2B","white","man","","","","","","","","survey_gender","100","","","I feel committed to my gender.","committed"
"2305.699999988079","","","html-slider-response","450","2021016","0.0-24.0-1.0-0.14","11061","List2B","white","man","","","","","","","","survey_gender","76","","","It is pleasant to be my gender.","pleasant"
"2679.2000000476837","","","html-slider-response","451","2023697","0.0-24.0-1.0-0.15","11061","List2B","white","man","","","","","","","","survey_gender","89","","","I am glad to have the friends that I have.","filler"
"3484","","","html-slider-response","452","2027183","0.0-24.0-1.0-0.16","11061","List2B","white","man","","","","","","","","survey_gender","14","","","I think that my gender has a lot to be proud of.","proud"
"5334.699999988079","","","html-slider-response","453","2032520","0.0-24.0-1.0-0.17","11061","List2B","white","man","","","","","","","","survey_gender","65","","","People of my gender have a lot in common with each other.","common"
"2786.5","","","html-slider-response","454","2035309","0.0-24.0-1.0-0.18","11061","List2B","white","man","","","","","","","","survey_gender","86","","","My friends understand me.","filler"
"6145.199999988079","","","html-slider-response","455","2041456","0.0-24.0-1.0-0.19","11061","List2B","white","man","","","","","","","","survey_gender","85","","","Being my gender is an important part of how I see myself.","important"
"3022.300000011921","","","html-slider-response","456","2044481","0.0-24.0-1.0-0.20","11061","List2B","white","man","","","","","","","","survey_gender","86","","","My friends have a lot in common with each other.","filler"
"3067","","","html-slider-response","457","2047551","0.0-24.0-1.0-0.21","11061","List2B","white","man","","","","","","","","survey_gender","95","","","Most of the friends in my life are very similar to me.","filler"
"3263.899999976158","","","html-slider-response","458","2050816","0.0-24.0-1.0-0.22","11061","List2B","white","man","","","","","","","","survey_gender","55","","","I have a lot in common with the average person of my gender.","average"
"5315.5","","","html-slider-response","459","2056133","0.0-24.0-1.0-0.23","11061","List2B","white","man","","","","","","","","survey_gender","56","","","The fact that I am my gender is an important part of my identity.","identity"
"4184.600000023842","","","html-slider-response","460","2060320","0.0-24.0-1.0-0.24","11061","List2B","white","man","","","","","","","","survey_gender","56","","","I am similar to the average person of my gender.","similar"
"2951.300000011921","","","html-slider-response","461","2063273","0.0-24.0-1.0-0.25","11061","List2B","white","man","","","","","","","","survey_gender","67","","","Being my gender gives me a good feeling.","feeling"
"2511","","","html-slider-response","462","2065786","0.0-24.0-1.0-0.26","11061","List2B","white","man","","","","","","","","survey_gender","98","","","I would say I am an animal person.","filler"
"3636","","","html-slider-response","463","2069424","0.0-24.0-1.0-0.27","11061","List2B","white","man","","","","","","","","survey_gender","34","","","It is not always easy for people to know what I am thinking.","filler"
"5033.700000047684","","","survey-text","464","2074473","0.0-25.0","11061","List2B","white","man","","","","","{""Q0"":""6115947a455a1576f03bbd10""}","","","worker_id","","","","",""
"37095.69999998808","","","external-html","465","2111972","0.0-26.0","11061","List2B","white","man","debrief.html","","","","","","","","","","","",""
