"rt","stimulus","button_pressed","trial_type","trial_index","time_elapsed","internal_node_id","subject","list","ppt_race","ppt_gender","url","first_guess","correct","key_press","responses","image_type","phrase_type","test_part","response","stimulus1","stimulus2","question_type","survey_item"
"3050","Welcome to the experiment. Press Continue to begin.","0","html-button-response","0","3054","0.0-0.0","11460","List2B","white","woman","","","","","","","","","","","","",""
"7545.5999999940395","","","external-html","1","11795","0.0-1.0","11460","List2B","white","woman","consent.html","","","","","","","","","","","",""
"2606","<p>On the next page, you will see portraits of 8 people and their names.</p><p>Your first task is to take a few minutes to memorise the names of these people.</p><p>You will have to recall their names during the rest of the experiment, so it is</p><p>essential that you try to memorise these people and their names as best as you can.</p><br><p><strong>You will then be tested on your memory of these names and portraits.</strong></p><br><p>The experiment will start after you have completed this memory test.</p><br><p>Ready?</p>","0","html-button-response","2","14403","0.0-2.0","11460","List2B","white","woman","","","","","","","","","","","","",""
"36117.59999999404","<img src='img/portrait_matrix_list2.jpg' style='width:900px;height:500px;''></img><p>If you have memorised all the portraits and names and are ready to start, press Continue.</p><p><strong>Please note: Your memory of these faces will be tested 4 times during this experiment.</strong></p>","0","html-button-response","3","51537","0.0-3.0-0.0","11460","List2B","white","woman","","","","","","","","","","","","",""
"3304.4000000059605","<img src=""portrait/BW1.jpg""style=""height:400px;""></img>","0","html-button-response","4","55858","0.0-3.0-1.0","11460","List2B","white","woman","","true","0","","","","","","","","","",""
"null","CORRECT","","html-keyboard-response","5","57371","0.0-3.0-2.0-0.0","11460","List2B","white","woman","","","","null","","","","","","","","",""
"3364.4000000059605","<img src=""portrait/WW2.jpg""style=""height:400px;""></img>","3","html-button-response","6","60737","0.0-3.0-4.0","11460","List2B","white","woman","","true","3","","","","","","","","","",""
"null","CORRECT","","html-keyboard-response","7","62263","0.0-3.0-5.0-0.0","11460","List2B","white","woman","","","","null","","","","","","","","",""
"2933.5","<img src=""portrait/WW1.jpg""style=""height:400px;""></img>","1","html-button-response","8","65199","0.0-3.0-7.0","11460","List2B","white","woman","","true","1","","","","","","","","","",""
"null","CORRECT","","html-keyboard-response","9","66718","0.0-3.0-8.0-0.0","11460","List2B","white","woman","","","","null","","","","","","","","",""
"3823.5","<img src=""portrait/WM2.jpg""style=""height:400px;""></img>","7","html-button-response","10","70543","0.0-3.0-10.0","11460","List2B","white","woman","","true","7","","","","","","","","","",""
"null","CORRECT","","html-keyboard-response","11","72055","0.0-3.0-11.0-0.0","11460","List2B","white","woman","","","","null","","","","","","","","",""
"6501.100000023842","<img src=""portrait/BM2.jpg""style=""height:400px;""></img>","5","html-button-response","12","78558","0.0-3.0-13.0","11460","List2B","white","woman","","true","5","","","","","","","","","",""
"null","CORRECT","","html-keyboard-response","13","80066","0.0-3.0-14.0-0.0","11460","List2B","white","woman","","","","null","","","","","","","","",""
"3017.300000011921","<img src=""portrait/BW2.jpg""style=""height:400px;""></img>","2","html-button-response","14","83085","0.0-3.0-16.0","11460","List2B","white","woman","","true","2","","","","","","","","","",""
"null","CORRECT","","html-keyboard-response","15","84596","0.0-3.0-17.0-0.0","11460","List2B","white","woman","","","","null","","","","","","","","",""
"2972.0999999940395","<img src=""portrait/WM1.jpg""style=""height:400px;""></img>","6","html-button-response","16","87570","0.0-3.0-19.0","11460","List2B","white","woman","","true","6","","","","","","","","","",""
"null","CORRECT","","html-keyboard-response","17","89094","0.0-3.0-20.0-0.0","11460","List2B","white","woman","","","","null","","","","","","","","",""
"4116.5999999940395","<img src=""portrait/BM1.jpg""style=""height:400px;""></img>","4","html-button-response","18","93212","0.0-3.0-22.0","11460","List2B","white","woman","","true","4","","","","","","","","","",""
"null","CORRECT","","html-keyboard-response","19","94735","0.0-3.0-23.0-0.0","11460","List2B","white","woman","","","","null","","","","","","","","",""
"2435.7000000178814","<p>You got 8 out of 8 right first time. Press Continue.</p>","0","html-button-response","20","97173","0.0-3.0-25.0","11460","List2B","white","woman","","","","","","","","","","","","",""
"28112.80000001192","<p>In this experiment, you will view photographs of the people from the memory game interacting.</p><p>By using the <strong>exact</strong> phrase given <i>after</i> the photograph appears and recalling the correct names of the people in the photographs, form a sentence describing the interaction. You do not need to capitalise names.</p><p>Type your answer in the space provided. Please complete every sentence before moving onto the next trial.</p><p>You will only have a few seconds to memorise each given photograph and phrase before you can respond, so try your best to focus.</p><p>An example is given below. Press 'Continue' when you are ready.</p><img src='img/speaking_example.jpg' style='width:800px;height:460px;''></img>","0","html-button-response","21","126291","0.0-4.0","11460","List2B","white","woman","","","","","","","","","","","","",""
"2618.600000023842","<p>Before the experiment starts, you will watch two example trials. Press 'Continue'.</p>","0","html-button-response","22","129919","0.0-5.0","11460","List2B","white","woman","","","","","","","","","","","","",""
"null","<img src='img/play_eg.gif' style='height:400px;''></img>","","html-keyboard-response","23","132931","0.0-6.0","11460","List2B","white","woman","","","","null","","","","","","","","",""
"null","<p>is playing with</p>","","html-keyboard-response","24","134937","0.0-7.0","11460","List2B","white","woman","","","","null","","","","","","","","",""
"3482.300000011921","<p><b>Answer:</b> jane is playing with ruth</p>","0","html-button-response","25","138421","0.0-8.0","11460","List2B","white","woman","","","","","","","","","","","","",""
"null","<img src='img/dance_eg.gif' style='height:400px;''></img>","","html-keyboard-response","26","141448","0.0-9.0","11460","List2B","white","woman","","","","null","","","","","","","","",""
"null","<p>is being entertained by</p>","","html-keyboard-response","27","143454","0.0-10.0","11460","List2B","white","woman","","","","null","","","","","","","","",""
"1682.5","<p><b>Answer:</b> fred is being entertained by mike</p>","0","html-button-response","28","145138","0.0-11.0","11460","List2B","white","woman","","","","","","","","","","","","",""
"3163.4000000059605","<p>Ready to start the experiment?</p><br><p><strong>Remember to describe the picture using a full sentence,</strong></p><p><strong>that combines the names of the people with the <i>exact</i> phrase given.</strong></p><p><strong>To receive full payment you must do this correctly.</strong></p><p><strong> You do not need to capitalise names or use punctuation.</strong></p><br><p>Press 'Continue' to begin.</p>","0","html-button-response","29","149313","0.0-12.0","11460","List2B","white","woman","","","","","","","","","","","","",""
"null","<div style=""font-size:60px;"">+</div>","","html-keyboard-response","30","150819","0.0-13.0-0.0","11460","List2B","white","woman","","","","null","","","","","","","","",""
"null","<img src=""stim_listB/hug6.gif""style=""height:400px;""></stim_listB>","","html-keyboard-response","31","152825","0.0-13.0-1.0","11460","List2B","white","woman","","","","null","","","","","","","","",""
"null","is being hugged by","","html-keyboard-response","32","154840","0.0-13.0-2.0","11460","List2B","white","woman","","","","null","","","","","","","","",""
"8682.09999999404","","","survey-text","33","163527","0.0-13.0-3.0","11460","List2B","white","woman","","","","","{""Q0"":""Mike is being hugged by Dave""}","<img src=""stim_listB/hug6.gif""style=""height:400px;""></stim_listB>","is being hugged by","","","","","",""
"null","<div style=""font-size:60px;"">+</div>","","html-keyboard-response","34","164032","0.0-13.0-0.1","11460","List2B","white","woman","","","","null","","","","","","","","",""
"null","<img src=""stim_listB/copy5.gif""style=""height:400px;""></stim_listB>","","html-keyboard-response","35","166036","0.0-13.0-1.1","11460","List2B","white","woman","","","","null","","","","","","","","",""
"null","is copying","","html-keyboard-response","36","168049","0.0-13.0-2.1","11460","List2B","white","woman","","","","null","","","","","","","","",""
"6643.4000000059605","","","survey-text","37","174696","0.0-13.0-3.1","11460","List2B","white","woman","","","","","{""Q0"":""Fred is copying Dave""}","<img src=""stim_listB/copy5.gif""style=""height:400px;""></stim_listB>","is copying","","","","","",""
"null","<div style=""font-size:60px;"">+</div>","","html-keyboard-response","38","175198","0.0-13.0-0.2","11460","List2B","white","woman","","","","null","","","","","","","","",""
"null","<img src=""stim_listB/touch6.gif""style=""height:400px;""></stim_listB>","","html-keyboard-response","39","177211","0.0-13.0-1.2","11460","List2B","white","woman","","","","null","","","","","","","","",""
"null","is being touched by","","html-keyboard-response","40","179227","0.0-13.0-2.2","11460","List2B","white","woman","","","","null","","","","","","","","",""
"8140.100000023842","","","survey-text","41","187370","0.0-13.0-3.2","11460","List2B","white","woman","","","","","{""Q0"":""Luke is being touched by Fred""}","<img src=""stim_listB/touch6.gif""style=""height:400px;""></stim_listB>","is being touched by","","","","","",""
"null","<div style=""font-size:60px;"">+</div>","","html-keyboard-response","42","187882","0.0-13.0-0.3","11460","List2B","white","woman","","","","null","","","","","","","","",""
"null","<img src=""stim_listB/oppose8.gif""style=""height:400px;""></stim_listB>","","html-keyboard-response","43","189902","0.0-13.0-1.3","11460","List2B","white","woman","","","","null","","","","","","","","",""
"null","is being opposed by","","html-keyboard-response","44","191916","0.0-13.0-2.3","11460","List2B","white","woman","","","","null","","","","","","","","",""
"12388.300000011921","","","survey-text","45","204308","0.0-13.0-3.3","11460","List2B","white","woman","","","","","{""Q0"":""Beth is fighting with Ruth""}","<img src=""stim_listB/oppose8.gif""style=""height:400px;""></stim_listB>","is being opposed by","","","","","",""
"null","<div style=""font-size:60px;"">+</div>","","html-keyboard-response","46","204820","0.0-13.0-0.4","11460","List2B","white","woman","","","","null","","","","","","","","",""
"null","<img src=""stim_listB/kiss2.gif""style=""height:400px;""></stim_listB>","","html-keyboard-response","47","206837","0.0-13.0-1.4","11460","List2B","white","woman","","","","null","","","","","","","","",""
"null","is being kissed by","","html-keyboard-response","48","208838","0.0-13.0-2.4","11460","List2B","white","woman","","","","null","","","","","","","","",""
"6322.4000000059605","","","survey-text","49","215163","0.0-13.0-3.4","11460","List2B","white","woman","","","","","{""Q0"":""Jane is being kissed by Dave""}","<img src=""stim_listB/kiss2.gif""style=""height:400px;""></stim_listB>","is being kissed by","","","","","",""
"null","<div style=""font-size:60px;"">+</div>","","html-keyboard-response","50","215671","0.0-13.0-0.5","11460","List2B","white","woman","","","","null","","","","","","","","",""
"null","<img src=""stim_listB/look4.gif""style=""height:400px;""></stim_listB>","","html-keyboard-response","51","217681","0.0-13.0-1.5","11460","List2B","white","woman","","","","null","","","","","","","","",""
"null","is being looked at by","","html-keyboard-response","52","219694","0.0-13.0-2.5","11460","List2B","white","woman","","","","null","","","","","","","","",""
"4883.799999982119","","","survey-text","53","224581","0.0-13.0-3.5","11460","List2B","white","woman","","","","","{""Q0"":""Mike is being looked at by Kate""}","<img src=""stim_listB/look4.gif""style=""height:400px;""></stim_listB>","is being looked at by","","","","","",""
"null","<div style=""font-size:60px;"">+</div>","","html-keyboard-response","54","225083","0.0-13.0-0.6","11460","List2B","white","woman","","","","null","","","","","","","","",""
"null","<img src=""stim_listB/copy2.gif""style=""height:400px;""></stim_listB>","","html-keyboard-response","55","227088","0.0-13.0-1.6","11460","List2B","white","woman","","","","null","","","","","","","","",""
"null","is being copied by","","html-keyboard-response","56","229100","0.0-13.0-2.6","11460","List2B","white","woman","","","","null","","","","","","","","",""
"5342","","","survey-text","57","234445","0.0-13.0-3.6","11460","List2B","white","woman","","","","","{""Q0"":""Jane is being copied by Luke""}","<img src=""stim_listB/copy2.gif""style=""height:400px;""></stim_listB>","is being copied by","","","","","",""
"null","<div style=""font-size:60px;"">+</div>","","html-keyboard-response","58","234959","0.0-13.0-0.7","11460","List2B","white","woman","","","","null","","","","","","","","",""
"null","<img src=""stim_listB/touch8.gif""style=""height:400px;""></stim_listB>","","html-keyboard-response","59","236972","0.0-13.0-1.7","11460","List2B","white","woman","","","","null","","","","","","","","",""
"null","is being touched by","","html-keyboard-response","60","238992","0.0-13.0-2.7","11460","List2B","white","woman","","","","null","","","","","","","","",""
"4775.5999999940395","","","survey-text","61","243770","0.0-13.0-3.7","11460","List2B","white","woman","","","","","{""Q0"":""Beth is being touched by Ruth""}","<img src=""stim_listB/touch8.gif""style=""height:400px;""></stim_listB>","is being touched by","","","","","",""
"null","<div style=""font-size:60px;"">+</div>","","html-keyboard-response","62","244282","0.0-13.0-0.8","11460","List2B","white","woman","","","","null","","","","","","","","",""
"null","<img src=""stim_listB/challenge2.gif""style=""height:400px;""></stim_listB>","","html-keyboard-response","63","246295","0.0-13.0-1.8","11460","List2B","white","woman","","","","null","","","","","","","","",""
"null","is being challenged by","","html-keyboard-response","64","248308","0.0-13.0-2.8","11460","List2B","white","woman","","","","null","","","","","","","","",""
"5571.9000000059605","","","survey-text","65","253883","0.0-13.0-3.8","11460","List2B","white","woman","","","","","{""Q0"":""Jane is being challenged by Luke""}","<img src=""stim_listB/challenge2.gif""style=""height:400px;""></stim_listB>","is being challenged by","","","","","",""
"null","<div style=""font-size:60px;"">+</div>","","html-keyboard-response","66","254385","0.0-13.0-0.9","11460","List2B","white","woman","","","","null","","","","","","","","",""
"null","<img src=""stim_listB/challenge6.gif""style=""height:400px;""></stim_listB>","","html-keyboard-response","67","256391","0.0-13.0-1.9","11460","List2B","white","woman","","","","null","","","","","","","","",""
"null","is being challenged by","","html-keyboard-response","68","258400","0.0-13.0-2.9","11460","List2B","white","woman","","","","null","","","","","","","","",""
"7317.0999999940395","","","survey-text","69","265720","0.0-13.0-3.9","11460","List2B","white","woman","","","","","{""Q0"":""Mike is being challenged by Luke""}","<img src=""stim_listB/challenge6.gif""style=""height:400px;""></stim_listB>","is being challenged by","","","","","",""
"null","<div style=""font-size:60px;"">+</div>","","html-keyboard-response","70","266228","0.0-13.0-0.10","11460","List2B","white","woman","","","","null","","","","","","","","",""
"null","<img src=""stim_listB/seduce3.gif""style=""height:400px;""></stim_listB>","","html-keyboard-response","71","268240","0.0-13.0-1.10","11460","List2B","white","woman","","","","null","","","","","","","","",""
"null","is seducing","","html-keyboard-response","72","270253","0.0-13.0-2.10","11460","List2B","white","woman","","","","null","","","","","","","","",""
"4369.5999999940395","","","survey-text","73","274625","0.0-13.0-3.10","11460","List2B","white","woman","","","","","{""Q0"":""Fred is seducing Kate""}","<img src=""stim_listB/seduce3.gif""style=""height:400px;""></stim_listB>","is seducing","","","","","",""
"null","<div style=""font-size:60px;"">+</div>","","html-keyboard-response","74","275140","0.0-13.0-0.11","11460","List2B","white","woman","","","","null","","","","","","","","",""
"null","<img src=""stim_listB/look5.gif""style=""height:400px;""></stim_listB>","","html-keyboard-response","75","277149","0.0-13.0-1.11","11460","List2B","white","woman","","","","null","","","","","","","","",""
"null","is looking at","","html-keyboard-response","76","279153","0.0-13.0-2.11","11460","List2B","white","woman","","","","null","","","","","","","","",""
"4349.9000000059605","","","survey-text","77","283505","0.0-13.0-3.11","11460","List2B","white","woman","","","","","{""Q0"":""Fred is looking at Luke""}","<img src=""stim_listB/look5.gif""style=""height:400px;""></stim_listB>","is looking at","","","","","",""
"null","<div style=""font-size:60px;"">+</div>","","html-keyboard-response","78","284006","0.0-13.0-0.12","11460","List2B","white","woman","","","","null","","","","","","","","",""
"null","<img src=""stim_listB/greet8.gif""style=""height:400px;""></stim_listB>","","html-keyboard-response","79","286024","0.0-13.0-1.12","11460","List2B","white","woman","","","","null","","","","","","","","",""
"null","is being greeted by","","html-keyboard-response","80","288031","0.0-13.0-2.12","11460","List2B","white","woman","","","","null","","","","","","","","",""
"4923.5999999940395","","","survey-text","81","292958","0.0-13.0-3.12","11460","List2B","white","woman","","","","","{""Q0"":""Ruth is being greeted by Kate""}","<img src=""stim_listB/greet8.gif""style=""height:400px;""></stim_listB>","is being greeted by","","","","","",""
"null","<div style=""font-size:60px;"">+</div>","","html-keyboard-response","82","293473","0.0-13.0-0.13","11460","List2B","white","woman","","","","null","","","","","","","","",""
"null","<img src=""stim_listB/greet1.gif""style=""height:400px;""></stim_listB>","","html-keyboard-response","83","295482","0.0-13.0-1.13","11460","List2B","white","woman","","","","null","","","","","","","","",""
"null","is greeting","","html-keyboard-response","84","297484","0.0-13.0-2.13","11460","List2B","white","woman","","","","null","","","","","","","","",""
"5447.9000000059605","","","survey-text","85","302934","0.0-13.0-3.13","11460","List2B","white","woman","","","","","{""Q0"":""Ruth is greeting Dave""}","<img src=""stim_listB/greet1.gif""style=""height:400px;""></stim_listB>","is greeting","","","","","",""
"null","<div style=""font-size:60px;"">+</div>","","html-keyboard-response","86","303439","0.0-13.0-0.14","11460","List2B","white","woman","","","","null","","","","","","","","",""
"null","<img src=""stim_listB/challenge4.gif""style=""height:400px;""></stim_listB>","","html-keyboard-response","87","305443","0.0-13.0-1.14","11460","List2B","white","woman","","","","null","","","","","","","","",""
"null","is being challenged by","","html-keyboard-response","88","307458","0.0-13.0-2.14","11460","List2B","white","woman","","","","null","","","","","","","","",""
"8896.5","","","survey-text","89","316358","0.0-13.0-3.14","11460","List2B","white","woman","","","","","{""Q0"":""Kate is being challenged by Fred""}","<img src=""stim_listB/challenge4.gif""style=""height:400px;""></stim_listB>","is being challenged by","","","","","",""
"null","<div style=""font-size:60px;"">+</div>","","html-keyboard-response","90","316870","0.0-13.0-0.15","11460","List2B","white","woman","","","","null","","","","","","","","",""
"null","<img src=""stim_listB/seduce4.gif""style=""height:400px;""></stim_listB>","","html-keyboard-response","91","318882","0.0-13.0-1.15","11460","List2B","white","woman","","","","null","","","","","","","","",""
"null","is being seduced by","","html-keyboard-response","92","320888","0.0-13.0-2.15","11460","List2B","white","woman","","","","null","","","","","","","","",""
"5244.100000023842","","","survey-text","93","326135","0.0-13.0-3.15","11460","List2B","white","woman","","","","","{""Q0"":""Beth is being seduced by Mike""}","<img src=""stim_listB/seduce4.gif""style=""height:400px;""></stim_listB>","is being seduced by","","","","","",""
"null","<div style=""font-size:60px;"">+</div>","","html-keyboard-response","94","326638","0.0-13.0-0.16","11460","List2B","white","woman","","","","null","","","","","","","","",""
"null","<img src=""stim_listB/copy4.gif""style=""height:400px;""></stim_listB>","","html-keyboard-response","95","328641","0.0-13.0-1.16","11460","List2B","white","woman","","","","null","","","","","","","","",""
"null","is being copied by","","html-keyboard-response","96","330646","0.0-13.0-2.16","11460","List2B","white","woman","","","","null","","","","","","","","",""
"4716.200000017881","","","survey-text","97","335365","0.0-13.0-3.16","11460","List2B","white","woman","","","","","{""Q0"":""Fred is being copied by Kate""}","<img src=""stim_listB/copy4.gif""style=""height:400px;""></stim_listB>","is being copied by","","","","","",""
"null","<div style=""font-size:60px;"">+</div>","","html-keyboard-response","98","335866","0.0-13.0-0.17","11460","List2B","white","woman","","","","null","","","","","","","","",""
"null","<img src=""stim_listB/copy6.gif""style=""height:400px;""></stim_listB>","","html-keyboard-response","99","337870","0.0-13.0-1.17","11460","List2B","white","woman","","","","null","","","","","","","","",""
"null","is being copied by","","html-keyboard-response","100","339881","0.0-13.0-2.17","11460","List2B","white","woman","","","","null","","","","","","","","",""
"5472.800000011921","","","survey-text","101","345357","0.0-13.0-3.17","11460","List2B","white","woman","","","","","{""Q0"":""Luke is being copied by Mike""}","<img src=""stim_listB/copy6.gif""style=""height:400px;""></stim_listB>","is being copied by","","","","","",""
"null","<div style=""font-size:60px;"">+</div>","","html-keyboard-response","102","345860","0.0-13.0-0.18","11460","List2B","white","woman","","","","null","","","","","","","","",""
"null","<img src=""stim_listB/kiss3.gif""style=""height:400px;""></stim_listB>","","html-keyboard-response","103","347871","0.0-13.0-1.18","11460","List2B","white","woman","","","","null","","","","","","","","",""
"null","is kissing","","html-keyboard-response","104","349880","0.0-13.0-2.18","11460","List2B","white","woman","","","","null","","","","","","","","",""
"3542.7000000178814","","","survey-text","105","353425","0.0-13.0-3.18","11460","List2B","white","woman","","","","","{""Q0"":""Beth is kissing Fred""}","<img src=""stim_listB/kiss3.gif""style=""height:400px;""></stim_listB>","is kissing","","","","","",""
"null","<div style=""font-size:60px;"">+</div>","","html-keyboard-response","106","353935","0.0-13.0-0.19","11460","List2B","white","woman","","","","null","","","","","","","","",""
"null","<img src=""stim_listB/seduce5.gif""style=""height:400px;""></stim_listB>","","html-keyboard-response","107","355947","0.0-13.0-1.19","11460","List2B","white","woman","","","","null","","","","","","","","",""
"null","is seducing","","html-keyboard-response","108","357959","0.0-13.0-2.19","11460","List2B","white","woman","","","","null","","","","","","","","",""
"5515.199999988079","","","survey-text","109","363477","0.0-13.0-3.19","11460","List2B","white","woman","","","","","{""Q0"":""Mike is seducing Luke""}","<img src=""stim_listB/seduce5.gif""style=""height:400px;""></stim_listB>","is seducing","","","","","",""
"17611.59999999404","<img src='img/portrait_matrix_list2.jpg' style='width:900px;height:500px;''></img><p>If you have memorised all the portraits and names and are ready to start, press Continue.</p><p><strong>Please note: Your memory of these faces will be tested 4 times during this experiment.</strong></p>","0","html-button-response","110","381091","0.0-14.0-0.0","11460","List2B","white","woman","","","","","","","","","","","","",""
"2230.300000011921","<img src=""portrait/WW1.jpg""style=""height:400px;""></img>","1","html-button-response","111","384334","0.0-14.0-1.0","11460","List2B","white","woman","","true","1","","","","","","","","","",""
"null","CORRECT","","html-keyboard-response","112","385843","0.0-14.0-2.0-0.0","11460","List2B","white","woman","","","","null","","","","","","","","",""
"2278.5","<img src=""portrait/BW1.jpg""style=""height:400px;""></img>","0","html-button-response","113","388124","0.0-14.0-4.0","11460","List2B","white","woman","","true","0","","","","","","","","","",""
"null","CORRECT","","html-keyboard-response","114","389650","0.0-14.0-5.0-0.0","11460","List2B","white","woman","","","","null","","","","","","","","",""
"2323.9000000059605","<img src=""portrait/WM2.jpg""style=""height:400px;""></img>","7","html-button-response","115","391976","0.0-14.0-7.0","11460","List2B","white","woman","","true","7","","","","","","","","","",""
"null","CORRECT","","html-keyboard-response","116","393507","0.0-14.0-8.0-0.0","11460","List2B","white","woman","","","","null","","","","","","","","",""
"2879.4000000059605","<img src=""portrait/BM2.jpg""style=""height:400px;""></img>","5","html-button-response","117","396389","0.0-14.0-10.0","11460","List2B","white","woman","","true","5","","","","","","","","","",""
"null","CORRECT","","html-keyboard-response","118","397913","0.0-14.0-11.0-0.0","11460","List2B","white","woman","","","","null","","","","","","","","",""
"1712.4000000059605","<img src=""portrait/WW2.jpg""style=""height:400px;""></img>","3","html-button-response","119","399627","0.0-14.0-13.0","11460","List2B","white","woman","","true","3","","","","","","","","","",""
"null","CORRECT","","html-keyboard-response","120","401138","0.0-14.0-14.0-0.0","11460","List2B","white","woman","","","","null","","","","","","","","",""
"3090.2999999821186","<img src=""portrait/BW2.jpg""style=""height:400px;""></img>","2","html-button-response","121","404230","0.0-14.0-16.0","11460","List2B","white","woman","","true","2","","","","","","","","","",""
"null","CORRECT","","html-keyboard-response","122","405746","0.0-14.0-17.0-0.0","11460","List2B","white","woman","","","","null","","","","","","","","",""
"2477.300000011921","<img src=""portrait/BM1.jpg""style=""height:400px;""></img>","4","html-button-response","123","408225","0.0-14.0-19.0","11460","List2B","white","woman","","true","4","","","","","","","","","",""
"null","CORRECT","","html-keyboard-response","124","409747","0.0-14.0-20.0-0.0","11460","List2B","white","woman","","","","null","","","","","","","","",""
"3270","<img src=""portrait/WM1.jpg""style=""height:400px;""></img>","6","html-button-response","125","413019","0.0-14.0-22.0","11460","List2B","white","woman","","true","6","","","","","","","","","",""
"null","CORRECT","","html-keyboard-response","126","414530","0.0-14.0-23.0-0.0","11460","List2B","white","woman","","","","null","","","","","","","","",""
"1560.2000000178814","<p>You got 8 out of 8 right first time. Press Continue.</p>","0","html-button-response","127","416093","0.0-14.0-25.0","11460","List2B","white","woman","","","","","","","","","","","","",""
"null","<div style=""font-size:60px;"">+</div>","","html-keyboard-response","128","417612","0.0-15.0-0.0","11460","List2B","white","woman","","","","null","","","","","","","","",""
"null","<img src=""stim_listB/shout4.gif""style=""height:400px;""></stim_listB>","","html-keyboard-response","129","419626","0.0-15.0-1.0","11460","List2B","white","woman","","","","null","","","","","","","","",""
"null","is being shouted at by","","html-keyboard-response","130","421640","0.0-15.0-2.0","11460","List2B","white","woman","","","","null","","","","","","","","",""
"7257.300000011921","","","survey-text","131","428900","0.0-15.0-3.0","11460","List2B","white","woman","","","","","{""Q0"":""Kate is being shouted at by Luke""}","<img src=""stim_listB/shout4.gif""style=""height:400px;""></stim_listB>","is being shouted at by","","","","","",""
"null","<div style=""font-size:60px;"">+</div>","","html-keyboard-response","132","429403","0.0-15.0-0.1","11460","List2B","white","woman","","","","null","","","","","","","","",""
"null","<img src=""stim_listB/look6.gif""style=""height:400px;""></stim_listB>","","html-keyboard-response","133","431417","0.0-15.0-1.1","11460","List2B","white","woman","","","","null","","","","","","","","",""
"null","is being looked at by","","html-keyboard-response","134","433423","0.0-15.0-2.1","11460","List2B","white","woman","","","","null","","","","","","","","",""
"7817.200000017881","","","survey-text","135","441243","0.0-15.0-3.1","11460","List2B","white","woman","","","","","{""Q0"":""Mike is being looked at by Dave""}","<img src=""stim_listB/look6.gif""style=""height:400px;""></stim_listB>","is being looked at by","","","","","",""
"null","<div style=""font-size:60px;"">+</div>","","html-keyboard-response","136","441747","0.0-15.0-0.2","11460","List2B","white","woman","","","","null","","","","","","","","",""
"null","<img src=""stim_listB/touch1.gif""style=""height:400px;""></stim_listB>","","html-keyboard-response","137","443754","0.0-15.0-1.2","11460","List2B","white","woman","","","","null","","","","","","","","",""
"null","is touching","","html-keyboard-response","138","445758","0.0-15.0-2.2","11460","List2B","white","woman","","","","null","","","","","","","","",""
"3728.9000000059605","","","survey-text","139","449490","0.0-15.0-3.2","11460","List2B","white","woman","","","","","{""Q0"":""Jane is touching Dave""}","<img src=""stim_listB/touch1.gif""style=""height:400px;""></stim_listB>","is touching","","","","","",""
"null","<div style=""font-size:60px;"">+</div>","","html-keyboard-response","140","450003","0.0-15.0-0.3","11460","List2B","white","woman","","","","null","","","","","","","","",""
"null","<img src=""stim_listB/challenge5.gif""style=""height:400px;""></stim_listB>","","html-keyboard-response","141","452016","0.0-15.0-1.3","11460","List2B","white","woman","","","","null","","","","","","","","",""
"null","is challenging","","html-keyboard-response","142","454028","0.0-15.0-2.3","11460","List2B","white","woman","","","","null","","","","","","","","",""
"6276.5","","","survey-text","143","460308","0.0-15.0-3.3","11460","List2B","white","woman","","","","","{""Q0"":""Fred is challenging Dave""}","<img src=""stim_listB/challenge5.gif""style=""height:400px;""></stim_listB>","is challenging","","","","","",""
"null","<div style=""font-size:60px;"">+</div>","","html-keyboard-response","144","460817","0.0-15.0-0.4","11460","List2B","white","woman","","","","null","","","","","","","","",""
"null","<img src=""stim_listB/hug1.gif""style=""height:400px;""></stim_listB>","","html-keyboard-response","145","462827","0.0-15.0-1.4","11460","List2B","white","woman","","","","null","","","","","","","","",""
"null","is hugging","","html-keyboard-response","146","464830","0.0-15.0-2.4","11460","List2B","white","woman","","","","null","","","","","","","","",""
"3634.2999999821186","","","survey-text","147","468467","0.0-15.0-3.4","11460","List2B","white","woman","","","","","{""Q0"":""Ruth is hugging Luke""}","<img src=""stim_listB/hug1.gif""style=""height:400px;""></stim_listB>","is hugging","","","","","",""
"null","<div style=""font-size:60px;"">+</div>","","html-keyboard-response","148","468976","0.0-15.0-0.5","11460","List2B","white","woman","","","","null","","","","","","","","",""
"null","<img src=""stim_listB/seduce7.gif""style=""height:400px;""></stim_listB>","","html-keyboard-response","149","470992","0.0-15.0-1.5","11460","List2B","white","woman","","","","null","","","","","","","","",""
"null","is seducing","","html-keyboard-response","150","473007","0.0-15.0-2.5","11460","List2B","white","woman","","","","null","","","","","","","","",""
"10095.800000011921","","","survey-text","151","483106","0.0-15.0-3.5","11460","List2B","white","woman","","","","","{""Q0"":""Kate is seducing Ruth""}","<img src=""stim_listB/seduce7.gif""style=""height:400px;""></stim_listB>","is seducing","","","","","",""
"null","<div style=""font-size:60px;"">+</div>","","html-keyboard-response","152","483621","0.0-15.0-0.6","11460","List2B","white","woman","","","","null","","","","","","","","",""
"null","<img src=""stim_listB/greet3.gif""style=""height:400px;""></stim_listB>","","html-keyboard-response","153","485625","0.0-15.0-1.6","11460","List2B","white","woman","","","","null","","","","","","","","",""
"null","is greeting","","html-keyboard-response","154","487639","0.0-15.0-2.6","11460","List2B","white","woman","","","","null","","","","","","","","",""
"11063.09999999404","","","survey-text","155","498705","0.0-15.0-3.6","11460","List2B","white","woman","","","","","{""Q0"":""Beth is waving at Mike""}","<img src=""stim_listB/greet3.gif""style=""height:400px;""></stim_listB>","is greeting","","","","","",""
"null","<div style=""font-size:60px;"">+</div>","","html-keyboard-response","156","499221","0.0-15.0-0.7","11460","List2B","white","woman","","","","null","","","","","","","","",""
"null","<img src=""stim_listB/look8.gif""style=""height:400px;""></stim_listB>","","html-keyboard-response","157","501233","0.0-15.0-1.7","11460","List2B","white","woman","","","","null","","","","","","","","",""
"null","is being looked at by","","html-keyboard-response","158","503235","0.0-15.0-2.7","11460","List2B","white","woman","","","","null","","","","","","","","",""
"6384.899999976158","","","survey-text","159","509623","0.0-15.0-3.7","11460","List2B","white","woman","","","","","{""Q0"":""Beth is being looked at by Jane""}","<img src=""stim_listB/look8.gif""style=""height:400px;""></stim_listB>","is being looked at by","","","","","",""
"null","<div style=""font-size:60px;"">+</div>","","html-keyboard-response","160","510130","0.0-15.0-0.8","11460","List2B","white","woman","","","","null","","","","","","","","",""
"null","<img src=""stim_listB/shout7.gif""style=""height:400px;""></stim_listB>","","html-keyboard-response","161","512135","0.0-15.0-1.8","11460","List2B","white","woman","","","","null","","","","","","","","",""
"null","is shouting at","","html-keyboard-response","162","514140","0.0-15.0-2.8","11460","List2B","white","woman","","","","null","","","","","","","","",""
"4434.0999999940395","","","survey-text","163","518577","0.0-15.0-3.8","11460","List2B","white","woman","","","","","{""Q0"":""Beth is shouting at Ruth""}","<img src=""stim_listB/shout7.gif""style=""height:400px;""></stim_listB>","is shouting at","","","","","",""
"null","<div style=""font-size:60px;"">+</div>","","html-keyboard-response","164","519088","0.0-15.0-0.9","11460","List2B","white","woman","","","","null","","","","","","","","",""
"null","<img src=""stim_listB/seduce8.gif""style=""height:400px;""></stim_listB>","","html-keyboard-response","165","521098","0.0-15.0-1.9","11460","List2B","white","woman","","","","null","","","","","","","","",""
"null","is being seduced by","","html-keyboard-response","166","523113","0.0-15.0-2.9","11460","List2B","white","woman","","","","null","","","","","","","","",""
"5024","","","survey-text","167","528140","0.0-15.0-3.9","11460","List2B","white","woman","","","","","{""Q0"":""Jane is being seduced by Beth""}","<img src=""stim_listB/seduce8.gif""style=""height:400px;""></stim_listB>","is being seduced by","","","","","",""
"null","<div style=""font-size:60px;"">+</div>","","html-keyboard-response","168","528652","0.0-15.0-0.10","11460","List2B","white","woman","","","","null","","","","","","","","",""
"null","<img src=""stim_listB/touch5.gif""style=""height:400px;""></stim_listB>","","html-keyboard-response","169","530666","0.0-15.0-1.10","11460","List2B","white","woman","","","","null","","","","","","","","",""
"null","is touching","","html-keyboard-response","170","532672","0.0-15.0-2.10","11460","List2B","white","woman","","","","null","","","","","","","","",""
"3395.800000011921","","","survey-text","171","536070","0.0-15.0-3.10","11460","List2B","white","woman","","","","","{""Q0"":""Mike is touching Dave""}","<img src=""stim_listB/touch5.gif""style=""height:400px;""></stim_listB>","is touching","","","","","",""
"null","<div style=""font-size:60px;"">+</div>","","html-keyboard-response","172","536586","0.0-15.0-0.11","11460","List2B","white","woman","","","","null","","","","","","","","",""
"null","<img src=""stim_listB/touch7.gif""style=""height:400px;""></stim_listB>","","html-keyboard-response","173","538602","0.0-15.0-1.11","11460","List2B","white","woman","","","","null","","","","","","","","",""
"null","is touching","","html-keyboard-response","174","540618","0.0-15.0-2.11","11460","List2B","white","woman","","","","null","","","","","","","","",""
"4022","","","survey-text","175","544643","0.0-15.0-3.11","11460","List2B","white","woman","","","","","{""Q0"":""Kate is touching Jane""}","<img src=""stim_listB/touch7.gif""style=""height:400px;""></stim_listB>","is touching","","","","","",""
"null","<div style=""font-size:60px;"">+</div>","","html-keyboard-response","176","545155","0.0-15.0-0.12","11460","List2B","white","woman","","","","null","","","","","","","","",""
"null","<img src=""stim_listB/shout3.gif""style=""height:400px;""></stim_listB>","","html-keyboard-response","177","547169","0.0-15.0-1.12","11460","List2B","white","woman","","","","null","","","","","","","","",""
"null","is shouting at","","html-keyboard-response","178","549174","0.0-15.0-2.12","11460","List2B","white","woman","","","","null","","","","","","","","",""
"4421.299999982119","","","survey-text","179","553599","0.0-15.0-3.12","11460","List2B","white","woman","","","","","{""Q0"":""Beth is shouting at Fred""}","<img src=""stim_listB/shout3.gif""style=""height:400px;""></stim_listB>","is shouting at","","","","","",""
"null","<div style=""font-size:60px;"">+</div>","","html-keyboard-response","180","554101","0.0-15.0-0.13","11460","List2B","white","woman","","","","null","","","","","","","","",""
"null","<img src=""stim_listB/touch3.gif""style=""height:400px;""></stim_listB>","","html-keyboard-response","181","556112","0.0-15.0-1.13","11460","List2B","white","woman","","","","null","","","","","","","","",""
"null","is touching","","html-keyboard-response","182","558119","0.0-15.0-2.13","11460","List2B","white","woman","","","","null","","","","","","","","",""
"5403.5999999940395","","","survey-text","183","563526","0.0-15.0-3.13","11460","List2B","white","woman","","","","","{""Q0"":""Kate is touching Mike""}","<img src=""stim_listB/touch3.gif""style=""height:400px;""></stim_listB>","is touching","","","","","",""
"null","<div style=""font-size:60px;"">+</div>","","html-keyboard-response","184","564039","0.0-15.0-0.14","11460","List2B","white","woman","","","","null","","","","","","","","",""
"null","<img src=""stim_listB/kiss4.gif""style=""height:400px;""></stim_listB>","","html-keyboard-response","185","566049","0.0-15.0-1.14","11460","List2B","white","woman","","","","null","","","","","","","","",""
"null","is being kissed by","","html-keyboard-response","186","568054","0.0-15.0-2.14","11460","List2B","white","woman","","","","null","","","","","","","","",""
"5544.5999999940395","","","survey-text","187","573601","0.0-15.0-3.14","11460","List2B","white","woman","","","","","{""Q0"":""Mike is being kissed by Kate""}","<img src=""stim_listB/kiss4.gif""style=""height:400px;""></stim_listB>","is being kissed by","","","","","",""
"null","<div style=""font-size:60px;"">+</div>","","html-keyboard-response","188","574118","0.0-15.0-0.15","11460","List2B","white","woman","","","","null","","","","","","","","",""
"null","<img src=""stim_listB/shout1.gif""style=""height:400px;""></stim_listB>","","html-keyboard-response","189","576136","0.0-15.0-1.15","11460","List2B","white","woman","","","","null","","","","","","","","",""
"null","is shouting at","","html-keyboard-response","190","578148","0.0-15.0-2.15","11460","List2B","white","woman","","","","null","","","","","","","","",""
"3929.5","","","survey-text","191","582080","0.0-15.0-3.15","11460","List2B","white","woman","","","","","{""Q0"":""Ruth is shouting at Luke""}","<img src=""stim_listB/shout1.gif""style=""height:400px;""></stim_listB>","is shouting at","","","","","",""
"null","<div style=""font-size:60px;"">+</div>","","html-keyboard-response","192","582585","0.0-15.0-0.16","11460","List2B","white","woman","","","","null","","","","","","","","",""
"null","<img src=""stim_listB/kiss8.gif""style=""height:400px;""></stim_listB>","","html-keyboard-response","193","584595","0.0-15.0-1.16","11460","List2B","white","woman","","","","null","","","","","","","","",""
"null","is being kissed by","","html-keyboard-response","194","586602","0.0-15.0-2.16","11460","List2B","white","woman","","","","null","","","","","","","","",""
"5501.9000000059605","","","survey-text","195","592107","0.0-15.0-3.16","11460","List2B","white","woman","","","","","{""Q0"":""Beth is being kissed by Jane""}","<img src=""stim_listB/kiss8.gif""style=""height:400px;""></stim_listB>","is being kissed by","","","","","",""
"null","<div style=""font-size:60px;"">+</div>","","html-keyboard-response","196","592622","0.0-15.0-0.17","11460","List2B","white","woman","","","","null","","","","","","","","",""
"null","<img src=""stim_listB/copy7.gif""style=""height:400px;""></stim_listB>","","html-keyboard-response","197","594629","0.0-15.0-1.17","11460","List2B","white","woman","","","","null","","","","","","","","",""
"null","is copying","","html-keyboard-response","198","596636","0.0-15.0-2.17","11460","List2B","white","woman","","","","null","","","","","","","","",""
"11691.09999999404","","","survey-text","199","608329","0.0-15.0-3.17","11460","List2B","white","woman","","","","","{""Q0"":""Beth is copying Jane""}","<img src=""stim_listB/copy7.gif""style=""height:400px;""></stim_listB>","is copying","","","","","",""
"null","<div style=""font-size:60px;"">+</div>","","html-keyboard-response","200","608839","0.0-15.0-0.18","11460","List2B","white","woman","","","","null","","","","","","","","",""
"null","<img src=""stim_listB/challenge8.gif""style=""height:400px;""></stim_listB>","","html-keyboard-response","201","610842","0.0-15.0-1.18","11460","List2B","white","woman","","","","null","","","","","","","","",""
"null","is being challenged by","","html-keyboard-response","202","612844","0.0-15.0-2.18","11460","List2B","white","woman","","","","null","","","","","","","","",""
"11634.600000023842","","","survey-text","203","624481","0.0-15.0-3.18","11460","List2B","white","woman","","","","","{""Q0"":""Ruth is copying Kate""}","<img src=""stim_listB/challenge8.gif""style=""height:400px;""></stim_listB>","is being challenged by","","","","","",""
"null","<div style=""font-size:60px;"">+</div>","","html-keyboard-response","204","624995","0.0-15.0-0.19","11460","List2B","white","woman","","","","null","","","","","","","","",""
"null","<img src=""stim_listB/kiss5.gif""style=""height:400px;""></stim_listB>","","html-keyboard-response","205","627000","0.0-15.0-1.19","11460","List2B","white","woman","","","","null","","","","","","","","",""
"null","is kissing","","html-keyboard-response","206","629004","0.0-15.0-2.19","11460","List2B","white","woman","","","","null","","","","","","","","",""
"5669.0999999940395","","","survey-text","207","634676","0.0-15.0-3.19","11460","List2B","white","woman","","","","","{""Q0"":""Fred is kissing Luke""}","<img src=""stim_listB/kiss5.gif""style=""height:400px;""></stim_listB>","is kissing","","","","","",""
"20627","<img src='img/portrait_matrix_list2.jpg' style='width:900px;height:500px;''></img><p>If you have memorised all the portraits and names and are ready to start, press Continue.</p><p><strong>Please note: Your memory of these faces will be tested 4 times during this experiment.</strong></p>","0","html-button-response","208","655305","0.0-16.0-0.0","11460","List2B","white","woman","","","","","","","","","","","","",""
"2957.9000000059605","<img src=""portrait/WW1.jpg""style=""height:400px;""></img>","1","html-button-response","209","659269","0.0-16.0-1.0","11460","List2B","white","woman","","true","1","","","","","","","","","",""
"null","CORRECT","","html-keyboard-response","210","660790","0.0-16.0-2.0-0.0","11460","List2B","white","woman","","","","null","","","","","","","","",""
"2074.699999988079","<img src=""portrait/WW2.jpg""style=""height:400px;""></img>","3","html-button-response","211","662866","0.0-16.0-4.0","11460","List2B","white","woman","","true","3","","","","","","","","","",""
"null","CORRECT","","html-keyboard-response","212","664390","0.0-16.0-5.0-0.0","11460","List2B","white","woman","","","","null","","","","","","","","",""
"2388.800000011921","<img src=""portrait/BM2.jpg""style=""height:400px;""></img>","5","html-button-response","213","666780","0.0-16.0-7.0","11460","List2B","white","woman","","true","5","","","","","","","","","",""
"null","CORRECT","","html-keyboard-response","214","668302","0.0-16.0-8.0-0.0","11460","List2B","white","woman","","","","null","","","","","","","","",""
"73502.90000000596","<img src=""portrait/BW1.jpg""style=""height:400px;""></img>","0","html-button-response","215","741807","0.0-16.0-10.0","11460","List2B","white","woman","","true","0","","","","","","","","","",""
"null","CORRECT","","html-keyboard-response","216","743328","0.0-16.0-11.0-0.0","11460","List2B","white","woman","","","","null","","","","","","","","",""
"2774.7999999821186","<img src=""portrait/BW2.jpg""style=""height:400px;""></img>","2","html-button-response","217","746104","0.0-16.0-13.0","11460","List2B","white","woman","","true","2","","","","","","","","","",""
"null","CORRECT","","html-keyboard-response","218","747627","0.0-16.0-14.0-0.0","11460","List2B","white","woman","","","","null","","","","","","","","",""
"2094.699999988079","<img src=""portrait/WM1.jpg""style=""height:400px;""></img>","6","html-button-response","219","749724","0.0-16.0-16.0","11460","List2B","white","woman","","true","6","","","","","","","","","",""
"null","CORRECT","","html-keyboard-response","220","751246","0.0-16.0-17.0-0.0","11460","List2B","white","woman","","","","null","","","","","","","","",""
"1452.699999988079","<img src=""portrait/WM2.jpg""style=""height:400px;""></img>","7","html-button-response","221","752700","0.0-16.0-19.0","11460","List2B","white","woman","","true","7","","","","","","","","","",""
"null","CORRECT","","html-keyboard-response","222","754229","0.0-16.0-20.0-0.0","11460","List2B","white","woman","","","","null","","","","","","","","",""
"2365.9000000059605","<img src=""portrait/BM1.jpg""style=""height:400px;""></img>","4","html-button-response","223","756597","0.0-16.0-22.0","11460","List2B","white","woman","","true","4","","","","","","","","","",""
"null","CORRECT","","html-keyboard-response","224","758127","0.0-16.0-23.0-0.0","11460","List2B","white","woman","","","","null","","","","","","","","",""
"1991.8999999761581","<p>You got 8 out of 8 right first time. Press Continue.</p>","0","html-button-response","225","760121","0.0-16.0-25.0","11460","List2B","white","woman","","","","","","","","","","","","",""
"null","<div style=""font-size:60px;"">+</div>","","html-keyboard-response","226","761631","0.0-17.0-0.0","11460","List2B","white","woman","","","","null","","","","","","","","",""
"null","<img src=""stim_listB/hug4.gif""style=""height:400px;""></stim_listB>","","html-keyboard-response","227","763636","0.0-17.0-1.0","11460","List2B","white","woman","","","","null","","","","","","","","",""
"null","is being hugged by","","html-keyboard-response","228","765646","0.0-17.0-2.0","11460","List2B","white","woman","","","","null","","","","","","","","",""
"5790.100000023842","","","survey-text","229","771440","0.0-17.0-3.0","11460","List2B","white","woman","","","","","{""Q0"":""Mike is being hugged by Kate""}","<img src=""stim_listB/hug4.gif""style=""height:400px;""></stim_listB>","is being hugged by","","","","","",""
"null","<div style=""font-size:60px;"">+</div>","","html-keyboard-response","230","771946","0.0-17.0-0.1","11460","List2B","white","woman","","","","null","","","","","","","","",""
"null","<img src=""stim_listB/seduce6.gif""style=""height:400px;""></stim_listB>","","html-keyboard-response","231","773964","0.0-17.0-1.1","11460","List2B","white","woman","","","","null","","","","","","","","",""
"null","is being seduced by","","html-keyboard-response","232","775967","0.0-17.0-2.1","11460","List2B","white","woman","","","","null","","","","","","","","",""
"5612.4000000059605","","","survey-text","233","781583","0.0-17.0-3.1","11460","List2B","white","woman","","","","","{""Q0"":""Dave is being seduced by Fred""}","<img src=""stim_listB/seduce6.gif""style=""height:400px;""></stim_listB>","is being seduced by","","","","","",""
"null","<div style=""font-size:60px;"">+</div>","","html-keyboard-response","234","782094","0.0-17.0-0.2","11460","List2B","white","woman","","","","null","","","","","","","","",""
"null","<img src=""stim_listB/seduce2.gif""style=""height:400px;""></stim_listB>","","html-keyboard-response","235","784106","0.0-17.0-1.2","11460","List2B","white","woman","","","","null","","","","","","","","",""
"null","is being seduced by","","html-keyboard-response","236","786119","0.0-17.0-2.2","11460","List2B","white","woman","","","","null","","","","","","","","",""
"5202","","","survey-text","237","791323","0.0-17.0-3.2","11460","List2B","white","woman","","","","","{""Q0"":""Dave is being seduced by Ruth""}","<img src=""stim_listB/seduce2.gif""style=""height:400px;""></stim_listB>","is being seduced by","","","","","",""
"null","<div style=""font-size:60px;"">+</div>","","html-keyboard-response","238","791832","0.0-17.0-0.3","11460","List2B","white","woman","","","","null","","","","","","","","",""
"null","<img src=""stim_listB/seduce1.gif""style=""height:400px;""></stim_listB>","","html-keyboard-response","239","793846","0.0-17.0-1.3","11460","List2B","white","woman","","","","null","","","","","","","","",""
"null","is seducing","","html-keyboard-response","240","795855","0.0-17.0-2.3","11460","List2B","white","woman","","","","null","","","","","","","","",""
"3819","","","survey-text","241","799677","0.0-17.0-3.3","11460","List2B","white","woman","","","","","{""Q0"":""Jane is seducing Luke""}","<img src=""stim_listB/seduce1.gif""style=""height:400px;""></stim_listB>","is seducing","","","","","",""
"null","<div style=""font-size:60px;"">+</div>","","html-keyboard-response","242","800182","0.0-17.0-0.4","11460","List2B","white","woman","","","","null","","","","","","","","",""
"null","<img src=""stim_listB/kiss1.gif""style=""height:400px;""></stim_listB>","","html-keyboard-response","243","802195","0.0-17.0-1.4","11460","List2B","white","woman","","","","null","","","","","","","","",""
"null","is kissing","","html-keyboard-response","244","804204","0.0-17.0-2.4","11460","List2B","white","woman","","","","null","","","","","","","","",""
"3843","","","survey-text","245","808050","0.0-17.0-3.4","11460","List2B","white","woman","","","","","{""Q0"":""Ruth is kissing Luke""}","<img src=""stim_listB/kiss1.gif""style=""height:400px;""></stim_listB>","is kissing","","","","","",""
"null","<div style=""font-size:60px;"">+</div>","","html-keyboard-response","246","808565","0.0-17.0-0.5","11460","List2B","white","woman","","","","null","","","","","","","","",""
"null","<img src=""stim_listB/greet7.gif""style=""height:400px;""></stim_listB>","","html-keyboard-response","247","810580","0.0-17.0-1.5","11460","List2B","white","woman","","","","null","","","","","","","","",""
"null","is greeting","","html-keyboard-response","248","812585","0.0-17.0-2.5","11460","List2B","white","woman","","","","null","","","","","","","","",""
"4516.5","","","survey-text","249","817105","0.0-17.0-3.5","11460","List2B","white","woman","","","","","{""Q0"":""Beth is greeting Jane""}","<img src=""stim_listB/greet7.gif""style=""height:400px;""></stim_listB>","is greeting","","","","","",""
"null","<div style=""font-size:60px;"">+</div>","","html-keyboard-response","250","817611","0.0-17.0-0.6","11460","List2B","white","woman","","","","null","","","","","","","","",""
"null","<img src=""stim_listB/oppose6.gif""style=""height:400px;""></stim_listB>","","html-keyboard-response","251","819622","0.0-17.0-1.6","11460","List2B","white","woman","","","","null","","","","","","","","",""
"null","is being opposed by","","html-keyboard-response","252","821625","0.0-17.0-2.6","11460","List2B","white","woman","","","","null","","","","","","","","",""
"5352.899999976158","","","survey-text","253","826981","0.0-17.0-3.6","11460","List2B","white","woman","","","","","{""Q0"":""Luke is being opposed by Fred""}","<img src=""stim_listB/oppose6.gif""style=""height:400px;""></stim_listB>","is being opposed by","","","","","",""
"null","<div style=""font-size:60px;"">+</div>","","html-keyboard-response","254","827488","0.0-17.0-0.7","11460","List2B","white","woman","","","","null","","","","","","","","",""
"null","<img src=""stim_listB/shout8.gif""style=""height:400px;""></stim_listB>","","html-keyboard-response","255","829503","0.0-17.0-1.7","11460","List2B","white","woman","","","","null","","","","","","","","",""
"null","is being shouted at by","","html-keyboard-response","256","831512","0.0-17.0-2.7","11460","List2B","white","woman","","","","null","","","","","","","","",""
"5421.799999982119","","","survey-text","257","836937","0.0-17.0-3.7","11460","List2B","white","woman","","","","","{""Q0"":""Jane is being shouted at by Kate""}","<img src=""stim_listB/shout8.gif""style=""height:400px;""></stim_listB>","is being shouted at by","","","","","",""
"null","<div style=""font-size:60px;"">+</div>","","html-keyboard-response","258","837451","0.0-17.0-0.8","11460","List2B","white","woman","","","","null","","","","","","","","",""
"null","<img src=""stim_listB/oppose7.gif""style=""height:400px;""></stim_listB>","","html-keyboard-response","259","839467","0.0-17.0-1.8","11460","List2B","white","woman","","","","null","","","","","","","","",""
"null","is opposing","","html-keyboard-response","260","841475","0.0-17.0-2.8","11460","List2B","white","woman","","","","null","","","","","","","","",""
"6691.4000000059605","","","survey-text","261","848170","0.0-17.0-3.8","11460","List2B","white","woman","","","","","{""Q0"":""Jane is opposing Kate""}","<img src=""stim_listB/oppose7.gif""style=""height:400px;""></stim_listB>","is opposing","","","","","",""
"null","<div style=""font-size:60px;"">+</div>","","html-keyboard-response","262","848673","0.0-17.0-0.9","11460","List2B","white","woman","","","","null","","","","","","","","",""
"null","<img src=""stim_listB/oppose2.gif""style=""height:400px;""></stim_listB>","","html-keyboard-response","263","850685","0.0-17.0-1.9","11460","List2B","white","woman","","","","null","","","","","","","","",""
"null","is being opposed by","","html-keyboard-response","264","852694","0.0-17.0-2.9","11460","List2B","white","woman","","","","null","","","","","","","","",""
"5444.800000011921","","","survey-text","265","858142","0.0-17.0-3.9","11460","List2B","white","woman","","","","","{""Q0"":""Luke is being opposed by Ruth""}","<img src=""stim_listB/oppose2.gif""style=""height:400px;""></stim_listB>","is being opposed by","","","","","",""
"null","<div style=""font-size:60px;"">+</div>","","html-keyboard-response","266","858649","0.0-17.0-0.10","11460","List2B","white","woman","","","","null","","","","","","","","",""
"null","<img src=""stim_listB/challenge3.gif""style=""height:400px;""></stim_listB>","","html-keyboard-response","267","860659","0.0-17.0-1.10","11460","List2B","white","woman","","","","null","","","","","","","","",""
"null","is challenging","","html-keyboard-response","268","862668","0.0-17.0-2.10","11460","List2B","white","woman","","","","null","","","","","","","","",""
"3991.0999999940395","","","survey-text","269","866662","0.0-17.0-3.10","11460","List2B","white","woman","","","","","{""Q0"":""Mike is challenging Beth""}","<img src=""stim_listB/challenge3.gif""style=""height:400px;""></stim_listB>","is challenging","","","","","",""
"null","<div style=""font-size:60px;"">+</div>","","html-keyboard-response","270","867164","0.0-17.0-0.11","11460","List2B","white","woman","","","","null","","","","","","","","",""
"null","<img src=""stim_listB/shout2.gif""style=""height:400px;""></stim_listB>","","html-keyboard-response","271","869181","0.0-17.0-1.11","11460","List2B","white","woman","","","","null","","","","","","","","",""
"null","is being shouted at by","","html-keyboard-response","272","871187","0.0-17.0-2.11","11460","List2B","white","woman","","","","null","","","","","","","","",""
"6223.699999988079","","","survey-text","273","877413","0.0-17.0-3.11","11460","List2B","white","woman","","","","","{""Q0"":""DAve is being shouted at by Jane""}","<img src=""stim_listB/shout2.gif""style=""height:400px;""></stim_listB>","is being shouted at by","","","","","",""
"null","<div style=""font-size:60px;"">+</div>","","html-keyboard-response","274","877916","0.0-17.0-0.12","11460","List2B","white","woman","","","","null","","","","","","","","",""
"null","<img src=""stim_listB/hug8.gif""style=""height:400px;""></stim_listB>","","html-keyboard-response","275","879933","0.0-17.0-1.12","11460","List2B","white","woman","","","","null","","","","","","","","",""
"null","is being hugged by","","html-keyboard-response","276","881947","0.0-17.0-2.12","11460","List2B","white","woman","","","","null","","","","","","","","",""
"5697.199999988079","","","survey-text","277","887647","0.0-17.0-3.12","11460","List2B","white","woman","","","","","{""Q0"":""Jane is being hugged by Kate""}","<img src=""stim_listB/hug8.gif""style=""height:400px;""></stim_listB>","is being hugged by","","","","","",""
"null","<div style=""font-size:60px;"">+</div>","","html-keyboard-response","278","888151","0.0-17.0-0.13","11460","List2B","white","woman","","","","null","","","","","","","","",""
"null","<img src=""stim_listB/greet2.gif""style=""height:400px;""></stim_listB>","","html-keyboard-response","279","890167","0.0-17.0-1.13","11460","List2B","white","woman","","","","null","","","","","","","","",""
"null","is being greeted by","","html-keyboard-response","280","892175","0.0-17.0-2.13","11460","List2B","white","woman","","","","null","","","","","","","","",""
"5735.5999999940395","","","survey-text","281","897913","0.0-17.0-3.13","11460","List2B","white","woman","","","","","{""Q0"":""Jane is being greeted by Luke""}","<img src=""stim_listB/greet2.gif""style=""height:400px;""></stim_listB>","is being greeted by","","","","","",""
"null","<div style=""font-size:60px;"">+</div>","","html-keyboard-response","282","898421","0.0-17.0-0.14","11460","List2B","white","woman","","","","null","","","","","","","","",""
"null","<img src=""stim_listB/oppose3.gif""style=""height:400px;""></stim_listB>","","html-keyboard-response","283","900439","0.0-17.0-1.14","11460","List2B","white","woman","","","","null","","","","","","","","",""
"null","is opposing","","html-keyboard-response","284","902443","0.0-17.0-2.14","11460","List2B","white","woman","","","","null","","","","","","","","",""
"5498.5999999940395","","","survey-text","285","907945","0.0-17.0-3.14","11460","List2B","white","woman","","","","","{""Q0"":""Kate is opposing Mike""}","<img src=""stim_listB/oppose3.gif""style=""height:400px;""></stim_listB>","is opposing","","","","","",""
"null","<div style=""font-size:60px;"">+</div>","","html-keyboard-response","286","908451","0.0-17.0-0.15","11460","List2B","white","woman","","","","null","","","","","","","","",""
"null","<img src=""stim_listB/hug3.gif""style=""height:400px;""></stim_listB>","","html-keyboard-response","287","910465","0.0-17.0-1.15","11460","List2B","white","woman","","","","null","","","","","","","","",""
"null","is hugging","","html-keyboard-response","288","912480","0.0-17.0-2.15","11460","List2B","white","woman","","","","null","","","","","","","","",""
"3398.5","","","survey-text","289","915881","0.0-17.0-3.15","11460","List2B","white","woman","","","","","{""Q0"":""Beth is hugging Fred""}","<img src=""stim_listB/hug3.gif""style=""height:400px;""></stim_listB>","is hugging","","","","","",""
"null","<div style=""font-size:60px;"">+</div>","","html-keyboard-response","290","916387","0.0-17.0-0.16","11460","List2B","white","woman","","","","null","","","","","","","","",""
"null","<img src=""stim_listB/kiss6.gif""style=""height:400px;""></stim_listB>","","html-keyboard-response","291","918404","0.0-17.0-1.16","11460","List2B","white","woman","","","","null","","","","","","","","",""
"null","is being kissed by","","html-keyboard-response","292","920418","0.0-17.0-2.16","11460","List2B","white","woman","","","","null","","","","","","","","",""
"7778.5999999940395","","","survey-text","293","928199","0.0-17.0-3.16","11460","List2B","white","woman","","","","","{""Q0"":""Dave is being kissed by Mike""}","<img src=""stim_listB/kiss6.gif""style=""height:400px;""></stim_listB>","is being kissed by","","","","","",""
"null","<div style=""font-size:60px;"">+</div>","","html-keyboard-response","294","928703","0.0-17.0-0.17","11460","List2B","white","woman","","","","null","","","","","","","","",""
"null","<img src=""stim_listB/kiss7.gif""style=""height:400px;""></stim_listB>","","html-keyboard-response","295","930721","0.0-17.0-1.17","11460","List2B","white","woman","","","","null","","","","","","","","",""
"null","is kissing","","html-keyboard-response","296","932731","0.0-17.0-2.17","11460","List2B","white","woman","","","","null","","","","","","","","",""
"3656.699999988079","","","survey-text","297","936391","0.0-17.0-3.17","11460","List2B","white","woman","","","","","{""Q0"":""Beth is kissing Ruth""}","<img src=""stim_listB/kiss7.gif""style=""height:400px;""></stim_listB>","is kissing","","","","","",""
"null","<div style=""font-size:60px;"">+</div>","","html-keyboard-response","298","936898","0.0-17.0-0.18","11460","List2B","white","woman","","","","null","","","","","","","","",""
"null","<img src=""stim_listB/greet6.gif""style=""height:400px;""></stim_listB>","","html-keyboard-response","299","938902","0.0-17.0-1.18","11460","List2B","white","woman","","","","null","","","","","","","","",""
"null","is being greeted by","","html-keyboard-response","300","940914","0.0-17.0-2.18","11460","List2B","white","woman","","","","null","","","","","","","","",""
"4825.9000000059605","","","survey-text","301","945743","0.0-17.0-3.18","11460","List2B","white","woman","","","","","{""Q0"":""Luke is being greeted by Mike""}","<img src=""stim_listB/greet6.gif""style=""height:400px;""></stim_listB>","is being greeted by","","","","","",""
"null","<div style=""font-size:60px;"">+</div>","","html-keyboard-response","302","946254","0.0-17.0-0.19","11460","List2B","white","woman","","","","null","","","","","","","","",""
"null","<img src=""stim_listB/challenge1.gif""style=""height:400px;""></stim_listB>","","html-keyboard-response","303","948270","0.0-17.0-1.19","11460","List2B","white","woman","","","","null","","","","","","","","",""
"null","is challenging","","html-keyboard-response","304","950274","0.0-17.0-2.19","11460","List2B","white","woman","","","","null","","","","","","","","",""
"3914.300000011921","","","survey-text","305","954191","0.0-17.0-3.19","11460","List2B","white","woman","","","","","{""Q0"":""Ruth is challenging Dave""}","<img src=""stim_listB/challenge1.gif""style=""height:400px;""></stim_listB>","is challenging","","","","","",""
"3898.800000011921","<img src='img/portrait_matrix_list2.jpg' style='width:900px;height:500px;''></img><p>If you have memorised all the portraits and names and are ready to start, press Continue.</p><p><strong>Please note: Your memory of these faces will be tested 4 times during this experiment.</strong></p>","0","html-button-response","306","958093","0.0-18.0-0.0","11460","List2B","white","woman","","","","","","","","","","","","",""
"1773.5","<img src=""portrait/WW1.jpg""style=""height:400px;""></img>","1","html-button-response","307","960883","0.0-18.0-1.0","11460","List2B","white","woman","","true","1","","","","","","","","","",""
"null","CORRECT","","html-keyboard-response","308","962407","0.0-18.0-2.0-0.0","11460","List2B","white","woman","","","","null","","","","","","","","",""
"2332.7000000178814","<img src=""portrait/BM1.jpg""style=""height:400px;""></img>","6","html-button-response","309","964742","0.0-18.0-4.0","11460","List2B","white","woman","","true","4","","","","","","","","","",""
"4518.9000000059605","<img src=""portrait/BM1.jpg""style=""height:400px;""></img>","4","html-button-response","310","970266","0.0-18.0-6.0-0.0","11460","List2B","white","woman","","false","4","","","","","","","","","",""
"null","CORRECT","","html-keyboard-response","311","971788","0.0-18.0-6.0-1.0-0.0","11460","List2B","white","woman","","","","null","","","","","","","","",""
"5601.9000000059605","<img src=""portrait/WW2.jpg""style=""height:400px;""></img>","3","html-button-response","312","977392","0.0-18.0-7.0","11460","List2B","white","woman","","true","3","","","","","","","","","",""
"null","CORRECT","","html-keyboard-response","313","978909","0.0-18.0-8.0-0.0","11460","List2B","white","woman","","","","null","","","","","","","","",""
"2160.800000011921","<img src=""portrait/BW1.jpg""style=""height:400px;""></img>","0","html-button-response","314","981072","0.0-18.0-10.0","11460","List2B","white","woman","","true","0","","","","","","","","","",""
"null","CORRECT","","html-keyboard-response","315","982578","0.0-18.0-11.0-0.0","11460","List2B","white","woman","","","","null","","","","","","","","",""
"2038.300000011921","<img src=""portrait/WM2.jpg""style=""height:400px;""></img>","7","html-button-response","316","984619","0.0-18.0-13.0","11460","List2B","white","woman","","true","7","","","","","","","","","",""
"null","CORRECT","","html-keyboard-response","317","986136","0.0-18.0-14.0-0.0","11460","List2B","white","woman","","","","null","","","","","","","","",""
"2355.4000000059605","<img src=""portrait/WM1.jpg""style=""height:400px;""></img>","6","html-button-response","318","988494","0.0-18.0-16.0","11460","List2B","white","woman","","true","6","","","","","","","","","",""
"null","CORRECT","","html-keyboard-response","319","990007","0.0-18.0-17.0-0.0","11460","List2B","white","woman","","","","null","","","","","","","","",""
"2285.9000000059605","<img src=""portrait/BW2.jpg""style=""height:400px;""></img>","2","html-button-response","320","992296","0.0-18.0-19.0","11460","List2B","white","woman","","true","2","","","","","","","","","",""
"null","CORRECT","","html-keyboard-response","321","993806","0.0-18.0-20.0-0.0","11460","List2B","white","woman","","","","null","","","","","","","","",""
"5068.200000017881","<img src=""portrait/BM2.jpg""style=""height:400px;""></img>","5","html-button-response","322","998877","0.0-18.0-22.0","11460","List2B","white","woman","","true","5","","","","","","","","","",""
"null","CORRECT","","html-keyboard-response","323","1000393","0.0-18.0-23.0-0.0","11460","List2B","white","woman","","","","null","","","","","","","","",""
"2050.7000000178814","<p>You got 7 out of 8 right first time. Press Continue.</p>","0","html-button-response","324","1002446","0.0-18.0-25.0","11460","List2B","white","woman","","","","","","","","","","","","",""
"4152.800000011921","As you did not score 100%, the memory game will repeat. Press Continue.","0","html-button-response","325","1007613","0.0-18.0-26.0-0.0","11460","List2B","white","woman","","","","","","","","","","","","",""
"2360.699999988079","<img src='img/portrait_matrix_list2.jpg' style='width:900px;height:500px;''></img><p>If you have memorised all the portraits and names and are ready to start, press Continue.</p><p><strong>Please note: Your memory of these faces will be tested 4 times during this experiment.</strong></p>","0","html-button-response","326","1010984","0.0-18.1-0.1","11460","List2B","white","woman","","","","","","","","","","","","",""
"3279.7000000178814","<img src=""portrait/WW1.jpg""style=""height:400px;""></img>","1","html-button-response","327","1015271","0.0-18.1-1.1","11460","List2B","white","woman","","true","1","","","","","","","","","",""
"null","CORRECT","","html-keyboard-response","328","1016787","0.0-18.1-2.1-0.1","11460","List2B","white","woman","","","","null","","","","","","","","",""
"1880.0999999940395","<img src=""portrait/BM1.jpg""style=""height:400px;""></img>","4","html-button-response","329","1018669","0.0-18.1-4.1","11460","List2B","white","woman","","true","4","","","","","","","","","",""
"null","CORRECT","","html-keyboard-response","330","1020185","0.0-18.1-5.1-0.1","11460","List2B","white","woman","","","","null","","","","","","","","",""
"4074.4000000059605","<img src=""portrait/WW2.jpg""style=""height:400px;""></img>","3","html-button-response","331","1024263","0.0-18.1-7.1","11460","List2B","white","woman","","true","3","","","","","","","","","",""
"null","CORRECT","","html-keyboard-response","332","1025785","0.0-18.1-8.1-0.1","11460","List2B","white","woman","","","","null","","","","","","","","",""
"4036.600000023842","<img src=""portrait/BW1.jpg""style=""height:400px;""></img>","0","html-button-response","333","1029824","0.0-18.1-10.1","11460","List2B","white","woman","","true","0","","","","","","","","","",""
"null","CORRECT","","html-keyboard-response","334","1031343","0.0-18.1-11.1-0.1","11460","List2B","white","woman","","","","null","","","","","","","","",""
"1592.9000000059605","<img src=""portrait/WM2.jpg""style=""height:400px;""></img>","7","html-button-response","335","1032939","0.0-18.1-13.1","11460","List2B","white","woman","","true","7","","","","","","","","","",""
"null","CORRECT","","html-keyboard-response","336","1034450","0.0-18.1-14.1-0.1","11460","List2B","white","woman","","","","null","","","","","","","","",""
"1760.800000011921","<img src=""portrait/WM1.jpg""style=""height:400px;""></img>","6","html-button-response","337","1036213","0.0-18.1-16.1","11460","List2B","white","woman","","true","6","","","","","","","","","",""
"null","CORRECT","","html-keyboard-response","338","1037743","0.0-18.1-17.1-0.1","11460","List2B","white","woman","","","","null","","","","","","","","",""
"1884.300000011921","<img src=""portrait/BW2.jpg""style=""height:400px;""></img>","2","html-button-response","339","1039629","0.0-18.1-19.1","11460","List2B","white","woman","","true","2","","","","","","","","","",""
"null","CORRECT","","html-keyboard-response","340","1041142","0.0-18.1-20.1-0.1","11460","List2B","white","woman","","","","null","","","","","","","","",""
"3436.7999999821186","<img src=""portrait/BM2.jpg""style=""height:400px;""></img>","5","html-button-response","341","1044582","0.0-18.1-22.1","11460","List2B","white","woman","","true","5","","","","","","","","","",""
"null","CORRECT","","html-keyboard-response","342","1046111","0.0-18.1-23.1-0.1","11460","List2B","white","woman","","","","null","","","","","","","","",""
"1491.800000011921","<p>You got 8 out of 8 right first time. Press Continue.</p>","0","html-button-response","343","1047605","0.0-18.1-25.1","11460","List2B","white","woman","","","","","","","","","","","","",""
"null","<div style=""font-size:60px;"">+</div>","","html-keyboard-response","344","1049121","0.0-19.0-0.0","11460","List2B","white","woman","","","","null","","","","","","","","",""
"null","<img src=""stim_listB/look3.gif""style=""height:400px;""></stim_listB>","","html-keyboard-response","345","1051130","0.0-19.0-1.0","11460","List2B","white","woman","","","","null","","","","","","","","",""
"null","is looking at","","html-keyboard-response","346","1053139","0.0-19.0-2.0","11460","List2B","white","woman","","","","null","","","","","","","","",""
"4604.5999999940395","","","survey-text","347","1057746","0.0-19.0-3.0","11460","List2B","white","woman","","","","","{""Q0"":""Beth is looking at Fred""}","<img src=""stim_listB/look3.gif""style=""height:400px;""></stim_listB>","is looking at","","","","","",""
"null","<div style=""font-size:60px;"">+</div>","","html-keyboard-response","348","1058261","0.0-19.0-0.1","11460","List2B","white","woman","","","","null","","","","","","","","",""
"null","<img src=""stim_listB/hug2.gif""style=""height:400px;""></stim_listB>","","html-keyboard-response","349","1060276","0.0-19.0-1.1","11460","List2B","white","woman","","","","null","","","","","","","","",""
"null","is being hugged by","","html-keyboard-response","350","1062286","0.0-19.0-2.1","11460","List2B","white","woman","","","","null","","","","","","","","",""
"6912","","","survey-text","351","1069201","0.0-19.0-3.1","11460","List2B","white","woman","","","","","{""Q0"":""Dave is being hugged by Jane""}","<img src=""stim_listB/hug2.gif""style=""height:400px;""></stim_listB>","is being hugged by","","","","","",""
"null","<div style=""font-size:60px;"">+</div>","","html-keyboard-response","352","1069712","0.0-19.0-0.2","11460","List2B","white","woman","","","","null","","","","","","","","",""
"null","<img src=""stim_listB/copy3.gif""style=""height:400px;""></stim_listB>","","html-keyboard-response","353","1071716","0.0-19.0-1.2","11460","List2B","white","woman","","","","null","","","","","","","","",""
"null","is copying","","html-keyboard-response","354","1073728","0.0-19.0-2.2","11460","List2B","white","woman","","","","null","","","","","","","","",""
"3297.800000011921","","","survey-text","355","1077029","0.0-19.0-3.2","11460","List2B","white","woman","","","","","{""Q0"":""Beth is copying Mike""}","<img src=""stim_listB/copy3.gif""style=""height:400px;""></stim_listB>","is copying","","","","","",""
"null","<div style=""font-size:60px;"">+</div>","","html-keyboard-response","356","1077539","0.0-19.0-0.3","11460","List2B","white","woman","","","","null","","","","","","","","",""
"null","<img src=""stim_listB/greet5.gif""style=""height:400px;""></stim_listB>","","html-keyboard-response","357","1079548","0.0-19.0-1.3","11460","List2B","white","woman","","","","null","","","","","","","","",""
"null","is greeting","","html-keyboard-response","358","1081564","0.0-19.0-2.3","11460","List2B","white","woman","","","","null","","","","","","","","",""
"4152.0999999940395","","","survey-text","359","1085718","0.0-19.0-3.3","11460","List2B","white","woman","","","","","{""Q0"":""Fred is greeting Dave""}","<img src=""stim_listB/greet5.gif""style=""height:400px;""></stim_listB>","is greeting","","","","","",""
"null","<div style=""font-size:60px;"">+</div>","","html-keyboard-response","360","1086220","0.0-19.0-0.4","11460","List2B","white","woman","","","","null","","","","","","","","",""
"null","<img src=""stim_listB/look1.gif""style=""height:400px;""></stim_listB>","","html-keyboard-response","361","1088236","0.0-19.0-1.4","11460","List2B","white","woman","","","","null","","","","","","","","",""
"null","is looking at","","html-keyboard-response","362","1090241","0.0-19.0-2.4","11460","List2B","white","woman","","","","null","","","","","","","","",""
"3849.300000011921","","","survey-text","363","1094093","0.0-19.0-3.4","11460","List2B","white","woman","","","","","{""Q0"":""Ruth is looking at Luke""}","<img src=""stim_listB/look1.gif""style=""height:400px;""></stim_listB>","is looking at","","","","","",""
"null","<div style=""font-size:60px;"">+</div>","","html-keyboard-response","364","1094598","0.0-19.0-0.5","11460","List2B","white","woman","","","","null","","","","","","","","",""
"null","<img src=""stim_listB/hug5.gif""style=""height:400px;""></stim_listB>","","html-keyboard-response","365","1096610","0.0-19.0-1.5","11460","List2B","white","woman","","","","null","","","","","","","","",""
"null","is hugging","","html-keyboard-response","366","1098624","0.0-19.0-2.5","11460","List2B","white","woman","","","","null","","","","","","","","",""
"4797.800000011921","","","survey-text","367","1103424","0.0-19.0-3.5","11460","List2B","white","woman","","","","","{""Q0"":""Fred is hugging Luke""}","<img src=""stim_listB/hug5.gif""style=""height:400px;""></stim_listB>","is hugging","","","","","",""
"null","<div style=""font-size:60px;"">+</div>","","html-keyboard-response","368","1103931","0.0-19.0-0.6","11460","List2B","white","woman","","","","null","","","","","","","","",""
"null","<img src=""stim_listB/touch4.gif""style=""height:400px;""></stim_listB>","","html-keyboard-response","369","1105931","0.0-19.0-1.6","11460","List2B","white","woman","","","","null","","","","","","","","",""
"null","is being touched by","","html-keyboard-response","370","1107938","0.0-19.0-2.6","11460","List2B","white","woman","","","","null","","","","","","","","",""
"4330.300000011921","","","survey-text","371","1112271","0.0-19.0-3.6","11460","List2B","white","woman","","","","","{""Q0"":""Fred is being touched by Beth""}","<img src=""stim_listB/touch4.gif""style=""height:400px;""></stim_listB>","is being touched by","","","","","",""
"null","<div style=""font-size:60px;"">+</div>","","html-keyboard-response","372","1112773","0.0-19.0-0.7","11460","List2B","white","woman","","","","null","","","","","","","","",""
"null","<img src=""stim_listB/copy8.gif""style=""height:400px;""></stim_listB>","","html-keyboard-response","373","1114781","0.0-19.0-1.7","11460","List2B","white","woman","","","","null","","","","","","","","",""
"null","is being copied by","","html-keyboard-response","374","1116792","0.0-19.0-2.7","11460","List2B","white","woman","","","","null","","","","","","","","",""
"10154.299999982119","","","survey-text","375","1126949","0.0-19.0-3.7","11460","List2B","white","woman","","","","","{""Q0"":""Kate is being copied by Ruth""}","<img src=""stim_listB/copy8.gif""style=""height:400px;""></stim_listB>","is being copied by","","","","","",""
"null","<div style=""font-size:60px;"">+</div>","","html-keyboard-response","376","1127455","0.0-19.0-0.8","11460","List2B","white","woman","","","","null","","","","","","","","",""
"null","<img src=""stim_listB/look2.gif""style=""height:400px;""></stim_listB>","","html-keyboard-response","377","1129459","0.0-19.0-1.8","11460","List2B","white","woman","","","","null","","","","","","","","",""
"null","is being looked at by","","html-keyboard-response","378","1131461","0.0-19.0-2.8","11460","List2B","white","woman","","","","null","","","","","","","","",""
"5148.699999988079","","","survey-text","379","1136613","0.0-19.0-3.8","11460","List2B","white","woman","","","","","{""Q0"":""Dave is being looked at by Jane""}","<img src=""stim_listB/look2.gif""style=""height:400px;""></stim_listB>","is being looked at by","","","","","",""
"null","<div style=""font-size:60px;"">+</div>","","html-keyboard-response","380","1137122","0.0-19.0-0.9","11460","List2B","white","woman","","","","null","","","","","","","","",""
"null","<img src=""stim_listB/shout6.gif""style=""height:400px;""></stim_listB>","","html-keyboard-response","381","1139128","0.0-19.0-1.9","11460","List2B","white","woman","","","","null","","","","","","","","",""
"null","is being shouted at by","","html-keyboard-response","382","1141130","0.0-19.0-2.9","11460","List2B","white","woman","","","","null","","","","","","","","",""
"5545.799999982119","","","survey-text","383","1146679","0.0-19.0-3.9","11460","List2B","white","woman","","","","","{""Q0"":""Dave is being shouted at by Mike""}","<img src=""stim_listB/shout6.gif""style=""height:400px;""></stim_listB>","is being shouted at by","","","","","",""
"null","<div style=""font-size:60px;"">+</div>","","html-keyboard-response","384","1147190","0.0-19.0-0.10","11460","List2B","white","woman","","","","null","","","","","","","","",""
"null","<img src=""stim_listB/greet4.gif""style=""height:400px;""></stim_listB>","","html-keyboard-response","385","1149208","0.0-19.0-1.10","11460","List2B","white","woman","","","","null","","","","","","","","",""
"null","is being greeted by","","html-keyboard-response","386","1151210","0.0-19.0-2.10","11460","List2B","white","woman","","","","null","","","","","","","","",""
"5482.600000023842","","","survey-text","387","1156697","0.0-19.0-3.10","11460","List2B","white","woman","","","","","{""Q0"":""Fred is being greeted by Kate""}","<img src=""stim_listB/greet4.gif""style=""height:400px;""></stim_listB>","is being greeted by","","","","","",""
"null","<div style=""font-size:60px;"">+</div>","","html-keyboard-response","388","1157210","0.0-19.0-0.11","11460","List2B","white","woman","","","","null","","","","","","","","",""
"null","<img src=""stim_listB/oppose5.gif""style=""height:400px;""></stim_listB>","","html-keyboard-response","389","1159216","0.0-19.0-1.11","11460","List2B","white","woman","","","","null","","","","","","","","",""
"null","is opposing","","html-keyboard-response","390","1161228","0.0-19.0-2.11","11460","List2B","white","woman","","","","null","","","","","","","","",""
"3375.5","","","survey-text","391","1164611","0.0-19.0-3.11","11460","List2B","white","woman","","","","","{""Q0"":""Mike is opposing Dave""}","<img src=""stim_listB/oppose5.gif""style=""height:400px;""></stim_listB>","is opposing","","","","","",""
"null","<div style=""font-size:60px;"">+</div>","","html-keyboard-response","392","1165116","0.0-19.0-0.12","11460","List2B","white","woman","","","","null","","","","","","","","",""
"null","<img src=""stim_listB/challenge7.gif""style=""height:400px;""></stim_listB>","","html-keyboard-response","393","1167129","0.0-19.0-1.12","11460","List2B","white","woman","","","","null","","","","","","","","",""
"null","is challenging","","html-keyboard-response","394","1169141","0.0-19.0-2.12","11460","List2B","white","woman","","","","null","","","","","","","","",""
"4470","","","survey-text","395","1173613","0.0-19.0-3.12","11460","List2B","white","woman","","","","","{""Q0"":""Beth is challenging Jane""}","<img src=""stim_listB/challenge7.gif""style=""height:400px;""></stim_listB>","is challenging","","","","","",""
"null","<div style=""font-size:60px;"">+</div>","","html-keyboard-response","396","1174122","0.0-19.0-0.13","11460","List2B","white","woman","","","","null","","","","","","","","",""
"null","<img src=""stim_listB/oppose4.gif""style=""height:400px;""></stim_listB>","","html-keyboard-response","397","1176140","0.0-19.0-1.13","11460","List2B","white","woman","","","","null","","","","","","","","",""
"null","is being opposed by","","html-keyboard-response","398","1178142","0.0-19.0-2.13","11460","List2B","white","woman","","","","null","","","","","","","","",""
"5818.700000017881","","","survey-text","399","1183964","0.0-19.0-3.13","11460","List2B","white","woman","","","","","{""Q0"":""Beth is being opposed by Fred""}","<img src=""stim_listB/oppose4.gif""style=""height:400px;""></stim_listB>","is being opposed by","","","","","",""
"null","<div style=""font-size:60px;"">+</div>","","html-keyboard-response","400","1184470","0.0-19.0-0.14","11460","List2B","white","woman","","","","null","","","","","","","","",""
"null","<img src=""stim_listB/look7.gif""style=""height:400px;""></stim_listB>","","html-keyboard-response","401","1186488","0.0-19.0-1.14","11460","List2B","white","woman","","","","null","","","","","","","","",""
"null","is looking at","","html-keyboard-response","402","1188496","0.0-19.0-2.14","11460","List2B","white","woman","","","","null","","","","","","","","",""
"3915.5","","","survey-text","403","1192414","0.0-19.0-3.14","11460","List2B","white","woman","","","","","{""Q0"":""Beth is looking at Ruth""}","<img src=""stim_listB/look7.gif""style=""height:400px;""></stim_listB>","is looking at","","","","","",""
"null","<div style=""font-size:60px;"">+</div>","","html-keyboard-response","404","1192931","0.0-19.0-0.15","11460","List2B","white","woman","","","","null","","","","","","","","",""
"null","<img src=""stim_listB/copy1.gif""style=""height:400px;""></stim_listB>","","html-keyboard-response","405","1194941","0.0-19.0-1.15","11460","List2B","white","woman","","","","null","","","","","","","","",""
"null","is copying","","html-keyboard-response","406","1196948","0.0-19.0-2.15","11460","List2B","white","woman","","","","null","","","","","","","","",""
"3599.9000000059605","","","survey-text","407","1200552","0.0-19.0-3.15","11460","List2B","white","woman","","","","","{""Q0"":""Ruth is copying Dave""}","<img src=""stim_listB/copy1.gif""style=""height:400px;""></stim_listB>","is copying","","","","","",""
"null","<div style=""font-size:60px;"">+</div>","","html-keyboard-response","408","1201061","0.0-19.0-0.16","11460","List2B","white","woman","","","","null","","","","","","","","",""
"null","<img src=""stim_listB/shout5.gif""style=""height:400px;""></stim_listB>","","html-keyboard-response","409","1203074","0.0-19.0-1.16","11460","List2B","white","woman","","","","null","","","","","","","","",""
"null","is shouting at","","html-keyboard-response","410","1205090","0.0-19.0-2.16","11460","List2B","white","woman","","","","null","","","","","","","","",""
"6275.5999999940395","","","survey-text","411","1211368","0.0-19.0-3.16","11460","List2B","white","woman","","","","","{""Q0"":""Fred is shouting at Luke""}","<img src=""stim_listB/shout5.gif""style=""height:400px;""></stim_listB>","is shouting at","","","","","",""
"null","<div style=""font-size:60px;"">+</div>","","html-keyboard-response","412","1211882","0.0-19.0-0.17","11460","List2B","white","woman","","","","null","","","","","","","","",""
"null","<img src=""stim_listB/oppose1.gif""style=""height:400px;""></stim_listB>","","html-keyboard-response","413","1213895","0.0-19.0-1.17","11460","List2B","white","woman","","","","null","","","","","","","","",""
"null","is opposing","","html-keyboard-response","414","1215898","0.0-19.0-2.17","11460","List2B","white","woman","","","","null","","","","","","","","",""
"3532.0999999940395","","","survey-text","415","1219433","0.0-19.0-3.17","11460","List2B","white","woman","","","","","{""Q0"":""Jane is opposing Dave""}","<img src=""stim_listB/oppose1.gif""style=""height:400px;""></stim_listB>","is opposing","","","","","",""
"null","<div style=""font-size:60px;"">+</div>","","html-keyboard-response","416","1219944","0.0-19.0-0.18","11460","List2B","white","woman","","","","null","","","","","","","","",""
"null","<img src=""stim_listB/hug7.gif""style=""height:400px;""></stim_listB>","","html-keyboard-response","417","1221950","0.0-19.0-1.18","11460","List2B","white","woman","","","","null","","","","","","","","",""
"null","is hugging","","html-keyboard-response","418","1223952","0.0-19.0-2.18","11460","List2B","white","woman","","","","null","","","","","","","","",""
"3401.300000011921","","","survey-text","419","1227356","0.0-19.0-3.18","11460","List2B","white","woman","","","","","{""Q0"":""Beth is hugging Ruth""}","<img src=""stim_listB/hug7.gif""style=""height:400px;""></stim_listB>","is hugging","","","","","",""
"null","<div style=""font-size:60px;"">+</div>","","html-keyboard-response","420","1227871","0.0-19.0-0.19","11460","List2B","white","woman","","","","null","","","","","","","","",""
"null","<img src=""stim_listB/touch2.gif""style=""height:400px;""></stim_listB>","","html-keyboard-response","421","1229879","0.0-19.0-1.19","11460","List2B","white","woman","","","","null","","","","","","","","",""
"null","is being touched by","","html-keyboard-response","422","1231886","0.0-19.0-2.19","11460","List2B","white","woman","","","","null","","","","","","","","",""
"5326.800000011921","","","survey-text","423","1237215","0.0-19.0-3.19","11460","List2B","white","woman","","","","","{""Q0"":""Luke is being touched by Ruth""}","<img src=""stim_listB/touch2.gif""style=""height:400px;""></stim_listB>","is being touched by","","","","","",""
"1737","<p>Thank you for completing that task.</p><p>The final part of this session is a questionnaire that will take about 4 minutes.</p><p>Press Continue.</p>","0","html-button-response","424","1238954","0.0-20.0","11460","List2B","white","woman","","","","","","","","","","","","",""
"26186.30000001192","","","survey-text","425","1266149","0.0-21.0","11460","List2B","white","woman","","","","","{""Q0"":""34"",""Q1"":""English"",""Q2"":""English"",""Q3"":""USA"",""Q4"":""American"",""Q5"":""White"",""Q6"":""Female""}","","","demographics","","","","",""
"1997.2999999821186","<p>Have you lived in the USA for the last 5 years or more?</p>","0","html-button-response","426","1268150","0.0-22.0","11460","List2B","white","woman","","","","","","","","fiveyears","","","","",""
"2630.199999988079","<p>Move the slider to show the extent to which you agree with the following statements.</p>","0","html-button-response","427","1271783","0.0-23.0","11460","List2B","white","woman","","","","","","","","","","","","",""
"3065.7000000178814","","","html-slider-response","428","1275853","0.0-24.0-0.0-0.0","11460","List2B","white","woman","","","","","","","","survey_gender","100","","","I feel solidarity with my gender.","solidarity"
"3950.5999999940395","","","html-slider-response","429","1279806","0.0-24.0-0.0-0.1","11460","List2B","white","woman","","","","","","","","survey_gender","100","","","Being around my friends gives me a good feeling.","filler"
"3051.5","","","html-slider-response","430","1282860","0.0-24.0-0.0-0.2","11460","List2B","white","woman","","","","","","","","survey_gender","100","","","I feel committed to my gender.","committed"
"3357","","","html-slider-response","431","1286221","0.0-24.0-0.0-0.3","11460","List2B","white","woman","","","","","","","","survey_gender","84","","","My friends understand me.","filler"
"2979.5999999940395","","","html-slider-response","432","1289203","0.0-24.0-0.0-0.4","11460","List2B","white","woman","","","","","","","","survey_gender","100","","","Being my gender is an important part of how I see myself.","important"
"3549.0999999940395","","","html-slider-response","433","1292755","0.0-24.0-0.0-0.5","11460","List2B","white","woman","","","","","","","","survey_gender","100","","","The fact that I am my gender is an important part of my identity.","identity"
"4626.799999982119","","","html-slider-response","434","1297385","0.0-24.0-0.0-0.6","11460","List2B","white","woman","","","","","","","","survey_gender","82","","","I have a lot in common with the average person of my gender.","average"
"2944.800000011921","","","html-slider-response","435","1300333","0.0-24.0-0.0-0.7","11460","List2B","white","woman","","","","","","","","survey_gender","100","","","I feel a bond with my friends.","filler"
"3638.2000000178814","","","html-slider-response","436","1303974","0.0-24.0-0.0-0.8","11460","List2B","white","woman","","","","","","","","survey_gender","80","","","I would say I am an animal person.","filler"
"4933","","","html-slider-response","437","1308909","0.0-24.0-0.0-0.9","11460","List2B","white","woman","","","","","","","","survey_gender","83","","","It is not always easy for people to know what I am thinking.","filler"
"3094.0999999940395","","","html-slider-response","438","1312006","0.0-24.0-0.0-0.10","11460","List2B","white","woman","","","","","","","","survey_gender","100","","","I feel a bond with my gender.","bond"
"2755.9000000059605","","","html-slider-response","439","1314764","0.0-24.0-0.0-0.11","11460","List2B","white","woman","","","","","","","","survey_gender","100","","","I am glad to have the friends that I have.","filler"
"7226.300000011921","","","html-slider-response","440","1321993","0.0-24.0-0.0-0.12","11460","List2B","white","woman","","","","","","","","survey_gender","51","","","Family is not more important to me than friendship.","filler"
"3190.9000000059605","","","html-slider-response","441","1325187","0.0-24.0-0.0-0.13","11460","List2B","white","woman","","","","","","","","survey_gender","100","","","I often think about my actions.","filler"
"3909","","","html-slider-response","442","1329099","0.0-24.0-0.0-0.14","11460","List2B","white","woman","","","","","","","","survey_gender","100","","","Being my gender gives me a good feeling.","feeling"
"5075.600000023842","","","html-slider-response","443","1334177","0.0-24.0-0.0-0.15","11460","List2B","white","woman","","","","","","","","survey_gender","27","","","Most of the friends in my life are very similar to me.","filler"
"3581.399999976158","","","html-slider-response","444","1337762","0.0-24.0-0.0-0.16","11460","List2B","white","woman","","","","","","","","survey_gender","57","","","I consider myself a highly empathetic person.","filler"
"2732.699999988079","","","html-slider-response","445","1340497","0.0-24.0-0.0-0.17","11460","List2B","white","woman","","","","","","","","survey_gender","100","","","I feel solidarity with my friends.","filler"
"3182.800000011921","","","html-slider-response","446","1343683","0.0-24.0-0.0-0.18","11460","List2B","white","woman","","","","","","","","survey_gender","79","","","My friends have a lot in common with each other.","filler"
"4455","","","html-slider-response","447","1348140","0.0-24.0-0.0-0.19","11460","List2B","white","woman","","","","","","","","survey_gender","61","","","I often think about the fact that I am my gender.","often"
"4891.600000023842","","","html-slider-response","448","1353035","0.0-24.0-0.0-0.20","11460","List2B","white","woman","","","","","","","","survey_gender","45","","","I am similar to the average person of my gender.","similar"
"4936.799999982119","","","html-slider-response","449","1357975","0.0-24.0-0.0-0.21","11460","List2B","white","woman","","","","","","","","survey_gender","51","","","People of my gender have a lot in common with each other.","common"
"6222","","","html-slider-response","450","1364199","0.0-24.0-0.0-0.22","11460","List2B","white","woman","","","","","","","","survey_gender","100","","","I think that my gender has a lot to be proud of.","proud"
"4553.200000017881","","","html-slider-response","451","1368755","0.0-24.0-0.0-0.23","11460","List2B","white","woman","","","","","","","","survey_gender","46","","","It is pleasant to be my gender.","pleasant"
"3504","","","html-slider-response","452","1372262","0.0-24.0-0.0-0.24","11460","List2B","white","woman","","","","","","","","survey_gender","73","","","I have a lot in common with my friends.","filler"
"4566.699999988079","","","html-slider-response","453","1376831","0.0-24.0-0.0-0.25","11460","List2B","white","woman","","","","","","","","survey_gender","46","","","People of my gender are very similar to each other.","verysimilar"
"6998.699999988079","","","html-slider-response","454","1383832","0.0-24.0-0.0-0.26","11460","List2B","white","woman","","","","","","","","survey_gender","77","","","I am glad to be my gender.","glad"
"4637.4000000059605","","","html-slider-response","455","1388472","0.0-24.0-0.0-0.27","11460","List2B","white","woman","","","","","","","","survey_gender","15","","","Routine is not important to me.","filler"
"6835.9000000059605","","","html-slider-response","456","1395311","0.0-24.0-1.0-0.0","11460","List2B","white","woman","","","","","","","","survey_race","24","","","I feel solidarity with my race.","solidarity"
"3584","","","html-slider-response","457","1398898","0.0-24.0-1.0-0.1","11460","List2B","white","woman","","","","","","","","survey_race","70","","","Being my age gives me a good feeling.","filler"
"4060.399999976158","","","html-slider-response","458","1402961","0.0-24.0-1.0-0.2","11460","List2B","white","woman","","","","","","","","survey_race","23","","","Being my race gives me a good feeling.","feeling"
"4641.5","","","html-slider-response","459","1407601","0.0-24.0-1.0-0.3","11460","List2B","white","woman","","","","","","","","survey_race","70","","","I have a lot in common with people of a similar age to me.","filler"
"3183.699999988079","","","html-slider-response","460","1410788","0.0-24.0-1.0-0.4","11460","List2B","white","woman","","","","","","","","survey_race","67","","","I feel solidarity with people the same age as me.","filler"
"3480.800000011921","","","html-slider-response","461","1414271","0.0-24.0-1.0-0.5","11460","List2B","white","woman","","","","","","","","survey_race","71","","","People my age have a lot in common with each other.","filler"
"5755.299999982119","","","html-slider-response","462","1420029","0.0-24.0-1.0-0.6","11460","List2B","white","woman","","","","","","","","survey_race","63","","","Getting older does not worry me.","filler"
"3806.2999999821186","","","html-slider-response","463","1423838","0.0-24.0-1.0-0.7","11460","List2B","white","woman","","","","","","","","survey_race","0","","","I consider myself an extrovert.","filler"
"3508.0999999940395","","","html-slider-response","464","1427349","0.0-24.0-1.0-0.8","11460","List2B","white","woman","","","","","","","","survey_race","100","","","The older I get, the wiser I feel.","filler"
"2627.4000000059605","","","html-slider-response","465","1429979","0.0-24.0-1.0-0.9","11460","List2B","white","woman","","","","","","","","survey_race","26","","","I am glad to be my race.","glad"
"2499","","","html-slider-response","466","1432481","0.0-24.0-1.0-0.10","11460","List2B","white","woman","","","","","","","","survey_race","22","","","I feel a bond with my race.","bond"
"6877.700000017881","","","html-slider-response","467","1439361","0.0-24.0-1.0-0.11","11460","List2B","white","woman","","","","","","","","survey_race","51","","","My age is not an important part of who I am.","filler"
"5563.199999988079","","","html-slider-response","468","1444928","0.0-24.0-1.0-0.12","11460","List2B","white","woman","","","","","","","","survey_race","39","","","I think that my race has a lot to be proud of.","proud"
"3267.5","","","html-slider-response","469","1448198","0.0-24.0-1.0-0.13","11460","List2B","white","woman","","","","","","","","survey_race","38","","","The fact that I am my race is an important part of my identity.","identity"
"4122.5999999940395","","","html-slider-response","470","1452325","0.0-24.0-1.0-0.14","11460","List2B","white","woman","","","","","","","","survey_race","22","","","It is pleasant to be my race.","pleasant"
"5296.0999999940395","","","html-slider-response","471","1457624","0.0-24.0-1.0-0.15","11460","List2B","white","woman","","","","","","","","survey_race","55","","","I often think about the fact that I am my age.","filler"
"3281.9000000059605","","","html-slider-response","472","1460909","0.0-24.0-1.0-0.16","11460","List2B","white","woman","","","","","","","","survey_race","100","","","I consider myself an introvert.","filler"
"4144.0999999940395","","","html-slider-response","473","1465059","0.0-24.0-1.0-0.17","11460","List2B","white","woman","","","","","","","","survey_race","22","","","People of my race are very similar to each other.","verysimilar"
"3374.9000000059605","","","html-slider-response","474","1468437","0.0-24.0-1.0-0.18","11460","List2B","white","woman","","","","","","","","survey_race","75","","","I feel a bond with people the same age as me.","filler"
"2970","","","html-slider-response","475","1471409","0.0-24.0-1.0-0.19","11460","List2B","white","woman","","","","","","","","survey_race","22","","","I feel committed to my race.","committed"
