rt,stimulus,button_pressed,trial_type,trial_index,time_elapsed,internal_node_id,subject,list,ppt_race,ppt_gender,url,first_guess,correct,key_press,responses,image_type,phrase_type,test_part,response,stimulus1,stimulus2,question_type,survey_item
3457.7,Welcome to the experiment. Press Continue to begin.,0,html-button-response,0,3465,0.0-0.0,12155,List1A,black,man,,,,,,,,,,,,,
7222.1,,,external-html,1,11731,0.0-1.0,12155,List1A,black,man,consent.html,,,,,,,,,,,,
1796.5,"<p>On the next page, you will see portraits of 8 people and their names.</p><p>Your first task is to take a few minutes to memorise the names of these people.</p><p>You will have to recall their names during the rest of the experiment, so it is</p><p>essential that you try to memorise these people and their names as best as you can.</p><br><p><strong>You will then be tested on your memory of these names and portraits.</strong></p><br><p>The experiment will start after you have completed this memory test.</p><br><p>Ready?</p>",0,html-button-response,2,13529,0.0-2.0,12155,List1A,black,man,,,,,,,,,,,,,
2976.4,"<img src='img/portrait_matrix_list1.jpg' style='width:900px;height:500px;''></img><p>If you have memorised all the portraits and names and are ready to start, press Continue.</p><p><strong>Please note: Your memory of these faces will be tested 4 times during this experiment.</strong></p>",0,html-button-response,3,17511,0.0-3.0-0.0,12155,List1A,black,man,,,,,,,,,,,,,
5944.9,"<img src=""portrait/WW2.jpg""style=""height:400px;""></img>",3,html-button-response,4,24461,0.0-3.0-1.0,12155,List1A,black,man,,TRUE,3,,,,,,,,,,
null,CORRECT,,html-keyboard-response,5,25985,0.0-3.0-2.0-0.0,12155,List1A,black,man,,,,null,,,,,,,,,
5803.8,"<img src=""portrait/WW1.jpg""style=""height:400px;""></img>",1,html-button-response,6,31793,0.0-3.0-4.0,12155,List1A,black,man,,TRUE,1,,,,,,,,,,
null,CORRECT,,html-keyboard-response,7,33306,0.0-3.0-5.0-0.0,12155,List1A,black,man,,,,null,,,,,,,,,
5611.2,"<img src=""portrait/WM1.jpg""style=""height:400px;""></img>",6,html-button-response,8,38920,0.0-3.0-7.0,12155,List1A,black,man,,TRUE,6,,,,,,,,,,
null,CORRECT,,html-keyboard-response,9,40446,0.0-3.0-8.0-0.0,12155,List1A,black,man,,,,null,,,,,,,,,
5034.2,"<img src=""portrait/BW1.jpg""style=""height:400px;""></img>",0,html-button-response,10,45483,0.0-3.0-10.0,12155,List1A,black,man,,TRUE,0,,,,,,,,,,
null,CORRECT,,html-keyboard-response,11,47016,0.0-3.0-11.0-0.0,12155,List1A,black,man,,,,null,,,,,,,,,
5364.9,"<img src=""portrait/BM1.jpg""style=""height:400px;""></img>",4,html-button-response,12,52384,0.0-3.0-13.0,12155,List1A,black,man,,TRUE,4,,,,,,,,,,
null,CORRECT,,html-keyboard-response,13,53906,0.0-3.0-14.0-0.0,12155,List1A,black,man,,,,null,,,,,,,,,
5534.6,"<img src=""portrait/BW2.jpg""style=""height:400px;""></img>",2,html-button-response,14,59441,0.0-3.0-16.0,12155,List1A,black,man,,TRUE,2,,,,,,,,,,
null,CORRECT,,html-keyboard-response,15,60964,0.0-3.0-17.0-0.0,12155,List1A,black,man,,,,null,,,,,,,,,
5758.3,"<img src=""portrait/WM2.jpg""style=""height:400px;""></img>",7,html-button-response,16,66724,0.0-3.0-19.0,12155,List1A,black,man,,TRUE,7,,,,,,,,,,
null,CORRECT,,html-keyboard-response,17,68239,0.0-3.0-20.0-0.0,12155,List1A,black,man,,,,null,,,,,,,,,
5171.1,"<img src=""portrait/BM2.jpg""style=""height:400px;""></img>",5,html-button-response,18,73413,0.0-3.0-22.0,12155,List1A,black,man,,TRUE,5,,,,,,,,,,
null,CORRECT,,html-keyboard-response,19,74920,0.0-3.0-23.0-0.0,12155,List1A,black,man,,,,null,,,,,,,,,
2290.1,<p>You got 8 out of 8 right first time. Press Continue.</p>,0,html-button-response,20,77214,0.0-3.0-25.0,12155,List1A,black,man,,,,,,,,,,,,,
40219.6,"<p>In this experiment, you will view photographs of the people from the memory game interacting.</p><p>By using the <strong>exact</strong> phrase given <i>after</i> the photograph appears and recalling the correct names of the people in the photographs, form a sentence describing the interaction. You do not need to capitalise names.</p><p>Type your answer in the space provided. Please complete every sentence before moving onto the next trial.</p><p>You will only have a few seconds to memorise each given photograph and phrase before you can respond, so try your best to focus.</p><p>An example is given below. Press 'Continue' when you are ready.</p><img src='img/speaking_example.jpg' style='width:800px;height:460px;''></img>",0,html-button-response,21,118458,0.0-4.0,12155,List1A,black,man,,,,,,,,,,,,,
2956.3,"<p>Before the experiment starts, you will watch two example trials. Press 'Continue'.</p>",0,html-button-response,22,122434,0.0-5.0,12155,List1A,black,man,,,,,,,,,,,,,
null,<img src='img/play_eg.gif' style='height:400px;''></img>,,html-keyboard-response,23,125449,0.0-6.0,12155,List1A,black,man,,,,null,,,,,,,,,
null,<p>is playing with</p>,,html-keyboard-response,24,127466,0.0-7.0,12155,List1A,black,man,,,,null,,,,,,,,,
6639.5,<p><b>Answer:</b> kate is playing with beth</p>,0,html-button-response,25,134107,0.0-8.0,12155,List1A,black,man,,,,,,,,,,,,,
null,<img src='img/dance_eg.gif' style='height:400px;''></img>,,html-keyboard-response,26,137124,0.0-9.0,12155,List1A,black,man,,,,null,,,,,,,,,
null,<p>is being entertained by</p>,,html-keyboard-response,27,139137,0.0-10.0,12155,List1A,black,man,,,,null,,,,,,,,,
18754.9,<p><b>Answer:</b> luke is being entertained by dave</p>,0,html-button-response,28,157893,0.0-11.0,12155,List1A,black,man,,,,,,,,,,,,,
12417.1,"<p>Ready to start the experiment?</p><br><p><strong>Remember to describe the picture using a full sentence,</strong></p><p><strong>that combines the names of the people with the <i>exact</i> phrase given.</strong></p><p><strong>To receive full payment you must do this correctly.</strong></p><p><strong> You do not need to capitalise names or use punctuation.</strong></p><br><p>Press 'Continue' to begin.</p>",0,html-button-response,29,171316,0.0-12.0,12155,List1A,black,man,,,,,,,,,,,,,
null,"<div style=""font-size:60px;"">+</div>",,html-keyboard-response,30,172840,0.0-13.0-0.0,12155,List1A,black,man,,,,null,,,,,,,,,
null,"<img src=""stim_listA/shout7.gif""style=""height:400px;""></stim_listA>",,html-keyboard-response,31,174926,0.0-13.0-1.0,12155,List1A,black,man,,,,null,,,,,,,,,
null,is shouting at,,html-keyboard-response,32,176930,0.0-13.0-2.0,12155,List1A,black,man,,,,null,,,,,,,,,
27502.2,,,survey-text,33,204445,0.0-13.0-3.0,12155,List1A,black,man,,,,,"{""Q0"":""ruth is shouting at beth""}","<img src=""stim_listA/shout7.gif""style=""height:400px;""></stim_listA>",is shouting at,,,,,,
null,"<div style=""font-size:60px;"">+</div>",,html-keyboard-response,34,204958,0.0-13.0-0.1,12155,List1A,black,man,,,,null,,,,,,,,,
null,"<img src=""stim_listA/seduce2.gif""style=""height:400px;""></stim_listA>",,html-keyboard-response,35,206972,0.0-13.0-1.1,12155,List1A,black,man,,,,null,,,,,,,,,
null,is being seduced by,,html-keyboard-response,36,208980,0.0-13.0-2.1,12155,List1A,black,man,,,,null,,,,,,,,,
18177.4,,,survey-text,37,227161,0.0-13.0-3.1,12155,List1A,black,man,,,,,"{""Q0"":""mike is talking to beth""}","<img src=""stim_listA/seduce2.gif""style=""height:400px;""></stim_listA>",is being seduced by,,,,,,
null,"<div style=""font-size:60px;"">+</div>",,html-keyboard-response,38,227666,0.0-13.0-0.2,12155,List1A,black,man,,,,null,,,,,,,,,
null,"<img src=""stim_listA/greet3.gif""style=""height:400px;""></stim_listA>",,html-keyboard-response,39,229669,0.0-13.0-1.2,12155,List1A,black,man,,,,null,,,,,,,,,
null,is greeting,,html-keyboard-response,40,231674,0.0-13.0-2.2,12155,List1A,black,man,,,,null,,,,,,,,,
24236,,,survey-text,41,255915,0.0-13.0-3.2,12155,List1A,black,man,,,,,"{""Q0"":""dave is greeting ruth""}","<img src=""stim_listA/greet3.gif""style=""height:400px;""></stim_listA>",is greeting,,,,,,
null,"<div style=""font-size:60px;"">+</div>",,html-keyboard-response,42,256424,0.0-13.0-0.3,12155,List1A,black,man,,,,null,,,,,,,,,
null,"<img src=""stim_listA/shout4.gif""style=""height:400px;""></stim_listA>",,html-keyboard-response,43,258436,0.0-13.0-1.3,12155,List1A,black,man,,,,null,,,,,,,,,
null,is being shouted at by,,html-keyboard-response,44,260444,0.0-13.0-2.3,12155,List1A,black,man,,,,null,,,,,,,,,
26515.7,,,survey-text,45,286964,0.0-13.0-3.3,12155,List1A,black,man,,,,,"{""Q0"":""dave is being shouted at by jane""}","<img src=""stim_listA/shout4.gif""style=""height:400px;""></stim_listA>",is being shouted at by,,,,,,
null,"<div style=""font-size:60px;"">+</div>",,html-keyboard-response,46,287468,0.0-13.0-0.4,12155,List1A,black,man,,,,null,,,,,,,,,
null,"<img src=""stim_listA/copy4.gif""style=""height:400px;""></stim_listA>",,html-keyboard-response,47,289476,0.0-13.0-1.4,12155,List1A,black,man,,,,null,,,,,,,,,
null,is being copied by,,html-keyboard-response,48,291486,0.0-13.0-2.4,12155,List1A,black,man,,,,null,,,,,,,,,
12368.4,,,survey-text,49,303857,0.0-13.0-3.4,12155,List1A,black,man,,,,,"{""Q0"":""luke is copying jane""}","<img src=""stim_listA/copy4.gif""style=""height:400px;""></stim_listA>",is being copied by,,,,,,
null,"<div style=""font-size:60px;"">+</div>",,html-keyboard-response,50,304360,0.0-13.0-0.5,12155,List1A,black,man,,,,null,,,,,,,,,
null,"<img src=""stim_listA/touch4.gif""style=""height:400px;""></stim_listA>",,html-keyboard-response,51,306370,0.0-13.0-1.5,12155,List1A,black,man,,,,null,,,,,,,,,
null,is being touched by,,html-keyboard-response,52,308388,0.0-13.0-2.5,12155,List1A,black,man,,,,null,,,,,,,,,
26987.1,,,survey-text,53,335380,0.0-13.0-3.5,12155,List1A,black,man,,,,,"{""Q0"":""ruth is being touched by luke""}","<img src=""stim_listA/touch4.gif""style=""height:400px;""></stim_listA>",is being touched by,,,,,,
null,"<div style=""font-size:60px;"">+</div>",,html-keyboard-response,54,335887,0.0-13.0-0.6,12155,List1A,black,man,,,,null,,,,,,,,,
null,"<img src=""stim_listA/challenge1.gif""style=""height:400px;""></stim_listA>",,html-keyboard-response,55,337898,0.0-13.0-1.6,12155,List1A,black,man,,,,null,,,,,,,,,
null,is challenging,,html-keyboard-response,56,339902,0.0-13.0-2.6,12155,List1A,black,man,,,,null,,,,,,,,,
12132.3,,,survey-text,57,352037,0.0-13.0-3.6,12155,List1A,black,man,,,,,"{""Q0"":""beth is challenging mike""}","<img src=""stim_listA/challenge1.gif""style=""height:400px;""></stim_listA>",is challenging,,,,,,
null,"<div style=""font-size:60px;"">+</div>",,html-keyboard-response,58,352545,0.0-13.0-0.7,12155,List1A,black,man,,,,null,,,,,,,,,
null,"<img src=""stim_listA/hug6.gif""style=""height:400px;""></stim_listA>",,html-keyboard-response,59,354552,0.0-13.0-1.7,12155,List1A,black,man,,,,null,,,,,,,,,
null,is being hugged by,,html-keyboard-response,60,356559,0.0-13.0-2.7,12155,List1A,black,man,,,,null,,,,,,,,,
15457,,,survey-text,61,372023,0.0-13.0-3.7,12155,List1A,black,man,,,,,"{""Q0"":""mike is being hugged by dave""}","<img src=""stim_listA/hug6.gif""style=""height:400px;""></stim_listA>",is being hugged by,,,,,,
null,"<div style=""font-size:60px;"">+</div>",,html-keyboard-response,62,372529,0.0-13.0-0.8,12155,List1A,black,man,,,,null,,,,,,,,,
null,"<img src=""stim_listA/hug5.gif""style=""height:400px;""></stim_listA>",,html-keyboard-response,63,374536,0.0-13.0-1.8,12155,List1A,black,man,,,,null,,,,,,,,,
null,is hugging,,html-keyboard-response,64,376541,0.0-13.0-2.8,12155,List1A,black,man,,,,null,,,,,,,,,
15269.5,,,survey-text,65,391816,0.0-13.0-3.8,12155,List1A,black,man,,,,,"{""Q0"":""fred is hugging luke""}","<img src=""stim_listA/hug5.gif""style=""height:400px;""></stim_listA>",is hugging,,,,,,
null,"<div style=""font-size:60px;"">+</div>",,html-keyboard-response,66,392332,0.0-13.0-0.9,12155,List1A,black,man,,,,null,,,,,,,,,
null,"<img src=""stim_listA/copy8.gif""style=""height:400px;""></stim_listA>",,html-keyboard-response,67,394347,0.0-13.0-1.9,12155,List1A,black,man,,,,null,,,,,,,,,
null,is being copied by,,html-keyboard-response,68,396364,0.0-13.0-2.9,12155,List1A,black,man,,,,null,,,,,,,,,
12710.2,,,survey-text,69,409079,0.0-13.0-3.9,12155,List1A,black,man,,,,,"{""Q0"":""beth is copying jane""}","<img src=""stim_listA/copy8.gif""style=""height:400px;""></stim_listA>",is being copied by,,,,,,
null,"<div style=""font-size:60px;"">+</div>",,html-keyboard-response,70,409587,0.0-13.0-0.10,12155,List1A,black,man,,,,null,,,,,,,,,
null,"<img src=""stim_listA/look3.gif""style=""height:400px;""></stim_listA>",,html-keyboard-response,71,411591,0.0-13.0-1.10,12155,List1A,black,man,,,,null,,,,,,,,,
null,is looking at,,html-keyboard-response,72,413603,0.0-13.0-2.10,12155,List1A,black,man,,,,null,,,,,,,,,
11396.5,,,survey-text,73,425005,0.0-13.0-3.10,12155,List1A,black,man,,,,,"{""Q0"":""ruth is looking at luke""}","<img src=""stim_listA/look3.gif""style=""height:400px;""></stim_listA>",is looking at,,,,,,
null,"<div style=""font-size:60px;"">+</div>",,html-keyboard-response,74,425521,0.0-13.0-0.11,12155,List1A,black,man,,,,null,,,,,,,,,
null,"<img src=""stim_listA/kiss8.gif""style=""height:400px;""></stim_listA>",,html-keyboard-response,75,427527,0.0-13.0-1.11,12155,List1A,black,man,,,,null,,,,,,,,,
null,is being kissed by,,html-keyboard-response,76,429540,0.0-13.0-2.11,12155,List1A,black,man,,,,null,,,,,,,,,
13552.4,,,survey-text,77,443098,0.0-13.0-3.11,12155,List1A,black,man,,,,,"{""Q0"":""jane is being kissed by kate""}","<img src=""stim_listA/kiss8.gif""style=""height:400px;""></stim_listA>",is being kissed by,,,,,,
null,"<div style=""font-size:60px;"">+</div>",,html-keyboard-response,78,443600,0.0-13.0-0.12,12155,List1A,black,man,,,,null,,,,,,,,,
null,"<img src=""stim_listA/touch7.gif""style=""height:400px;""></stim_listA>",,html-keyboard-response,79,445610,0.0-13.0-1.12,12155,List1A,black,man,,,,null,,,,,,,,,
null,is touching,,html-keyboard-response,80,447616,0.0-13.0-2.12,12155,List1A,black,man,,,,null,,,,,,,,,
13839.9,,,survey-text,81,461461,0.0-13.0-3.12,12155,List1A,black,man,,,,,"{""Q0"":""jane is touching kate""}","<img src=""stim_listA/touch7.gif""style=""height:400px;""></stim_listA>",is touching,,,,,,
null,"<div style=""font-size:60px;"">+</div>",,html-keyboard-response,82,461979,0.0-13.0-0.13,12155,List1A,black,man,,,,null,,,,,,,,,
null,"<img src=""stim_listA/touch2.gif""style=""height:400px;""></stim_listA>",,html-keyboard-response,83,463988,0.0-13.0-1.13,12155,List1A,black,man,,,,null,,,,,,,,,
null,is being touched by,,html-keyboard-response,84,465995,0.0-13.0-2.13,12155,List1A,black,man,,,,null,,,,,,,,,
13111.3,,,survey-text,85,479108,0.0-13.0-3.13,12155,List1A,black,man,,,,,"{""Q0"":""beth is being touched by fred""}","<img src=""stim_listA/touch2.gif""style=""height:400px;""></stim_listA>",is being touched by,,,,,,
null,"<div style=""font-size:60px;"">+</div>",,html-keyboard-response,86,479610,0.0-13.0-0.14,12155,List1A,black,man,,,,null,,,,,,,,,
null,"<img src=""stim_listA/kiss7.gif""style=""height:400px;""></stim_listA>",,html-keyboard-response,87,481621,0.0-13.0-1.14,12155,List1A,black,man,,,,null,,,,,,,,,
null,is kissing,,html-keyboard-response,88,483629,0.0-13.0-2.14,12155,List1A,black,man,,,,null,,,,,,,,,
15913.2,,,survey-text,89,499547,0.0-13.0-3.14,12155,List1A,black,man,,,,,"{""Q0"":""beth is kissing jane""}","<img src=""stim_listA/kiss7.gif""style=""height:400px;""></stim_listA>",is kissing,,,,,,
null,"<div style=""font-size:60px;"">+</div>",,html-keyboard-response,90,500052,0.0-13.0-0.15,12155,List1A,black,man,,,,null,,,,,,,,,
null,"<img src=""stim_listA/kiss3.gif""style=""height:400px;""></stim_listA>",,html-keyboard-response,91,502064,0.0-13.0-1.15,12155,List1A,black,man,,,,null,,,,,,,,,
null,is kissing,,html-keyboard-response,92,504082,0.0-13.0-2.15,12155,List1A,black,man,,,,null,,,,,,,,,
14106.2,,,survey-text,93,518192,0.0-13.0-3.15,12155,List1A,black,man,,,,,"{""Q0"":""ruth is kissing luke""}","<img src=""stim_listA/kiss3.gif""style=""height:400px;""></stim_listA>",is kissing,,,,,,
null,"<div style=""font-size:60px;"">+</div>",,html-keyboard-response,94,518701,0.0-13.0-0.16,12155,List1A,black,man,,,,null,,,,,,,,,
null,"<img src=""stim_listA/touch6.gif""style=""height:400px;""></stim_listA>",,html-keyboard-response,95,520709,0.0-13.0-1.16,12155,List1A,black,man,,,,null,,,,,,,,,
null,is being touched by,,html-keyboard-response,96,522712,0.0-13.0-2.16,12155,List1A,black,man,,,,null,,,,,,,,,
17191.7,,,survey-text,97,539909,0.0-13.0-3.16,12155,List1A,black,man,,,,,"{""Q0"":""fred is being touched by luke""}","<img src=""stim_listA/touch6.gif""style=""height:400px;""></stim_listA>",is being touched by,,,,,,
null,"<div style=""font-size:60px;"">+</div>",,html-keyboard-response,98,540412,0.0-13.0-0.17,12155,List1A,black,man,,,,null,,,,,,,,,
null,"<img src=""stim_listA/hug1.gif""style=""height:400px;""></stim_listA>",,html-keyboard-response,99,542431,0.0-13.0-1.17,12155,List1A,black,man,,,,null,,,,,,,,,
null,is hugging,,html-keyboard-response,100,544434,0.0-13.0-2.17,12155,List1A,black,man,,,,null,,,,,,,,,
13687.3,,,survey-text,101,558130,0.0-13.0-3.17,12155,List1A,black,man,,,,,"{""Q0"":""fred is hugging beth""}","<img src=""stim_listA/hug1.gif""style=""height:400px;""></stim_listA>",is hugging,,,,,,
null,"<div style=""font-size:60px;"">+</div>",,html-keyboard-response,102,558638,0.0-13.0-0.18,12155,List1A,black,man,,,,null,,,,,,,,,
null,"<img src=""stim_listA/oppose5.gif""style=""height:400px;""></stim_listA>",,html-keyboard-response,103,560653,0.0-13.0-1.18,12155,List1A,black,man,,,,null,,,,,,,,,
null,is opposing,,html-keyboard-response,104,562670,0.0-13.0-2.18,12155,List1A,black,man,,,,null,,,,,,,,,
12320.2,,,survey-text,105,574995,0.0-13.0-3.18,12155,List1A,black,man,,,,,"{""Q0"":""mike is opposing dave""}","<img src=""stim_listA/oppose5.gif""style=""height:400px;""></stim_listA>",is opposing,,,,,,
null,"<div style=""font-size:60px;"">+</div>",,html-keyboard-response,106,575500,0.0-13.0-0.19,12155,List1A,black,man,,,,null,,,,,,,,,
null,"<img src=""stim_listA/oppose8.gif""style=""height:400px;""></stim_listA>",,html-keyboard-response,107,577507,0.0-13.0-1.19,12155,List1A,black,man,,,,null,,,,,,,,,
null,is being opposed by,,html-keyboard-response,108,579521,0.0-13.0-2.19,12155,List1A,black,man,,,,null,,,,,,,,,
22513.9,,,survey-text,109,602038,0.0-13.0-3.19,12155,List1A,black,man,,,,,"{""Q0"":""beth is being opposed by ruth""}","<img src=""stim_listA/oppose8.gif""style=""height:400px;""></stim_listA>",is being opposed by,,,,,,
27786.1,"<img src='img/portrait_matrix_list1.jpg' style='width:900px;height:500px;''></img><p>If you have memorised all the portraits and names and are ready to start, press Continue.</p><p><strong>Please note: Your memory of these faces will be tested 4 times during this experiment.</strong></p>",0,html-button-response,110,629826,0.0-14.0-0.0,12155,List1A,black,man,,,,,,,,,,,,,
3655.9,"<img src=""portrait/WM2.jpg""style=""height:400px;""></img>",7,html-button-response,111,634500,0.0-14.0-1.0,12155,List1A,black,man,,TRUE,7,,,,,,,,,,
null,CORRECT,,html-keyboard-response,112,636019,0.0-14.0-2.0-0.0,12155,List1A,black,man,,,,null,,,,,,,,,
2254.6,"<img src=""portrait/BM1.jpg""style=""height:400px;""></img>",4,html-button-response,113,638277,0.0-14.0-4.0,12155,List1A,black,man,,TRUE,4,,,,,,,,,,
null,CORRECT,,html-keyboard-response,114,639802,0.0-14.0-5.0-0.0,12155,List1A,black,man,,,,null,,,,,,,,,
3600.4,"<img src=""portrait/BW1.jpg""style=""height:400px;""></img>",0,html-button-response,115,643405,0.0-14.0-7.0,12155,List1A,black,man,,TRUE,0,,,,,,,,,,
null,CORRECT,,html-keyboard-response,116,644930,0.0-14.0-8.0-0.0,12155,List1A,black,man,,,,null,,,,,,,,,
3132.6,"<img src=""portrait/BM2.jpg""style=""height:400px;""></img>",5,html-button-response,117,648065,0.0-14.0-10.0,12155,List1A,black,man,,TRUE,5,,,,,,,,,,
null,CORRECT,,html-keyboard-response,118,649595,0.0-14.0-11.0-0.0,12155,List1A,black,man,,,,null,,,,,,,,,
3107.2,"<img src=""portrait/BW2.jpg""style=""height:400px;""></img>",2,html-button-response,119,652705,0.0-14.0-13.0,12155,List1A,black,man,,TRUE,2,,,,,,,,,,
null,CORRECT,,html-keyboard-response,120,654216,0.0-14.0-14.0-0.0,12155,List1A,black,man,,,,null,,,,,,,,,
2645,"<img src=""portrait/WW2.jpg""style=""height:400px;""></img>",3,html-button-response,121,656864,0.0-14.0-16.0,12155,List1A,black,man,,TRUE,3,,,,,,,,,,
null,CORRECT,,html-keyboard-response,122,658388,0.0-14.0-17.0-0.0,12155,List1A,black,man,,,,null,,,,,,,,,
3140.4,"<img src=""portrait/WW1.jpg""style=""height:400px;""></img>",1,html-button-response,123,661531,0.0-14.0-19.0,12155,List1A,black,man,,TRUE,1,,,,,,,,,,
null,CORRECT,,html-keyboard-response,124,663053,0.0-14.0-20.0-0.0,12155,List1A,black,man,,,,null,,,,,,,,,
2826.8,"<img src=""portrait/WM1.jpg""style=""height:400px;""></img>",6,html-button-response,125,665883,0.0-14.0-22.0,12155,List1A,black,man,,TRUE,6,,,,,,,,,,
null,CORRECT,,html-keyboard-response,126,667394,0.0-14.0-23.0-0.0,12155,List1A,black,man,,,,null,,,,,,,,,
2055.2,<p>You got 8 out of 8 right first time. Press Continue.</p>,0,html-button-response,127,669452,0.0-14.0-25.0,12155,List1A,black,man,,,,,,,,,,,,,
null,"<div style=""font-size:60px;"">+</div>",,html-keyboard-response,128,670964,0.0-15.0-0.0,12155,List1A,black,man,,,,null,,,,,,,,,
null,"<img src=""stim_listA/challenge8.gif""style=""height:400px;""></stim_listA>",,html-keyboard-response,129,672975,0.0-15.0-1.0,12155,List1A,black,man,,,,null,,,,,,,,,
null,is being challenged by,,html-keyboard-response,130,674978,0.0-15.0-2.0,12155,List1A,black,man,,,,null,,,,,,,,,
22030.1,,,survey-text,131,697013,0.0-15.0-3.0,12155,List1A,black,man,,,,,"{""Q0"":""jane is being challenged by beth""}","<img src=""stim_listA/challenge8.gif""style=""height:400px;""></stim_listA>",is being challenged by,,,,,,
null,"<div style=""font-size:60px;"">+</div>",,html-keyboard-response,132,697532,0.0-15.0-0.1,12155,List1A,black,man,,,,null,,,,,,,,,
null,"<img src=""stim_listA/greet2.gif""style=""height:400px;""></stim_listA>",,html-keyboard-response,133,699542,0.0-15.0-1.1,12155,List1A,black,man,,,,null,,,,,,,,,
null,is being greeted by,,html-keyboard-response,134,701549,0.0-15.0-2.1,12155,List1A,black,man,,,,null,,,,,,,,,
16044,,,survey-text,135,717598,0.0-15.0-3.1,12155,List1A,black,man,,,,,"{""Q0"":""kate is being greeted by fred""}","<img src=""stim_listA/greet2.gif""style=""height:400px;""></stim_listA>",is being greeted by,,,,,,
null,"<div style=""font-size:60px;"">+</div>",,html-keyboard-response,136,718101,0.0-15.0-0.2,12155,List1A,black,man,,,,null,,,,,,,,,
null,"<img src=""stim_listA/hug8.gif""style=""height:400px;""></stim_listA>",,html-keyboard-response,137,720114,0.0-15.0-1.2,12155,List1A,black,man,,,,null,,,,,,,,,
null,is being hugged by,,html-keyboard-response,138,722118,0.0-15.0-2.2,12155,List1A,black,man,,,,null,,,,,,,,,
12111.4,,,survey-text,139,734232,0.0-15.0-3.2,12155,List1A,black,man,,,,,"{""Q0"":""jane is being hugged by kate""}","<img src=""stim_listA/hug8.gif""style=""height:400px;""></stim_listA>",is being hugged by,,,,,,
null,"<div style=""font-size:60px;"">+</div>",,html-keyboard-response,140,734745,0.0-15.0-0.3,12155,List1A,black,man,,,,null,,,,,,,,,
null,"<img src=""stim_listA/challenge2.gif""style=""height:400px;""></stim_listA>",,html-keyboard-response,141,736757,0.0-15.0-1.3,12155,List1A,black,man,,,,null,,,,,,,,,
null,is being challenged by,,html-keyboard-response,142,738767,0.0-15.0-2.3,12155,List1A,black,man,,,,null,,,,,,,,,
12406.3,,,survey-text,143,751178,0.0-15.0-3.3,12155,List1A,black,man,,,,,"{""Q0"":""fred is being challenged by kate""}","<img src=""stim_listA/challenge2.gif""style=""height:400px;""></stim_listA>",is being challenged by,,,,,,
null,"<div style=""font-size:60px;"">+</div>",,html-keyboard-response,144,751682,0.0-15.0-0.4,12155,List1A,black,man,,,,null,,,,,,,,,
null,"<img src=""stim_listA/shout6.gif""style=""height:400px;""></stim_listA>",,html-keyboard-response,145,753691,0.0-15.0-1.4,12155,List1A,black,man,,,,null,,,,,,,,,
null,is being shouted at by,,html-keyboard-response,146,755694,0.0-15.0-2.4,12155,List1A,black,man,,,,null,,,,,,,,,
12603.4,,,survey-text,147,768304,0.0-15.0-3.4,12155,List1A,black,man,,,,,"{""Q0"":""mike is being shouted at by dave""}","<img src=""stim_listA/shout6.gif""style=""height:400px;""></stim_listA>",is being shouted at by,,,,,,
null,"<div style=""font-size:60px;"">+</div>",,html-keyboard-response,148,768818,0.0-15.0-0.5,12155,List1A,black,man,,,,null,,,,,,,,,
null,"<img src=""stim_listA/shout5.gif""style=""height:400px;""></stim_listA>",,html-keyboard-response,149,770829,0.0-15.0-1.5,12155,List1A,black,man,,,,null,,,,,,,,,
null,is shouting at,,html-keyboard-response,150,772843,0.0-15.0-2.5,12155,List1A,black,man,,,,null,,,,,,,,,
10203.6,,,survey-text,151,783052,0.0-15.0-3.5,12155,List1A,black,man,,,,,"{""Q0"":""luke is shouting at fred""}","<img src=""stim_listA/shout5.gif""style=""height:400px;""></stim_listA>",is shouting at,,,,,,
null,"<div style=""font-size:60px;"">+</div>",,html-keyboard-response,152,783556,0.0-15.0-0.6,12155,List1A,black,man,,,,null,,,,,,,,,
null,"<img src=""stim_listA/challenge7.gif""style=""height:400px;""></stim_listA>",,html-keyboard-response,153,785561,0.0-15.0-1.6,12155,List1A,black,man,,,,null,,,,,,,,,
null,is challenging,,html-keyboard-response,154,787575,0.0-15.0-2.6,12155,List1A,black,man,,,,null,,,,,,,,,
10660.5,,,survey-text,155,798239,0.0-15.0-3.6,12155,List1A,black,man,,,,,"{""Q0"":""kate is challenging ruth""}","<img src=""stim_listA/challenge7.gif""style=""height:400px;""></stim_listA>",is challenging,,,,,,
null,"<div style=""font-size:60px;"">+</div>",,html-keyboard-response,156,798755,0.0-15.0-0.7,12155,List1A,black,man,,,,null,,,,,,,,,
null,"<img src=""stim_listA/seduce5.gif""style=""height:400px;""></stim_listA>",,html-keyboard-response,157,800764,0.0-15.0-1.7,12155,List1A,black,man,,,,null,,,,,,,,,
null,is seducing,,html-keyboard-response,158,802769,0.0-15.0-2.7,12155,List1A,black,man,,,,null,,,,,,,,,
10406.9,,,survey-text,159,813181,0.0-15.0-3.7,12155,List1A,black,man,,,,,"{""Q0"":""fred is seducing dave""}","<img src=""stim_listA/seduce5.gif""style=""height:400px;""></stim_listA>",is seducing,,,,,,
null,"<div style=""font-size:60px;"">+</div>",,html-keyboard-response,160,813693,0.0-15.0-0.8,12155,List1A,black,man,,,,null,,,,,,,,,
null,"<img src=""stim_listA/touch3.gif""style=""height:400px;""></stim_listA>",,html-keyboard-response,161,815702,0.0-15.0-1.8,12155,List1A,black,man,,,,null,,,,,,,,,
null,is touching,,html-keyboard-response,162,817718,0.0-15.0-2.8,12155,List1A,black,man,,,,null,,,,,,,,,
12897,,,survey-text,163,830622,0.0-15.0-3.8,12155,List1A,black,man,,,,,"{""Q0"":""dave is touching jane""}","<img src=""stim_listA/touch3.gif""style=""height:400px;""></stim_listA>",is touching,,,,,,
null,"<div style=""font-size:60px;"">+</div>",,html-keyboard-response,164,831132,0.0-15.0-0.9,12155,List1A,black,man,,,,null,,,,,,,,,
null,"<img src=""stim_listA/look6.gif""style=""height:400px;""></stim_listA>",,html-keyboard-response,165,833146,0.0-15.0-1.9,12155,List1A,black,man,,,,null,,,,,,,,,
null,is being looked at by,,html-keyboard-response,166,835149,0.0-15.0-2.9,12155,List1A,black,man,,,,null,,,,,,,,,
13522.5,,,survey-text,167,848673,0.0-15.0-3.9,12155,List1A,black,man,,,,,"{""Q0"":""mike is being looked at by dave""}","<img src=""stim_listA/look6.gif""style=""height:400px;""></stim_listA>",is being looked at by,,,,,,
null,"<div style=""font-size:60px;"">+</div>",,html-keyboard-response,168,849179,0.0-15.0-0.10,12155,List1A,black,man,,,,null,,,,,,,,,
null,"<img src=""stim_listA/seduce1.gif""style=""height:400px;""></stim_listA>",,html-keyboard-response,169,851191,0.0-15.0-1.10,12155,List1A,black,man,,,,null,,,,,,,,,
null,is seducing,,html-keyboard-response,170,853206,0.0-15.0-2.10,12155,List1A,black,man,,,,null,,,,,,,,,
15630.4,,,survey-text,171,868841,0.0-15.0-3.10,12155,List1A,black,man,,,,,"{""Q0"":""kate is seducing fred""}","<img src=""stim_listA/seduce1.gif""style=""height:400px;""></stim_listA>",is seducing,,,,,,
null,"<div style=""font-size:60px;"">+</div>",,html-keyboard-response,172,869347,0.0-15.0-0.11,12155,List1A,black,man,,,,null,,,,,,,,,
null,"<img src=""stim_listA/hug4.gif""style=""height:400px;""></stim_listA>",,html-keyboard-response,173,871357,0.0-15.0-1.11,12155,List1A,black,man,,,,null,,,,,,,,,
null,is being hugged by,,html-keyboard-response,174,873363,0.0-15.0-2.11,12155,List1A,black,man,,,,null,,,,,,,,,
23733.8,,,survey-text,175,897102,0.0-15.0-3.11,12155,List1A,black,man,,,,,"{""Q0"":""jane is being hugged by dave""}","<img src=""stim_listA/hug4.gif""style=""height:400px;""></stim_listA>",is being hugged by,,,,,,
null,"<div style=""font-size:60px;"">+</div>",,html-keyboard-response,176,897609,0.0-15.0-0.12,12155,List1A,black,man,,,,null,,,,,,,,,
null,"<img src=""stim_listA/oppose1.gif""style=""height:400px;""></stim_listA>",,html-keyboard-response,177,899634,0.0-15.0-1.12,12155,List1A,black,man,,,,null,,,,,,,,,
null,is opposing,,html-keyboard-response,178,901637,0.0-15.0-2.12,12155,List1A,black,man,,,,null,,,,,,,,,
10454.7,,,survey-text,179,912096,0.0-15.0-3.12,12155,List1A,black,man,,,,,"{""Q0"":""kate is opposing mike""}","<img src=""stim_listA/oppose1.gif""style=""height:400px;""></stim_listA>",is opposing,,,,,,
null,"<div style=""font-size:60px;"">+</div>",,html-keyboard-response,180,912606,0.0-15.0-0.13,12155,List1A,black,man,,,,null,,,,,,,,,
null,"<img src=""stim_listA/look8.gif""style=""height:400px;""></stim_listA>",,html-keyboard-response,181,914616,0.0-15.0-1.13,12155,List1A,black,man,,,,null,,,,,,,,,
null,is being looked at by,,html-keyboard-response,182,916621,0.0-15.0-2.13,12155,List1A,black,man,,,,null,,,,,,,,,
12196.1,,,survey-text,183,928825,0.0-15.0-3.13,12155,List1A,black,man,,,,,"{""Q0"":""kate is being looked at by jane""}","<img src=""stim_listA/look8.gif""style=""height:400px;""></stim_listA>",is being looked at by,,,,,,
null,"<div style=""font-size:60px;"">+</div>",,html-keyboard-response,184,929340,0.0-15.0-0.14,12155,List1A,black,man,,,,null,,,,,,,,,
null,"<img src=""stim_listA/hug2.gif""style=""height:400px;""></stim_listA>",,html-keyboard-response,185,931355,0.0-15.0-1.14,12155,List1A,black,man,,,,null,,,,,,,,,
null,is being hugged by,,html-keyboard-response,186,933370,0.0-15.0-2.14,12155,List1A,black,man,,,,null,,,,,,,,,
13692.4,,,survey-text,187,947067,0.0-15.0-3.14,12155,List1A,black,man,,,,,"{""Q0"":""mike is being hugged by kate""}","<img src=""stim_listA/hug2.gif""style=""height:400px;""></stim_listA>",is being hugged by,,,,,,
null,"<div style=""font-size:60px;"">+</div>",,html-keyboard-response,188,947578,0.0-15.0-0.15,12155,List1A,black,man,,,,null,,,,,,,,,
null,"<img src=""stim_listA/hug3.gif""style=""height:400px;""></stim_listA>",,html-keyboard-response,189,949588,0.0-15.0-1.15,12155,List1A,black,man,,,,null,,,,,,,,,
null,is hugging,,html-keyboard-response,190,951603,0.0-15.0-2.15,12155,List1A,black,man,,,,null,,,,,,,,,
7987,,,survey-text,191,959595,0.0-15.0-3.15,12155,List1A,black,man,,,,,"{""Q0"":""ruth is hugging luke""}","<img src=""stim_listA/hug3.gif""style=""height:400px;""></stim_listA>",is hugging,,,,,,
null,"<div style=""font-size:60px;"">+</div>",,html-keyboard-response,192,960102,0.0-15.0-0.16,12155,List1A,black,man,,,,null,,,,,,,,,
null,"<img src=""stim_listA/seduce7.gif""style=""height:400px;""></stim_listA>",,html-keyboard-response,193,962106,0.0-15.0-1.16,12155,List1A,black,man,,,,null,,,,,,,,,
null,is seducing,,html-keyboard-response,194,964114,0.0-15.0-2.16,12155,List1A,black,man,,,,null,,,,,,,,,
27097.1,,,survey-text,195,991216,0.0-15.0-3.16,12155,List1A,black,man,,,,,"{""Q0"":""beth is seducing jane""}","<img src=""stim_listA/seduce7.gif""style=""height:400px;""></stim_listA>",is seducing,,,,,,
null,"<div style=""font-size:60px;"">+</div>",,html-keyboard-response,196,991723,0.0-15.0-0.17,12155,List1A,black,man,,,,null,,,,,,,,,
null,"<img src=""stim_listA/look5.gif""style=""height:400px;""></stim_listA>",,html-keyboard-response,197,993727,0.0-15.0-1.17,12155,List1A,black,man,,,,null,,,,,,,,,
null,is looking at,,html-keyboard-response,198,995731,0.0-15.0-2.17,12155,List1A,black,man,,,,null,,,,,,,,,
10315.6,,,survey-text,199,1006053,0.0-15.0-3.17,12155,List1A,black,man,,,,,"{""Q0"":""fred is looking at luke""}","<img src=""stim_listA/look5.gif""style=""height:400px;""></stim_listA>",is looking at,,,,,,
null,"<div style=""font-size:60px;"">+</div>",,html-keyboard-response,200,1006567,0.0-15.0-0.18,12155,List1A,black,man,,,,null,,,,,,,,,
null,"<img src=""stim_listA/challenge4.gif""style=""height:400px;""></stim_listA>",,html-keyboard-response,201,1008574,0.0-15.0-1.18,12155,List1A,black,man,,,,null,,,,,,,,,
null,is being challenged by,,html-keyboard-response,202,1010578,0.0-15.0-2.18,12155,List1A,black,man,,,,null,,,,,,,,,
14603,,,survey-text,203,1025179,0.0-15.0-3.18,12155,List1A,black,man,,,,,"{""Q0"":""luke is being challenged by jane""}","<img src=""stim_listA/challenge4.gif""style=""height:400px;""></stim_listA>",is being challenged by,,,,,,
null,"<div style=""font-size:60px;"">+</div>",,html-keyboard-response,204,1025693,0.0-15.0-0.19,12155,List1A,black,man,,,,null,,,,,,,,,
null,"<img src=""stim_listA/look1.gif""style=""height:400px;""></stim_listA>",,html-keyboard-response,205,1027709,0.0-15.0-1.19,12155,List1A,black,man,,,,null,,,,,,,,,
null,is looking at,,html-keyboard-response,206,1029716,0.0-15.0-2.19,12155,List1A,black,man,,,,null,,,,,,,,,
8994.1,,,survey-text,207,1038716,0.0-15.0-3.19,12155,List1A,black,man,,,,,"{""Q0"":""fred is looking at beth""}","<img src=""stim_listA/look1.gif""style=""height:400px;""></stim_listA>",is looking at,,,,,,
19305.5,"<img src='img/portrait_matrix_list1.jpg' style='width:900px;height:500px;''></img><p>If you have memorised all the portraits and names and are ready to start, press Continue.</p><p><strong>Please note: Your memory of these faces will be tested 4 times during this experiment.</strong></p>",0,html-button-response,208,1058024,0.0-16.0-0.0,12155,List1A,black,man,,,,,,,,,,,,,
2149.5,"<img src=""portrait/WM1.jpg""style=""height:400px;""></img>",6,html-button-response,209,1061185,0.0-16.0-1.0,12155,List1A,black,man,,TRUE,6,,,,,,,,,,
null,CORRECT,,html-keyboard-response,210,1062702,0.0-16.0-2.0-0.0,12155,List1A,black,man,,,,null,,,,,,,,,
2050.9,"<img src=""portrait/BM1.jpg""style=""height:400px;""></img>",4,html-button-response,211,1064757,0.0-16.0-4.0,12155,List1A,black,man,,TRUE,4,,,,,,,,,,
null,CORRECT,,html-keyboard-response,212,1066280,0.0-16.0-5.0-0.0,12155,List1A,black,man,,,,null,,,,,,,,,
2382,"<img src=""portrait/BM2.jpg""style=""height:400px;""></img>",5,html-button-response,213,1068665,0.0-16.0-7.0,12155,List1A,black,man,,TRUE,5,,,,,,,,,,
null,CORRECT,,html-keyboard-response,214,1070189,0.0-16.0-8.0-0.0,12155,List1A,black,man,,,,null,,,,,,,,,
2446.3,"<img src=""portrait/WM2.jpg""style=""height:400px;""></img>",7,html-button-response,215,1072639,0.0-16.0-10.0,12155,List1A,black,man,,TRUE,7,,,,,,,,,,
null,CORRECT,,html-keyboard-response,216,1074146,0.0-16.0-11.0-0.0,12155,List1A,black,man,,,,null,,,,,,,,,
2480.6,"<img src=""portrait/BW1.jpg""style=""height:400px;""></img>",0,html-button-response,217,1076630,0.0-16.0-13.0,12155,List1A,black,man,,TRUE,0,,,,,,,,,,
null,CORRECT,,html-keyboard-response,218,1078155,0.0-16.0-14.0-0.0,12155,List1A,black,man,,,,null,,,,,,,,,
2447.3,"<img src=""portrait/BW2.jpg""style=""height:400px;""></img>",2,html-button-response,219,1080612,0.0-16.0-16.0,12155,List1A,black,man,,TRUE,2,,,,,,,,,,
null,CORRECT,,html-keyboard-response,220,1082128,0.0-16.0-17.0-0.0,12155,List1A,black,man,,,,null,,,,,,,,,
2242.1,"<img src=""portrait/WW1.jpg""style=""height:400px;""></img>",1,html-button-response,221,1084375,0.0-16.0-19.0,12155,List1A,black,man,,TRUE,1,,,,,,,,,,
null,CORRECT,,html-keyboard-response,222,1085886,0.0-16.0-20.0-0.0,12155,List1A,black,man,,,,null,,,,,,,,,
3317.3,"<img src=""portrait/WW2.jpg""style=""height:400px;""></img>",3,html-button-response,223,1089206,0.0-16.0-22.0,12155,List1A,black,man,,TRUE,3,,,,,,,,,,
null,CORRECT,,html-keyboard-response,224,1090737,0.0-16.0-23.0-0.0,12155,List1A,black,man,,,,null,,,,,,,,,
6593.9,<p>You got 8 out of 8 right first time. Press Continue.</p>,0,html-button-response,225,1097334,0.0-16.0-25.0,12155,List1A,black,man,,,,,,,,,,,,,
null,"<div style=""font-size:60px;"">+</div>",,html-keyboard-response,226,1098857,0.0-17.0-0.0,12155,List1A,black,man,,,,null,,,,,,,,,
null,"<img src=""stim_listA/copy2.gif""style=""height:400px;""></stim_listA>",,html-keyboard-response,227,1100866,0.0-17.0-1.0,12155,List1A,black,man,,,,null,,,,,,,,,
null,is being copied by,,html-keyboard-response,228,1102869,0.0-17.0-2.0,12155,List1A,black,man,,,,null,,,,,,,,,
12453,,,survey-text,229,1115328,0.0-17.0-3.0,12155,List1A,black,man,,,,,"{""Q0"":""fred is copying kate""}","<img src=""stim_listA/copy2.gif""style=""height:400px;""></stim_listA>",is being copied by,,,,,,
null,"<div style=""font-size:60px;"">+</div>",,html-keyboard-response,230,1115833,0.0-17.0-0.1,12155,List1A,black,man,,,,null,,,,,,,,,
null,"<img src=""stim_listA/seduce4.gif""style=""height:400px;""></stim_listA>",,html-keyboard-response,231,1117842,0.0-17.0-1.1,12155,List1A,black,man,,,,null,,,,,,,,,
null,is being seduced by,,html-keyboard-response,232,1119848,0.0-17.0-2.1,12155,List1A,black,man,,,,null,,,,,,,,,
14320.3,,,survey-text,233,1134172,0.0-17.0-3.1,12155,List1A,black,man,,,,,"{""Q0"":""dave is being seduced by ruth""}","<img src=""stim_listA/seduce4.gif""style=""height:400px;""></stim_listA>",is being seduced by,,,,,,
null,"<div style=""font-size:60px;"">+</div>",,html-keyboard-response,234,1134683,0.0-17.0-0.2,12155,List1A,black,man,,,,null,,,,,,,,,
null,"<img src=""stim_listA/touch8.gif""style=""height:400px;""></stim_listA>",,html-keyboard-response,235,1136688,0.0-17.0-1.2,12155,List1A,black,man,,,,null,,,,,,,,,
null,is being touched by,,html-keyboard-response,236,1138697,0.0-17.0-2.2,12155,List1A,black,man,,,,null,,,,,,,,,
13529.8,,,survey-text,237,1152228,0.0-17.0-3.2,12155,List1A,black,man,,,,,"{""Q0"":""ruth is being touched by beth""}","<img src=""stim_listA/touch8.gif""style=""height:400px;""></stim_listA>",is being touched by,,,,,,
null,"<div style=""font-size:60px;"">+</div>",,html-keyboard-response,238,1152738,0.0-17.0-0.3,12155,List1A,black,man,,,,null,,,,,,,,,
null,"<img src=""stim_listA/greet5.gif""style=""height:400px;""></stim_listA>",,html-keyboard-response,239,1154745,0.0-17.0-1.3,12155,List1A,black,man,,,,null,,,,,,,,,
null,is greeting,,html-keyboard-response,240,1156750,0.0-17.0-2.3,12155,List1A,black,man,,,,null,,,,,,,,,
8445.8,,,survey-text,241,1165200,0.0-17.0-3.3,12155,List1A,black,man,,,,,"{""Q0"":""luke is greeting mike""}","<img src=""stim_listA/greet5.gif""style=""height:400px;""></stim_listA>",is greeting,,,,,,
null,"<div style=""font-size:60px;"">+</div>",,html-keyboard-response,242,1165704,0.0-17.0-0.4,12155,List1A,black,man,,,,null,,,,,,,,,
null,"<img src=""stim_listA/shout8.gif""style=""height:400px;""></stim_listA>",,html-keyboard-response,243,1167713,0.0-17.0-1.4,12155,List1A,black,man,,,,null,,,,,,,,,
null,is being shouted at by,,html-keyboard-response,244,1169718,0.0-17.0-2.4,12155,List1A,black,man,,,,null,,,,,,,,,
17536.8,,,survey-text,245,1187258,0.0-17.0-3.4,12155,List1A,black,man,,,,,"{""Q0"":""jane is being shouted at by kate""}","<img src=""stim_listA/shout8.gif""style=""height:400px;""></stim_listA>",is being shouted at by,,,,,,
null,"<div style=""font-size:60px;"">+</div>",,html-keyboard-response,246,1187760,0.0-17.0-0.5,12155,List1A,black,man,,,,null,,,,,,,,,
null,"<img src=""stim_listA/copy7.gif""style=""height:400px;""></stim_listA>",,html-keyboard-response,247,1189765,0.0-17.0-1.5,12155,List1A,black,man,,,,null,,,,,,,,,
null,is copying,,html-keyboard-response,248,1191774,0.0-17.0-2.5,12155,List1A,black,man,,,,null,,,,,,,,,
11711.8,,,survey-text,249,1203489,0.0-17.0-3.5,12155,List1A,black,man,,,,,"{""Q0"":""kate is copying ruth""}","<img src=""stim_listA/copy7.gif""style=""height:400px;""></stim_listA>",is copying,,,,,,
null,"<div style=""font-size:60px;"">+</div>",,html-keyboard-response,250,1203991,0.0-17.0-0.6,12155,List1A,black,man,,,,null,,,,,,,,,
null,"<img src=""stim_listA/greet1.gif""style=""height:400px;""></stim_listA>",,html-keyboard-response,251,1206007,0.0-17.0-1.6,12155,List1A,black,man,,,,null,,,,,,,,,
null,is greeting,,html-keyboard-response,252,1208012,0.0-17.0-2.6,12155,List1A,black,man,,,,null,,,,,,,,,
11777.4,,,survey-text,253,1219794,0.0-17.0-3.6,12155,List1A,black,man,,,,,"{""Q0"":""beth is greeting mike""}","<img src=""stim_listA/greet1.gif""style=""height:400px;""></stim_listA>",is greeting,,,,,,
null,"<div style=""font-size:60px;"">+</div>",,html-keyboard-response,254,1220299,0.0-17.0-0.7,12155,List1A,black,man,,,,null,,,,,,,,,
null,"<img src=""stim_listA/touch1.gif""style=""height:400px;""></stim_listA>",,html-keyboard-response,255,1222316,0.0-17.0-1.7,12155,List1A,black,man,,,,null,,,,,,,,,
null,is touching,,html-keyboard-response,256,1224323,0.0-17.0-2.7,12155,List1A,black,man,,,,null,,,,,,,,,
10618.3,,,survey-text,257,1234945,0.0-17.0-3.7,12155,List1A,black,man,,,,,"{""Q0"":""kate is touching mike""}","<img src=""stim_listA/touch1.gif""style=""height:400px;""></stim_listA>",is touching,,,,,,
null,"<div style=""font-size:60px;"">+</div>",,html-keyboard-response,258,1235451,0.0-17.0-0.8,12155,List1A,black,man,,,,null,,,,,,,,,
null,"<img src=""stim_listA/oppose7.gif""style=""height:400px;""></stim_listA>",,html-keyboard-response,259,1237468,0.0-17.0-1.8,12155,List1A,black,man,,,,null,,,,,,,,,
null,is opposing,,html-keyboard-response,260,1239478,0.0-17.0-2.8,12155,List1A,black,man,,,,null,,,,,,,,,
18330.3,,,survey-text,261,1257813,0.0-17.0-3.8,12155,List1A,black,man,,,,,"{""Q0"":""kate is opposing jane""}","<img src=""stim_listA/oppose7.gif""style=""height:400px;""></stim_listA>",is opposing,,,,,,
null,"<div style=""font-size:60px;"">+</div>",,html-keyboard-response,262,1258330,0.0-17.0-0.9,12155,List1A,black,man,,,,null,,,,,,,,,
null,"<img src=""stim_listA/copy1.gif""style=""height:400px;""></stim_listA>",,html-keyboard-response,263,1260338,0.0-17.0-1.9,12155,List1A,black,man,,,,null,,,,,,,,,
null,is copying,,html-keyboard-response,264,1262356,0.0-17.0-2.9,12155,List1A,black,man,,,,null,,,,,,,,,
7317.2,,,survey-text,265,1269676,0.0-17.0-3.9,12155,List1A,black,man,,,,,"{""Q0"":""beth is copying mike""}","<img src=""stim_listA/copy1.gif""style=""height:400px;""></stim_listA>",is copying,,,,,,
null,"<div style=""font-size:60px;"">+</div>",,html-keyboard-response,266,1270187,0.0-17.0-0.10,12155,List1A,black,man,,,,null,,,,,,,,,
null,"<img src=""stim_listA/oppose4.gif""style=""height:400px;""></stim_listA>",,html-keyboard-response,267,1272195,0.0-17.0-1.10,12155,List1A,black,man,,,,null,,,,,,,,,
null,is being opposed by,,html-keyboard-response,268,1274208,0.0-17.0-2.10,12155,List1A,black,man,,,,null,,,,,,,,,
16418.8,,,survey-text,269,1290632,0.0-17.0-3.10,12155,List1A,black,man,,,,,"{""Q0"":""ruth is opposing luke""}","<img src=""stim_listA/oppose4.gif""style=""height:400px;""></stim_listA>",is being opposed by,,,,,,
null,"<div style=""font-size:60px;"">+</div>",,html-keyboard-response,270,1291134,0.0-17.0-0.11,12155,List1A,black,man,,,,null,,,,,,,,,
null,"<img src=""stim_listA/touch5.gif""style=""height:400px;""></stim_listA>",,html-keyboard-response,271,1293146,0.0-17.0-1.11,12155,List1A,black,man,,,,null,,,,,,,,,
null,is touching,,html-keyboard-response,272,1295151,0.0-17.0-2.11,12155,List1A,black,man,,,,null,,,,,,,,,
10915.4,,,survey-text,273,1306071,0.0-17.0-3.11,12155,List1A,black,man,,,,,"{""Q0"":""mike is touching dave""}","<img src=""stim_listA/touch5.gif""style=""height:400px;""></stim_listA>",is touching,,,,,,
null,"<div style=""font-size:60px;"">+</div>",,html-keyboard-response,274,1306586,0.0-17.0-0.12,12155,List1A,black,man,,,,null,,,,,,,,,
null,"<img src=""stim_listA/shout2.gif""style=""height:400px;""></stim_listA>",,html-keyboard-response,275,1308592,0.0-17.0-1.12,12155,List1A,black,man,,,,null,,,,,,,,,
null,is being shouted at by,,html-keyboard-response,276,1310609,0.0-17.0-2.12,12155,List1A,black,man,,,,null,,,,,,,,,
13583.6,,,survey-text,277,1324193,0.0-17.0-3.12,12155,List1A,black,man,,,,,"{""Q0"":""mike is being shouted at by kate""}","<img src=""stim_listA/shout2.gif""style=""height:400px;""></stim_listA>",is being shouted at by,,,,,,
null,"<div style=""font-size:60px;"">+</div>",,html-keyboard-response,278,1324698,0.0-17.0-0.13,12155,List1A,black,man,,,,null,,,,,,,,,
null,"<img src=""stim_listA/copy6.gif""style=""height:400px;""></stim_listA>",,html-keyboard-response,279,1326712,0.0-17.0-1.13,12155,List1A,black,man,,,,null,,,,,,,,,
null,is being copied by,,html-keyboard-response,280,1328728,0.0-17.0-2.13,12155,List1A,black,man,,,,null,,,,,,,,,
11382.2,,,survey-text,281,1340115,0.0-17.0-3.13,12155,List1A,black,man,,,,,"{""Q0"":""fred is being copied by dave""}","<img src=""stim_listA/copy6.gif""style=""height:400px;""></stim_listA>",is being copied by,,,,,,
null,"<div style=""font-size:60px;"">+</div>",,html-keyboard-response,282,1340630,0.0-17.0-0.14,12155,List1A,black,man,,,,null,,,,,,,,,
null,"<img src=""stim_listA/greet6.gif""style=""height:400px;""></stim_listA>",,html-keyboard-response,283,1342637,0.0-17.0-1.14,12155,List1A,black,man,,,,null,,,,,,,,,
null,is being greeted by,,html-keyboard-response,284,1344645,0.0-17.0-2.14,12155,List1A,black,man,,,,null,,,,,,,,,
11223.2,,,survey-text,285,1355873,0.0-17.0-3.14,12155,List1A,black,man,,,,,"{""Q0"":""dave is being greeted by fred""}","<img src=""stim_listA/greet6.gif""style=""height:400px;""></stim_listA>",is being greeted by,,,,,,
null,"<div style=""font-size:60px;"">+</div>",,html-keyboard-response,286,1356381,0.0-17.0-0.15,12155,List1A,black,man,,,,null,,,,,,,,,
null,"<img src=""stim_listA/seduce3.gif""style=""height:400px;""></stim_listA>",,html-keyboard-response,287,1358388,0.0-17.0-1.15,12155,List1A,black,man,,,,null,,,,,,,,,
null,is seducing,,html-keyboard-response,288,1360398,0.0-17.0-2.15,12155,List1A,black,man,,,,null,,,,,,,,,
10340.2,,,survey-text,289,1370741,0.0-17.0-3.15,12155,List1A,black,man,,,,,"{""Q0"":""luke is seducing jane""}","<img src=""stim_listA/seduce3.gif""style=""height:400px;""></stim_listA>",is seducing,,,,,,
null,"<div style=""font-size:60px;"">+</div>",,html-keyboard-response,290,1371246,0.0-17.0-0.16,12155,List1A,black,man,,,,null,,,,,,,,,
null,"<img src=""stim_listA/hug7.gif""style=""height:400px;""></stim_listA>",,html-keyboard-response,291,1373261,0.0-17.0-1.16,12155,List1A,black,man,,,,null,,,,,,,,,
null,is hugging,,html-keyboard-response,292,1375272,0.0-17.0-2.16,12155,List1A,black,man,,,,null,,,,,,,,,
8606.2,,,survey-text,293,1383885,0.0-17.0-3.16,12155,List1A,black,man,,,,,"{""Q0"":""ruth is hugging beth""}","<img src=""stim_listA/hug7.gif""style=""height:400px;""></stim_listA>",is hugging,,,,,,
null,"<div style=""font-size:60px;"">+</div>",,html-keyboard-response,294,1384388,0.0-17.0-0.17,12155,List1A,black,man,,,,null,,,,,,,,,
null,"<img src=""stim_listA/kiss4.gif""style=""height:400px;""></stim_listA>",,html-keyboard-response,295,1386398,0.0-17.0-1.17,12155,List1A,black,man,,,,null,,,,,,,,,
null,is being kissed by,,html-keyboard-response,296,1388409,0.0-17.0-2.17,12155,List1A,black,man,,,,null,,,,,,,,,
22268.5,,,survey-text,297,1410681,0.0-17.0-3.17,12155,List1A,black,man,,,,,"{""Q0"":""jane is being kissed by dave""}","<img src=""stim_listA/kiss4.gif""style=""height:400px;""></stim_listA>",is being kissed by,,,,,,
null,"<div style=""font-size:60px;"">+</div>",,html-keyboard-response,298,1411197,0.0-17.0-0.18,12155,List1A,black,man,,,,null,,,,,,,,,
null,"<img src=""stim_listA/kiss6.gif""style=""height:400px;""></stim_listA>",,html-keyboard-response,299,1413202,0.0-17.0-1.18,12155,List1A,black,man,,,,null,,,,,,,,,
null,is being kissed by,,html-keyboard-response,300,1415209,0.0-17.0-2.18,12155,List1A,black,man,,,,null,,,,,,,,,
11319.9,,,survey-text,301,1426534,0.0-17.0-3.18,12155,List1A,black,man,,,,,"{""Q0"":""dave is being kissed by mike""}","<img src=""stim_listA/kiss6.gif""style=""height:400px;""></stim_listA>",is being kissed by,,,,,,
null,"<div style=""font-size:60px;"">+</div>",,html-keyboard-response,302,1427039,0.0-17.0-0.19,12155,List1A,black,man,,,,null,,,,,,,,,
null,"<img src=""stim_listA/look7.gif""style=""height:400px;""></stim_listA>",,html-keyboard-response,303,1429060,0.0-17.0-1.19,12155,List1A,black,man,,,,null,,,,,,,,,
null,is looking at,,html-keyboard-response,304,1431072,0.0-17.0-2.19,12155,List1A,black,man,,,,null,,,,,,,,,
11384.2,,,survey-text,305,1442461,0.0-17.0-3.19,12155,List1A,black,man,,,,,"{""Q0"":""ruth is looking at beth""}","<img src=""stim_listA/look7.gif""style=""height:400px;""></stim_listA>",is looking at,,,,,,
5913.8,"<img src='img/portrait_matrix_list1.jpg' style='width:900px;height:500px;''></img><p>If you have memorised all the portraits and names and are ready to start, press Continue.</p><p><strong>Please note: Your memory of these faces will be tested 4 times during this experiment.</strong></p>",0,html-button-response,306,1448373,0.0-18.0-0.0,12155,List1A,black,man,,,,,,,,,,,,,
2774.6,"<img src=""portrait/WM1.jpg""style=""height:400px;""></img>",6,html-button-response,307,1452156,0.0-18.0-1.0,12155,List1A,black,man,,TRUE,6,,,,,,,,,,
null,CORRECT,,html-keyboard-response,308,1453670,0.0-18.0-2.0-0.0,12155,List1A,black,man,,,,null,,,,,,,,,
3473.8,"<img src=""portrait/WM2.jpg""style=""height:400px;""></img>",7,html-button-response,309,1457153,0.0-18.0-4.0,12155,List1A,black,man,,TRUE,7,,,,,,,,,,
null,CORRECT,,html-keyboard-response,310,1458682,0.0-18.0-5.0-0.0,12155,List1A,black,man,,,,null,,,,,,,,,
3102.2,"<img src=""portrait/BW2.jpg""style=""height:400px;""></img>",2,html-button-response,311,1461787,0.0-18.0-7.0,12155,List1A,black,man,,TRUE,2,,,,,,,,,,
null,CORRECT,,html-keyboard-response,312,1463307,0.0-18.0-8.0-0.0,12155,List1A,black,man,,,,null,,,,,,,,,
2091.5,"<img src=""portrait/BM1.jpg""style=""height:400px;""></img>",4,html-button-response,313,1465402,0.0-18.0-10.0,12155,List1A,black,man,,TRUE,4,,,,,,,,,,
null,CORRECT,,html-keyboard-response,314,1466934,0.0-18.0-11.0-0.0,12155,List1A,black,man,,,,null,,,,,,,,,
2045,"<img src=""portrait/WW1.jpg""style=""height:400px;""></img>",1,html-button-response,315,1468982,0.0-18.0-13.0,12155,List1A,black,man,,TRUE,1,,,,,,,,,,
null,CORRECT,,html-keyboard-response,316,1470503,0.0-18.0-14.0-0.0,12155,List1A,black,man,,,,null,,,,,,,,,
4991.8,"<img src=""portrait/BW1.jpg""style=""height:400px;""></img>",0,html-button-response,317,1475498,0.0-18.0-16.0,12155,List1A,black,man,,TRUE,0,,,,,,,,,,
null,CORRECT,,html-keyboard-response,318,1477006,0.0-18.0-17.0-0.0,12155,List1A,black,man,,,,null,,,,,,,,,
3369.7,"<img src=""portrait/WW2.jpg""style=""height:400px;""></img>",3,html-button-response,319,1480379,0.0-18.0-19.0,12155,List1A,black,man,,TRUE,3,,,,,,,,,,
null,CORRECT,,html-keyboard-response,320,1481901,0.0-18.0-20.0-0.0,12155,List1A,black,man,,,,null,,,,,,,,,
2112.1,"<img src=""portrait/BM2.jpg""style=""height:400px;""></img>",5,html-button-response,321,1484016,0.0-18.0-22.0,12155,List1A,black,man,,TRUE,5,,,,,,,,,,
null,CORRECT,,html-keyboard-response,322,1485543,0.0-18.0-23.0-0.0,12155,List1A,black,man,,,,null,,,,,,,,,
3016.5,<p>You got 8 out of 8 right first time. Press Continue.</p>,0,html-button-response,323,1488563,0.0-18.0-25.0,12155,List1A,black,man,,,,,,,,,,,,,
null,"<div style=""font-size:60px;"">+</div>",,html-keyboard-response,324,1490077,0.0-19.0-0.0,12155,List1A,black,man,,,,null,,,,,,,,,
null,"<img src=""stim_listA/challenge5.gif""style=""height:400px;""></stim_listA>",,html-keyboard-response,325,1492090,0.0-19.0-1.0,12155,List1A,black,man,,,,null,,,,,,,,,
null,is challenging,,html-keyboard-response,326,1494094,0.0-19.0-2.0,12155,List1A,black,man,,,,null,,,,,,,,,
13512.6,,,survey-text,327,1507615,0.0-19.0-3.0,12155,List1A,black,man,,,,,"{""Q0"":""mike is challenging luke""}","<img src=""stim_listA/challenge5.gif""style=""height:400px;""></stim_listA>",is challenging,,,,,,
null,"<div style=""font-size:60px;"">+</div>",,html-keyboard-response,328,1508132,0.0-19.0-0.1,12155,List1A,black,man,,,,null,,,,,,,,,
null,"<img src=""stim_listA/kiss5.gif""style=""height:400px;""></stim_listA>",,html-keyboard-response,329,1510143,0.0-19.0-1.1,12155,List1A,black,man,,,,null,,,,,,,,,
null,is kissing,,html-keyboard-response,330,1512156,0.0-19.0-2.1,12155,List1A,black,man,,,,null,,,,,,,,,
12865,,,survey-text,331,1525026,0.0-19.0-3.1,12155,List1A,black,man,,,,,"{""Q0"":""fred is kissing luke""}","<img src=""stim_listA/kiss5.gif""style=""height:400px;""></stim_listA>",is kissing,,,,,,
null,"<div style=""font-size:60px;"">+</div>",,html-keyboard-response,332,1525530,0.0-19.0-0.2,12155,List1A,black,man,,,,null,,,,,,,,,
null,"<img src=""stim_listA/challenge3.gif""style=""height:400px;""></stim_listA>",,html-keyboard-response,333,1527545,0.0-19.0-1.2,12155,List1A,black,man,,,,null,,,,,,,,,
null,is challenging,,html-keyboard-response,334,1529560,0.0-19.0-2.2,12155,List1A,black,man,,,,null,,,,,,,,,
12127.1,,,survey-text,335,1541691,0.0-19.0-3.2,12155,List1A,black,man,,,,,"{""Q0"":""ruth is challenging dave""}","<img src=""stim_listA/challenge3.gif""style=""height:400px;""></stim_listA>",is challenging,,,,,,
null,"<div style=""font-size:60px;"">+</div>",,html-keyboard-response,336,1542195,0.0-19.0-0.3,12155,List1A,black,man,,,,null,,,,,,,,,
null,"<img src=""stim_listA/oppose6.gif""style=""height:400px;""></stim_listA>",,html-keyboard-response,337,1544200,0.0-19.0-1.3,12155,List1A,black,man,,,,null,,,,,,,,,
null,is being opposed by,,html-keyboard-response,338,1546218,0.0-19.0-2.3,12155,List1A,black,man,,,,null,,,,,,,,,
17537.2,,,survey-text,339,1563760,0.0-19.0-3.3,12155,List1A,black,man,,,,,"{""Q0"":""luke is being opposed by fred""}","<img src=""stim_listA/oppose6.gif""style=""height:400px;""></stim_listA>",is being opposed by,,,,,,
null,"<div style=""font-size:60px;"">+</div>",,html-keyboard-response,340,1564266,0.0-19.0-0.4,12155,List1A,black,man,,,,null,,,,,,,,,
null,"<img src=""stim_listA/oppose3.gif""style=""height:400px;""></stim_listA>",,html-keyboard-response,341,1566275,0.0-19.0-1.4,12155,List1A,black,man,,,,null,,,,,,,,,
null,is opposing,,html-keyboard-response,342,1568282,0.0-19.0-2.4,12155,List1A,black,man,,,,null,,,,,,,,,
10666.3,,,survey-text,343,1578953,0.0-19.0-3.4,12155,List1A,black,man,,,,,"{""Q0"":""dave is opposing jane""}","<img src=""stim_listA/oppose3.gif""style=""height:400px;""></stim_listA>",is opposing,,,,,,
null,"<div style=""font-size:60px;"">+</div>",,html-keyboard-response,344,1579457,0.0-19.0-0.5,12155,List1A,black,man,,,,null,,,,,,,,,
null,"<img src=""stim_listA/greet4.gif""style=""height:400px;""></stim_listA>",,html-keyboard-response,345,1581475,0.0-19.0-1.5,12155,List1A,black,man,,,,null,,,,,,,,,
null,is being greeted by,,html-keyboard-response,346,1583478,0.0-19.0-2.5,12155,List1A,black,man,,,,null,,,,,,,,,
12382.3,,,survey-text,347,1595863,0.0-19.0-3.5,12155,List1A,black,man,,,,,"{""Q0"":""jane is being greeted by luke""}","<img src=""stim_listA/greet4.gif""style=""height:400px;""></stim_listA>",is being greeted by,,,,,,
null,"<div style=""font-size:60px;"">+</div>",,html-keyboard-response,348,1596367,0.0-19.0-0.6,12155,List1A,black,man,,,,null,,,,,,,,,
null,"<img src=""stim_listA/copy3.gif""style=""height:400px;""></stim_listA>",,html-keyboard-response,349,1598374,0.0-19.0-1.6,12155,List1A,black,man,,,,null,,,,,,,,,
null,is copying,,html-keyboard-response,350,1600381,0.0-19.0-2.6,12155,List1A,black,man,,,,null,,,,,,,,,
10553.4,,,survey-text,351,1610940,0.0-19.0-3.6,12155,List1A,black,man,,,,,"{""Q0"":""dave is copying ruth""}","<img src=""stim_listA/copy3.gif""style=""height:400px;""></stim_listA>",is copying,,,,,,
null,"<div style=""font-size:60px;"">+</div>",,html-keyboard-response,352,1611457,0.0-19.0-0.7,12155,List1A,black,man,,,,null,,,,,,,,,
null,"<img src=""stim_listA/challenge6.gif""style=""height:400px;""></stim_listA>",,html-keyboard-response,353,1613466,0.0-19.0-1.7,12155,List1A,black,man,,,,null,,,,,,,,,
null,is being challenged by,,html-keyboard-response,354,1615481,0.0-19.0-2.7,12155,List1A,black,man,,,,null,,,,,,,,,
12165.4,,,survey-text,355,1627652,0.0-19.0-3.7,12155,List1A,black,man,,,,,"{""Q0"":""dave is being challenged by fred""}","<img src=""stim_listA/challenge6.gif""style=""height:400px;""></stim_listA>",is being challenged by,,,,,,
null,"<div style=""font-size:60px;"">+</div>",,html-keyboard-response,356,1628160,0.0-19.0-0.8,12155,List1A,black,man,,,,null,,,,,,,,,
null,"<img src=""stim_listA/greet8.gif""style=""height:400px;""></stim_listA>",,html-keyboard-response,357,1630174,0.0-19.0-1.8,12155,List1A,black,man,,,,null,,,,,,,,,
null,is being greeted by,,html-keyboard-response,358,1632177,0.0-19.0-2.8,12155,List1A,black,man,,,,null,,,,,,,,,
13272.8,,,survey-text,359,1645454,0.0-19.0-3.8,12155,List1A,black,man,,,,,"{""Q0"":""beth is being greeted by jane""}","<img src=""stim_listA/greet8.gif""style=""height:400px;""></stim_listA>",is being greeted by,,,,,,
null,"<div style=""font-size:60px;"">+</div>",,html-keyboard-response,360,1645971,0.0-19.0-0.9,12155,List1A,black,man,,,,null,,,,,,,,,
null,"<img src=""stim_listA/kiss1.gif""style=""height:400px;""></stim_listA>",,html-keyboard-response,361,1647977,0.0-19.0-1.9,12155,List1A,black,man,,,,null,,,,,,,,,
null,is kissing,,html-keyboard-response,362,1649984,0.0-19.0-2.9,12155,List1A,black,man,,,,null,,,,,,,,,
8440.9,,,survey-text,363,1658430,0.0-19.0-3.9,12155,List1A,black,man,,,,,"{""Q0"":""fred is kissing beth""}","<img src=""stim_listA/kiss1.gif""style=""height:400px;""></stim_listA>",is kissing,,,,,,
null,"<div style=""font-size:60px;"">+</div>",,html-keyboard-response,364,1658938,0.0-19.0-0.10,12155,List1A,black,man,,,,null,,,,,,,,,
null,"<img src=""stim_listA/oppose2.gif""style=""height:400px;""></stim_listA>",,html-keyboard-response,365,1660954,0.0-19.0-1.10,12155,List1A,black,man,,,,null,,,,,,,,,
null,is being opposed by,,html-keyboard-response,366,1662959,0.0-19.0-2.10,12155,List1A,black,man,,,,null,,,,,,,,,
18868.6,,,survey-text,367,1681833,0.0-19.0-3.10,12155,List1A,black,man,,,,,"{""Q0"":""fred is being opposed by beth""}","<img src=""stim_listA/oppose2.gif""style=""height:400px;""></stim_listA>",is being opposed by,,,,,,
null,"<div style=""font-size:60px;"">+</div>",,html-keyboard-response,368,1682343,0.0-19.0-0.11,12155,List1A,black,man,,,,null,,,,,,,,,
null,"<img src=""stim_listA/shout1.gif""style=""height:400px;""></stim_listA>",,html-keyboard-response,369,1684360,0.0-19.0-1.11,12155,List1A,black,man,,,,null,,,,,,,,,
null,is shouting at,,html-keyboard-response,370,1686376,0.0-19.0-2.11,12155,List1A,black,man,,,,null,,,,,,,,,
17088,,,survey-text,371,1703473,0.0-19.0-3.11,12155,List1A,black,man,,,,,"{""Q0"":""fred is shouting at beth""}","<img src=""stim_listA/shout1.gif""style=""height:400px;""></stim_listA>",is shouting at,,,,,,
null,"<div style=""font-size:60px;"">+</div>",,html-keyboard-response,372,1703985,0.0-19.0-0.12,12155,List1A,black,man,,,,null,,,,,,,,,
null,"<img src=""stim_listA/seduce8.gif""style=""height:400px;""></stim_listA>",,html-keyboard-response,373,1705995,0.0-19.0-1.12,12155,List1A,black,man,,,,null,,,,,,,,,
null,is being seduced by,,html-keyboard-response,374,1708003,0.0-19.0-2.12,12155,List1A,black,man,,,,null,,,,,,,,,
16890.1,,,survey-text,375,1724897,0.0-19.0-3.12,12155,List1A,black,man,,,,,"{""Q0"":""ruth is being seduced by kate""}","<img src=""stim_listA/seduce8.gif""style=""height:400px;""></stim_listA>",is being seduced by,,,,,,
null,"<div style=""font-size:60px;"">+</div>",,html-keyboard-response,376,1725408,0.0-19.0-0.13,12155,List1A,black,man,,,,null,,,,,,,,,
null,"<img src=""stim_listA/kiss2.gif""style=""height:400px;""></stim_listA>",,html-keyboard-response,377,1727415,0.0-19.0-1.13,12155,List1A,black,man,,,,null,,,,,,,,,
null,is being kissed by,,html-keyboard-response,378,1729426,0.0-19.0-2.13,12155,List1A,black,man,,,,null,,,,,,,,,
11693.9,,,survey-text,379,1741125,0.0-19.0-3.13,12155,List1A,black,man,,,,,"{""Q0"":""kate is being kissed by mike""}","<img src=""stim_listA/kiss2.gif""style=""height:400px;""></stim_listA>",is being kissed by,,,,,,
null,"<div style=""font-size:60px;"">+</div>",,html-keyboard-response,380,1741640,0.0-19.0-0.14,12155,List1A,black,man,,,,null,,,,,,,,,
null,"<img src=""stim_listA/look2.gif""style=""height:400px;""></stim_listA>",,html-keyboard-response,381,1743652,0.0-19.0-1.14,12155,List1A,black,man,,,,null,,,,,,,,,
null,is being looked at by,,html-keyboard-response,382,1745656,0.0-19.0-2.14,12155,List1A,black,man,,,,null,,,,,,,,,
13922.5,,,survey-text,383,1759582,0.0-19.0-3.14,12155,List1A,black,man,,,,,"{""Q0"":""kate is being looked at by mike""}","<img src=""stim_listA/look2.gif""style=""height:400px;""></stim_listA>",is being looked at by,,,,,,
null,"<div style=""font-size:60px;"">+</div>",,html-keyboard-response,384,1760089,0.0-19.0-0.15,12155,List1A,black,man,,,,null,,,,,,,,,
null,"<img src=""stim_listA/seduce6.gif""style=""height:400px;""></stim_listA>",,html-keyboard-response,385,1762095,0.0-19.0-1.15,12155,List1A,black,man,,,,null,,,,,,,,,
null,is being seduced by,,html-keyboard-response,386,1764102,0.0-19.0-2.15,12155,List1A,black,man,,,,null,,,,,,,,,
10830.9,,,survey-text,387,1774938,0.0-19.0-3.15,12155,List1A,black,man,,,,,"{""Q0"":""mike is being seduced by luke""}","<img src=""stim_listA/seduce6.gif""style=""height:400px;""></stim_listA>",is being seduced by,,,,,,
null,"<div style=""font-size:60px;"">+</div>",,html-keyboard-response,388,1775453,0.0-19.0-0.16,12155,List1A,black,man,,,,null,,,,,,,,,
null,"<img src=""stim_listA/shout3.gif""style=""height:400px;""></stim_listA>",,html-keyboard-response,389,1777470,0.0-19.0-1.16,12155,List1A,black,man,,,,null,,,,,,,,,
null,is shouting at,,html-keyboard-response,390,1779477,0.0-19.0-2.16,12155,List1A,black,man,,,,null,,,,,,,,,
10151.3,,,survey-text,391,1789638,0.0-19.0-3.16,12155,List1A,black,man,,,,,"{""Q0"":""ruth is shouting at luke""}","<img src=""stim_listA/shout3.gif""style=""height:400px;""></stim_listA>",is shouting at,,,,,,
null,"<div style=""font-size:60px;"">+</div>",,html-keyboard-response,392,1790147,0.0-19.0-0.17,12155,List1A,black,man,,,,null,,,,,,,,,
null,"<img src=""stim_listA/copy5.gif""style=""height:400px;""></stim_listA>",,html-keyboard-response,393,1792155,0.0-19.0-1.17,12155,List1A,black,man,,,,null,,,,,,,,,
null,is copying,,html-keyboard-response,394,1794172,0.0-19.0-2.17,12155,List1A,black,man,,,,null,,,,,,,,,
9246.9,,,survey-text,395,1803424,0.0-19.0-3.17,12155,List1A,black,man,,,,,"{""Q0"":""luke is copying mike""}","<img src=""stim_listA/copy5.gif""style=""height:400px;""></stim_listA>",is copying,,,,,,
null,"<div style=""font-size:60px;"">+</div>",,html-keyboard-response,396,1803934,0.0-19.0-0.18,12155,List1A,black,man,,,,null,,,,,,,,,
null,"<img src=""stim_listA/look4.gif""style=""height:400px;""></stim_listA>",,html-keyboard-response,397,1805942,0.0-19.0-1.18,12155,List1A,black,man,,,,null,,,,,,,,,
null,is being looked at by,,html-keyboard-response,398,1807945,0.0-19.0-2.18,12155,List1A,black,man,,,,null,,,,,,,,,
13520.6,,,survey-text,399,1821471,0.0-19.0-3.18,12155,List1A,black,man,,,,,"{""Q0"":""dave is being looked at by jane""}","<img src=""stim_listA/look4.gif""style=""height:400px;""></stim_listA>",is being looked at by,,,,,,
null,"<div style=""font-size:60px;"">+</div>",,html-keyboard-response,400,1821978,0.0-19.0-0.19,12155,List1A,black,man,,,,null,,,,,,,,,
null,"<img src=""stim_listA/greet7.gif""style=""height:400px;""></stim_listA>",,html-keyboard-response,401,1823986,0.0-19.0-1.19,12155,List1A,black,man,,,,null,,,,,,,,,
null,is greeting,,html-keyboard-response,402,1825991,0.0-19.0-2.19,12155,List1A,black,man,,,,null,,,,,,,,,
15341.9,,,survey-text,403,1841338,0.0-19.0-3.19,12155,List1A,black,man,,,,,"{""Q0"":""ruth is greeting kate""}","<img src=""stim_listA/greet7.gif""style=""height:400px;""></stim_listA>",is greeting,,,,,,
7621.7,<p>Thank you for completing that task.</p><p>The final part of this session is a questionnaire that will take about 4 minutes.</p><p>Press Continue.</p>,0,html-button-response,404,1848961,0.0-20.0,12155,List1A,black,man,,,,,,,,,,,,,
48621.9,,,survey-text,405,1898598,0.0-21.0,12155,List1A,black,man,,,,,"{""Q0"":""33"",""Q1"":""english"",""Q2"":""english"",""Q3"":""united states of america"",""Q4"":""american"",""Q5"":""african american"",""Q6"":""male""}",,,demographics,,,,,
3654.5,<p>Have you lived in the USA for the last 5 years or more?</p>,0,html-button-response,406,1902256,0.0-22.0,12155,List1A,black,man,,,,,,,,fiveyears,,,,,
4164.1,<p>Move the slider to show the extent to which you agree with the following statements.</p>,0,html-button-response,407,1907430,0.0-23.0,12155,List1A,black,man,,,,,,,,,,,,,
7354.6,,,html-slider-response,408,1915819,0.0-24.0-0.0-0.0,12155,List1A,black,man,,,,,,,,survey_race,90,,,I feel a bond with people the same age as me.,filler
7307.5,,,html-slider-response,409,1923130,0.0-24.0-0.0-0.1,12155,List1A,black,man,,,,,,,,survey_race,93,,,My age is not an important part of who I am.,filler
4652.9,,,html-slider-response,410,1927786,0.0-24.0-0.0-0.2,12155,List1A,black,man,,,,,,,,survey_race,98,,,I am glad to be my age.,filler
5609.7,,,html-slider-response,411,1933403,0.0-24.0-0.0-0.3,12155,List1A,black,man,,,,,,,,survey_race,35,,,I enjoy being in large groups.,filler
6136.3,,,html-slider-response,412,1939542,0.0-24.0-0.0-0.4,12155,List1A,black,man,,,,,,,,survey_race,25,,,I have a lot in common with people of a similar age to me.,filler
4668.4,,,html-slider-response,413,1944213,0.0-24.0-0.0-0.5,12155,List1A,black,man,,,,,,,,survey_race,18,,,I feel solidarity with people the same age as me.,filler
5208.2,,,html-slider-response,414,1949423,0.0-24.0-0.0-0.6,12155,List1A,black,man,,,,,,,,survey_race,0,,,I consider myself an extrovert.,filler
7421.4,,,html-slider-response,415,1956848,0.0-24.0-0.0-0.7,12155,List1A,black,man,,,,,,,,survey_race,91,,,I feel solidarity with my race.,solidarity
4350.1,,,html-slider-response,416,1961200,0.0-24.0-0.0-0.8,12155,List1A,black,man,,,,,,,,survey_race,4,,,People my age have a lot in common with each other.,filler
4266.7,,,html-slider-response,417,1965470,0.0-24.0-0.0-0.9,12155,List1A,black,man,,,,,,,,survey_race,98,,,I consider myself an introvert.,filler
6714.7,,,html-slider-response,418,1972187,0.0-24.0-0.0-0.10,12155,List1A,black,man,,,,,,,,survey_race,98,,,Being my race gives me a good feeling.,feeling
11469.1,,,html-slider-response,419,1983659,0.0-24.0-0.0-0.11,12155,List1A,black,man,,,,,,,,survey_race,0,,,I often think about the fact that I am my race.,often
6505.8,,,html-slider-response,420,1990167,0.0-24.0-0.0-0.12,12155,List1A,black,man,,,,,,,,survey_race,99,,,I think that my race has a lot to be proud of.,proud
6459.2,,,html-slider-response,421,1996629,0.0-24.0-0.0-0.13,12155,List1A,black,man,,,,,,,,survey_race,8,,,I have a lot in common with the average person of my race.,average
5230.7,,,html-slider-response,422,2001862,0.0-24.0-0.0-0.14,12155,List1A,black,man,,,,,,,,survey_race,10,,,People of my race are very similar to each other.,verysimilar
4699.5,,,html-slider-response,423,2006564,0.0-24.0-0.0-0.15,12155,List1A,black,man,,,,,,,,survey_race,1,,,I am similar to the average person of my race.,similar
6365.1,,,html-slider-response,424,2012931,0.0-24.0-0.0-0.16,12155,List1A,black,man,,,,,,,,survey_race,100,,,The fact that I am my race is an important part of my identity.,identity
3397.6,,,html-slider-response,425,2016332,0.0-24.0-0.0-0.17,12155,List1A,black,man,,,,,,,,survey_race,89,,,I feel committed to my race.,committed
4176.8,,,html-slider-response,426,2020511,0.0-24.0-0.0-0.18,12155,List1A,black,man,,,,,,,,survey_race,98,,,Being my age gives me a good feeling.,filler
2968.4,,,html-slider-response,427,2023482,0.0-24.0-0.0-0.19,12155,List1A,black,man,,,,,,,,survey_race,100,,,I am glad to be my race.,glad
4879.3,,,html-slider-response,428,2028363,0.0-24.0-0.0-0.20,12155,List1A,black,man,,,,,,,,survey_race,0,,,I often think about the fact that I am my age.,filler
3276.5,,,html-slider-response,429,2031643,0.0-24.0-0.0-0.21,12155,List1A,black,man,,,,,,,,survey_race,100,,,I am glad to be the age I am.,filler
3799,,,html-slider-response,430,2035444,0.0-24.0-0.0-0.22,12155,List1A,black,man,,,,,,,,survey_race,14,,,Getting older does not worry me.,filler
3975.8,,,html-slider-response,431,2039423,0.0-24.0-0.0-0.23,12155,List1A,black,man,,,,,,,,survey_race,100,,,It is pleasant to be my race.,pleasant
3410.9,,,html-slider-response,432,2042836,0.0-24.0-0.0-0.24,12155,List1A,black,man,,,,,,,,survey_race,0,,,People of my race have a lot in common with each other.,common
5120.5,,,html-slider-response,433,2047959,0.0-24.0-0.0-0.25,12155,List1A,black,man,,,,,,,,survey_race,100,,,"The older I get, the wiser I feel.",filler
4735.6,,,html-slider-response,434,2052699,0.0-24.0-0.0-0.26,12155,List1A,black,man,,,,,,,,survey_race,2,,,Being my race is an important part of how I see myself.,important
3073.9,,,html-slider-response,435,2055775,0.0-24.0-0.0-0.27,12155,List1A,black,man,,,,,,,,survey_race,96,,,I feel a bond with my race.,bond
6192.4,,,html-slider-response,436,2061971,0.0-24.0-1.0-0.0,12155,List1A,black,man,,,,,,,,survey_gender,0,,,I have a lot in common with the average person of my gender.,average
7135.4,,,html-slider-response,437,2069110,0.0-24.0-1.0-0.1,12155,List1A,black,man,,,,,,,,survey_gender,100,,,It is not always easy for people to know what I am thinking.,filler
3377.9,,,html-slider-response,438,2072490,0.0-24.0-1.0-0.2,12155,List1A,black,man,,,,,,,,survey_gender,100,,,I think that my gender has a lot to be proud of.,proud
3349.6,,,html-slider-response,439,2075842,0.0-24.0-1.0-0.3,12155,List1A,black,man,,,,,,,,survey_gender,20,,,I would say I am an animal person.,filler
6421.1,,,html-slider-response,440,2082265,0.0-24.0-1.0-0.4,12155,List1A,black,man,,,,,,,,survey_gender,86,,,Being my gender is an important part of how I see myself.,important
3948.9,,,html-slider-response,441,2086217,0.0-24.0-1.0-0.5,12155,List1A,black,man,,,,,,,,survey_gender,8,,,My friends have a lot in common with each other.,filler
5663.2,,,html-slider-response,442,2091882,0.0-24.0-1.0-0.6,12155,List1A,black,man,,,,,,,,survey_gender,6,,,My friends understand me.,filler
6697.6,,,html-slider-response,443,2098582,0.0-24.0-1.0-0.7,12155,List1A,black,man,,,,,,,,survey_gender,0,,,I am similar to the average person of my gender.,similar
11058.7,,,html-slider-response,444,2109642,0.0-24.0-1.0-0.8,12155,List1A,black,man,,,,,,,,survey_gender,11,,,People of my gender have a lot in common with each other.,common
3544.9,,,html-slider-response,445,2113190,0.0-24.0-1.0-0.9,12155,List1A,black,man,,,,,,,,survey_gender,100,,,I consider myself a highly empathetic person.,filler
3346.8,,,html-slider-response,446,2116540,0.0-24.0-1.0-0.10,12155,List1A,black,man,,,,,,,,survey_gender,100,,,I often think about my actions.,filler
2578.4,,,html-slider-response,447,2119120,0.0-24.0-1.0-0.11,12155,List1A,black,man,,,,,,,,survey_gender,100,,,I feel solidarity with my gender.,solidarity
2295.9,,,html-slider-response,448,2121417,0.0-24.0-1.0-0.12,12155,List1A,black,man,,,,,,,,survey_gender,100,,,I feel a bond with my gender.,bond
3008,,,html-slider-response,449,2124427,0.0-24.0-1.0-0.13,12155,List1A,black,man,,,,,,,,survey_gender,100,,,I am glad to be my gender.,glad
2884.2,,,html-slider-response,450,2127313,0.0-24.0-1.0-0.14,12155,List1A,black,man,,,,,,,,survey_gender,100,,,Being my gender gives me a good feeling.,feeling
4792.1,,,html-slider-response,451,2132108,0.0-24.0-1.0-0.15,12155,List1A,black,man,,,,,,,,survey_gender,17,,,The fact that I am my gender is an important part of my identity.,identity
4144.8,,,html-slider-response,452,2136255,0.0-24.0-1.0-0.16,12155,List1A,black,man,,,,,,,,survey_gender,0,,,Family is not more important to me than friendship.,filler
3870.5,,,html-slider-response,453,2140127,0.0-24.0-1.0-0.17,12155,List1A,black,man,,,,,,,,survey_gender,100,,,Being around my friends gives me a good feeling.,filler
3688.1,,,html-slider-response,454,2143818,0.0-24.0-1.0-0.18,12155,List1A,black,man,,,,,,,,survey_gender,100,,,I feel solidarity with my friends.,filler
3473.4,,,html-slider-response,455,2147294,0.0-24.0-1.0-0.19,12155,List1A,black,man,,,,,,,,survey_gender,10,,,I have a lot in common with my friends.,filler
8520.6,,,html-slider-response,456,2155817,0.0-24.0-1.0-0.20,12155,List1A,black,man,,,,,,,,survey_gender,78,,,Most of the friends in my life are very similar to me.,filler
2849,,,html-slider-response,457,2158669,0.0-24.0-1.0-0.21,12155,List1A,black,man,,,,,,,,survey_gender,92,,,It is pleasant to be my gender.,pleasant
4698.7,,,html-slider-response,458,2163370,0.0-24.0-1.0-0.22,12155,List1A,black,man,,,,,,,,survey_gender,9,,,Routine is not important to me.,filler
3146.9,,,html-slider-response,459,2166519,0.0-24.0-1.0-0.23,12155,List1A,black,man,,,,,,,,survey_gender,100,,,I am glad to have the friends that I have.,filler
3294.6,,,html-slider-response,460,2169816,0.0-24.0-1.0-0.24,12155,List1A,black,man,,,,,,,,survey_gender,100,,,I feel a bond with my friends.,filler
4044.4,,,html-slider-response,461,2173862,0.0-24.0-1.0-0.25,12155,List1A,black,man,,,,,,,,survey_gender,100,,,I feel committed to my gender.,committed
3745.6,,,html-slider-response,462,2177610,0.0-24.0-1.0-0.26,12155,List1A,black,man,,,,,,,,survey_gender,29,,,People of my gender are very similar to each other.,verysimilar
3329.5,,,html-slider-response,463,2180941,0.0-24.0-1.0-0.27,12155,List1A,black,man,,,,,,,,survey_gender,2,,,I often think about the fact that I am my gender.,often
72543.4,,,survey-text,464,2253489,0.0-25.0,12155,List1A,black,man,,,,,"{""Q0"":""ccc""}",,,worker_id,,,,,
5906.4,,,external-html,465,2261435,0.0-26.0,12155,List1A,black,man,debrief.html,,,,,,,,,,,,
