"rt","stimulus","button_pressed","trial_type","trial_index","time_elapsed","internal_node_id","subject","list","ppt_race","ppt_gender","url","first_guess","correct","key_press","responses","image_type","phrase_type","test_part","response","stimulus1","stimulus2","question_type","survey_item"
"3057.0999999046326","Welcome to the experiment. Press Continue to begin.","0","html-button-response","0","3060","0.0-0.0","1319","List2B","black","man","","","","","","","","","","","","",""
"171309.5","","","external-html","1","175487","0.0-1.0","1319","List2B","black","man","consent.html","","","","","","","","","","","",""
"19380.89999985695","<p>On the next page, you will see portraits of 8 people and their names.</p><p>Your first task is to take a few minutes to memorise the names of these people.</p><p>You will have to recall their names during the rest of the experiment, so it is</p><p>essential that you try to memorise these people and their names as best as you can.</p><br><p><strong>You will then be tested on your memory of these names and portraits.</strong></p><br><p>The experiment will start after you have completed this memory test.</p><br><p>Ready?</p>","0","html-button-response","2","194869","0.0-2.0","1319","List2B","black","man","","","","","","","","","","","","",""
"140499.59999990463","<img src='img/portrait_matrix_list2.jpg' style='width:900px;height:500px;''></img><p>If you have memorised all the portraits and names and are ready to start, press Continue.</p><p><strong>Please note: Your memory of these faces will be tested 4 times during this experiment.</strong></p>","0","html-button-response","3","336375","0.0-3.0-0.0","1319","List2B","black","man","","","","","","","","","","","","",""
"16488.10000014305","<img src=""portrait/BW2.jpg""style=""height:400px;""></img>","2","html-button-response","4","353869","0.0-3.0-1.0","1319","List2B","black","man","","true","2","","","","","","","","","",""
"null","CORRECT","","html-keyboard-response","5","355392","0.0-3.0-2.0-0.0","1319","List2B","black","man","","","","null","","","","","","","","",""
"11389.199999809265","<img src=""portrait/WM2.jpg""style=""height:400px;""></img>","7","html-button-response","6","366783","0.0-3.0-4.0","1319","List2B","black","man","","true","7","","","","","","","","","",""
"null","CORRECT","","html-keyboard-response","7","368308","0.0-3.0-5.0-0.0","1319","List2B","black","man","","","","null","","","","","","","","",""
"23601.5","<img src=""portrait/WW2.jpg""style=""height:400px;""></img>","3","html-button-response","8","391912","0.0-3.0-7.0","1319","List2B","black","man","","true","3","","","","","","","","","",""
"null","CORRECT","","html-keyboard-response","9","393434","0.0-3.0-8.0-0.0","1319","List2B","black","man","","","","null","","","","","","","","",""
"13209","<img src=""portrait/WW1.jpg""style=""height:400px;""></img>","1","html-button-response","10","406644","0.0-3.0-10.0","1319","List2B","black","man","","true","1","","","","","","","","","",""
"null","CORRECT","","html-keyboard-response","11","408168","0.0-3.0-11.0-0.0","1319","List2B","black","man","","","","null","","","","","","","","",""
"9390.200000047684","<img src=""portrait/BW1.jpg""style=""height:400px;""></img>","0","html-button-response","12","417560","0.0-3.0-13.0","1319","List2B","black","man","","true","0","","","","","","","","","",""
"null","CORRECT","","html-keyboard-response","13","419084","0.0-3.0-14.0-0.0","1319","List2B","black","man","","","","null","","","","","","","","",""
"14568.600000143051","<img src=""portrait/WM1.jpg""style=""height:400px;""></img>","6","html-button-response","14","433655","0.0-3.0-16.0","1319","List2B","black","man","","true","6","","","","","","","","","",""
"null","CORRECT","","html-keyboard-response","15","435181","0.0-3.0-17.0-0.0","1319","List2B","black","man","","","","null","","","","","","","","",""
"11939.299999952316","<img src=""portrait/BM2.jpg""style=""height:400px;""></img>","5","html-button-response","16","447123","0.0-3.0-19.0","1319","List2B","black","man","","true","5","","","","","","","","","",""
"null","CORRECT","","html-keyboard-response","17","448643","0.0-3.0-20.0-0.0","1319","List2B","black","man","","","","null","","","","","","","","",""
"20667.700000047684","<img src=""portrait/BM1.jpg""style=""height:400px;""></img>","4","html-button-response","18","469313","0.0-3.0-22.0","1319","List2B","black","man","","true","4","","","","","","","","","",""
"null","CORRECT","","html-keyboard-response","19","470845","0.0-3.0-23.0-0.0","1319","List2B","black","man","","","","null","","","","","","","","",""
"6581.700000047684","<p>You got 8 out of 8 right first time. Press Continue.</p>","0","html-button-response","20","477429","0.0-3.0-25.0","1319","List2B","black","man","","","","","","","","","","","","",""
"75111","<p>In this experiment, you will view photographs of the people from the memory game interacting.</p><p>By using the <strong>exact</strong> phrase given <i>after</i> the photograph appears and recalling the correct names of the people in the photographs, form a sentence describing the interaction. You do not need to capitalise names.</p><p>Type your answer in the space provided. Please complete every sentence before moving onto the next trial.</p><p>You will only have a few seconds to memorise each given photograph and phrase before you can respond, so try your best to focus.</p><p>An example is given below. Press 'Continue' when you are ready.</p><img src='img/speaking_example.jpg' style='width:800px;height:460px;''></img>","0","html-button-response","21","553559","0.0-4.0","1319","List2B","black","man","","","","","","","","","","","","",""
"4451.800000190735","<p>Before the experiment starts, you will watch two example trials. Press 'Continue'.</p>","0","html-button-response","22","559021","0.0-5.0","1319","List2B","black","man","","","","","","","","","","","","",""
"null","<img src='img/play_eg.gif' style='height:400px;''></img>","","html-keyboard-response","23","562052","0.0-6.0","1319","List2B","black","man","","","","null","","","","","","","","",""
"null","<p>is playing with</p>","","html-keyboard-response","24","564052","0.0-7.0","1319","List2B","black","man","","","","null","","","","","","","","",""
"74007","<p><b>Answer:</b> jane is playing with ruth</p>","0","html-button-response","25","638060","0.0-8.0","1319","List2B","black","man","","","","","","","","","","","","",""
"null","<img src='img/dance_eg.gif' style='height:400px;''></img>","","html-keyboard-response","26","641078","0.0-9.0","1319","List2B","black","man","","","","null","","","","","","","","",""
"null","<p>is being entertained by</p>","","html-keyboard-response","27","643081","0.0-10.0","1319","List2B","black","man","","","","null","","","","","","","","",""
"8104.199999809265","<p><b>Answer:</b> fred is being entertained by mike</p>","0","html-button-response","28","651186","0.0-11.0","1319","List2B","black","man","","","","","","","","","","","","",""
"9901.099999904633","<p>Ready to start the experiment?</p><br><p><strong>Remember to describe the picture using a full sentence,</strong></p><p><strong>that combines the names of the people with the <i>exact</i> phrase given.</strong></p><p><strong>To receive full payment you must do this correctly.</strong></p><p><strong> You do not need to capitalise names or use punctuation.</strong></p><br><p>Press 'Continue' to begin.</p>","0","html-button-response","29","662094","0.0-12.0","1319","List2B","black","man","","","","","","","","","","","","",""
"null","<div style=""font-size:60px;"">+</div>","","html-keyboard-response","30","663622","0.0-13.0-0.0","1319","List2B","black","man","","","","null","","","","","","","","",""
"null","<img src=""stim_listB/copy6.gif""style=""height:400px;""></stim_listB>","","html-keyboard-response","31","665639","0.0-13.0-1.0","1319","List2B","black","man","","","","null","","","","","","","","",""
"null","is being copied by","","html-keyboard-response","32","667643","0.0-13.0-2.0","1319","List2B","black","man","","","","null","","","","","","","","",""
"23426","","","survey-text","33","691072","0.0-13.0-3.0","1319","List2B","black","man","","","","","{""Q0"":""luke is being copied by mike""}","<img src=""stim_listB/copy6.gif""style=""height:400px;""></stim_listB>","is being copied by","","","","","",""
"null","<div style=""font-size:60px;"">+</div>","","html-keyboard-response","34","691587","0.0-13.0-0.1","1319","List2B","black","man","","","","null","","","","","","","","",""
"null","<img src=""stim_listB/look5.gif""style=""height:400px;""></stim_listB>","","html-keyboard-response","35","693589","0.0-13.0-1.1","1319","List2B","black","man","","","","null","","","","","","","","",""
"null","is looking at","","html-keyboard-response","36","695594","0.0-13.0-2.1","1319","List2B","black","man","","","","null","","","","","","","","",""
"15463.400000095367","","","survey-text","37","711059","0.0-13.0-3.1","1319","List2B","black","man","","","","","{""Q0"":""luke is looking at fred""}","<img src=""stim_listB/look5.gif""style=""height:400px;""></stim_listB>","is looking at","","","","","",""
"null","<div style=""font-size:60px;"">+</div>","","html-keyboard-response","38","711567","0.0-13.0-0.2","1319","List2B","black","man","","","","null","","","","","","","","",""
"null","<img src=""stim_listB/hug8.gif""style=""height:400px;""></stim_listB>","","html-keyboard-response","39","713584","0.0-13.0-1.2","1319","List2B","black","man","","","","null","","","","","","","","",""
"null","is being hugged by","","html-keyboard-response","40","715597","0.0-13.0-2.2","1319","List2B","black","man","","","","null","","","","","","","","",""
"28661.700000047684","","","survey-text","41","744262","0.0-13.0-3.2","1319","List2B","black","man","","","","","{""Q0"":""kate is being hugged by jane""}","<img src=""stim_listB/hug8.gif""style=""height:400px;""></stim_listB>","is being hugged by","","","","","",""
"null","<div style=""font-size:60px;"">+</div>","","html-keyboard-response","42","744765","0.0-13.0-0.3","1319","List2B","black","man","","","","null","","","","","","","","",""
"null","<img src=""stim_listB/greet3.gif""style=""height:400px;""></stim_listB>","","html-keyboard-response","43","746774","0.0-13.0-1.3","1319","List2B","black","man","","","","null","","","","","","","","",""
"null","is greeting","","html-keyboard-response","44","748779","0.0-13.0-2.3","1319","List2B","black","man","","","","null","","","","","","","","",""
"19221.400000095367","","","survey-text","45","768004","0.0-13.0-3.3","1319","List2B","black","man","","","","","{""Q0"":""beth is greeting mike""}","<img src=""stim_listB/greet3.gif""style=""height:400px;""></stim_listB>","is greeting","","","","","",""
"null","<div style=""font-size:60px;"">+</div>","","html-keyboard-response","46","768511","0.0-13.0-0.4","1319","List2B","black","man","","","","null","","","","","","","","",""
"null","<img src=""stim_listB/greet5.gif""style=""height:400px;""></stim_listB>","","html-keyboard-response","47","770528","0.0-13.0-1.4","1319","List2B","black","man","","","","null","","","","","","","","",""
"null","is greeting","","html-keyboard-response","48","772545","0.0-13.0-2.4","1319","List2B","black","man","","","","null","","","","","","","","",""
"21170.799999952316","","","survey-text","49","793719","0.0-13.0-3.4","1319","List2B","black","man","","","","","{""Q0"":""dave is greeting fred""}","<img src=""stim_listB/greet5.gif""style=""height:400px;""></stim_listB>","is greeting","","","","","",""
"null","<div style=""font-size:60px;"">+</div>","","html-keyboard-response","50","794225","0.0-13.0-0.5","1319","List2B","black","man","","","","null","","","","","","","","",""
"null","<img src=""stim_listB/look7.gif""style=""height:400px;""></stim_listB>","","html-keyboard-response","51","796241","0.0-13.0-1.5","1319","List2B","black","man","","","","null","","","","","","","","",""
"null","is looking at","","html-keyboard-response","52","798251","0.0-13.0-2.5","1319","List2B","black","man","","","","null","","","","","","","","",""
"16894.200000047684","","","survey-text","53","815148","0.0-13.0-3.5","1319","List2B","black","man","","","","","{""Q0"":""jane is looking at beth""}","<img src=""stim_listB/look7.gif""style=""height:400px;""></stim_listB>","is looking at","","","","","",""
"null","<div style=""font-size:60px;"">+</div>","","html-keyboard-response","54","815660","0.0-13.0-0.6","1319","List2B","black","man","","","","null","","","","","","","","",""
"null","<img src=""stim_listB/seduce1.gif""style=""height:400px;""></stim_listB>","","html-keyboard-response","55","817675","0.0-13.0-1.6","1319","List2B","black","man","","","","null","","","","","","","","",""
"null","is seducing","","html-keyboard-response","56","819689","0.0-13.0-2.6","1319","List2B","black","man","","","","null","","","","","","","","",""
"21602.299999952316","","","survey-text","57","841296","0.0-13.0-3.6","1319","List2B","black","man","","","","","{""Q0"":""luke is seducing jane""}","<img src=""stim_listB/seduce1.gif""style=""height:400px;""></stim_listB>","is seducing","","","","","",""
"null","<div style=""font-size:60px;"">+</div>","","html-keyboard-response","58","841806","0.0-13.0-0.7","1319","List2B","black","man","","","","null","","","","","","","","",""
"null","<img src=""stim_listB/seduce6.gif""style=""height:400px;""></stim_listB>","","html-keyboard-response","59","843819","0.0-13.0-1.7","1319","List2B","black","man","","","","null","","","","","","","","",""
"null","is being seduced by","","html-keyboard-response","60","845821","0.0-13.0-2.7","1319","List2B","black","man","","","","null","","","","","","","","",""
"26165.60000014305","","","survey-text","61","871991","0.0-13.0-3.7","1319","List2B","black","man","","","","","{""Q0"":""fred is being seduced by dave""}","<img src=""stim_listB/seduce6.gif""style=""height:400px;""></stim_listB>","is being seduced by","","","","","",""
"null","<div style=""font-size:60px;"">+</div>","","html-keyboard-response","62","872501","0.0-13.0-0.8","1319","List2B","black","man","","","","null","","","","","","","","",""
"null","<img src=""stim_listB/touch4.gif""style=""height:400px;""></stim_listB>","","html-keyboard-response","63","874505","0.0-13.0-1.8","1319","List2B","black","man","","","","null","","","","","","","","",""
"null","is being touched by","","html-keyboard-response","64","876521","0.0-13.0-2.8","1319","List2B","black","man","","","","null","","","","","","","","",""
"23969.099999904633","","","survey-text","65","900494","0.0-13.0-3.8","1319","List2B","black","man","","","","","{""Q0"":""beth is being touched by fred""}","<img src=""stim_listB/touch4.gif""style=""height:400px;""></stim_listB>","is being touched by","","","","","",""
"null","<div style=""font-size:60px;"">+</div>","","html-keyboard-response","66","900998","0.0-13.0-0.9","1319","List2B","black","man","","","","null","","","","","","","","",""
"null","<img src=""stim_listB/oppose3.gif""style=""height:400px;""></stim_listB>","","html-keyboard-response","67","903013","0.0-13.0-1.9","1319","List2B","black","man","","","","null","","","","","","","","",""
"null","is opposing","","html-keyboard-response","68","905029","0.0-13.0-2.9","1319","List2B","black","man","","","","null","","","","","","","","",""
"27366.599999904633","","","survey-text","69","932399","0.0-13.0-3.9","1319","List2B","black","man","","","","","{""Q0"":""mike is opposing kate""}","<img src=""stim_listB/oppose3.gif""style=""height:400px;""></stim_listB>","is opposing","","","","","",""
"null","<div style=""font-size:60px;"">+</div>","","html-keyboard-response","70","932913","0.0-13.0-0.10","1319","List2B","black","man","","","","null","","","","","","","","",""
"null","<img src=""stim_listB/touch5.gif""style=""height:400px;""></stim_listB>","","html-keyboard-response","71","934918","0.0-13.0-1.10","1319","List2B","black","man","","","","null","","","","","","","","",""
"null","is touching","","html-keyboard-response","72","936930","0.0-13.0-2.10","1319","List2B","black","man","","","","null","","","","","","","","",""
"25788.799999952316","","","survey-text","73","962722","0.0-13.0-3.10","1319","List2B","black","man","","","","","{""Q0"":""mike is touching dave""}","<img src=""stim_listB/touch5.gif""style=""height:400px;""></stim_listB>","is touching","","","","","",""
"null","<div style=""font-size:60px;"">+</div>","","html-keyboard-response","74","963224","0.0-13.0-0.11","1319","List2B","black","man","","","","null","","","","","","","","",""
"null","<img src=""stim_listB/copy2.gif""style=""height:400px;""></stim_listB>","","html-keyboard-response","75","965238","0.0-13.0-1.11","1319","List2B","black","man","","","","null","","","","","","","","",""
"null","is being copied by","","html-keyboard-response","76","967255","0.0-13.0-2.11","1319","List2B","black","man","","","","null","","","","","","","","",""
"43945.5","","","survey-text","77","1011204","0.0-13.0-3.11","1319","List2B","black","man","","","","","{""Q0"":""luke is being copied by jane""}","<img src=""stim_listB/copy2.gif""style=""height:400px;""></stim_listB>","is being copied by","","","","","",""
"null","<div style=""font-size:60px;"">+</div>","","html-keyboard-response","78","1011716","0.0-13.0-0.12","1319","List2B","black","man","","","","null","","","","","","","","",""
"null","<img src=""stim_listB/seduce5.gif""style=""height:400px;""></stim_listB>","","html-keyboard-response","79","1013735","0.0-13.0-1.12","1319","List2B","black","man","","","","null","","","","","","","","",""
"null","is seducing","","html-keyboard-response","80","1015738","0.0-13.0-2.12","1319","List2B","black","man","","","","null","","","","","","","","",""
"24393.599999904633","","","survey-text","81","1040135","0.0-13.0-3.12","1319","List2B","black","man","","","","","{""Q0"":""luke is seducing mike""}","<img src=""stim_listB/seduce5.gif""style=""height:400px;""></stim_listB>","is seducing","","","","","",""
"null","<div style=""font-size:60px;"">+</div>","","html-keyboard-response","82","1040648","0.0-13.0-0.13","1319","List2B","black","man","","","","null","","","","","","","","",""
"null","<img src=""stim_listB/kiss5.gif""style=""height:400px;""></stim_listB>","","html-keyboard-response","83","1042663","0.0-13.0-1.13","1319","List2B","black","man","","","","null","","","","","","","","",""
"null","is kissing","","html-keyboard-response","84","1044665","0.0-13.0-2.13","1319","List2B","black","man","","","","null","","","","","","","","",""
"12065.099999904633","","","survey-text","85","1056733","0.0-13.0-3.13","1319","List2B","black","man","","","","","{""Q0"":""luke is kissing fred""}","<img src=""stim_listB/kiss5.gif""style=""height:400px;""></stim_listB>","is kissing","","","","","",""
"null","<div style=""font-size:60px;"">+</div>","","html-keyboard-response","86","1057246","0.0-13.0-0.14","1319","List2B","black","man","","","","null","","","","","","","","",""
"null","<img src=""stim_listB/challenge8.gif""style=""height:400px;""></stim_listB>","","html-keyboard-response","87","1059261","0.0-13.0-1.14","1319","List2B","black","man","","","","null","","","","","","","","",""
"null","is being challenged by","","html-keyboard-response","88","1061265","0.0-13.0-2.14","1319","List2B","black","man","","","","null","","","","","","","","",""
"25728.800000190735","","","survey-text","89","1086998","0.0-13.0-3.14","1319","List2B","black","man","","","","","{""Q0"":""ruth is being challenged by kate""}","<img src=""stim_listB/challenge8.gif""style=""height:400px;""></stim_listB>","is being challenged by","","","","","",""
"null","<div style=""font-size:60px;"">+</div>","","html-keyboard-response","90","1087509","0.0-13.0-0.15","1319","List2B","black","man","","","","null","","","","","","","","",""
"null","<img src=""stim_listB/greet8.gif""style=""height:400px;""></stim_listB>","","html-keyboard-response","91","1089525","0.0-13.0-1.15","1319","List2B","black","man","","","","null","","","","","","","","",""
"null","is being greeted by","","html-keyboard-response","92","1091542","0.0-13.0-2.15","1319","List2B","black","man","","","","null","","","","","","","","",""
"18737","","","survey-text","93","1110282","0.0-13.0-3.15","1319","List2B","black","man","","","","","{""Q0"":""ruth is being greeted by kate""}","<img src=""stim_listB/greet8.gif""style=""height:400px;""></stim_listB>","is being greeted by","","","","","",""
"null","<div style=""font-size:60px;"">+</div>","","html-keyboard-response","94","1110790","0.0-13.0-0.16","1319","List2B","black","man","","","","null","","","","","","","","",""
"null","<img src=""stim_listB/challenge7.gif""style=""height:400px;""></stim_listB>","","html-keyboard-response","95","1112795","0.0-13.0-1.16","1319","List2B","black","man","","","","null","","","","","","","","",""
"null","is challenging","","html-keyboard-response","96","1114799","0.0-13.0-2.16","1319","List2B","black","man","","","","null","","","","","","","","",""
"23982.5","","","survey-text","97","1138785","0.0-13.0-3.16","1319","List2B","black","man","","","","","{""Q0"":""beth is challenging jane""}","<img src=""stim_listB/challenge7.gif""style=""height:400px;""></stim_listB>","is challenging","","","","","",""
"null","<div style=""font-size:60px;"">+</div>","","html-keyboard-response","98","1139288","0.0-13.0-0.17","1319","List2B","black","man","","","","null","","","","","","","","",""
"null","<img src=""stim_listB/challenge5.gif""style=""height:400px;""></stim_listB>","","html-keyboard-response","99","1141303","0.0-13.0-1.17","1319","List2B","black","man","","","","null","","","","","","","","",""
"null","is challenging","","html-keyboard-response","100","1143314","0.0-13.0-2.17","1319","List2B","black","man","","","","null","","","","","","","","",""
"16345.400000095367","","","survey-text","101","1159663","0.0-13.0-3.17","1319","List2B","black","man","","","","","{""Q0"":""dave is challenging fred""}","<img src=""stim_listB/challenge5.gif""style=""height:400px;""></stim_listB>","is challenging","","","","","",""
"null","<div style=""font-size:60px;"">+</div>","","html-keyboard-response","102","1160170","0.0-13.0-0.18","1319","List2B","black","man","","","","null","","","","","","","","",""
"null","<img src=""stim_listB/touch3.gif""style=""height:400px;""></stim_listB>","","html-keyboard-response","103","1162184","0.0-13.0-1.18","1319","List2B","black","man","","","","null","","","","","","","","",""
"null","is touching","","html-keyboard-response","104","1164200","0.0-13.0-2.18","1319","List2B","black","man","","","","null","","","","","","","","",""
"26111","","","survey-text","105","1190314","0.0-13.0-3.18","1319","List2B","black","man","","","","","{""Q0"":""mike is touching kate""}","<img src=""stim_listB/touch3.gif""style=""height:400px;""></stim_listB>","is touching","","","","","",""
"null","<div style=""font-size:60px;"">+</div>","","html-keyboard-response","106","1190831","0.0-13.0-0.19","1319","List2B","black","man","","","","null","","","","","","","","",""
"null","<img src=""stim_listB/hug5.gif""style=""height:400px;""></stim_listB>","","html-keyboard-response","107","1192848","0.0-13.0-1.19","1319","List2B","black","man","","","","null","","","","","","","","",""
"null","is hugging","","html-keyboard-response","108","1194864","0.0-13.0-2.19","1319","List2B","black","man","","","","null","","","","","","","","",""
"15975.200000047684","","","survey-text","109","1210842","0.0-13.0-3.19","1319","List2B","black","man","","","","","{""Q0"":""luke is hugging fred""}","<img src=""stim_listB/hug5.gif""style=""height:400px;""></stim_listB>","is hugging","","","","","",""
"66219.5","<img src='img/portrait_matrix_list2.jpg' style='width:900px;height:500px;''></img><p>If you have memorised all the portraits and names and are ready to start, press Continue.</p><p><strong>Please note: Your memory of these faces will be tested 4 times during this experiment.</strong></p>","0","html-button-response","110","1277064","0.0-14.0-0.0","1319","List2B","black","man","","","","","","","","","","","","",""
"6024.100000143051","<img src=""portrait/BW1.jpg""style=""height:400px;""></img>","0","html-button-response","111","1284098","0.0-14.0-1.0","1319","List2B","black","man","","true","0","","","","","","","","","",""
"null","CORRECT","","html-keyboard-response","112","1285620","0.0-14.0-2.0-0.0","1319","List2B","black","man","","","","null","","","","","","","","",""
"5070.799999952316","<img src=""portrait/BW2.jpg""style=""height:400px;""></img>","2","html-button-response","113","1290693","0.0-14.0-4.0","1319","List2B","black","man","","true","2","","","","","","","","","",""
"null","CORRECT","","html-keyboard-response","114","1292205","0.0-14.0-5.0-0.0","1319","List2B","black","man","","","","null","","","","","","","","",""
"11148.900000095367","<img src=""portrait/WW2.jpg""style=""height:400px;""></img>","3","html-button-response","115","1303356","0.0-14.0-7.0","1319","List2B","black","man","","true","3","","","","","","","","","",""
"null","CORRECT","","html-keyboard-response","116","1304885","0.0-14.0-8.0-0.0","1319","List2B","black","man","","","","null","","","","","","","","",""
"3873.5","<img src=""portrait/WM2.jpg""style=""height:400px;""></img>","7","html-button-response","117","1308761","0.0-14.0-10.0","1319","List2B","black","man","","true","7","","","","","","","","","",""
"null","CORRECT","","html-keyboard-response","118","1310284","0.0-14.0-11.0-0.0","1319","List2B","black","man","","","","null","","","","","","","","",""
"4526.5","<img src=""portrait/WM1.jpg""style=""height:400px;""></img>","6","html-button-response","119","1314813","0.0-14.0-13.0","1319","List2B","black","man","","true","6","","","","","","","","","",""
"null","CORRECT","","html-keyboard-response","120","1316334","0.0-14.0-14.0-0.0","1319","List2B","black","man","","","","null","","","","","","","","",""
"11378.399999856949","<img src=""portrait/WW1.jpg""style=""height:400px;""></img>","1","html-button-response","121","1327714","0.0-14.0-16.0","1319","List2B","black","man","","true","1","","","","","","","","","",""
"null","CORRECT","","html-keyboard-response","122","1329233","0.0-14.0-17.0-0.0","1319","List2B","black","man","","","","null","","","","","","","","",""
"3036.2000000476837","<img src=""portrait/BM1.jpg""style=""height:400px;""></img>","4","html-button-response","123","1332272","0.0-14.0-19.0","1319","List2B","black","man","","true","4","","","","","","","","","",""
"null","CORRECT","","html-keyboard-response","124","1333802","0.0-14.0-20.0-0.0","1319","List2B","black","man","","","","null","","","","","","","","",""
"5479.900000095367","<img src=""portrait/BM2.jpg""style=""height:400px;""></img>","5","html-button-response","125","1339284","0.0-14.0-22.0","1319","List2B","black","man","","true","5","","","","","","","","","",""
"null","CORRECT","","html-keyboard-response","126","1340814","0.0-14.0-23.0-0.0","1319","List2B","black","man","","","","null","","","","","","","","",""
"3903.600000143051","<p>You got 8 out of 8 right first time. Press Continue.</p>","0","html-button-response","127","1344721","0.0-14.0-25.0","1319","List2B","black","man","","","","","","","","","","","","",""
"null","<div style=""font-size:60px;"">+</div>","","html-keyboard-response","128","1346242","0.0-15.0-0.0","1319","List2B","black","man","","","","null","","","","","","","","",""
"null","<img src=""stim_listB/seduce4.gif""style=""height:400px;""></stim_listB>","","html-keyboard-response","129","1348249","0.0-15.0-1.0","1319","List2B","black","man","","","","null","","","","","","","","",""
"null","is being seduced by","","html-keyboard-response","130","1350266","0.0-15.0-2.0","1319","List2B","black","man","","","","null","","","","","","","","",""
"17706.200000047684","","","survey-text","131","1367976","0.0-15.0-3.0","1319","List2B","black","man","","","","","{""Q0"":""beth is being seduced by mike""}","<img src=""stim_listB/seduce4.gif""style=""height:400px;""></stim_listB>","is being seduced by","","","","","",""
"null","<div style=""font-size:60px;"">+</div>","","html-keyboard-response","132","1368479","0.0-15.0-0.1","1319","List2B","black","man","","","","null","","","","","","","","",""
"null","<img src=""stim_listB/shout2.gif""style=""height:400px;""></stim_listB>","","html-keyboard-response","133","1370494","0.0-15.0-1.1","1319","List2B","black","man","","","","null","","","","","","","","",""
"null","is being shouted at by","","html-keyboard-response","134","1372511","0.0-15.0-2.1","1319","List2B","black","man","","","","null","","","","","","","","",""
"18508.700000047684","","","survey-text","135","1391023","0.0-15.0-3.1","1319","List2B","black","man","","","","","{""Q0"":""dave is being shouted at by jane""}","<img src=""stim_listB/shout2.gif""style=""height:400px;""></stim_listB>","is being shouted at by","","","","","",""
"null","<div style=""font-size:60px;"">+</div>","","html-keyboard-response","136","1391526","0.0-15.0-0.2","1319","List2B","black","man","","","","null","","","","","","","","",""
"null","<img src=""stim_listB/hug7.gif""style=""height:400px;""></stim_listB>","","html-keyboard-response","137","1393541","0.0-15.0-1.2","1319","List2B","black","man","","","","null","","","","","","","","",""
"null","is hugging","","html-keyboard-response","138","1395544","0.0-15.0-2.2","1319","List2B","black","man","","","","null","","","","","","","","",""
"15548.700000047684","","","survey-text","139","1411096","0.0-15.0-3.2","1319","List2B","black","man","","","","","{""Q0"":""beth is hugging ruth""}","<img src=""stim_listB/hug7.gif""style=""height:400px;""></stim_listB>","is hugging","","","","","",""
"null","<div style=""font-size:60px;"">+</div>","","html-keyboard-response","140","1411600","0.0-15.0-0.3","1319","List2B","black","man","","","","null","","","","","","","","",""
"null","<img src=""stim_listB/oppose5.gif""style=""height:400px;""></stim_listB>","","html-keyboard-response","141","1413617","0.0-15.0-1.3","1319","List2B","black","man","","","","null","","","","","","","","",""
"null","is opposing","","html-keyboard-response","142","1415633","0.0-15.0-2.3","1319","List2B","black","man","","","","null","","","","","","","","",""
"14078.700000047684","","","survey-text","143","1429717","0.0-15.0-3.3","1319","List2B","black","man","","","","","{""Q0"":""mike is opposing dave""}","<img src=""stim_listB/oppose5.gif""style=""height:400px;""></stim_listB>","is opposing","","","","","",""
"null","<div style=""font-size:60px;"">+</div>","","html-keyboard-response","144","1430224","0.0-15.0-0.4","1319","List2B","black","man","","","","null","","","","","","","","",""
"null","<img src=""stim_listB/kiss4.gif""style=""height:400px;""></stim_listB>","","html-keyboard-response","145","1432237","0.0-15.0-1.4","1319","List2B","black","man","","","","null","","","","","","","","",""
"null","is being kissed by","","html-keyboard-response","146","1434254","0.0-15.0-2.4","1319","List2B","black","man","","","","null","","","","","","","","",""
"17613","","","survey-text","147","1451871","0.0-15.0-3.4","1319","List2B","black","man","","","","","{""Q0"":""mike is being kissed by kate""}","<img src=""stim_listB/kiss4.gif""style=""height:400px;""></stim_listB>","is being kissed by","","","","","",""
"null","<div style=""font-size:60px;"">+</div>","","html-keyboard-response","148","1452384","0.0-15.0-0.5","1319","List2B","black","man","","","","null","","","","","","","","",""
"null","<img src=""stim_listB/kiss8.gif""style=""height:400px;""></stim_listB>","","html-keyboard-response","149","1454402","0.0-15.0-1.5","1319","List2B","black","man","","","","null","","","","","","","","",""
"null","is being kissed by","","html-keyboard-response","150","1456405","0.0-15.0-2.5","1319","List2B","black","man","","","","null","","","","","","","","",""
"16628.699999809265","","","survey-text","151","1473038","0.0-15.0-3.5","1319","List2B","black","man","","","","","{""Q0"":""kate is being kissed by jane""}","<img src=""stim_listB/kiss8.gif""style=""height:400px;""></stim_listB>","is being kissed by","","","","","",""
"null","<div style=""font-size:60px;"">+</div>","","html-keyboard-response","152","1473541","0.0-15.0-0.6","1319","List2B","black","man","","","","null","","","","","","","","",""
"null","<img src=""stim_listB/touch7.gif""style=""height:400px;""></stim_listB>","","html-keyboard-response","153","1475546","0.0-15.0-1.6","1319","List2B","black","man","","","","null","","","","","","","","",""
"null","is touching","","html-keyboard-response","154","1477555","0.0-15.0-2.6","1319","List2B","black","man","","","","null","","","","","","","","",""
"17485.60000014305","","","survey-text","155","1495045","0.0-15.0-3.6","1319","List2B","black","man","","","","","{""Q0"":""kate is touching jane""}","<img src=""stim_listB/touch7.gif""style=""height:400px;""></stim_listB>","is touching","","","","","",""
"null","<div style=""font-size:60px;"">+</div>","","html-keyboard-response","156","1495549","0.0-15.0-0.7","1319","List2B","black","man","","","","null","","","","","","","","",""
"null","<img src=""stim_listB/oppose6.gif""style=""height:400px;""></stim_listB>","","html-keyboard-response","157","1497564","0.0-15.0-1.7","1319","List2B","black","man","","","","null","","","","","","","","",""
"null","is being opposed by","","html-keyboard-response","158","1499580","0.0-15.0-2.7","1319","List2B","black","man","","","","null","","","","","","","","",""
"13767.600000143051","","","survey-text","159","1513351","0.0-15.0-3.7","1319","List2B","black","man","","","","","{""Q0"":""fred is being opposed by luke""}","<img src=""stim_listB/oppose6.gif""style=""height:400px;""></stim_listB>","is being opposed by","","","","","",""
"null","<div style=""font-size:60px;"">+</div>","","html-keyboard-response","160","1513862","0.0-15.0-0.8","1319","List2B","black","man","","","","null","","","","","","","","",""
"null","<img src=""stim_listB/look8.gif""style=""height:400px;""></stim_listB>","","html-keyboard-response","161","1515879","0.0-15.0-1.8","1319","List2B","black","man","","","","null","","","","","","","","",""
"null","is being looked at by","","html-keyboard-response","162","1517893","0.0-15.0-2.8","1319","List2B","black","man","","","","null","","","","","","","","",""
"17020.200000047684","","","survey-text","163","1534920","0.0-15.0-3.8","1319","List2B","black","man","","","","","{""Q0"":""kate is being looked at by jane""}","<img src=""stim_listB/look8.gif""style=""height:400px;""></stim_listB>","is being looked at by","","","","","",""
"null","<div style=""font-size:60px;"">+</div>","","html-keyboard-response","164","1535430","0.0-15.0-0.9","1319","List2B","black","man","","","","null","","","","","","","","",""
"null","<img src=""stim_listB/oppose7.gif""style=""height:400px;""></stim_listB>","","html-keyboard-response","165","1537446","0.0-15.0-1.9","1319","List2B","black","man","","","","null","","","","","","","","",""
"null","is opposing","","html-keyboard-response","166","1539459","0.0-15.0-2.9","1319","List2B","black","man","","","","null","","","","","","","","",""
"14048.5","","","survey-text","167","1553511","0.0-15.0-3.9","1319","List2B","black","man","","","","","{""Q0"":""kate is opposing jane""}","<img src=""stim_listB/oppose7.gif""style=""height:400px;""></stim_listB>","is opposing","","","","","",""
"null","<div style=""font-size:60px;"">+</div>","","html-keyboard-response","168","1554023","0.0-15.0-0.10","1319","List2B","black","man","","","","null","","","","","","","","",""
"null","<img src=""stim_listB/shout5.gif""style=""height:400px;""></stim_listB>","","html-keyboard-response","169","1556039","0.0-15.0-1.10","1319","List2B","black","man","","","","null","","","","","","","","",""
"null","is shouting at","","html-keyboard-response","170","1558050","0.0-15.0-2.10","1319","List2B","black","man","","","","null","","","","","","","","",""
"12399.700000047684","","","survey-text","171","1570454","0.0-15.0-3.10","1319","List2B","black","man","","","","","{""Q0"":""fred is shouting at luke""}","<img src=""stim_listB/shout5.gif""style=""height:400px;""></stim_listB>","is shouting at","","","","","",""
"null","<div style=""font-size:60px;"">+</div>","","html-keyboard-response","172","1570956","0.0-15.0-0.11","1319","List2B","black","man","","","","null","","","","","","","","",""
"null","<img src=""stim_listB/kiss2.gif""style=""height:400px;""></stim_listB>","","html-keyboard-response","173","1572974","0.0-15.0-1.11","1319","List2B","black","man","","","","null","","","","","","","","",""
"null","is being kissed by","","html-keyboard-response","174","1574988","0.0-15.0-2.11","1319","List2B","black","man","","","","null","","","","","","","","",""
"13923.5","","","survey-text","175","1588916","0.0-15.0-3.11","1319","List2B","black","man","","","","","{""Q0"":""dave is being kissed by jane""}","<img src=""stim_listB/kiss2.gif""style=""height:400px;""></stim_listB>","is being kissed by","","","","","",""
"null","<div style=""font-size:60px;"">+</div>","","html-keyboard-response","176","1589432","0.0-15.0-0.12","1319","List2B","black","man","","","","null","","","","","","","","",""
"null","<img src=""stim_listB/challenge6.gif""style=""height:400px;""></stim_listB>","","html-keyboard-response","177","1591443","0.0-15.0-1.12","1319","List2B","black","man","","","","null","","","","","","","","",""
"null","is being challenged by","","html-keyboard-response","178","1593446","0.0-15.0-2.12","1319","List2B","black","man","","","","null","","","","","","","","",""
"13969.400000095367","","","survey-text","179","1607419","0.0-15.0-3.12","1319","List2B","black","man","","","","","{""Q0"":""mike is being challenged by luke""}","<img src=""stim_listB/challenge6.gif""style=""height:400px;""></stim_listB>","is being challenged by","","","","","",""
"null","<div style=""font-size:60px;"">+</div>","","html-keyboard-response","180","1607934","0.0-15.0-0.13","1319","List2B","black","man","","","","null","","","","","","","","",""
"null","<img src=""stim_listB/challenge4.gif""style=""height:400px;""></stim_listB>","","html-keyboard-response","181","1609953","0.0-15.0-1.13","1319","List2B","black","man","","","","null","","","","","","","","",""
"null","is being challenged by","","html-keyboard-response","182","1611962","0.0-15.0-2.13","1319","List2B","black","man","","","","null","","","","","","","","",""
"16557.699999809265","","","survey-text","183","1628523","0.0-15.0-3.13","1319","List2B","black","man","","","","","{""Q0"":""fred is being challenged by kate""}","<img src=""stim_listB/challenge4.gif""style=""height:400px;""></stim_listB>","is being challenged by","","","","","",""
"null","<div style=""font-size:60px;"">+</div>","","html-keyboard-response","184","1629032","0.0-15.0-0.14","1319","List2B","black","man","","","","null","","","","","","","","",""
"null","<img src=""stim_listB/look4.gif""style=""height:400px;""></stim_listB>","","html-keyboard-response","185","1631049","0.0-15.0-1.14","1319","List2B","black","man","","","","null","","","","","","","","",""
"null","is being looked at by","","html-keyboard-response","186","1633064","0.0-15.0-2.14","1319","List2B","black","man","","","","null","","","","","","","","",""
"13957.599999904633","","","survey-text","187","1647025","0.0-15.0-3.14","1319","List2B","black","man","","","","","{""Q0"":""kate is being looked at by mike""}","<img src=""stim_listB/look4.gif""style=""height:400px;""></stim_listB>","is being looked at by","","","","","",""
"null","<div style=""font-size:60px;"">+</div>","","html-keyboard-response","188","1647539","0.0-15.0-0.15","1319","List2B","black","man","","","","null","","","","","","","","",""
"null","<img src=""stim_listB/hug2.gif""style=""height:400px;""></stim_listB>","","html-keyboard-response","189","1649556","0.0-15.0-1.15","1319","List2B","black","man","","","","null","","","","","","","","",""
"null","is being hugged by","","html-keyboard-response","190","1651569","0.0-15.0-2.15","1319","List2B","black","man","","","","null","","","","","","","","",""
"18510.799999952316","","","survey-text","191","1670084","0.0-15.0-3.15","1319","List2B","black","man","","","","","{""Q0"":""dave is being hugged by jane""}","<img src=""stim_listB/hug2.gif""style=""height:400px;""></stim_listB>","is being hugged by","","","","","",""
"null","<div style=""font-size:60px;"">+</div>","","html-keyboard-response","192","1670593","0.0-15.0-0.16","1319","List2B","black","man","","","","null","","","","","","","","",""
"null","<img src=""stim_listB/copy4.gif""style=""height:400px;""></stim_listB>","","html-keyboard-response","193","1672611","0.0-15.0-1.16","1319","List2B","black","man","","","","null","","","","","","","","",""
"null","is being copied by","","html-keyboard-response","194","1674627","0.0-15.0-2.16","1319","List2B","black","man","","","","null","","","","","","","","",""
"21313","","","survey-text","195","1695943","0.0-15.0-3.16","1319","List2B","black","man","","","","","{""Q0"":""kate is being copied by fred""}","<img src=""stim_listB/copy4.gif""style=""height:400px;""></stim_listB>","is being copied by","","","","","",""
"null","<div style=""font-size:60px;"">+</div>","","html-keyboard-response","196","1696457","0.0-15.0-0.17","1319","List2B","black","man","","","","null","","","","","","","","",""
"null","<img src=""stim_listB/touch6.gif""style=""height:400px;""></stim_listB>","","html-keyboard-response","197","1698474","0.0-15.0-1.17","1319","List2B","black","man","","","","null","","","","","","","","",""
"null","is being touched by","","html-keyboard-response","198","1700491","0.0-15.0-2.17","1319","List2B","black","man","","","","null","","","","","","","","",""
"14664.400000095367","","","survey-text","199","1715159","0.0-15.0-3.17","1319","List2B","black","man","","","","","{""Q0"":""fred is being touched by luke""}","<img src=""stim_listB/touch6.gif""style=""height:400px;""></stim_listB>","is being touched by","","","","","",""
"null","<div style=""font-size:60px;"">+</div>","","html-keyboard-response","200","1715668","0.0-15.0-0.18","1319","List2B","black","man","","","","null","","","","","","","","",""
"null","<img src=""stim_listB/seduce8.gif""style=""height:400px;""></stim_listB>","","html-keyboard-response","201","1717672","0.0-15.0-1.18","1319","List2B","black","man","","","","null","","","","","","","","",""
"null","is being seduced by","","html-keyboard-response","202","1719677","0.0-15.0-2.18","1319","List2B","black","man","","","","null","","","","","","","","",""
"18139.099999904633","","","survey-text","203","1737819","0.0-15.0-3.18","1319","List2B","black","man","","","","","{""Q0"":""beth is being seduced by jane""}","<img src=""stim_listB/seduce8.gif""style=""height:400px;""></stim_listB>","is being seduced by","","","","","",""
"null","<div style=""font-size:60px;"">+</div>","","html-keyboard-response","204","1738336","0.0-15.0-0.19","1319","List2B","black","man","","","","null","","","","","","","","",""
"null","<img src=""stim_listB/kiss7.gif""style=""height:400px;""></stim_listB>","","html-keyboard-response","205","1740340","0.0-15.0-1.19","1319","List2B","black","man","","","","null","","","","","","","","",""
"null","is kissing","","html-keyboard-response","206","1742342","0.0-15.0-2.19","1319","List2B","black","man","","","","null","","","","","","","","",""
"12482.599999904633","","","survey-text","207","1754828","0.0-15.0-3.19","1319","List2B","black","man","","","","","{""Q0"":""beth is kissing ruth""}","<img src=""stim_listB/kiss7.gif""style=""height:400px;""></stim_listB>","is kissing","","","","","",""
"29360.60000014305","<img src='img/portrait_matrix_list2.jpg' style='width:900px;height:500px;''></img><p>If you have memorised all the portraits and names and are ready to start, press Continue.</p><p><strong>Please note: Your memory of these faces will be tested 4 times during this experiment.</strong></p>","0","html-button-response","208","1784190","0.0-16.0-0.0","1319","List2B","black","man","","","","","","","","","","","","",""
"5324.399999856949","<img src=""portrait/WM2.jpg""style=""height:400px;""></img>","7","html-button-response","209","1790524","0.0-16.0-1.0","1319","List2B","black","man","","true","7","","","","","","","","","",""
"null","CORRECT","","html-keyboard-response","210","1792046","0.0-16.0-2.0-0.0","1319","List2B","black","man","","","","null","","","","","","","","",""
"6079","<img src=""portrait/WW1.jpg""style=""height:400px;""></img>","1","html-button-response","211","1798128","0.0-16.0-4.0","1319","List2B","black","man","","true","1","","","","","","","","","",""
"null","CORRECT","","html-keyboard-response","212","1799647","0.0-16.0-5.0-0.0","1319","List2B","black","man","","","","null","","","","","","","","",""
"2868.2999999523163","<img src=""portrait/BM1.jpg""style=""height:400px;""></img>","4","html-button-response","213","1802518","0.0-16.0-7.0","1319","List2B","black","man","","true","4","","","","","","","","","",""
"null","CORRECT","","html-keyboard-response","214","1804030","0.0-16.0-8.0-0.0","1319","List2B","black","man","","","","null","","","","","","","","",""
"5124.5","<img src=""portrait/WW2.jpg""style=""height:400px;""></img>","3","html-button-response","215","1809157","0.0-16.0-10.0","1319","List2B","black","man","","true","3","","","","","","","","","",""
"null","CORRECT","","html-keyboard-response","216","1810678","0.0-16.0-11.0-0.0","1319","List2B","black","man","","","","null","","","","","","","","",""
"3861.100000143051","<img src=""portrait/BW1.jpg""style=""height:400px;""></img>","0","html-button-response","217","1814542","0.0-16.0-13.0","1319","List2B","black","man","","true","0","","","","","","","","","",""
"null","CORRECT","","html-keyboard-response","218","1816061","0.0-16.0-14.0-0.0","1319","List2B","black","man","","","","null","","","","","","","","",""
"4241.299999952316","<img src=""portrait/BW2.jpg""style=""height:400px;""></img>","2","html-button-response","219","1820305","0.0-16.0-16.0","1319","List2B","black","man","","true","2","","","","","","","","","",""
"null","CORRECT","","html-keyboard-response","220","1821827","0.0-16.0-17.0-0.0","1319","List2B","black","man","","","","null","","","","","","","","",""
"6941.100000143051","<img src=""portrait/BM2.jpg""style=""height:400px;""></img>","5","html-button-response","221","1828771","0.0-16.0-19.0","1319","List2B","black","man","","true","5","","","","","","","","","",""
"null","CORRECT","","html-keyboard-response","222","1830288","0.0-16.0-20.0-0.0","1319","List2B","black","man","","","","null","","","","","","","","",""
"4661.900000095367","<img src=""portrait/WM1.jpg""style=""height:400px;""></img>","6","html-button-response","223","1834952","0.0-16.0-22.0","1319","List2B","black","man","","true","6","","","","","","","","","",""
"null","CORRECT","","html-keyboard-response","224","1836476","0.0-16.0-23.0-0.0","1319","List2B","black","man","","","","null","","","","","","","","",""
"4125.400000095367","<p>You got 8 out of 8 right first time. Press Continue.</p>","0","html-button-response","225","1840605","0.0-16.0-25.0","1319","List2B","black","man","","","","","","","","","","","","",""
"null","<div style=""font-size:60px;"">+</div>","","html-keyboard-response","226","1842124","0.0-17.0-0.0","1319","List2B","black","man","","","","null","","","","","","","","",""
"null","<img src=""stim_listB/copy3.gif""style=""height:400px;""></stim_listB>","","html-keyboard-response","227","1844141","0.0-17.0-1.0","1319","List2B","black","man","","","","null","","","","","","","","",""
"null","is copying","","html-keyboard-response","228","1846157","0.0-17.0-2.0","1319","List2B","black","man","","","","null","","","","","","","","",""
"23652.299999952316","","","survey-text","229","1869814","0.0-17.0-3.0","1319","List2B","black","man","","","","","{""Q0"":""mike is copying beth""}","<img src=""stim_listB/copy3.gif""style=""height:400px;""></stim_listB>","is copying","","","","","",""
"null","<div style=""font-size:60px;"">+</div>","","html-keyboard-response","230","1870321","0.0-17.0-0.1","1319","List2B","black","man","","","","null","","","","","","","","",""
"null","<img src=""stim_listB/touch1.gif""style=""height:400px;""></stim_listB>","","html-keyboard-response","231","1872337","0.0-17.0-1.1","1319","List2B","black","man","","","","null","","","","","","","","",""
"null","is touching","","html-keyboard-response","232","1874341","0.0-17.0-2.1","1319","List2B","black","man","","","","null","","","","","","","","",""
"16522.5","","","survey-text","233","1890867","0.0-17.0-3.1","1319","List2B","black","man","","","","","{""Q0"":""dave is touching jane""}","<img src=""stim_listB/touch1.gif""style=""height:400px;""></stim_listB>","is touching","","","","","",""
"null","<div style=""font-size:60px;"">+</div>","","html-keyboard-response","234","1891381","0.0-17.0-0.2","1319","List2B","black","man","","","","null","","","","","","","","",""
"null","<img src=""stim_listB/copy5.gif""style=""height:400px;""></stim_listB>","","html-keyboard-response","235","1893394","0.0-17.0-1.2","1319","List2B","black","man","","","","null","","","","","","","","",""
"null","is copying","","html-keyboard-response","236","1895400","0.0-17.0-2.2","1319","List2B","black","man","","","","null","","","","","","","","",""
"12538.700000047684","","","survey-text","237","1907942","0.0-17.0-3.2","1319","List2B","black","man","","","","","{""Q0"":""dave is copying fred""}","<img src=""stim_listB/copy5.gif""style=""height:400px;""></stim_listB>","is copying","","","","","",""
"null","<div style=""font-size:60px;"">+</div>","","html-keyboard-response","238","1908450","0.0-17.0-0.3","1319","List2B","black","man","","","","null","","","","","","","","",""
"null","<img src=""stim_listB/shout1.gif""style=""height:400px;""></stim_listB>","","html-keyboard-response","239","1910467","0.0-17.0-1.3","1319","List2B","black","man","","","","null","","","","","","","","",""
"null","is shouting at","","html-keyboard-response","240","1912484","0.0-17.0-2.3","1319","List2B","black","man","","","","null","","","","","","","","",""
"15553","","","survey-text","241","1928041","0.0-17.0-3.3","1319","List2B","black","man","","","","","{""Q0"":""luke is shouting at ruth""}","<img src=""stim_listB/shout1.gif""style=""height:400px;""></stim_listB>","is shouting at","","","","","",""
"null","<div style=""font-size:60px;"">+</div>","","html-keyboard-response","242","1928548","0.0-17.0-0.4","1319","List2B","black","man","","","","null","","","","","","","","",""
"null","<img src=""stim_listB/challenge2.gif""style=""height:400px;""></stim_listB>","","html-keyboard-response","243","1930565","0.0-17.0-1.4","1319","List2B","black","man","","","","null","","","","","","","","",""
"null","is being challenged by","","html-keyboard-response","244","1932582","0.0-17.0-2.4","1319","List2B","black","man","","","","null","","","","","","","","",""
"30011.199999809265","","","survey-text","245","1962597","0.0-17.0-3.4","1319","List2B","black","man","","","","","{""Q0"":""luke is being challenged by ruth""}","<img src=""stim_listB/challenge2.gif""style=""height:400px;""></stim_listB>","is being challenged by","","","","","",""
"null","<div style=""font-size:60px;"">+</div>","","html-keyboard-response","246","1963111","0.0-17.0-0.5","1319","List2B","black","man","","","","null","","","","","","","","",""
"null","<img src=""stim_listB/look6.gif""style=""height:400px;""></stim_listB>","","html-keyboard-response","247","1965127","0.0-17.0-1.5","1319","List2B","black","man","","","","null","","","","","","","","",""
"null","is being looked at by","","html-keyboard-response","248","1967137","0.0-17.0-2.5","1319","List2B","black","man","","","","null","","","","","","","","",""
"17159.200000047684","","","survey-text","249","1984301","0.0-17.0-3.5","1319","List2B","black","man","","","","","{""Q0"":""mike is being looked at by dave""}","<img src=""stim_listB/look6.gif""style=""height:400px;""></stim_listB>","is being looked at by","","","","","",""
"null","<div style=""font-size:60px;"">+</div>","","html-keyboard-response","250","1984808","0.0-17.0-0.6","1319","List2B","black","man","","","","null","","","","","","","","",""
"null","<img src=""stim_listB/touch2.gif""style=""height:400px;""></stim_listB>","","html-keyboard-response","251","1986824","0.0-17.0-1.6","1319","List2B","black","man","","","","null","","","","","","","","",""
"null","is being touched by","","html-keyboard-response","252","1988839","0.0-17.0-2.6","1319","List2B","black","man","","","","null","","","","","","","","",""
"17394.699999809265","","","survey-text","253","2006238","0.0-17.0-3.6","1319","List2B","black","man","","","","","{""Q0"":""luke is being touched by ruth""}","<img src=""stim_listB/touch2.gif""style=""height:400px;""></stim_listB>","is being touched by","","","","","",""
"null","<div style=""font-size:60px;"">+</div>","","html-keyboard-response","254","2006744","0.0-17.0-0.7","1319","List2B","black","man","","","","null","","","","","","","","",""
"null","<img src=""stim_listB/challenge3.gif""style=""height:400px;""></stim_listB>","","html-keyboard-response","255","2008756","0.0-17.0-1.7","1319","List2B","black","man","","","","null","","","","","","","","",""
"null","is challenging","","html-keyboard-response","256","2010763","0.0-17.0-2.7","1319","List2B","black","man","","","","null","","","","","","","","",""
"16970","","","survey-text","257","2027737","0.0-17.0-3.7","1319","List2B","black","man","","","","","{""Q0"":""beth is challenging mike""}","<img src=""stim_listB/challenge3.gif""style=""height:400px;""></stim_listB>","is challenging","","","","","",""
"null","<div style=""font-size:60px;"">+</div>","","html-keyboard-response","258","2028251","0.0-17.0-0.8","1319","List2B","black","man","","","","null","","","","","","","","",""
"null","<img src=""stim_listB/oppose4.gif""style=""height:400px;""></stim_listB>","","html-keyboard-response","259","2030269","0.0-17.0-1.8","1319","List2B","black","man","","","","null","","","","","","","","",""
"null","is being opposed by","","html-keyboard-response","260","2032287","0.0-17.0-2.8","1319","List2B","black","man","","","","null","","","","","","","","",""
"12786.5","","","survey-text","261","2045077","0.0-17.0-3.8","1319","List2B","black","man","","","","","{""Q0"":""fred is being opposed by beth""}","<img src=""stim_listB/oppose4.gif""style=""height:400px;""></stim_listB>","is being opposed by","","","","","",""
"null","<div style=""font-size:60px;"">+</div>","","html-keyboard-response","262","2045584","0.0-17.0-0.9","1319","List2B","black","man","","","","null","","","","","","","","",""
"null","<img src=""stim_listB/oppose8.gif""style=""height:400px;""></stim_listB>","","html-keyboard-response","263","2047602","0.0-17.0-1.9","1319","List2B","black","man","","","","null","","","","","","","","",""
"null","is being opposed by","","html-keyboard-response","264","2049613","0.0-17.0-2.9","1319","List2B","black","man","","","","null","","","","","","","","",""
"18495.400000095367","","","survey-text","265","2068113","0.0-17.0-3.9","1319","List2B","black","man","","","","","{""Q0"":""beth is being opposed by ruth""}","<img src=""stim_listB/oppose8.gif""style=""height:400px;""></stim_listB>","is being opposed by","","","","","",""
"null","<div style=""font-size:60px;"">+</div>","","html-keyboard-response","266","2068626","0.0-17.0-0.10","1319","List2B","black","man","","","","null","","","","","","","","",""
"null","<img src=""stim_listB/shout8.gif""style=""height:400px;""></stim_listB>","","html-keyboard-response","267","2070643","0.0-17.0-1.10","1319","List2B","black","man","","","","null","","","","","","","","",""
"null","is being shouted at by","","html-keyboard-response","268","2072653","0.0-17.0-2.10","1319","List2B","black","man","","","","null","","","","","","","","",""
"18964.900000095367","","","survey-text","269","2091622","0.0-17.0-3.10","1319","List2B","black","man","","","","","{""Q0"":""jane is being shouted at by kate""}","<img src=""stim_listB/shout8.gif""style=""height:400px;""></stim_listB>","is being shouted at by","","","","","",""
"null","<div style=""font-size:60px;"">+</div>","","html-keyboard-response","270","2092130","0.0-17.0-0.11","1319","List2B","black","man","","","","null","","","","","","","","",""
"null","<img src=""stim_listB/copy7.gif""style=""height:400px;""></stim_listB>","","html-keyboard-response","271","2094146","0.0-17.0-1.11","1319","List2B","black","man","","","","null","","","","","","","","",""
"null","is copying","","html-keyboard-response","272","2096163","0.0-17.0-2.11","1319","List2B","black","man","","","","null","","","","","","","","",""
"12767","","","survey-text","273","2108934","0.0-17.0-3.11","1319","List2B","black","man","","","","","{""Q0"":""beth is copying jane""}","<img src=""stim_listB/copy7.gif""style=""height:400px;""></stim_listB>","is copying","","","","","",""
"null","<div style=""font-size:60px;"">+</div>","","html-keyboard-response","274","2109443","0.0-17.0-0.12","1319","List2B","black","man","","","","null","","","","","","","","",""
"null","<img src=""stim_listB/oppose2.gif""style=""height:400px;""></stim_listB>","","html-keyboard-response","275","2111460","0.0-17.0-1.12","1319","List2B","black","man","","","","null","","","","","","","","",""
"null","is being opposed by","","html-keyboard-response","276","2113466","0.0-17.0-2.12","1319","List2B","black","man","","","","null","","","","","","","","",""
"17462.700000047684","","","survey-text","277","2130932","0.0-17.0-3.12","1319","List2B","black","man","","","","","{""Q0"":""luke is being opposed by ruth""}","<img src=""stim_listB/oppose2.gif""style=""height:400px;""></stim_listB>","is being opposed by","","","","","",""
"null","<div style=""font-size:60px;"">+</div>","","html-keyboard-response","278","2131436","0.0-17.0-0.13","1319","List2B","black","man","","","","null","","","","","","","","",""
"null","<img src=""stim_listB/greet2.gif""style=""height:400px;""></stim_listB>","","html-keyboard-response","279","2133452","0.0-17.0-1.13","1319","List2B","black","man","","","","null","","","","","","","","",""
"null","is being greeted by","","html-keyboard-response","280","2135467","0.0-17.0-2.13","1319","List2B","black","man","","","","null","","","","","","","","",""
"19279.60000014305","","","survey-text","281","2154748","0.0-17.0-3.13","1319","List2B","black","man","","","","","{""Q0"":""luke is  being greeted by jane""}","<img src=""stim_listB/greet2.gif""style=""height:400px;""></stim_listB>","is being greeted by","","","","","",""
"null","<div style=""font-size:60px;"">+</div>","","html-keyboard-response","282","2155255","0.0-17.0-0.14","1319","List2B","black","man","","","","null","","","","","","","","",""
"null","<img src=""stim_listB/hug1.gif""style=""height:400px;""></stim_listB>","","html-keyboard-response","283","2157273","0.0-17.0-1.14","1319","List2B","black","man","","","","null","","","","","","","","",""
"null","is hugging","","html-keyboard-response","284","2159286","0.0-17.0-2.14","1319","List2B","black","man","","","","null","","","","","","","","",""
"13530.799999952316","","","survey-text","285","2172820","0.0-17.0-3.14","1319","List2B","black","man","","","","","{""Q0"":""luke is hugging ruth""}","<img src=""stim_listB/hug1.gif""style=""height:400px;""></stim_listB>","is hugging","","","","","",""
"null","<div style=""font-size:60px;"">+</div>","","html-keyboard-response","286","2173336","0.0-17.0-0.15","1319","List2B","black","man","","","","null","","","","","","","","",""
"null","<img src=""stim_listB/seduce3.gif""style=""height:400px;""></stim_listB>","","html-keyboard-response","287","2175355","0.0-17.0-1.15","1319","List2B","black","man","","","","null","","","","","","","","",""
"null","is seducing","","html-keyboard-response","288","2177365","0.0-17.0-2.15","1319","List2B","black","man","","","","null","","","","","","","","",""
"18271.799999952316","","","survey-text","289","2195641","0.0-17.0-3.15","1319","List2B","black","man","","","","","{""Q0"":""kate is seducing fred""}","<img src=""stim_listB/seduce3.gif""style=""height:400px;""></stim_listB>","is seducing","","","","","",""
"null","<div style=""font-size:60px;"">+</div>","","html-keyboard-response","290","2196151","0.0-17.0-0.16","1319","List2B","black","man","","","","null","","","","","","","","",""
"null","<img src=""stim_listB/challenge1.gif""style=""height:400px;""></stim_listB>","","html-keyboard-response","291","2198168","0.0-17.0-1.16","1319","List2B","black","man","","","","null","","","","","","","","",""
"null","is challenging","","html-keyboard-response","292","2200184","0.0-17.0-2.16","1319","List2B","black","man","","","","null","","","","","","","","",""
"15212.200000047684","","","survey-text","293","2215400","0.0-17.0-3.16","1319","List2B","black","man","","","","","{""Q0"":""ruth is challenging dave""}","<img src=""stim_listB/challenge1.gif""style=""height:400px;""></stim_listB>","is challenging","","","","","",""
"null","<div style=""font-size:60px;"">+</div>","","html-keyboard-response","294","2215916","0.0-17.0-0.17","1319","List2B","black","man","","","","null","","","","","","","","",""
"null","<img src=""stim_listB/kiss3.gif""style=""height:400px;""></stim_listB>","","html-keyboard-response","295","2217932","0.0-17.0-1.17","1319","List2B","black","man","","","","null","","","","","","","","",""
"null","is kissing","","html-keyboard-response","296","2219944","0.0-17.0-2.17","1319","List2B","black","man","","","","null","","","","","","","","",""
"14315.100000143051","","","survey-text","297","2234264","0.0-17.0-3.17","1319","List2B","black","man","","","","","{""Q0"":""beth is kissing fred""}","<img src=""stim_listB/kiss3.gif""style=""height:400px;""></stim_listB>","is kissing","","","","","",""
"null","<div style=""font-size:60px;"">+</div>","","html-keyboard-response","298","2234780","0.0-17.0-0.18","1319","List2B","black","man","","","","null","","","","","","","","",""
"null","<img src=""stim_listB/seduce2.gif""style=""height:400px;""></stim_listB>","","html-keyboard-response","299","2236797","0.0-17.0-1.18","1319","List2B","black","man","","","","null","","","","","","","","",""
"null","is being seduced by","","html-keyboard-response","300","2238813","0.0-17.0-2.18","1319","List2B","black","man","","","","null","","","","","","","","",""
"13026.899999856949","","","survey-text","301","2251843","0.0-17.0-3.18","1319","List2B","black","man","","","","","{""Q0"":""dave is being seduced by ruth""}","<img src=""stim_listB/seduce2.gif""style=""height:400px;""></stim_listB>","is being seduced by","","","","","",""
"null","<div style=""font-size:60px;"">+</div>","","html-keyboard-response","302","2252348","0.0-17.0-0.19","1319","List2B","black","man","","","","null","","","","","","","","",""
"null","<img src=""stim_listB/shout7.gif""style=""height:400px;""></stim_listB>","","html-keyboard-response","303","2254350","0.0-17.0-1.19","1319","List2B","black","man","","","","null","","","","","","","","",""
"null","is shouting at","","html-keyboard-response","304","2256355","0.0-17.0-2.19","1319","List2B","black","man","","","","null","","","","","","","","",""
"21218.200000047684","","","survey-text","305","2277577","0.0-17.0-3.19","1319","List2B","black","man","","","","","{""Q0"":""ruth is shouting at beth""}","<img src=""stim_listB/shout7.gif""style=""height:400px;""></stim_listB>","is shouting at","","","","","",""
"38591.40000009537","<img src='img/portrait_matrix_list2.jpg' style='width:900px;height:500px;''></img><p>If you have memorised all the portraits and names and are ready to start, press Continue.</p><p><strong>Please note: Your memory of these faces will be tested 4 times during this experiment.</strong></p>","0","html-button-response","306","2316170","0.0-18.0-0.0","1319","List2B","black","man","","","","","","","","","","","","",""
"14114.099999904633","<img src=""portrait/WW2.jpg""style=""height:400px;""></img>","3","html-button-response","307","2331287","0.0-18.0-1.0","1319","List2B","black","man","","true","3","","","","","","","","","",""
"null","CORRECT","","html-keyboard-response","308","2332820","0.0-18.0-2.0-0.0","1319","List2B","black","man","","","","null","","","","","","","","",""
"2767.4000000953674","<img src=""portrait/WW1.jpg""style=""height:400px;""></img>","1","html-button-response","309","2335591","0.0-18.0-4.0","1319","List2B","black","man","","true","1","","","","","","","","","",""
"null","CORRECT","","html-keyboard-response","310","2337119","0.0-18.0-5.0-0.0","1319","List2B","black","man","","","","null","","","","","","","","",""
"4676.400000095367","<img src=""portrait/BW1.jpg""style=""height:400px;""></img>","0","html-button-response","311","2341797","0.0-18.0-7.0","1319","List2B","black","man","","true","0","","","","","","","","","",""
"null","CORRECT","","html-keyboard-response","312","2343318","0.0-18.0-8.0-0.0","1319","List2B","black","man","","","","null","","","","","","","","",""
"6953.5","<img src=""portrait/WM1.jpg""style=""height:400px;""></img>","6","html-button-response","313","2350274","0.0-18.0-10.0","1319","List2B","black","man","","true","6","","","","","","","","","",""
"null","CORRECT","","html-keyboard-response","314","2351800","0.0-18.0-11.0-0.0","1319","List2B","black","man","","","","null","","","","","","","","",""
"6447.599999904633","<img src=""portrait/BM1.jpg""style=""height:400px;""></img>","4","html-button-response","315","2358250","0.0-18.0-13.0","1319","List2B","black","man","","true","4","","","","","","","","","",""
"null","CORRECT","","html-keyboard-response","316","2359783","0.0-18.0-14.0-0.0","1319","List2B","black","man","","","","null","","","","","","","","",""
"2895.399999856949","<img src=""portrait/WM2.jpg""style=""height:400px;""></img>","7","html-button-response","317","2362680","0.0-18.0-16.0","1319","List2B","black","man","","true","7","","","","","","","","","",""
"null","CORRECT","","html-keyboard-response","318","2364199","0.0-18.0-17.0-0.0","1319","List2B","black","man","","","","null","","","","","","","","",""
"7802.5","<img src=""portrait/BW2.jpg""style=""height:400px;""></img>","2","html-button-response","319","2372004","0.0-18.0-19.0","1319","List2B","black","man","","true","2","","","","","","","","","",""
"null","CORRECT","","html-keyboard-response","320","2373520","0.0-18.0-20.0-0.0","1319","List2B","black","man","","","","null","","","","","","","","",""
"4995.300000190735","<img src=""portrait/BM2.jpg""style=""height:400px;""></img>","5","html-button-response","321","2378518","0.0-18.0-22.0","1319","List2B","black","man","","true","5","","","","","","","","","",""
"null","CORRECT","","html-keyboard-response","322","2380031","0.0-18.0-23.0-0.0","1319","List2B","black","man","","","","null","","","","","","","","",""
"4198.399999856949","<p>You got 8 out of 8 right first time. Press Continue.</p>","0","html-button-response","323","2384232","0.0-18.0-25.0","1319","List2B","black","man","","","","","","","","","","","","",""
"null","<div style=""font-size:60px;"">+</div>","","html-keyboard-response","324","2385764","0.0-19.0-0.0","1319","List2B","black","man","","","","null","","","","","","","","",""
"null","<img src=""stim_listB/shout4.gif""style=""height:400px;""></stim_listB>","","html-keyboard-response","325","2387782","0.0-19.0-1.0","1319","List2B","black","man","","","","null","","","","","","","","",""
"null","is being shouted at by","","html-keyboard-response","326","2389796","0.0-19.0-2.0","1319","List2B","black","man","","","","null","","","","","","","","",""
"19013.10000014305","","","survey-text","327","2408813","0.0-19.0-3.0","1319","List2B","black","man","","","","","{""Q0"":""kate is being shouted at by mike""}","<img src=""stim_listB/shout4.gif""style=""height:400px;""></stim_listB>","is being shouted at by","","","","","",""
"null","<div style=""font-size:60px;"">+</div>","","html-keyboard-response","328","2409320","0.0-19.0-0.1","1319","List2B","black","man","","","","null","","","","","","","","",""
"null","<img src=""stim_listB/kiss6.gif""style=""height:400px;""></stim_listB>","","html-keyboard-response","329","2411329","0.0-19.0-1.1","1319","List2B","black","man","","","","null","","","","","","","","",""
"null","is being kissed by","","html-keyboard-response","330","2413344","0.0-19.0-2.1","1319","List2B","black","man","","","","null","","","","","","","","",""
"13179.400000095367","","","survey-text","331","2426527","0.0-19.0-3.1","1319","List2B","black","man","","","","","{""Q0"":""dave is being kissed by mike""}","<img src=""stim_listB/kiss6.gif""style=""height:400px;""></stim_listB>","is being kissed by","","","","","",""
"null","<div style=""font-size:60px;"">+</div>","","html-keyboard-response","332","2427038","0.0-19.0-0.2","1319","List2B","black","man","","","","null","","","","","","","","",""
"null","<img src=""stim_listB/greet7.gif""style=""height:400px;""></stim_listB>","","html-keyboard-response","333","2429055","0.0-19.0-1.2","1319","List2B","black","man","","","","null","","","","","","","","",""
"null","is greeting","","html-keyboard-response","334","2431057","0.0-19.0-2.2","1319","List2B","black","man","","","","null","","","","","","","","",""
"23110.400000095367","","","survey-text","335","2454170","0.0-19.0-3.2","1319","List2B","black","man","","","","","{""Q0"":""beth is greeting jane""}","<img src=""stim_listB/greet7.gif""style=""height:400px;""></stim_listB>","is greeting","","","","","",""
"null","<div style=""font-size:60px;"">+</div>","","html-keyboard-response","336","2454672","0.0-19.0-0.3","1319","List2B","black","man","","","","null","","","","","","","","",""
"null","<img src=""stim_listB/copy8.gif""style=""height:400px;""></stim_listB>","","html-keyboard-response","337","2456689","0.0-19.0-1.3","1319","List2B","black","man","","","","null","","","","","","","","",""
"null","is being copied by","","html-keyboard-response","338","2458693","0.0-19.0-2.3","1319","List2B","black","man","","","","null","","","","","","","","",""
"24206.199999809265","","","survey-text","339","2482903","0.0-19.0-3.3","1319","List2B","black","man","","","","","{""Q0"":""ruth is being copied by kate""}","<img src=""stim_listB/copy8.gif""style=""height:400px;""></stim_listB>","is being copied by","","","","","",""
"null","<div style=""font-size:60px;"">+</div>","","html-keyboard-response","340","2483419","0.0-19.0-0.4","1319","List2B","black","man","","","","null","","","","","","","","",""
"null","<img src=""stim_listB/seduce7.gif""style=""height:400px;""></stim_listB>","","html-keyboard-response","341","2485436","0.0-19.0-1.4","1319","List2B","black","man","","","","null","","","","","","","","",""
"null","is seducing","","html-keyboard-response","342","2487447","0.0-19.0-2.4","1319","List2B","black","man","","","","null","","","","","","","","",""
"16094","","","survey-text","343","2503545","0.0-19.0-3.4","1319","List2B","black","man","","","","","{""Q0"":""ruth is seducing kate""}","<img src=""stim_listB/seduce7.gif""style=""height:400px;""></stim_listB>","is seducing","","","","","",""
"null","<div style=""font-size:60px;"">+</div>","","html-keyboard-response","344","2504051","0.0-19.0-0.5","1319","List2B","black","man","","","","null","","","","","","","","",""
"null","<img src=""stim_listB/look2.gif""style=""height:400px;""></stim_listB>","","html-keyboard-response","345","2506067","0.0-19.0-1.5","1319","List2B","black","man","","","","null","","","","","","","","",""
"null","is being looked at by","","html-keyboard-response","346","2508075","0.0-19.0-2.5","1319","List2B","black","man","","","","null","","","","","","","","",""
"17684.400000095367","","","survey-text","347","2525763","0.0-19.0-3.5","1319","List2B","black","man","","","","","{""Q0"":""dave is being looked at by jane""}","<img src=""stim_listB/look2.gif""style=""height:400px;""></stim_listB>","is being looked at by","","","","","",""
"null","<div style=""font-size:60px;"">+</div>","","html-keyboard-response","348","2526265","0.0-19.0-0.6","1319","List2B","black","man","","","","null","","","","","","","","",""
"null","<img src=""stim_listB/hug6.gif""style=""height:400px;""></stim_listB>","","html-keyboard-response","349","2528280","0.0-19.0-1.6","1319","List2B","black","man","","","","null","","","","","","","","",""
"null","is being hugged by","","html-keyboard-response","350","2530293","0.0-19.0-2.6","1319","List2B","black","man","","","","null","","","","","","","","",""
"15079.799999952316","","","survey-text","351","2545377","0.0-19.0-3.6","1319","List2B","black","man","","","","","{""Q0"":""dave is being hugged by mike""}","<img src=""stim_listB/hug6.gif""style=""height:400px;""></stim_listB>","is being hugged by","","","","","",""
"null","<div style=""font-size:60px;"">+</div>","","html-keyboard-response","352","2545879","0.0-19.0-0.7","1319","List2B","black","man","","","","null","","","","","","","","",""
"null","<img src=""stim_listB/copy1.gif""style=""height:400px;""></stim_listB>","","html-keyboard-response","353","2547884","0.0-19.0-1.7","1319","List2B","black","man","","","","null","","","","","","","","",""
"null","is copying","","html-keyboard-response","354","2549896","0.0-19.0-2.7","1319","List2B","black","man","","","","null","","","","","","","","",""
"11574.600000143051","","","survey-text","355","2561474","0.0-19.0-3.7","1319","List2B","black","man","","","","","{""Q0"":""dave is copying ruth""}","<img src=""stim_listB/copy1.gif""style=""height:400px;""></stim_listB>","is copying","","","","","",""
"null","<div style=""font-size:60px;"">+</div>","","html-keyboard-response","356","2561979","0.0-19.0-0.8","1319","List2B","black","man","","","","null","","","","","","","","",""
"null","<img src=""stim_listB/oppose1.gif""style=""height:400px;""></stim_listB>","","html-keyboard-response","357","2563994","0.0-19.0-1.8","1319","List2B","black","man","","","","null","","","","","","","","",""
"null","is opposing","","html-keyboard-response","358","2565998","0.0-19.0-2.8","1319","List2B","black","man","","","","null","","","","","","","","",""
"12763.200000047684","","","survey-text","359","2578765","0.0-19.0-3.8","1319","List2B","black","man","","","","","{""Q0"":""jane is opposing dave""}","<img src=""stim_listB/oppose1.gif""style=""height:400px;""></stim_listB>","is opposing","","","","","",""
"null","<div style=""font-size:60px;"">+</div>","","html-keyboard-response","360","2579274","0.0-19.0-0.9","1319","List2B","black","man","","","","null","","","","","","","","",""
"null","<img src=""stim_listB/shout3.gif""style=""height:400px;""></stim_listB>","","html-keyboard-response","361","2581293","0.0-19.0-1.9","1319","List2B","black","man","","","","null","","","","","","","","",""
"null","is shouting at","","html-keyboard-response","362","2583300","0.0-19.0-2.9","1319","List2B","black","man","","","","null","","","","","","","","",""
"12181.5","","","survey-text","363","2595485","0.0-19.0-3.9","1319","List2B","black","man","","","","","{""Q0"":""beth is shouting at fred""}","<img src=""stim_listB/shout3.gif""style=""height:400px;""></stim_listB>","is shouting at","","","","","",""
"null","<div style=""font-size:60px;"">+</div>","","html-keyboard-response","364","2595991","0.0-19.0-0.10","1319","List2B","black","man","","","","null","","","","","","","","",""
"null","<img src=""stim_listB/shout6.gif""style=""height:400px;""></stim_listB>","","html-keyboard-response","365","2598005","0.0-19.0-1.10","1319","List2B","black","man","","","","null","","","","","","","","",""
"null","is being shouted at by","","html-keyboard-response","366","2600012","0.0-19.0-2.10","1319","List2B","black","man","","","","null","","","","","","","","",""
"16210.5","","","survey-text","367","2616226","0.0-19.0-3.10","1319","List2B","black","man","","","","","{""Q0"":""mike is being shouted at by dave""}","<img src=""stim_listB/shout6.gif""style=""height:400px;""></stim_listB>","is being shouted at by","","","","","",""
"null","<div style=""font-size:60px;"">+</div>","","html-keyboard-response","368","2616729","0.0-19.0-0.11","1319","List2B","black","man","","","","null","","","","","","","","",""
"null","<img src=""stim_listB/hug4.gif""style=""height:400px;""></stim_listB>","","html-keyboard-response","369","2618739","0.0-19.0-1.11","1319","List2B","black","man","","","","null","","","","","","","","",""
"null","is being hugged by","","html-keyboard-response","370","2620753","0.0-19.0-2.11","1319","List2B","black","man","","","","null","","","","","","","","",""
"16476.39999985695","","","survey-text","371","2637234","0.0-19.0-3.11","1319","List2B","black","man","","","","","{""Q0"":""mike is being hugged by kate""}","<img src=""stim_listB/hug4.gif""style=""height:400px;""></stim_listB>","is being hugged by","","","","","",""
"null","<div style=""font-size:60px;"">+</div>","","html-keyboard-response","372","2637736","0.0-19.0-0.12","1319","List2B","black","man","","","","null","","","","","","","","",""
"null","<img src=""stim_listB/hug3.gif""style=""height:400px;""></stim_listB>","","html-keyboard-response","373","2639751","0.0-19.0-1.12","1319","List2B","black","man","","","","null","","","","","","","","",""
"null","is hugging","","html-keyboard-response","374","2641757","0.0-19.0-2.12","1319","List2B","black","man","","","","null","","","","","","","","",""
"8336.299999952316","","","survey-text","375","2650097","0.0-19.0-3.12","1319","List2B","black","man","","","","","{""Q0"":""beth is hugging fred""}","<img src=""stim_listB/hug3.gif""style=""height:400px;""></stim_listB>","is hugging","","","","","",""
"null","<div style=""font-size:60px;"">+</div>","","html-keyboard-response","376","2650602","0.0-19.0-0.13","1319","List2B","black","man","","","","null","","","","","","","","",""
"null","<img src=""stim_listB/look3.gif""style=""height:400px;""></stim_listB>","","html-keyboard-response","377","2652617","0.0-19.0-1.13","1319","List2B","black","man","","","","null","","","","","","","","",""
"null","is looking at","","html-keyboard-response","378","2654624","0.0-19.0-2.13","1319","List2B","black","man","","","","null","","","","","","","","",""
"11449.599999904633","","","survey-text","379","2666077","0.0-19.0-3.13","1319","List2B","black","man","","","","","{""Q0"":""beth is looking at fred""}","<img src=""stim_listB/look3.gif""style=""height:400px;""></stim_listB>","is looking at","","","","","",""
"null","<div style=""font-size:60px;"">+</div>","","html-keyboard-response","380","2666582","0.0-19.0-0.14","1319","List2B","black","man","","","","null","","","","","","","","",""
"null","<img src=""stim_listB/greet1.gif""style=""height:400px;""></stim_listB>","","html-keyboard-response","381","2668593","0.0-19.0-1.14","1319","List2B","black","man","","","","null","","","","","","","","",""
"null","is greeting","","html-keyboard-response","382","2670599","0.0-19.0-2.14","1319","List2B","black","man","","","","null","","","","","","","","",""
"12214.5","","","survey-text","383","2682817","0.0-19.0-3.14","1319","List2B","black","man","","","","","{""Q0"":""ruth is greeting dave""}","<img src=""stim_listB/greet1.gif""style=""height:400px;""></stim_listB>","is greeting","","","","","",""
"null","<div style=""font-size:60px;"">+</div>","","html-keyboard-response","384","2683328","0.0-19.0-0.15","1319","List2B","black","man","","","","null","","","","","","","","",""
"null","<img src=""stim_listB/greet4.gif""style=""height:400px;""></stim_listB>","","html-keyboard-response","385","2685346","0.0-19.0-1.15","1319","List2B","black","man","","","","null","","","","","","","","",""
"null","is being greeted by","","html-keyboard-response","386","2687363","0.0-19.0-2.15","1319","List2B","black","man","","","","null","","","","","","","","",""
"14669.5","","","survey-text","387","2702036","0.0-19.0-3.15","1319","List2B","black","man","","","","","{""Q0"":""kate is being greeted by fred""}","<img src=""stim_listB/greet4.gif""style=""height:400px;""></stim_listB>","is being greeted by","","","","","",""
"null","<div style=""font-size:60px;"">+</div>","","html-keyboard-response","388","2702542","0.0-19.0-0.16","1319","List2B","black","man","","","","null","","","","","","","","",""
"null","<img src=""stim_listB/kiss1.gif""style=""height:400px;""></stim_listB>","","html-keyboard-response","389","2704546","0.0-19.0-1.16","1319","List2B","black","man","","","","null","","","","","","","","",""
"null","is kissing","","html-keyboard-response","390","2706560","0.0-19.0-2.16","1319","List2B","black","man","","","","null","","","","","","","","",""
"10165.5","","","survey-text","391","2716730","0.0-19.0-3.16","1319","List2B","black","man","","","","","{""Q0"":""luke is kissing ruth""}","<img src=""stim_listB/kiss1.gif""style=""height:400px;""></stim_listB>","is kissing","","","","","",""
"null","<div style=""font-size:60px;"">+</div>","","html-keyboard-response","392","2717244","0.0-19.0-0.17","1319","List2B","black","man","","","","null","","","","","","","","",""
"null","<img src=""stim_listB/look1.gif""style=""height:400px;""></stim_listB>","","html-keyboard-response","393","2719258","0.0-19.0-1.17","1319","List2B","black","man","","","","null","","","","","","","","",""
"null","is looking at","","html-keyboard-response","394","2721275","0.0-19.0-2.17","1319","List2B","black","man","","","","null","","","","","","","","",""
"22231.60000014305","","","survey-text","395","2743510","0.0-19.0-3.17","1319","List2B","black","man","","","","","{""Q0"":""luke is looking at ruth""}","<img src=""stim_listB/look1.gif""style=""height:400px;""></stim_listB>","is looking at","","","","","",""
"null","<div style=""font-size:60px;"">+</div>","","html-keyboard-response","396","2744023","0.0-19.0-0.18","1319","List2B","black","man","","","","null","","","","","","","","",""
"null","<img src=""stim_listB/touch8.gif""style=""height:400px;""></stim_listB>","","html-keyboard-response","397","2746039","0.0-19.0-1.18","1319","List2B","black","man","","","","null","","","","","","","","",""
"null","is being touched by","","html-keyboard-response","398","2748055","0.0-19.0-2.18","1319","List2B","black","man","","","","null","","","","","","","","",""
"15808.200000047684","","","survey-text","399","2763866","0.0-19.0-3.18","1319","List2B","black","man","","","","","{""Q0"":""ruth is being touched by beth""}","<img src=""stim_listB/touch8.gif""style=""height:400px;""></stim_listB>","is being touched by","","","","","",""
"null","<div style=""font-size:60px;"">+</div>","","html-keyboard-response","400","2764372","0.0-19.0-0.19","1319","List2B","black","man","","","","null","","","","","","","","",""
"null","<img src=""stim_listB/greet6.gif""style=""height:400px;""></stim_listB>","","html-keyboard-response","401","2766387","0.0-19.0-1.19","1319","List2B","black","man","","","","null","","","","","","","","",""
"null","is being greeted by","","html-keyboard-response","402","2768404","0.0-19.0-2.19","1319","List2B","black","man","","","","null","","","","","","","","",""
"16809.89999985695","","","survey-text","403","2785218","0.0-19.0-3.19","1319","List2B","black","man","","","","","{""Q0"":""luke is being greeted by mike""}","<img src=""stim_listB/greet6.gif""style=""height:400px;""></stim_listB>","is being greeted by","","","","","",""
"4489.299999952316","<p>Thank you for completing that task.</p><p>The final part of this session is a questionnaire that will take about 4 minutes.</p><p>Press Continue.</p>","0","html-button-response","404","2789708","0.0-20.0","1319","List2B","black","man","","","","","","","","","","","","",""
"43051.90000009537","","","survey-text","405","2833769","0.0-21.0","1319","List2B","black","man","","","","","{""Q0"":""42"",""Q1"":""english"",""Q2"":""english"",""Q3"":""United States"",""Q4"":""Jamaican"",""Q5"":""black"",""Q6"":""male""}","","","demographics","","","","",""
"4844.799999952316","<p>Have you lived in the USA for the last 5 years or more?</p>","1","html-button-response","406","2838616","0.0-22.0","1319","List2B","black","man","","","","","","","","fiveyears","","","","",""
"5994.5","<p>Move the slider to show the extent to which you agree with the following statements.</p>","0","html-button-response","407","2845625","0.0-23.0","1319","List2B","black","man","","","","","","","","","","","","",""
"11633.600000143051","","","html-slider-response","408","2858278","0.0-24.0-0.0-0.0","1319","List2B","black","man","","","","","","","","survey_race","100","","","Being my race gives me a good feeling.","feeling"
"26955.5","","","html-slider-response","409","2885236","0.0-24.0-0.0-0.1","1319","List2B","black","man","","","","","","","","survey_race","51","","","People of my race are very similar to each other.","verysimilar"
"20549.099999904633","","","html-slider-response","410","2905788","0.0-24.0-0.0-0.2","1319","List2B","black","man","","","","","","","","survey_race","39","","","I am similar to the average person of my race.","similar"
"9286.600000143051","","","html-slider-response","411","2915077","0.0-24.0-0.0-0.3","1319","List2B","black","man","","","","","","","","survey_race","66","","","I feel solidarity with people the same age as me.","filler"
"6279.400000095367","","","html-slider-response","412","2921359","0.0-24.0-0.0-0.4","1319","List2B","black","man","","","","","","","","survey_race","100","","","It is pleasant to be my race.","pleasant"
"11592.400000095367","","","html-slider-response","413","2932954","0.0-24.0-0.0-0.5","1319","List2B","black","man","","","","","","","","survey_race","34","","","I feel a bond with people the same age as me.","filler"
"5197","","","html-slider-response","414","2938153","0.0-24.0-0.0-0.6","1319","List2B","black","man","","","","","","","","survey_race","100","","","I am glad to be my race.","glad"
"12707.700000047684","","","html-slider-response","415","2950862","0.0-24.0-0.0-0.7","1319","List2B","black","man","","","","","","","","survey_race","46","","","Getting older does not worry me.","filler"
"15894.700000047684","","","html-slider-response","416","2966758","0.0-24.0-0.0-0.8","1319","List2B","black","man","","","","","","","","survey_race","92","","","I feel a bond with my race.","bond"
"11232.800000190735","","","html-slider-response","417","2977993","0.0-24.0-0.0-0.9","1319","List2B","black","man","","","","","","","","survey_race","57","","","I consider myself an extrovert.","filler"
"14905.400000095367","","","html-slider-response","418","2992900","0.0-24.0-0.0-0.10","1319","List2B","black","man","","","","","","","","survey_race","87","","","The fact that I am my race is an important part of my identity.","identity"
"11754.899999856949","","","html-slider-response","419","3004657","0.0-24.0-0.0-0.11","1319","List2B","black","man","","","","","","","","survey_race","50","","","I am glad to be my age.","filler"
"11364.799999952316","","","html-slider-response","420","3016024","0.0-24.0-0.0-0.12","1319","List2B","black","man","","","","","","","","survey_race","38","","","I have a lot in common with the average person of my race.","average"
"7312.600000143051","","","html-slider-response","421","3023339","0.0-24.0-0.0-0.13","1319","List2B","black","man","","","","","","","","survey_race","92","","","I feel solidarity with my race.","solidarity"
"9894.700000047684","","","html-slider-response","422","3033235","0.0-24.0-0.0-0.14","1319","List2B","black","man","","","","","","","","survey_race","53","","","The older I get, the wiser I feel.","filler"
"7130.599999904633","","","html-slider-response","423","3040368","0.0-24.0-0.0-0.15","1319","List2B","black","man","","","","","","","","survey_race","46","","","People of my race have a lot in common with each other.","common"
"11959.099999904633","","","html-slider-response","424","3052329","0.0-24.0-0.0-0.16","1319","List2B","black","man","","","","","","","","survey_race","20","","","I often think about the fact that I am my race.","often"
"12185.099999904633","","","html-slider-response","425","3064516","0.0-24.0-0.0-0.17","1319","List2B","black","man","","","","","","","","survey_race","59","","","Being my age gives me a good feeling.","filler"
"13431.299999952316","","","html-slider-response","426","3077950","0.0-24.0-0.0-0.18","1319","List2B","black","man","","","","","","","","survey_race","66","","","I consider myself an introvert.","filler"
"11123.400000095367","","","html-slider-response","427","3089075","0.0-24.0-0.0-0.19","1319","List2B","black","man","","","","","","","","survey_race","38","","","I have a lot in common with people of a similar age to me.","filler"
"13708.799999952316","","","html-slider-response","428","3102786","0.0-24.0-0.0-0.20","1319","List2B","black","man","","","","","","","","survey_race","67","","","My age is not an important part of who I am.","filler"
"8897.099999904633","","","html-slider-response","429","3111685","0.0-24.0-0.0-0.21","1319","List2B","black","man","","","","","","","","survey_race","56","","","Being my race is an important part of how I see myself.","important"
"6936.599999904633","","","html-slider-response","430","3118623","0.0-24.0-0.0-0.22","1319","List2B","black","man","","","","","","","","survey_race","42","","","People my age have a lot in common with each other.","filler"
"4794","","","html-slider-response","431","3123419","0.0-24.0-0.0-0.23","1319","List2B","black","man","","","","","","","","survey_race","100","","","I think that my race has a lot to be proud of.","proud"
"6672.399999856949","","","html-slider-response","432","3130093","0.0-24.0-0.0-0.24","1319","List2B","black","man","","","","","","","","survey_race","33","","","I often think about the fact that I am my age.","filler"
"15711.100000143051","","","html-slider-response","433","3145806","0.0-24.0-0.0-0.25","1319","List2B","black","man","","","","","","","","survey_race","24","","","I enjoy being in large groups.","filler"
"6491.200000047684","","","html-slider-response","434","3152299","0.0-24.0-0.0-0.26","1319","List2B","black","man","","","","","","","","survey_race","89","","","I feel committed to my race.","committed"
"6324","","","html-slider-response","435","3158625","0.0-24.0-0.0-0.27","1319","List2B","black","man","","","","","","","","survey_race","62","","","I am glad to be the age I am.","filler"
"11800.800000190735","","","html-slider-response","436","3170428","0.0-24.0-1.0-0.0","1319","List2B","black","man","","","","","","","","survey_gender","34","","","I would say I am an animal person.","filler"
"13349.399999856949","","","html-slider-response","437","3183779","0.0-24.0-1.0-0.1","1319","List2B","black","man","","","","","","","","survey_gender","54","","","I often think about the fact that I am my gender.","often"
"11155.400000095367","","","html-slider-response","438","3194936","0.0-24.0-1.0-0.2","1319","List2B","black","man","","","","","","","","survey_gender","56","","","I have a lot in common with the average person of my gender.","average"
"7021","","","html-slider-response","439","3201959","0.0-24.0-1.0-0.3","1319","List2B","black","man","","","","","","","","survey_gender","100","","","I think that my gender has a lot to be proud of.","proud"
"18709.5","","","html-slider-response","440","3220671","0.0-24.0-1.0-0.4","1319","List2B","black","man","","","","","","","","survey_gender","0","","","Family is not more important to me than friendship.","filler"
"5094.799999952316","","","html-slider-response","441","3225768","0.0-24.0-1.0-0.5","1319","List2B","black","man","","","","","","","","survey_gender","100","","","I am glad to be my gender.","glad"
"6025.899999856949","","","html-slider-response","442","3231795","0.0-24.0-1.0-0.6","1319","List2B","black","man","","","","","","","","survey_gender","45","","","I feel solidarity with my friends.","filler"
"9227.900000095367","","","html-slider-response","443","3241025","0.0-24.0-1.0-0.7","1319","List2B","black","man","","","","","","","","survey_gender","100","","","Being my gender is an important part of how I see myself.","important"
"5372.899999856949","","","html-slider-response","444","3246401","0.0-24.0-1.0-0.8","1319","List2B","black","man","","","","","","","","survey_gender","39","","","My friends have a lot in common with each other.","filler"
"8539.299999952316","","","html-slider-response","445","3254942","0.0-24.0-1.0-0.9","1319","List2B","black","man","","","","","","","","survey_gender","100","","","It is not always easy for people to know what I am thinking.","filler"
"7979.5","","","html-slider-response","446","3262923","0.0-24.0-1.0-0.10","1319","List2B","black","man","","","","","","","","survey_gender","56","","","People of my gender are very similar to each other.","verysimilar"
"5576.100000143051","","","html-slider-response","447","3268501","0.0-24.0-1.0-0.11","1319","List2B","black","man","","","","","","","","survey_gender","100","","","I feel committed to my gender.","committed"
"12768.200000047684","","","html-slider-response","448","3281271","0.0-24.0-1.0-0.12","1319","List2B","black","man","","","","","","","","survey_gender","42","","","Most of the friends in my life are very similar to me.","filler"
"6209.799999952316","","","html-slider-response","449","3287483","0.0-24.0-1.0-0.13","1319","List2B","black","man","","","","","","","","survey_gender","88","","","Being around my friends gives me a good feeling.","filler"
"9579.5","","","html-slider-response","450","3297064","0.0-24.0-1.0-0.14","1319","List2B","black","man","","","","","","","","survey_gender","95","","","I am glad to have the friends that I have.","filler"
"4365","","","html-slider-response","451","3301431","0.0-24.0-1.0-0.15","1319","List2B","black","man","","","","","","","","survey_gender","100","","","It is pleasant to be my gender.","pleasant"
"7441.299999952316","","","html-slider-response","452","3308874","0.0-24.0-1.0-0.16","1319","List2B","black","man","","","","","","","","survey_gender","66","","","I often think about my actions.","filler"
"4425","","","html-slider-response","453","3313301","0.0-24.0-1.0-0.17","1319","List2B","black","man","","","","","","","","survey_gender","100","","","I feel solidarity with my gender.","solidarity"
"9621.299999952316","","","html-slider-response","454","3322924","0.0-24.0-1.0-0.18","1319","List2B","black","man","","","","","","","","survey_gender","62","","","I feel a bond with my friends.","filler"
"5364.599999904633","","","html-slider-response","455","3328291","0.0-24.0-1.0-0.19","1319","List2B","black","man","","","","","","","","survey_gender","100","","","The fact that I am my gender is an important part of my identity.","identity"
"5802.799999952316","","","html-slider-response","456","3334095","0.0-24.0-1.0-0.20","1319","List2B","black","man","","","","","","","","survey_gender","70","","","I consider myself a highly empathetic person.","filler"
"6943.200000047684","","","html-slider-response","457","3341041","0.0-24.0-1.0-0.21","1319","List2B","black","man","","","","","","","","survey_gender","62","","","People of my gender have a lot in common with each other.","common"
"6807.200000047684","","","html-slider-response","458","3347850","0.0-24.0-1.0-0.22","1319","List2B","black","man","","","","","","","","survey_gender","44","","","I am similar to the average person of my gender.","similar"
"5026.700000047684","","","html-slider-response","459","3352878","0.0-24.0-1.0-0.23","1319","List2B","black","man","","","","","","","","survey_gender","100","","","Being my gender gives me a good feeling.","feeling"
"39693.5","","","html-slider-response","460","3392574","0.0-24.0-1.0-0.24","1319","List2B","black","man","","","","","","","","survey_gender","16","","","Routine is not important to me.","filler"
"5332.099999904633","","","html-slider-response","461","3397908","0.0-24.0-1.0-0.25","1319","List2B","black","man","","","","","","","","survey_gender","100","","","I feel a bond with my gender.","bond"
"6928.300000190735","","","html-slider-response","462","3404838","0.0-24.0-1.0-0.26","1319","List2B","black","man","","","","","","","","survey_gender","75","","","My friends understand me.","filler"
"5512.100000143051","","","html-slider-response","463","3410352","0.0-24.0-1.0-0.27","1319","List2B","black","man","","","","","","","","survey_gender","41","","","I have a lot in common with my friends.","filler"
"23900.200000047684","","","survey-text","464","3434255","0.0-25.0","1319","List2B","black","man","","","","","{""Q0"":""615a246b9484d07bb01d0724""}","","","worker_id","","","","",""
"36758.699999809265","","","external-html","465","3471867","0.0-26.0","1319","List2B","black","man","debrief.html","","","","","","","","","","","",""
