rt,stimulus,button_pressed,trial_type,trial_index,time_elapsed,internal_node_id,subject,list,ppt_race,ppt_gender,url,first_guess,correct,key_press,responses,image_type,phrase_type,test_part,response,stimulus1,stimulus2,question_type,survey_item
2393,Welcome to the experiment. Press Continue to begin.,0,html-button-response,0,2412,0.0-0.0,13470,List2B,white,woman,,,,,,,,,,,,,
45166,,,external-html,1,48773,0.0-1.0,13470,List2B,white,woman,consent.html,,,,,,,,,,,,
5891,"<p>On the next page, you will see portraits of 8 people and their names.</p><p>Your first task is to take a few minutes to memorise the names of these people.</p><p>You will have to recall their names during the rest of the experiment, so it is</p><p>essential that you try to memorise these people and their names as best as you can.</p><br><p><strong>You will then be tested on your memory of these names and portraits.</strong></p><br><p>The experiment will start after you have completed this memory test.</p><br><p>Ready?</p>",0,html-button-response,2,54667,0.0-2.0,13470,List2B,white,woman,,,,,,,,,,,,,
210344,"<img src='img/portrait_matrix_list2.jpg' style='width:900px;height:500px;''></img><p>If you have memorised all the portraits and names and are ready to start, press Continue.</p><p><strong>Please note: Your memory of these faces will be tested 4 times during this experiment.</strong></p>",0,html-button-response,3,266018,0.0-3.0-0.0,13470,List2B,white,woman,,,,,,,,,,,,,
8217,"<img src=""portrait/WM1.jpg""style=""height:400px;""></img>",6,html-button-response,4,275243,0.0-3.0-1.0,13470,List2B,white,woman,,TRUE,6,,,,,,,,,,
null,CORRECT,,html-keyboard-response,5,276767,0.0-3.0-2.0-0.0,13470,List2B,white,woman,,,,null,,,,,,,,,
2728,"<img src=""portrait/WW1.jpg""style=""height:400px;""></img>",1,html-button-response,6,279498,0.0-3.0-4.0,13470,List2B,white,woman,,TRUE,1,,,,,,,,,,
null,CORRECT,,html-keyboard-response,7,281013,0.0-3.0-5.0-0.0,13470,List2B,white,woman,,,,null,,,,,,,,,
2197,"<img src=""portrait/BM2.jpg""style=""height:400px;""></img>",5,html-button-response,8,283210,0.0-3.0-7.0,13470,List2B,white,woman,,TRUE,5,,,,,,,,,,
null,CORRECT,,html-keyboard-response,9,284737,0.0-3.0-8.0-0.0,13470,List2B,white,woman,,,,null,,,,,,,,,
8742,"<img src=""portrait/WW2.jpg""style=""height:400px;""></img>",3,html-button-response,10,293483,0.0-3.0-10.0,13470,List2B,white,woman,,TRUE,3,,,,,,,,,,
null,CORRECT,,html-keyboard-response,11,295000,0.0-3.0-11.0-0.0,13470,List2B,white,woman,,,,null,,,,,,,,,
2585,"<img src=""portrait/BW1.jpg""style=""height:400px;""></img>",2,html-button-response,12,297587,0.0-3.0-13.0,13470,List2B,white,woman,,TRUE,0,,,,,,,,,,
12170,"<img src=""portrait/BW1.jpg""style=""height:400px;""></img>",0,html-button-response,13,310770,0.0-3.0-15.0-0.0,13470,List2B,white,woman,,FALSE,0,,,,,,,,,,
null,CORRECT,,html-keyboard-response,14,312293,0.0-3.0-15.0-1.0-0.0,13470,List2B,white,woman,,,,null,,,,,,,,,
13035,"<img src=""portrait/BM1.jpg""style=""height:400px;""></img>",4,html-button-response,15,325330,0.0-3.0-16.0,13470,List2B,white,woman,,TRUE,4,,,,,,,,,,
null,CORRECT,,html-keyboard-response,16,326858,0.0-3.0-17.0-0.0,13470,List2B,white,woman,,,,null,,,,,,,,,
5910,"<img src=""portrait/BW2.jpg""style=""height:400px;""></img>",2,html-button-response,17,332770,0.0-3.0-19.0,13470,List2B,white,woman,,TRUE,2,,,,,,,,,,
null,CORRECT,,html-keyboard-response,18,334274,0.0-3.0-20.0-0.0,13470,List2B,white,woman,,,,null,,,,,,,,,
4214,"<img src=""portrait/WM2.jpg""style=""height:400px;""></img>",7,html-button-response,19,338490,0.0-3.0-22.0,13470,List2B,white,woman,,TRUE,7,,,,,,,,,,
null,CORRECT,,html-keyboard-response,20,340001,0.0-3.0-23.0-0.0,13470,List2B,white,woman,,,,null,,,,,,,,,
1958,<p>You got 7 out of 8 right first time. Press Continue.</p>,0,html-button-response,21,341962,0.0-3.0-25.0,13470,List2B,white,woman,,,,,,,,,,,,,
4021,"As you did not score 100%, the memory game will repeat. Press Continue.",0,html-button-response,22,346994,0.0-3.0-26.0-0.0,13470,List2B,white,woman,,,,,,,,,,,,,
124813,"<img src='img/portrait_matrix_list2.jpg' style='width:900px;height:500px;''></img><p>If you have memorised all the portraits and names and are ready to start, press Continue.</p><p><strong>Please note: Your memory of these faces will be tested 4 times during this experiment.</strong></p>",0,html-button-response,23,472825,0.0-3.1-0.1,13470,List2B,white,woman,,,,,,,,,,,,,
6967,"<img src=""portrait/WM1.jpg""style=""height:400px;""></img>",6,html-button-response,24,480802,0.0-3.1-1.1,13470,List2B,white,woman,,TRUE,6,,,,,,,,,,
null,CORRECT,,html-keyboard-response,25,482327,0.0-3.1-2.1-0.1,13470,List2B,white,woman,,,,null,,,,,,,,,
2441,"<img src=""portrait/WW1.jpg""style=""height:400px;""></img>",1,html-button-response,26,484769,0.0-3.1-4.1,13470,List2B,white,woman,,TRUE,1,,,,,,,,,,
null,CORRECT,,html-keyboard-response,27,486287,0.0-3.1-5.1-0.1,13470,List2B,white,woman,,,,null,,,,,,,,,
2120,"<img src=""portrait/BM2.jpg""style=""height:400px;""></img>",5,html-button-response,28,488410,0.0-3.1-7.1,13470,List2B,white,woman,,TRUE,5,,,,,,,,,,
null,CORRECT,,html-keyboard-response,29,489931,0.0-3.1-8.1-0.1,13470,List2B,white,woman,,,,null,,,,,,,,,
9316,"<img src=""portrait/WW2.jpg""style=""height:400px;""></img>",3,html-button-response,30,499250,0.0-3.1-10.1,13470,List2B,white,woman,,TRUE,3,,,,,,,,,,
null,CORRECT,,html-keyboard-response,31,500765,0.0-3.1-11.1-0.1,13470,List2B,white,woman,,,,null,,,,,,,,,
8458,"<img src=""portrait/BW1.jpg""style=""height:400px;""></img>",0,html-button-response,32,509226,0.0-3.1-13.1,13470,List2B,white,woman,,TRUE,0,,,,,,,,,,
null,CORRECT,,html-keyboard-response,33,510758,0.0-3.1-14.1-0.1,13470,List2B,white,woman,,,,null,,,,,,,,,
12266,"<img src=""portrait/BM1.jpg""style=""height:400px;""></img>",4,html-button-response,34,523026,0.0-3.1-16.1,13470,List2B,white,woman,,TRUE,4,,,,,,,,,,
null,CORRECT,,html-keyboard-response,35,524557,0.0-3.1-17.1-0.1,13470,List2B,white,woman,,,,null,,,,,,,,,
9397,"<img src=""portrait/BW2.jpg""style=""height:400px;""></img>",2,html-button-response,36,533954,0.0-3.1-19.1,13470,List2B,white,woman,,TRUE,2,,,,,,,,,,
null,CORRECT,,html-keyboard-response,37,535477,0.0-3.1-20.1-0.1,13470,List2B,white,woman,,,,null,,,,,,,,,
1947,"<img src=""portrait/WM2.jpg""style=""height:400px;""></img>",7,html-button-response,38,537425,0.0-3.1-22.1,13470,List2B,white,woman,,TRUE,7,,,,,,,,,,
null,CORRECT,,html-keyboard-response,39,538952,0.0-3.1-23.1-0.1,13470,List2B,white,woman,,,,null,,,,,,,,,
2543,<p>You got 8 out of 8 right first time. Press Continue.</p>,0,html-button-response,40,541498,0.0-3.1-25.1,13470,List2B,white,woman,,,,,,,,,,,,,
93833,"<p>In this experiment, you will view photographs of the people from the memory game interacting.</p><p>By using the <strong>exact</strong> phrase given <i>after</i> the photograph appears and recalling the correct names of the people in the photographs, form a sentence describing the interaction. You do not need to capitalise names.</p><p>Type your answer in the space provided. Please complete every sentence before moving onto the next trial.</p><p>You will only have a few seconds to memorise each given photograph and phrase before you can respond, so try your best to focus.</p><p>An example is given below. Press 'Continue' when you are ready.</p><img src='img/speaking_example.jpg' style='width:800px;height:460px;''></img>",0,html-button-response,41,636346,0.0-4.0,13470,List2B,white,woman,,,,,,,,,,,,,
3193,"<p>Before the experiment starts, you will watch two example trials. Press 'Continue'.</p>",0,html-button-response,42,640554,0.0-5.0,13470,List2B,white,woman,,,,,,,,,,,,,
null,<img src='img/play_eg.gif' style='height:400px;''></img>,,html-keyboard-response,43,643570,0.0-6.0,13470,List2B,white,woman,,,,null,,,,,,,,,
null,<p>is playing with</p>,,html-keyboard-response,44,645574,0.0-7.0,13470,List2B,white,woman,,,,null,,,,,,,,,
23033,<p><b>Answer:</b> jane is playing with ruth</p>,0,html-button-response,45,668608,0.0-8.0,13470,List2B,white,woman,,,,,,,,,,,,,
null,<img src='img/dance_eg.gif' style='height:400px;''></img>,,html-keyboard-response,46,671632,0.0-9.0,13470,List2B,white,woman,,,,null,,,,,,,,,
null,<p>is being entertained by</p>,,html-keyboard-response,47,673642,0.0-10.0,13470,List2B,white,woman,,,,null,,,,,,,,,
11524,<p><b>Answer:</b> fred is being entertained by mike</p>,0,html-button-response,48,685168,0.0-11.0,13470,List2B,white,woman,,,,,,,,,,,,,
6903,"<p>Ready to start the experiment?</p><br><p><strong>Remember to describe the picture using a full sentence,</strong></p><p><strong>that combines the names of the people with the <i>exact</i> phrase given.</strong></p><p><strong>To receive full payment you must do this correctly.</strong></p><p><strong> You do not need to capitalise names or use punctuation.</strong></p><br><p>Press 'Continue' to begin.</p>",0,html-button-response,49,693081,0.0-12.0,13470,List2B,white,woman,,,,,,,,,,,,,
null,"<div style=""font-size:60px;"">+</div>",,html-keyboard-response,50,694585,0.0-13.0-0.0,13470,List2B,white,woman,,,,null,,,,,,,,,
null,"<img src=""stim_listB/kiss7.gif""style=""height:400px;""></stim_listB>",,html-keyboard-response,51,696591,0.0-13.0-1.0,13470,List2B,white,woman,,,,null,,,,,,,,,
null,is kissing,,html-keyboard-response,52,698593,0.0-13.0-2.0,13470,List2B,white,woman,,,,null,,,,,,,,,
63868,,,survey-text,53,762469,0.0-13.0-3.0,13470,List2B,white,woman,,,,,"{""Q0"":""ruth is kissing kate""}","<img src=""stim_listB/kiss7.gif""style=""height:400px;""></stim_listB>",is kissing,,,,,,
null,"<div style=""font-size:60px;"">+</div>",,html-keyboard-response,54,762984,0.0-13.0-0.1,13470,List2B,white,woman,,,,null,,,,,,,,,
null,"<img src=""stim_listB/hug6.gif""style=""height:400px;""></stim_listB>",,html-keyboard-response,55,764998,0.0-13.0-1.1,13470,List2B,white,woman,,,,null,,,,,,,,,
null,is being hugged by,,html-keyboard-response,56,767011,0.0-13.0-2.1,13470,List2B,white,woman,,,,null,,,,,,,,,
28716,,,survey-text,57,795732,0.0-13.0-3.1,13470,List2B,white,woman,,,,,"{""Q0"":""mike is being hugged by david""}","<img src=""stim_listB/hug6.gif""style=""height:400px;""></stim_listB>",is being hugged by,,,,,,
null,"<div style=""font-size:60px;"">+</div>",,html-keyboard-response,58,796241,0.0-13.0-0.2,13470,List2B,white,woman,,,,null,,,,,,,,,
null,"<img src=""stim_listB/touch8.gif""style=""height:400px;""></stim_listB>",,html-keyboard-response,59,798250,0.0-13.0-1.2,13470,List2B,white,woman,,,,null,,,,,,,,,
null,is being touched by,,html-keyboard-response,60,800258,0.0-13.0-2.2,13470,List2B,white,woman,,,,null,,,,,,,,,
36965,,,survey-text,61,837229,0.0-13.0-3.2,13470,List2B,white,woman,,,,,"{""Q0"":""ruth is being touched by kate""}","<img src=""stim_listB/touch8.gif""style=""height:400px;""></stim_listB>",is being touched by,,,,,,
null,"<div style=""font-size:60px;"">+</div>",,html-keyboard-response,62,837738,0.0-13.0-0.3,13470,List2B,white,woman,,,,null,,,,,,,,,
null,"<img src=""stim_listB/shout1.gif""style=""height:400px;""></stim_listB>",,html-keyboard-response,63,839740,0.0-13.0-1.3,13470,List2B,white,woman,,,,null,,,,,,,,,
null,is shouting at,,html-keyboard-response,64,841743,0.0-13.0-2.3,13470,List2B,white,woman,,,,null,,,,,,,,,
19321,,,survey-text,65,861070,0.0-13.0-3.3,13470,List2B,white,woman,,,,,"{""Q0"":""ruth is shouting at luke""}","<img src=""stim_listB/shout1.gif""style=""height:400px;""></stim_listB>",is shouting at,,,,,,
null,"<div style=""font-size:60px;"">+</div>",,html-keyboard-response,66,861577,0.0-13.0-0.4,13470,List2B,white,woman,,,,null,,,,,,,,,
null,"<img src=""stim_listB/seduce2.gif""style=""height:400px;""></stim_listB>",,html-keyboard-response,67,863578,0.0-13.0-1.4,13470,List2B,white,woman,,,,null,,,,,,,,,
null,is being seduced by,,html-keyboard-response,68,865581,0.0-13.0-2.4,13470,List2B,white,woman,,,,null,,,,,,,,,
11952,,,survey-text,69,877538,0.0-13.0-3.4,13470,List2B,white,woman,,,,,"{""Q0"":""ruth is being seduced by david""}","<img src=""stim_listB/seduce2.gif""style=""height:400px;""></stim_listB>",is being seduced by,,,,,,
null,"<div style=""font-size:60px;"">+</div>",,html-keyboard-response,70,878043,0.0-13.0-0.5,13470,List2B,white,woman,,,,null,,,,,,,,,
null,"<img src=""stim_listB/hug7.gif""style=""height:400px;""></stim_listB>",,html-keyboard-response,71,880060,0.0-13.0-1.5,13470,List2B,white,woman,,,,null,,,,,,,,,
null,is hugging,,html-keyboard-response,72,882074,0.0-13.0-2.5,13470,List2B,white,woman,,,,null,,,,,,,,,
10822,,,survey-text,73,892900,0.0-13.0-3.5,13470,List2B,white,woman,,,,,"{""Q0"":""beth is being hugged by ruth""}","<img src=""stim_listB/hug7.gif""style=""height:400px;""></stim_listB>",is hugging,,,,,,
null,"<div style=""font-size:60px;"">+</div>",,html-keyboard-response,74,893406,0.0-13.0-0.6,13470,List2B,white,woman,,,,null,,,,,,,,,
null,"<img src=""stim_listB/seduce1.gif""style=""height:400px;""></stim_listB>",,html-keyboard-response,75,895412,0.0-13.0-1.6,13470,List2B,white,woman,,,,null,,,,,,,,,
null,is seducing,,html-keyboard-response,76,897426,0.0-13.0-2.6,13470,List2B,white,woman,,,,null,,,,,,,,,
27509,,,survey-text,77,924940,0.0-13.0-3.6,13470,List2B,white,woman,,,,,"{""Q0"":""jane is seducing luke""}","<img src=""stim_listB/seduce1.gif""style=""height:400px;""></stim_listB>",is seducing,,,,,,
null,"<div style=""font-size:60px;"">+</div>",,html-keyboard-response,78,925454,0.0-13.0-0.7,13470,List2B,white,woman,,,,null,,,,,,,,,
null,"<img src=""stim_listB/shout7.gif""style=""height:400px;""></stim_listB>",,html-keyboard-response,79,927466,0.0-13.0-1.7,13470,List2B,white,woman,,,,null,,,,,,,,,
null,is shouting at,,html-keyboard-response,80,929476,0.0-13.0-2.7,13470,List2B,white,woman,,,,null,,,,,,,,,
24818,,,survey-text,81,954299,0.0-13.0-3.7,13470,List2B,white,woman,,,,,"{""Q0"":""beth is shouting at ruth ""}","<img src=""stim_listB/shout7.gif""style=""height:400px;""></stim_listB>",is shouting at,,,,,,
null,"<div style=""font-size:60px;"">+</div>",,html-keyboard-response,82,954805,0.0-13.0-0.8,13470,List2B,white,woman,,,,null,,,,,,,,,
null,"<img src=""stim_listB/greet2.gif""style=""height:400px;""></stim_listB>",,html-keyboard-response,83,956815,0.0-13.0-1.8,13470,List2B,white,woman,,,,null,,,,,,,,,
null,is being greeted by,,html-keyboard-response,84,958819,0.0-13.0-2.8,13470,List2B,white,woman,,,,null,,,,,,,,,
31901,,,survey-text,85,990726,0.0-13.0-3.8,13470,List2B,white,woman,,,,,"{""Q0"":""jane is being greeted by luke""}","<img src=""stim_listB/greet2.gif""style=""height:400px;""></stim_listB>",is being greeted by,,,,,,
null,"<div style=""font-size:60px;"">+</div>",,html-keyboard-response,86,991235,0.0-13.0-0.9,13470,List2B,white,woman,,,,null,,,,,,,,,
null,"<img src=""stim_listB/oppose2.gif""style=""height:400px;""></stim_listB>",,html-keyboard-response,87,993240,0.0-13.0-1.9,13470,List2B,white,woman,,,,null,,,,,,,,,
null,is being opposed by,,html-keyboard-response,88,995240,0.0-13.0-2.9,13470,List2B,white,woman,,,,null,,,,,,,,,
15415,,,survey-text,89,1010660,0.0-13.0-3.9,13470,List2B,white,woman,,,,,"{""Q0"":""ruth is being opposed by luke""}","<img src=""stim_listB/oppose2.gif""style=""height:400px;""></stim_listB>",is being opposed by,,,,,,
null,"<div style=""font-size:60px;"">+</div>",,html-keyboard-response,90,1011176,0.0-13.0-0.10,13470,List2B,white,woman,,,,null,,,,,,,,,
null,"<img src=""stim_listB/challenge2.gif""style=""height:400px;""></stim_listB>",,html-keyboard-response,91,1013189,0.0-13.0-1.10,13470,List2B,white,woman,,,,null,,,,,,,,,
null,is being challenged by,,html-keyboard-response,92,1015199,0.0-13.0-2.10,13470,List2B,white,woman,,,,null,,,,,,,,,
20744,,,survey-text,93,1035947,0.0-13.0-3.10,13470,List2B,white,woman,,,,,"{""Q0"":""luke is being challenged by jane""}","<img src=""stim_listB/challenge2.gif""style=""height:400px;""></stim_listB>",is being challenged by,,,,,,
null,"<div style=""font-size:60px;"">+</div>",,html-keyboard-response,94,1036453,0.0-13.0-0.11,13470,List2B,white,woman,,,,null,,,,,,,,,
null,"<img src=""stim_listB/challenge1.gif""style=""height:400px;""></stim_listB>",,html-keyboard-response,95,1038462,0.0-13.0-1.11,13470,List2B,white,woman,,,,null,,,,,,,,,
null,is challenging,,html-keyboard-response,96,1040470,0.0-13.0-2.11,13470,List2B,white,woman,,,,null,,,,,,,,,
11554,,,survey-text,97,1052027,0.0-13.0-3.11,13470,List2B,white,woman,,,,,"{""Q0"":""ruth is challenging david""}","<img src=""stim_listB/challenge1.gif""style=""height:400px;""></stim_listB>",is challenging,,,,,,
null,"<div style=""font-size:60px;"">+</div>",,html-keyboard-response,98,1052530,0.0-13.0-0.12,13470,List2B,white,woman,,,,null,,,,,,,,,
null,"<img src=""stim_listB/hug2.gif""style=""height:400px;""></stim_listB>",,html-keyboard-response,99,1054531,0.0-13.0-1.12,13470,List2B,white,woman,,,,null,,,,,,,,,
null,is being hugged by,,html-keyboard-response,100,1056534,0.0-13.0-2.12,13470,List2B,white,woman,,,,null,,,,,,,,,
18752,,,survey-text,101,1075291,0.0-13.0-3.12,13470,List2B,white,woman,,,,,"{""Q0"":""david is being hugged by jane""}","<img src=""stim_listB/hug2.gif""style=""height:400px;""></stim_listB>",is being hugged by,,,,,,
null,"<div style=""font-size:60px;"">+</div>",,html-keyboard-response,102,1075795,0.0-13.0-0.13,13470,List2B,white,woman,,,,null,,,,,,,,,
null,"<img src=""stim_listB/touch3.gif""style=""height:400px;""></stim_listB>",,html-keyboard-response,103,1077801,0.0-13.0-1.13,13470,List2B,white,woman,,,,null,,,,,,,,,
null,is touching,,html-keyboard-response,104,1079806,0.0-13.0-2.13,13470,List2B,white,woman,,,,null,,,,,,,,,
18082,,,survey-text,105,1097892,0.0-13.0-3.13,13470,List2B,white,woman,,,,,"{""Q0"":""mike is touching kate""}","<img src=""stim_listB/touch3.gif""style=""height:400px;""></stim_listB>",is touching,,,,,,
null,"<div style=""font-size:60px;"">+</div>",,html-keyboard-response,106,1098408,0.0-13.0-0.14,13470,List2B,white,woman,,,,null,,,,,,,,,
null,"<img src=""stim_listB/shout6.gif""style=""height:400px;""></stim_listB>",,html-keyboard-response,107,1100420,0.0-13.0-1.14,13470,List2B,white,woman,,,,null,,,,,,,,,
null,is being shouted at by,,html-keyboard-response,108,1102425,0.0-13.0-2.14,13470,List2B,white,woman,,,,null,,,,,,,,,
51470,,,survey-text,109,1153900,0.0-13.0-3.14,13470,List2B,white,woman,,,,,"{""Q0"":""mike is being shouted at by david""}","<img src=""stim_listB/shout6.gif""style=""height:400px;""></stim_listB>",is being shouted at by,,,,,,
null,"<div style=""font-size:60px;"">+</div>",,html-keyboard-response,110,1154405,0.0-13.0-0.15,13470,List2B,white,woman,,,,null,,,,,,,,,
null,"<img src=""stim_listB/kiss1.gif""style=""height:400px;""></stim_listB>",,html-keyboard-response,111,1156416,0.0-13.0-1.15,13470,List2B,white,woman,,,,null,,,,,,,,,
null,is kissing,,html-keyboard-response,112,1158432,0.0-13.0-2.15,13470,List2B,white,woman,,,,null,,,,,,,,,
15343,,,survey-text,113,1173779,0.0-13.0-3.15,13470,List2B,white,woman,,,,,"{""Q0"":""luke is kissing ruth""}","<img src=""stim_listB/kiss1.gif""style=""height:400px;""></stim_listB>",is kissing,,,,,,
null,"<div style=""font-size:60px;"">+</div>",,html-keyboard-response,114,1174287,0.0-13.0-0.16,13470,List2B,white,woman,,,,null,,,,,,,,,
null,"<img src=""stim_listB/shout2.gif""style=""height:400px;""></stim_listB>",,html-keyboard-response,115,1176296,0.0-13.0-1.16,13470,List2B,white,woman,,,,null,,,,,,,,,
null,is being shouted at by,,html-keyboard-response,116,1178311,0.0-13.0-2.16,13470,List2B,white,woman,,,,null,,,,,,,,,
29457,,,survey-text,117,1207771,0.0-13.0-3.16,13470,List2B,white,woman,,,,,"{""Q0"":""david is being shouted at by jane""}","<img src=""stim_listB/shout2.gif""style=""height:400px;""></stim_listB>",is being shouted at by,,,,,,
null,"<div style=""font-size:60px;"">+</div>",,html-keyboard-response,118,1208280,0.0-13.0-0.17,13470,List2B,white,woman,,,,null,,,,,,,,,
null,"<img src=""stim_listB/touch7.gif""style=""height:400px;""></stim_listB>",,html-keyboard-response,119,1210291,0.0-13.0-1.17,13470,List2B,white,woman,,,,null,,,,,,,,,
null,is touching,,html-keyboard-response,120,1212301,0.0-13.0-2.17,13470,List2B,white,woman,,,,null,,,,,,,,,
24257,,,survey-text,121,1236563,0.0-13.0-3.17,13470,List2B,white,woman,,,,,"{""Q0"":""kate is touching jane""}","<img src=""stim_listB/touch7.gif""style=""height:400px;""></stim_listB>",is touching,,,,,,
null,"<div style=""font-size:60px;"">+</div>",,html-keyboard-response,122,1237074,0.0-13.0-0.18,13470,List2B,white,woman,,,,null,,,,,,,,,
null,"<img src=""stim_listB/seduce7.gif""style=""height:400px;""></stim_listB>",,html-keyboard-response,123,1239089,0.0-13.0-1.18,13470,List2B,white,woman,,,,null,,,,,,,,,
null,is seducing,,html-keyboard-response,124,1241101,0.0-13.0-2.18,13470,List2B,white,woman,,,,null,,,,,,,,,
15073,,,survey-text,125,1256179,0.0-13.0-3.18,13470,List2B,white,woman,,,,,"{""Q0"":""ruth is seducing kate""}","<img src=""stim_listB/seduce7.gif""style=""height:400px;""></stim_listB>",is seducing,,,,,,
null,"<div style=""font-size:60px;"">+</div>",,html-keyboard-response,126,1256688,0.0-13.0-0.19,13470,List2B,white,woman,,,,null,,,,,,,,,
null,"<img src=""stim_listB/greet7.gif""style=""height:400px;""></stim_listB>",,html-keyboard-response,127,1258702,0.0-13.0-1.19,13470,List2B,white,woman,,,,null,,,,,,,,,
null,is greeting,,html-keyboard-response,128,1260707,0.0-13.0-2.19,13470,List2B,white,woman,,,,null,,,,,,,,,
16685,,,survey-text,129,1277395,0.0-13.0-3.19,13470,List2B,white,woman,,,,,"{""Q0"":""ruth is greeting beth""}","<img src=""stim_listB/greet7.gif""style=""height:400px;""></stim_listB>",is greeting,,,,,,
10994,"<img src='img/portrait_matrix_list2.jpg' style='width:900px;height:500px;''></img><p>If you have memorised all the portraits and names and are ready to start, press Continue.</p><p><strong>Please note: Your memory of these faces will be tested 4 times during this experiment.</strong></p>",0,html-button-response,130,1288392,0.0-14.0-0.0,13470,List2B,white,woman,,,,,,,,,,,,,
6342,"<img src=""portrait/WM1.jpg""style=""height:400px;""></img>",6,html-button-response,131,1295751,0.0-14.0-1.0,13470,List2B,white,woman,,TRUE,6,,,,,,,,,,
null,CORRECT,,html-keyboard-response,132,1297273,0.0-14.0-2.0-0.0,13470,List2B,white,woman,,,,null,,,,,,,,,
2557,"<img src=""portrait/BW1.jpg""style=""height:400px;""></img>",0,html-button-response,133,1299832,0.0-14.0-4.0,13470,List2B,white,woman,,TRUE,0,,,,,,,,,,
null,CORRECT,,html-keyboard-response,134,1301343,0.0-14.0-5.0-0.0,13470,List2B,white,woman,,,,null,,,,,,,,,
6217,"<img src=""portrait/BM1.jpg""style=""height:400px;""></img>",4,html-button-response,135,1307560,0.0-14.0-7.0,13470,List2B,white,woman,,TRUE,4,,,,,,,,,,
null,CORRECT,,html-keyboard-response,136,1309083,0.0-14.0-8.0-0.0,13470,List2B,white,woman,,,,null,,,,,,,,,
1819,"<img src=""portrait/WM2.jpg""style=""height:400px;""></img>",7,html-button-response,137,1310904,0.0-14.0-10.0,13470,List2B,white,woman,,TRUE,7,,,,,,,,,,
null,CORRECT,,html-keyboard-response,138,1312415,0.0-14.0-11.0-0.0,13470,List2B,white,woman,,,,null,,,,,,,,,
4815,"<img src=""portrait/WW2.jpg""style=""height:400px;""></img>",3,html-button-response,139,1317233,0.0-14.0-13.0,13470,List2B,white,woman,,TRUE,3,,,,,,,,,,
null,CORRECT,,html-keyboard-response,140,1318763,0.0-14.0-14.0-0.0,13470,List2B,white,woman,,,,null,,,,,,,,,
2252,"<img src=""portrait/BM2.jpg""style=""height:400px;""></img>",5,html-button-response,141,1321016,0.0-14.0-16.0,13470,List2B,white,woman,,TRUE,5,,,,,,,,,,
null,CORRECT,,html-keyboard-response,142,1322543,0.0-14.0-17.0-0.0,13470,List2B,white,woman,,,,null,,,,,,,,,
2120,"<img src=""portrait/WW1.jpg""style=""height:400px;""></img>",1,html-button-response,143,1324664,0.0-14.0-19.0,13470,List2B,white,woman,,TRUE,1,,,,,,,,,,
null,CORRECT,,html-keyboard-response,144,1326182,0.0-14.0-20.0-0.0,13470,List2B,white,woman,,,,null,,,,,,,,,
2816,"<img src=""portrait/BW2.jpg""style=""height:400px;""></img>",2,html-button-response,145,1328999,0.0-14.0-22.0,13470,List2B,white,woman,,TRUE,2,,,,,,,,,,
null,CORRECT,,html-keyboard-response,146,1330523,0.0-14.0-23.0-0.0,13470,List2B,white,woman,,,,null,,,,,,,,,
4972,<p>You got 8 out of 8 right first time. Press Continue.</p>,0,html-button-response,147,1335496,0.0-14.0-25.0,13470,List2B,white,woman,,,,,,,,,,,,,
null,"<div style=""font-size:60px;"">+</div>",,html-keyboard-response,148,1337018,0.0-15.0-0.0,13470,List2B,white,woman,,,,null,,,,,,,,,
null,"<img src=""stim_listB/touch5.gif""style=""height:400px;""></stim_listB>",,html-keyboard-response,149,1339029,0.0-15.0-1.0,13470,List2B,white,woman,,,,null,,,,,,,,,
null,is touching,,html-keyboard-response,150,1341031,0.0-15.0-2.0,13470,List2B,white,woman,,,,null,,,,,,,,,
9422,,,survey-text,151,1350458,0.0-15.0-3.0,13470,List2B,white,woman,,,,,"{""Q0"":""mike is touching david""}","<img src=""stim_listB/touch5.gif""style=""height:400px;""></stim_listB>",is touching,,,,,,
null,"<div style=""font-size:60px;"">+</div>",,html-keyboard-response,152,1350971,0.0-15.0-0.1,13470,List2B,white,woman,,,,null,,,,,,,,,
null,"<img src=""stim_listB/touch2.gif""style=""height:400px;""></stim_listB>",,html-keyboard-response,153,1352985,0.0-15.0-1.1,13470,List2B,white,woman,,,,null,,,,,,,,,
null,is being touched by,,html-keyboard-response,154,1354993,0.0-15.0-2.1,13470,List2B,white,woman,,,,null,,,,,,,,,
10480,,,survey-text,155,1365474,0.0-15.0-3.1,13470,List2B,white,woman,,,,,"{""Q0"":""luke is being touched by ruth""}","<img src=""stim_listB/touch2.gif""style=""height:400px;""></stim_listB>",is being touched by,,,,,,
null,"<div style=""font-size:60px;"">+</div>",,html-keyboard-response,156,1365987,0.0-15.0-0.2,13470,List2B,white,woman,,,,null,,,,,,,,,
null,"<img src=""stim_listB/copy2.gif""style=""height:400px;""></stim_listB>",,html-keyboard-response,157,1367999,0.0-15.0-1.2,13470,List2B,white,woman,,,,null,,,,,,,,,
null,is being copied by,,html-keyboard-response,158,1370011,0.0-15.0-2.2,13470,List2B,white,woman,,,,null,,,,,,,,,
18770,,,survey-text,159,1388786,0.0-15.0-3.2,13470,List2B,white,woman,,,,,"{""Q0"":""luke is being copied by jane""}","<img src=""stim_listB/copy2.gif""style=""height:400px;""></stim_listB>",is being copied by,,,,,,
null,"<div style=""font-size:60px;"">+</div>",,html-keyboard-response,160,1389295,0.0-15.0-0.3,13470,List2B,white,woman,,,,null,,,,,,,,,
null,"<img src=""stim_listB/oppose8.gif""style=""height:400px;""></stim_listB>",,html-keyboard-response,161,1391306,0.0-15.0-1.3,13470,List2B,white,woman,,,,null,,,,,,,,,
null,is being opposed by,,html-keyboard-response,162,1393320,0.0-15.0-2.3,13470,List2B,white,woman,,,,null,,,,,,,,,
10821,,,survey-text,163,1404146,0.0-15.0-3.3,13470,List2B,white,woman,,,,,"{""Q0"":""ruth is being opposed by beth""}","<img src=""stim_listB/oppose8.gif""style=""height:400px;""></stim_listB>",is being opposed by,,,,,,
null,"<div style=""font-size:60px;"">+</div>",,html-keyboard-response,164,1404652,0.0-15.0-0.4,13470,List2B,white,woman,,,,null,,,,,,,,,
null,"<img src=""stim_listB/shout5.gif""style=""height:400px;""></stim_listB>",,html-keyboard-response,165,1406661,0.0-15.0-1.4,13470,List2B,white,woman,,,,null,,,,,,,,,
null,is shouting at,,html-keyboard-response,166,1408668,0.0-15.0-2.4,13470,List2B,white,woman,,,,null,,,,,,,,,
16593,,,survey-text,167,1425267,0.0-15.0-3.4,13470,List2B,white,woman,,,,,"{""Q0"":""luke is shouting at fred""}","<img src=""stim_listB/shout5.gif""style=""height:400px;""></stim_listB>",is shouting at,,,,,,
null,"<div style=""font-size:60px;"">+</div>",,html-keyboard-response,168,1425781,0.0-15.0-0.5,13470,List2B,white,woman,,,,null,,,,,,,,,
null,"<img src=""stim_listB/touch4.gif""style=""height:400px;""></stim_listB>",,html-keyboard-response,169,1427795,0.0-15.0-1.5,13470,List2B,white,woman,,,,null,,,,,,,,,
null,is being touched by,,html-keyboard-response,170,1429806,0.0-15.0-2.5,13470,List2B,white,woman,,,,null,,,,,,,,,
23127,,,survey-text,171,1452939,0.0-15.0-3.5,13470,List2B,white,woman,,,,,"{""Q0"":""beth is being touched by fred""}","<img src=""stim_listB/touch4.gif""style=""height:400px;""></stim_listB>",is being touched by,,,,,,
null,"<div style=""font-size:60px;"">+</div>",,html-keyboard-response,172,1453444,0.0-15.0-0.6,13470,List2B,white,woman,,,,null,,,,,,,,,
null,"<img src=""stim_listB/look3.gif""style=""height:400px;""></stim_listB>",,html-keyboard-response,173,1455451,0.0-15.0-1.6,13470,List2B,white,woman,,,,null,,,,,,,,,
null,is looking at,,html-keyboard-response,174,1457453,0.0-15.0-2.6,13470,List2B,white,woman,,,,null,,,,,,,,,
8352,,,survey-text,175,1465811,0.0-15.0-3.6,13470,List2B,white,woman,,,,,"{""Q0"":""beth is looking at fred""}","<img src=""stim_listB/look3.gif""style=""height:400px;""></stim_listB>",is looking at,,,,,,
null,"<div style=""font-size:60px;"">+</div>",,html-keyboard-response,176,1466324,0.0-15.0-0.7,13470,List2B,white,woman,,,,null,,,,,,,,,
null,"<img src=""stim_listB/greet4.gif""style=""height:400px;""></stim_listB>",,html-keyboard-response,177,1468337,0.0-15.0-1.7,13470,List2B,white,woman,,,,null,,,,,,,,,
null,is being greeted by,,html-keyboard-response,178,1470341,0.0-15.0-2.7,13470,List2B,white,woman,,,,null,,,,,,,,,
28202,,,survey-text,179,1498547,0.0-15.0-3.7,13470,List2B,white,woman,,,,,"{""Q0"":""kate is being greeted by fred""}","<img src=""stim_listB/greet4.gif""style=""height:400px;""></stim_listB>",is being greeted by,,,,,,
null,"<div style=""font-size:60px;"">+</div>",,html-keyboard-response,180,1499061,0.0-15.0-0.8,13470,List2B,white,woman,,,,null,,,,,,,,,
null,"<img src=""stim_listB/greet3.gif""style=""height:400px;""></stim_listB>",,html-keyboard-response,181,1501073,0.0-15.0-1.8,13470,List2B,white,woman,,,,null,,,,,,,,,
null,is greeting,,html-keyboard-response,182,1503078,0.0-15.0-2.8,13470,List2B,white,woman,,,,null,,,,,,,,,
8364,,,survey-text,183,1511443,0.0-15.0-3.8,13470,List2B,white,woman,,,,,"{""Q0"":""beth is greeting mike""}","<img src=""stim_listB/greet3.gif""style=""height:400px;""></stim_listB>",is greeting,,,,,,
null,"<div style=""font-size:60px;"">+</div>",,html-keyboard-response,184,1511951,0.0-15.0-0.9,13470,List2B,white,woman,,,,null,,,,,,,,,
null,"<img src=""stim_listB/seduce5.gif""style=""height:400px;""></stim_listB>",,html-keyboard-response,185,1513953,0.0-15.0-1.9,13470,List2B,white,woman,,,,null,,,,,,,,,
null,is seducing,,html-keyboard-response,186,1515967,0.0-15.0-2.9,13470,List2B,white,woman,,,,null,,,,,,,,,
9030,,,survey-text,187,1525002,0.0-15.0-3.9,13470,List2B,white,woman,,,,,"{""Q0"":""mike is seducing luke""}","<img src=""stim_listB/seduce5.gif""style=""height:400px;""></stim_listB>",is seducing,,,,,,
null,"<div style=""font-size:60px;"">+</div>",,html-keyboard-response,188,1525508,0.0-15.0-0.10,13470,List2B,white,woman,,,,null,,,,,,,,,
null,"<img src=""stim_listB/challenge4.gif""style=""height:400px;""></stim_listB>",,html-keyboard-response,189,1527512,0.0-15.0-1.10,13470,List2B,white,woman,,,,null,,,,,,,,,
null,is being challenged by,,html-keyboard-response,190,1529517,0.0-15.0-2.10,13470,List2B,white,woman,,,,null,,,,,,,,,
19441,,,survey-text,191,1548962,0.0-15.0-3.10,13470,List2B,white,woman,,,,,"{""Q0"":""kate is being challenged by fred""}","<img src=""stim_listB/challenge4.gif""style=""height:400px;""></stim_listB>",is being challenged by,,,,,,
null,"<div style=""font-size:60px;"">+</div>",,html-keyboard-response,192,1549466,0.0-15.0-0.11,13470,List2B,white,woman,,,,null,,,,,,,,,
null,"<img src=""stim_listB/challenge5.gif""style=""height:400px;""></stim_listB>",,html-keyboard-response,193,1551481,0.0-15.0-1.11,13470,List2B,white,woman,,,,null,,,,,,,,,
null,is challenging,,html-keyboard-response,194,1553488,0.0-15.0-2.11,13470,List2B,white,woman,,,,null,,,,,,,,,
14789,,,survey-text,195,1568282,0.0-15.0-3.11,13470,List2B,white,woman,,,,,"{""Q0"":""daviid is challenging fred""}","<img src=""stim_listB/challenge5.gif""style=""height:400px;""></stim_listB>",is challenging,,,,,,
null,"<div style=""font-size:60px;"">+</div>",,html-keyboard-response,196,1568795,0.0-15.0-0.12,13470,List2B,white,woman,,,,null,,,,,,,,,
null,"<img src=""stim_listB/challenge3.gif""style=""height:400px;""></stim_listB>",,html-keyboard-response,197,1570810,0.0-15.0-1.12,13470,List2B,white,woman,,,,null,,,,,,,,,
null,is challenging,,html-keyboard-response,198,1572825,0.0-15.0-2.12,13470,List2B,white,woman,,,,null,,,,,,,,,
9967,,,survey-text,199,1582795,0.0-15.0-3.12,13470,List2B,white,woman,,,,,"{""Q0"":""mike is challenging beth""}","<img src=""stim_listB/challenge3.gif""style=""height:400px;""></stim_listB>",is challenging,,,,,,
null,"<div style=""font-size:60px;"">+</div>",,html-keyboard-response,200,1583299,0.0-15.0-0.13,13470,List2B,white,woman,,,,null,,,,,,,,,
null,"<img src=""stim_listB/shout8.gif""style=""height:400px;""></stim_listB>",,html-keyboard-response,201,1585312,0.0-15.0-1.13,13470,List2B,white,woman,,,,null,,,,,,,,,
null,is being shouted at by,,html-keyboard-response,202,1587327,0.0-15.0-2.13,13470,List2B,white,woman,,,,null,,,,,,,,,
17741,,,survey-text,203,1605073,0.0-15.0-3.13,13470,List2B,white,woman,,,,,"{""Q0"":""kate is being shouted at by jane""}","<img src=""stim_listB/shout8.gif""style=""height:400px;""></stim_listB>",is being shouted at by,,,,,,
null,"<div style=""font-size:60px;"">+</div>",,html-keyboard-response,204,1605579,0.0-15.0-0.14,13470,List2B,white,woman,,,,null,,,,,,,,,
null,"<img src=""stim_listB/oppose4.gif""style=""height:400px;""></stim_listB>",,html-keyboard-response,205,1607591,0.0-15.0-1.14,13470,List2B,white,woman,,,,null,,,,,,,,,
null,is being opposed by,,html-keyboard-response,206,1609600,0.0-15.0-2.14,13470,List2B,white,woman,,,,null,,,,,,,,,
17991,,,survey-text,207,1627594,0.0-15.0-3.14,13470,List2B,white,woman,,,,,"{""Q0"":""fred is being opposed by beth""}","<img src=""stim_listB/oppose4.gif""style=""height:400px;""></stim_listB>",is being opposed by,,,,,,
null,"<div style=""font-size:60px;"">+</div>",,html-keyboard-response,208,1628099,0.0-15.0-0.15,13470,List2B,white,woman,,,,null,,,,,,,,,
null,"<img src=""stim_listB/shout3.gif""style=""height:400px;""></stim_listB>",,html-keyboard-response,209,1630115,0.0-15.0-1.15,13470,List2B,white,woman,,,,null,,,,,,,,,
null,is shouting at,,html-keyboard-response,210,1632118,0.0-15.0-2.15,13470,List2B,white,woman,,,,null,,,,,,,,,
9208,,,survey-text,211,1641330,0.0-15.0-3.15,13470,List2B,white,woman,,,,,"{""Q0"":""fred is being shouted at by beth""}","<img src=""stim_listB/shout3.gif""style=""height:400px;""></stim_listB>",is shouting at,,,,,,
null,"<div style=""font-size:60px;"">+</div>",,html-keyboard-response,212,1641842,0.0-15.0-0.16,13470,List2B,white,woman,,,,null,,,,,,,,,
null,"<img src=""stim_listB/copy6.gif""style=""height:400px;""></stim_listB>",,html-keyboard-response,213,1643850,0.0-15.0-1.16,13470,List2B,white,woman,,,,null,,,,,,,,,
null,is being copied by,,html-keyboard-response,214,1645861,0.0-15.0-2.16,13470,List2B,white,woman,,,,null,,,,,,,,,
10811,,,survey-text,215,1656674,0.0-15.0-3.16,13470,List2B,white,woman,,,,,"{""Q0"":""mike is being copied by luke""}","<img src=""stim_listB/copy6.gif""style=""height:400px;""></stim_listB>",is being copied by,,,,,,
null,"<div style=""font-size:60px;"">+</div>",,html-keyboard-response,216,1657183,0.0-15.0-0.17,13470,List2B,white,woman,,,,null,,,,,,,,,
null,"<img src=""stim_listB/kiss3.gif""style=""height:400px;""></stim_listB>",,html-keyboard-response,217,1659195,0.0-15.0-1.17,13470,List2B,white,woman,,,,null,,,,,,,,,
null,is kissing,,html-keyboard-response,218,1661199,0.0-15.0-2.17,13470,List2B,white,woman,,,,null,,,,,,,,,
7431,,,survey-text,219,1668634,0.0-15.0-3.17,13470,List2B,white,woman,,,,,"{""Q0"":""beth is kissing fred""}","<img src=""stim_listB/kiss3.gif""style=""height:400px;""></stim_listB>",is kissing,,,,,,
null,"<div style=""font-size:60px;"">+</div>",,html-keyboard-response,220,1669138,0.0-15.0-0.18,13470,List2B,white,woman,,,,null,,,,,,,,,
null,"<img src=""stim_listB/hug8.gif""style=""height:400px;""></stim_listB>",,html-keyboard-response,221,1671152,0.0-15.0-1.18,13470,List2B,white,woman,,,,null,,,,,,,,,
null,is being hugged by,,html-keyboard-response,222,1673156,0.0-15.0-2.18,13470,List2B,white,woman,,,,null,,,,,,,,,
6928,,,survey-text,223,1680090,0.0-15.0-3.18,13470,List2B,white,woman,,,,,"{""Q0"":""kate is being hugged by jane""}","<img src=""stim_listB/hug8.gif""style=""height:400px;""></stim_listB>",is being hugged by,,,,,,
null,"<div style=""font-size:60px;"">+</div>",,html-keyboard-response,224,1680592,0.0-15.0-0.19,13470,List2B,white,woman,,,,null,,,,,,,,,
null,"<img src=""stim_listB/greet8.gif""style=""height:400px;""></stim_listB>",,html-keyboard-response,225,1682602,0.0-15.0-1.19,13470,List2B,white,woman,,,,null,,,,,,,,,
null,is being greeted by,,html-keyboard-response,226,1684606,0.0-15.0-2.19,13470,List2B,white,woman,,,,null,,,,,,,,,
6870,,,survey-text,227,1691482,0.0-15.0-3.19,13470,List2B,white,woman,,,,,"{""Q0"":""beth is being greeted by ruth""}","<img src=""stim_listB/greet8.gif""style=""height:400px;""></stim_listB>",is being greeted by,,,,,,
18882,"<img src='img/portrait_matrix_list2.jpg' style='width:900px;height:500px;''></img><p>If you have memorised all the portraits and names and are ready to start, press Continue.</p><p><strong>Please note: Your memory of these faces will be tested 4 times during this experiment.</strong></p>",0,html-button-response,228,1710367,0.0-16.0-0.0,13470,List2B,white,woman,,,,,,,,,,,,,
3606,"<img src=""portrait/BW1.jpg""style=""height:400px;""></img>",0,html-button-response,229,1714991,0.0-16.0-1.0,13470,List2B,white,woman,,TRUE,0,,,,,,,,,,
null,CORRECT,,html-keyboard-response,230,1716512,0.0-16.0-2.0-0.0,13470,List2B,white,woman,,,,null,,,,,,,,,
1341,"<img src=""portrait/WW1.jpg""style=""height:400px;""></img>",1,html-button-response,231,1717855,0.0-16.0-4.0,13470,List2B,white,woman,,TRUE,1,,,,,,,,,,
null,CORRECT,,html-keyboard-response,232,1719373,0.0-16.0-5.0-0.0,13470,List2B,white,woman,,,,null,,,,,,,,,
2968,"<img src=""portrait/BM2.jpg""style=""height:400px;""></img>",5,html-button-response,233,1722343,0.0-16.0-7.0,13470,List2B,white,woman,,TRUE,5,,,,,,,,,,
null,CORRECT,,html-keyboard-response,234,1723852,0.0-16.0-8.0-0.0,13470,List2B,white,woman,,,,null,,,,,,,,,
1842,"<img src=""portrait/WM1.jpg""style=""height:400px;""></img>",6,html-button-response,235,1725695,0.0-16.0-10.0,13470,List2B,white,woman,,TRUE,6,,,,,,,,,,
null,CORRECT,,html-keyboard-response,236,1727211,0.0-16.0-11.0-0.0,13470,List2B,white,woman,,,,null,,,,,,,,,
4411,"<img src=""portrait/WW2.jpg""style=""height:400px;""></img>",3,html-button-response,237,1731623,0.0-16.0-13.0,13470,List2B,white,woman,,TRUE,3,,,,,,,,,,
null,CORRECT,,html-keyboard-response,238,1733128,0.0-16.0-14.0-0.0,13470,List2B,white,woman,,,,null,,,,,,,,,
2693,"<img src=""portrait/BM1.jpg""style=""height:400px;""></img>",4,html-button-response,239,1735824,0.0-16.0-16.0,13470,List2B,white,woman,,TRUE,4,,,,,,,,,,
null,CORRECT,,html-keyboard-response,240,1737345,0.0-16.0-17.0-0.0,13470,List2B,white,woman,,,,null,,,,,,,,,
2099,"<img src=""portrait/BW2.jpg""style=""height:400px;""></img>",2,html-button-response,241,1739447,0.0-16.0-19.0,13470,List2B,white,woman,,TRUE,2,,,,,,,,,,
null,CORRECT,,html-keyboard-response,242,1740975,0.0-16.0-20.0-0.0,13470,List2B,white,woman,,,,null,,,,,,,,,
2446,"<img src=""portrait/WM2.jpg""style=""height:400px;""></img>",7,html-button-response,243,1743424,0.0-16.0-22.0,13470,List2B,white,woman,,TRUE,7,,,,,,,,,,
null,CORRECT,,html-keyboard-response,244,1744942,0.0-16.0-23.0-0.0,13470,List2B,white,woman,,,,null,,,,,,,,,
1729,<p>You got 8 out of 8 right first time. Press Continue.</p>,0,html-button-response,245,1746672,0.0-16.0-25.0,13470,List2B,white,woman,,,,,,,,,,,,,
null,"<div style=""font-size:60px;"">+</div>",,html-keyboard-response,246,1748197,0.0-17.0-0.0,13470,List2B,white,woman,,,,null,,,,,,,,,
null,"<img src=""stim_listB/hug4.gif""style=""height:400px;""></stim_listB>",,html-keyboard-response,247,1750202,0.0-17.0-1.0,13470,List2B,white,woman,,,,null,,,,,,,,,
null,is being hugged by,,html-keyboard-response,248,1752211,0.0-17.0-2.0,13470,List2B,white,woman,,,,null,,,,,,,,,
8203,,,survey-text,249,1760418,0.0-17.0-3.0,13470,List2B,white,woman,,,,,"{""Q0"":""mike is being hugged by kate""}","<img src=""stim_listB/hug4.gif""style=""height:400px;""></stim_listB>",is being hugged by,,,,,,
null,"<div style=""font-size:60px;"">+</div>",,html-keyboard-response,250,1760928,0.0-17.0-0.1,13470,List2B,white,woman,,,,null,,,,,,,,,
null,"<img src=""stim_listB/seduce6.gif""style=""height:400px;""></stim_listB>",,html-keyboard-response,251,1762939,0.0-17.0-1.1,13470,List2B,white,woman,,,,null,,,,,,,,,
null,is being seduced by,,html-keyboard-response,252,1764954,0.0-17.0-2.1,13470,List2B,white,woman,,,,null,,,,,,,,,
9924,,,survey-text,253,1774882,0.0-17.0-3.1,13470,List2B,white,woman,,,,,"{""Q0"":""david is being seduced by fred""}","<img src=""stim_listB/seduce6.gif""style=""height:400px;""></stim_listB>",is being seduced by,,,,,,
null,"<div style=""font-size:60px;"">+</div>",,html-keyboard-response,254,1775394,0.0-17.0-0.2,13470,List2B,white,woman,,,,null,,,,,,,,,
null,"<img src=""stim_listB/look6.gif""style=""height:400px;""></stim_listB>",,html-keyboard-response,255,1777407,0.0-17.0-1.2,13470,List2B,white,woman,,,,null,,,,,,,,,
null,is being looked at by,,html-keyboard-response,256,1779408,0.0-17.0-2.2,13470,List2B,white,woman,,,,null,,,,,,,,,
9821,,,survey-text,257,1789233,0.0-17.0-3.2,13470,List2B,white,woman,,,,,"{""Q0"":""mike is being looked at by david""}","<img src=""stim_listB/look6.gif""style=""height:400px;""></stim_listB>",is being looked at by,,,,,,
null,"<div style=""font-size:60px;"">+</div>",,html-keyboard-response,258,1789740,0.0-17.0-0.3,13470,List2B,white,woman,,,,null,,,,,,,,,
null,"<img src=""stim_listB/look2.gif""style=""height:400px;""></stim_listB>",,html-keyboard-response,259,1791752,0.0-17.0-1.3,13470,List2B,white,woman,,,,null,,,,,,,,,
null,is being looked at by,,html-keyboard-response,260,1793766,0.0-17.0-2.3,13470,List2B,white,woman,,,,null,,,,,,,,,
11279,,,survey-text,261,1805049,0.0-17.0-3.3,13470,List2B,white,woman,,,,,"{""Q0"":""jane is being looked at by david""}","<img src=""stim_listB/look2.gif""style=""height:400px;""></stim_listB>",is being looked at by,,,,,,
null,"<div style=""font-size:60px;"">+</div>",,html-keyboard-response,262,1805566,0.0-17.0-0.4,13470,List2B,white,woman,,,,null,,,,,,,,,
null,"<img src=""stim_listB/oppose6.gif""style=""height:400px;""></stim_listB>",,html-keyboard-response,263,1807577,0.0-17.0-1.4,13470,List2B,white,woman,,,,null,,,,,,,,,
null,is being opposed by,,html-keyboard-response,264,1809580,0.0-17.0-2.4,13470,List2B,white,woman,,,,null,,,,,,,,,
9573,,,survey-text,265,1819157,0.0-17.0-3.4,13470,List2B,white,woman,,,,,"{""Q0"":""fred is being opposed by luke""}","<img src=""stim_listB/oppose6.gif""style=""height:400px;""></stim_listB>",is being opposed by,,,,,,
null,"<div style=""font-size:60px;"">+</div>",,html-keyboard-response,266,1819658,0.0-17.0-0.5,13470,List2B,white,woman,,,,null,,,,,,,,,
null,"<img src=""stim_listB/challenge6.gif""style=""height:400px;""></stim_listB>",,html-keyboard-response,267,1821667,0.0-17.0-1.5,13470,List2B,white,woman,,,,null,,,,,,,,,
null,is being challenged by,,html-keyboard-response,268,1823675,0.0-17.0-2.5,13470,List2B,white,woman,,,,null,,,,,,,,,
10705,,,survey-text,269,1834381,0.0-17.0-3.5,13470,List2B,white,woman,,,,,"{""Q0"":""mike is being challenged by luke""}","<img src=""stim_listB/challenge6.gif""style=""height:400px;""></stim_listB>",is being challenged by,,,,,,
null,"<div style=""font-size:60px;"">+</div>",,html-keyboard-response,270,1834895,0.0-17.0-0.6,13470,List2B,white,woman,,,,null,,,,,,,,,
null,"<img src=""stim_listB/oppose5.gif""style=""height:400px;""></stim_listB>",,html-keyboard-response,271,1836911,0.0-17.0-1.6,13470,List2B,white,woman,,,,null,,,,,,,,,
null,is opposing,,html-keyboard-response,272,1838920,0.0-17.0-2.6,13470,List2B,white,woman,,,,null,,,,,,,,,
5812,,,survey-text,273,1844734,0.0-17.0-3.6,13470,List2B,white,woman,,,,,"{""Q0"":""ike is opposing david""}","<img src=""stim_listB/oppose5.gif""style=""height:400px;""></stim_listB>",is opposing,,,,,,
null,"<div style=""font-size:60px;"">+</div>",,html-keyboard-response,274,1845249,0.0-17.0-0.7,13470,List2B,white,woman,,,,null,,,,,,,,,
null,"<img src=""stim_listB/hug3.gif""style=""height:400px;""></stim_listB>",,html-keyboard-response,275,1847262,0.0-17.0-1.7,13470,List2B,white,woman,,,,null,,,,,,,,,
null,is hugging,,html-keyboard-response,276,1849276,0.0-17.0-2.7,13470,List2B,white,woman,,,,null,,,,,,,,,
14347,,,survey-text,277,1863626,0.0-17.0-3.7,13470,List2B,white,woman,,,,,"{""Q0"":""beth is hugging fred""}","<img src=""stim_listB/hug3.gif""style=""height:400px;""></stim_listB>",is hugging,,,,,,
null,"<div style=""font-size:60px;"">+</div>",,html-keyboard-response,278,1864139,0.0-17.0-0.8,13470,List2B,white,woman,,,,null,,,,,,,,,
null,"<img src=""stim_listB/copy1.gif""style=""height:400px;""></stim_listB>",,html-keyboard-response,279,1866151,0.0-17.0-1.8,13470,List2B,white,woman,,,,null,,,,,,,,,
null,is copying,,html-keyboard-response,280,1868160,0.0-17.0-2.8,13470,List2B,white,woman,,,,null,,,,,,,,,
6340,,,survey-text,281,1874505,0.0-17.0-3.8,13470,List2B,white,woman,,,,,"{""Q0"":""ruth is copying david""}","<img src=""stim_listB/copy1.gif""style=""height:400px;""></stim_listB>",is copying,,,,,,
null,"<div style=""font-size:60px;"">+</div>",,html-keyboard-response,282,1875019,0.0-17.0-0.9,13470,List2B,white,woman,,,,null,,,,,,,,,
null,"<img src=""stim_listB/kiss4.gif""style=""height:400px;""></stim_listB>",,html-keyboard-response,283,1877031,0.0-17.0-1.9,13470,List2B,white,woman,,,,null,,,,,,,,,
null,is being kissed by,,html-keyboard-response,284,1879042,0.0-17.0-2.9,13470,List2B,white,woman,,,,null,,,,,,,,,
10468,,,survey-text,285,1889515,0.0-17.0-3.9,13470,List2B,white,woman,,,,,"{""Q0"":""mike is being kissed by kate""}","<img src=""stim_listB/kiss4.gif""style=""height:400px;""></stim_listB>",is being kissed by,,,,,,
null,"<div style=""font-size:60px;"">+</div>",,html-keyboard-response,286,1890027,0.0-17.0-0.10,13470,List2B,white,woman,,,,null,,,,,,,,,
null,"<img src=""stim_listB/hug1.gif""style=""height:400px;""></stim_listB>",,html-keyboard-response,287,1892041,0.0-17.0-1.10,13470,List2B,white,woman,,,,null,,,,,,,,,
null,is hugging,,html-keyboard-response,288,1894055,0.0-17.0-2.10,13470,List2B,white,woman,,,,null,,,,,,,,,
5317,,,survey-text,289,1899378,0.0-17.0-3.10,13470,List2B,white,woman,,,,,"{""Q0"":""ruth is hugging luke""}","<img src=""stim_listB/hug1.gif""style=""height:400px;""></stim_listB>",is hugging,,,,,,
null,"<div style=""font-size:60px;"">+</div>",,html-keyboard-response,290,1899889,0.0-17.0-0.11,13470,List2B,white,woman,,,,null,,,,,,,,,
null,"<img src=""stim_listB/seduce3.gif""style=""height:400px;""></stim_listB>",,html-keyboard-response,291,1901897,0.0-17.0-1.11,13470,List2B,white,woman,,,,null,,,,,,,,,
null,is seducing,,html-keyboard-response,292,1903906,0.0-17.0-2.11,13470,List2B,white,woman,,,,null,,,,,,,,,
9780,,,survey-text,293,1913689,0.0-17.0-3.11,13470,List2B,white,woman,,,,,"{""Q0"":""fred is seducing kate""}","<img src=""stim_listB/seduce3.gif""style=""height:400px;""></stim_listB>",is seducing,,,,,,
null,"<div style=""font-size:60px;"">+</div>",,html-keyboard-response,294,1914194,0.0-17.0-0.12,13470,List2B,white,woman,,,,null,,,,,,,,,
null,"<img src=""stim_listB/copy3.gif""style=""height:400px;""></stim_listB>",,html-keyboard-response,295,1916208,0.0-17.0-1.12,13470,List2B,white,woman,,,,null,,,,,,,,,
null,is copying,,html-keyboard-response,296,1918211,0.0-17.0-2.12,13470,List2B,white,woman,,,,null,,,,,,,,,
5288,,,survey-text,297,1923505,0.0-17.0-3.12,13470,List2B,white,woman,,,,,"{""Q0"":""beth is copying mike""}","<img src=""stim_listB/copy3.gif""style=""height:400px;""></stim_listB>",is copying,,,,,,
null,"<div style=""font-size:60px;"">+</div>",,html-keyboard-response,298,1924019,0.0-17.0-0.13,13470,List2B,white,woman,,,,null,,,,,,,,,
null,"<img src=""stim_listB/challenge7.gif""style=""height:400px;""></stim_listB>",,html-keyboard-response,299,1926024,0.0-17.0-1.13,13470,List2B,white,woman,,,,null,,,,,,,,,
null,is challenging,,html-keyboard-response,300,1928035,0.0-17.0-2.13,13470,List2B,white,woman,,,,null,,,,,,,,,
10003,,,survey-text,301,1938041,0.0-17.0-3.13,13470,List2B,white,woman,,,,,"{""Q0"":""beth is challenging jane""}","<img src=""stim_listB/challenge7.gif""style=""height:400px;""></stim_listB>",is challenging,,,,,,
null,"<div style=""font-size:60px;"">+</div>",,html-keyboard-response,302,1938559,0.0-17.0-0.14,13470,List2B,white,woman,,,,null,,,,,,,,,
null,"<img src=""stim_listB/look4.gif""style=""height:400px;""></stim_listB>",,html-keyboard-response,303,1940572,0.0-17.0-1.14,13470,List2B,white,woman,,,,null,,,,,,,,,
null,is being looked at by,,html-keyboard-response,304,1942583,0.0-17.0-2.14,13470,List2B,white,woman,,,,null,,,,,,,,,
9988,,,survey-text,305,1952584,0.0-17.0-3.14,13470,List2B,white,woman,,,,,"{""Q0"":""mike is being looked at by kate\\""}","<img src=""stim_listB/look4.gif""style=""height:400px;""></stim_listB>",is being looked at by,,,,,,
null,"<div style=""font-size:60px;"">+</div>",,html-keyboard-response,306,1953101,0.0-17.0-0.15,13470,List2B,white,woman,,,,null,,,,,,,,,
null,"<img src=""stim_listB/shout4.gif""style=""height:400px;""></stim_listB>",,html-keyboard-response,307,1955115,0.0-17.0-1.15,13470,List2B,white,woman,,,,null,,,,,,,,,
null,is being shouted at by,,html-keyboard-response,308,1957128,0.0-17.0-2.15,13470,List2B,white,woman,,,,null,,,,,,,,,
23195,,,survey-text,309,1980327,0.0-17.0-3.15,13470,List2B,white,woman,,,,,"{""Q0"":""mike is being shouted at by kate""}","<img src=""stim_listB/shout4.gif""style=""height:400px;""></stim_listB>",is being shouted at by,,,,,,
null,"<div style=""font-size:60px;"">+</div>",,html-keyboard-response,310,1980833,0.0-17.0-0.16,13470,List2B,white,woman,,,,null,,,,,,,,,
null,"<img src=""stim_listB/look1.gif""style=""height:400px;""></stim_listB>",,html-keyboard-response,311,1982841,0.0-17.0-1.16,13470,List2B,white,woman,,,,null,,,,,,,,,
null,is looking at,,html-keyboard-response,312,1984856,0.0-17.0-2.16,13470,List2B,white,woman,,,,null,,,,,,,,,
5134,,,survey-text,313,1989994,0.0-17.0-3.16,13470,List2B,white,woman,,,,,"{""Q0"":""ruth is looking at luke""}","<img src=""stim_listB/look1.gif""style=""height:400px;""></stim_listB>",is looking at,,,,,,
null,"<div style=""font-size:60px;"">+</div>",,html-keyboard-response,314,1990499,0.0-17.0-0.17,13470,List2B,white,woman,,,,null,,,,,,,,,
null,"<img src=""stim_listB/greet6.gif""style=""height:400px;""></stim_listB>",,html-keyboard-response,315,1992512,0.0-17.0-1.17,13470,List2B,white,woman,,,,null,,,,,,,,,
null,is being greeted by,,html-keyboard-response,316,1994526,0.0-17.0-2.17,13470,List2B,white,woman,,,,null,,,,,,,,,
9567,,,survey-text,317,2004097,0.0-17.0-3.17,13470,List2B,white,woman,,,,,"{""Q0"":""mike is being greeted by luke""}","<img src=""stim_listB/greet6.gif""style=""height:400px;""></stim_listB>",is being greeted by,,,,,,
null,"<div style=""font-size:60px;"">+</div>",,html-keyboard-response,318,2004609,0.0-17.0-0.18,13470,List2B,white,woman,,,,null,,,,,,,,,
null,"<img src=""stim_listB/oppose1.gif""style=""height:400px;""></stim_listB>",,html-keyboard-response,319,2006622,0.0-17.0-1.18,13470,List2B,white,woman,,,,null,,,,,,,,,
null,is opposing,,html-keyboard-response,320,2008638,0.0-17.0-2.18,13470,List2B,white,woman,,,,null,,,,,,,,,
8142,,,survey-text,321,2016785,0.0-17.0-3.18,13470,List2B,white,woman,,,,,"{""Q0"":""jane is opposing david""}","<img src=""stim_listB/oppose1.gif""style=""height:400px;""></stim_listB>",is opposing,,,,,,
null,"<div style=""font-size:60px;"">+</div>",,html-keyboard-response,322,2017301,0.0-17.0-0.19,13470,List2B,white,woman,,,,null,,,,,,,,,
null,"<img src=""stim_listB/kiss2.gif""style=""height:400px;""></stim_listB>",,html-keyboard-response,323,2019305,0.0-17.0-1.19,13470,List2B,white,woman,,,,null,,,,,,,,,
null,is being kissed by,,html-keyboard-response,324,2021308,0.0-17.0-2.19,13470,List2B,white,woman,,,,null,,,,,,,,,
8113,,,survey-text,325,2029425,0.0-17.0-3.19,13470,List2B,white,woman,,,,,"{""Q0"":""jane is being kissed by david""}","<img src=""stim_listB/kiss2.gif""style=""height:400px;""></stim_listB>",is being kissed by,,,,,,
2004,"<img src='img/portrait_matrix_list2.jpg' style='width:900px;height:500px;''></img><p>If you have memorised all the portraits and names and are ready to start, press Continue.</p><p><strong>Please note: Your memory of these faces will be tested 4 times during this experiment.</strong></p>",0,html-button-response,326,2031431,0.0-18.0-0.0,13470,List2B,white,woman,,,,,,,,,,,,,
2118,"<img src=""portrait/BM2.jpg""style=""height:400px;""></img>",5,html-button-response,327,2034559,0.0-18.0-1.0,13470,List2B,white,woman,,TRUE,5,,,,,,,,,,
null,CORRECT,,html-keyboard-response,328,2036065,0.0-18.0-2.0-0.0,13470,List2B,white,woman,,,,null,,,,,,,,,
4804,"<img src=""portrait/BM1.jpg""style=""height:400px;""></img>",4,html-button-response,329,2040870,0.0-18.0-4.0,13470,List2B,white,woman,,TRUE,4,,,,,,,,,,
null,CORRECT,,html-keyboard-response,330,2042380,0.0-18.0-5.0-0.0,13470,List2B,white,woman,,,,null,,,,,,,,,
1577,"<img src=""portrait/WW2.jpg""style=""height:400px;""></img>",3,html-button-response,331,2043958,0.0-18.0-7.0,13470,List2B,white,woman,,TRUE,3,,,,,,,,,,
null,CORRECT,,html-keyboard-response,332,2045468,0.0-18.0-8.0-0.0,13470,List2B,white,woman,,,,null,,,,,,,,,
1840,"<img src=""portrait/BW1.jpg""style=""height:400px;""></img>",0,html-button-response,333,2047311,0.0-18.0-10.0,13470,List2B,white,woman,,TRUE,0,,,,,,,,,,
null,CORRECT,,html-keyboard-response,334,2048833,0.0-18.0-11.0-0.0,13470,List2B,white,woman,,,,null,,,,,,,,,
2204,"<img src=""portrait/WM2.jpg""style=""height:400px;""></img>",7,html-button-response,335,2051039,0.0-18.0-13.0,13470,List2B,white,woman,,TRUE,7,,,,,,,,,,
null,CORRECT,,html-keyboard-response,336,2052565,0.0-18.0-14.0-0.0,13470,List2B,white,woman,,,,null,,,,,,,,,
2847,"<img src=""portrait/BW2.jpg""style=""height:400px;""></img>",2,html-button-response,337,2055414,0.0-18.0-16.0,13470,List2B,white,woman,,TRUE,2,,,,,,,,,,
null,CORRECT,,html-keyboard-response,338,2056921,0.0-18.0-17.0-0.0,13470,List2B,white,woman,,,,null,,,,,,,,,
1499,"<img src=""portrait/WW1.jpg""style=""height:400px;""></img>",1,html-button-response,339,2058422,0.0-18.0-19.0,13470,List2B,white,woman,,TRUE,1,,,,,,,,,,
null,CORRECT,,html-keyboard-response,340,2059940,0.0-18.0-20.0-0.0,13470,List2B,white,woman,,,,null,,,,,,,,,
2201,"<img src=""portrait/WM1.jpg""style=""height:400px;""></img>",6,html-button-response,341,2062142,0.0-18.0-22.0,13470,List2B,white,woman,,TRUE,6,,,,,,,,,,
null,CORRECT,,html-keyboard-response,342,2063664,0.0-18.0-23.0-0.0,13470,List2B,white,woman,,,,null,,,,,,,,,
1407,<p>You got 8 out of 8 right first time. Press Continue.</p>,0,html-button-response,343,2065073,0.0-18.0-25.0,13470,List2B,white,woman,,,,,,,,,,,,,
null,"<div style=""font-size:60px;"">+</div>",,html-keyboard-response,344,2066590,0.0-19.0-0.0,13470,List2B,white,woman,,,,null,,,,,,,,,
null,"<img src=""stim_listB/kiss8.gif""style=""height:400px;""></stim_listB>",,html-keyboard-response,345,2068603,0.0-19.0-1.0,13470,List2B,white,woman,,,,null,,,,,,,,,
null,is being kissed by,,html-keyboard-response,346,2070613,0.0-19.0-2.0,13470,List2B,white,woman,,,,null,,,,,,,,,
8318,,,survey-text,347,2078937,0.0-19.0-3.0,13470,List2B,white,woman,,,,,"{""Q0"":""kate is being kissed by jane""}","<img src=""stim_listB/kiss8.gif""style=""height:400px;""></stim_listB>",is being kissed by,,,,,,
null,"<div style=""font-size:60px;"">+</div>",,html-keyboard-response,348,2079442,0.0-19.0-0.1,13470,List2B,white,woman,,,,null,,,,,,,,,
null,"<img src=""stim_listB/copy5.gif""style=""height:400px;""></stim_listB>",,html-keyboard-response,349,2081453,0.0-19.0-1.1,13470,List2B,white,woman,,,,null,,,,,,,,,
null,is copying,,html-keyboard-response,350,2083464,0.0-19.0-2.1,13470,List2B,white,woman,,,,null,,,,,,,,,
10115,,,survey-text,351,2093585,0.0-19.0-3.1,13470,List2B,white,woman,,,,,"{""Q0"":""david is copying fred""}","<img src=""stim_listB/copy5.gif""style=""height:400px;""></stim_listB>",is copying,,,,,,
null,"<div style=""font-size:60px;"">+</div>",,html-keyboard-response,352,2094091,0.0-19.0-0.2,13470,List2B,white,woman,,,,null,,,,,,,,,
null,"<img src=""stim_listB/kiss6.gif""style=""height:400px;""></stim_listB>",,html-keyboard-response,353,2096100,0.0-19.0-1.2,13470,List2B,white,woman,,,,null,,,,,,,,,
null,is being kissed by,,html-keyboard-response,354,2098104,0.0-19.0-2.2,13470,List2B,white,woman,,,,null,,,,,,,,,
6465,,,survey-text,355,2104573,0.0-19.0-3.2,13470,List2B,white,woman,,,,,"{""Q0"":""mike is being kissed by david""}","<img src=""stim_listB/kiss6.gif""style=""height:400px;""></stim_listB>",is being kissed by,,,,,,
null,"<div style=""font-size:60px;"">+</div>",,html-keyboard-response,356,2105089,0.0-19.0-0.3,13470,List2B,white,woman,,,,null,,,,,,,,,
null,"<img src=""stim_listB/look5.gif""style=""height:400px;""></stim_listB>",,html-keyboard-response,357,2107094,0.0-19.0-1.3,13470,List2B,white,woman,,,,null,,,,,,,,,
null,is looking at,,html-keyboard-response,358,2109108,0.0-19.0-2.3,13470,List2B,white,woman,,,,null,,,,,,,,,
6921,,,survey-text,359,2116033,0.0-19.0-3.3,13470,List2B,white,woman,,,,,"{""Q0"":""luke is looking at fred""}","<img src=""stim_listB/look5.gif""style=""height:400px;""></stim_listB>",is looking at,,,,,,
null,"<div style=""font-size:60px;"">+</div>",,html-keyboard-response,360,2116543,0.0-19.0-0.4,13470,List2B,white,woman,,,,null,,,,,,,,,
null,"<img src=""stim_listB/oppose3.gif""style=""height:400px;""></stim_listB>",,html-keyboard-response,361,2118546,0.0-19.0-1.4,13470,List2B,white,woman,,,,null,,,,,,,,,
null,is opposing,,html-keyboard-response,362,2120554,0.0-19.0-2.4,13470,List2B,white,woman,,,,null,,,,,,,,,
6490,,,survey-text,363,2127048,0.0-19.0-3.4,13470,List2B,white,woman,,,,,"{""Q0"":""kate is opposing mike""}","<img src=""stim_listB/oppose3.gif""style=""height:400px;""></stim_listB>",is opposing,,,,,,
null,"<div style=""font-size:60px;"">+</div>",,html-keyboard-response,364,2127552,0.0-19.0-0.5,13470,List2B,white,woman,,,,null,,,,,,,,,
null,"<img src=""stim_listB/copy8.gif""style=""height:400px;""></stim_listB>",,html-keyboard-response,365,2129565,0.0-19.0-1.5,13470,List2B,white,woman,,,,null,,,,,,,,,
null,is being copied by,,html-keyboard-response,366,2131577,0.0-19.0-2.5,13470,List2B,white,woman,,,,null,,,,,,,,,
8844,,,survey-text,367,2140425,0.0-19.0-3.5,13470,List2B,white,woman,,,,,"{""Q0"":""ruth is being copied by kate""}","<img src=""stim_listB/copy8.gif""style=""height:400px;""></stim_listB>",is being copied by,,,,,,
null,"<div style=""font-size:60px;"">+</div>",,html-keyboard-response,368,2140930,0.0-19.0-0.6,13470,List2B,white,woman,,,,null,,,,,,,,,
null,"<img src=""stim_listB/seduce8.gif""style=""height:400px;""></stim_listB>",,html-keyboard-response,369,2142943,0.0-19.0-1.6,13470,List2B,white,woman,,,,null,,,,,,,,,
null,is being seduced by,,html-keyboard-response,370,2144944,0.0-19.0-2.6,13470,List2B,white,woman,,,,null,,,,,,,,,
9364,,,survey-text,371,2154313,0.0-19.0-3.6,13470,List2B,white,woman,,,,,"{""Q0"":""jane is being seduced by beth""}","<img src=""stim_listB/seduce8.gif""style=""height:400px;""></stim_listB>",is being seduced by,,,,,,
null,"<div style=""font-size:60px;"">+</div>",,html-keyboard-response,372,2154827,0.0-19.0-0.7,13470,List2B,white,woman,,,,null,,,,,,,,,
null,"<img src=""stim_listB/touch1.gif""style=""height:400px;""></stim_listB>",,html-keyboard-response,373,2156833,0.0-19.0-1.7,13470,List2B,white,woman,,,,null,,,,,,,,,
null,is touching,,html-keyboard-response,374,2158836,0.0-19.0-2.7,13470,List2B,white,woman,,,,null,,,,,,,,,
7478,,,survey-text,375,2166319,0.0-19.0-3.7,13470,List2B,white,woman,,,,,"{""Q0"":""david is touching jane""}","<img src=""stim_listB/touch1.gif""style=""height:400px;""></stim_listB>",is touching,,,,,,
null,"<div style=""font-size:60px;"">+</div>",,html-keyboard-response,376,2166831,0.0-19.0-0.8,13470,List2B,white,woman,,,,null,,,,,,,,,
null,"<img src=""stim_listB/challenge8.gif""style=""height:400px;""></stim_listB>",,html-keyboard-response,377,2168846,0.0-19.0-1.8,13470,List2B,white,woman,,,,null,,,,,,,,,
null,is being challenged by,,html-keyboard-response,378,2170854,0.0-19.0-2.8,13470,List2B,white,woman,,,,null,,,,,,,,,
7847,,,survey-text,379,2178705,0.0-19.0-3.8,13470,List2B,white,woman,,,,,"{""Q0"":""ruth is being challenged by kate""}","<img src=""stim_listB/challenge8.gif""style=""height:400px;""></stim_listB>",is being challenged by,,,,,,
null,"<div style=""font-size:60px;"">+</div>",,html-keyboard-response,380,2179215,0.0-19.0-0.9,13470,List2B,white,woman,,,,null,,,,,,,,,
null,"<img src=""stim_listB/touch6.gif""style=""height:400px;""></stim_listB>",,html-keyboard-response,381,2181224,0.0-19.0-1.9,13470,List2B,white,woman,,,,null,,,,,,,,,
null,is being touched by,,html-keyboard-response,382,2183226,0.0-19.0-2.9,13470,List2B,white,woman,,,,null,,,,,,,,,
6331,,,survey-text,383,2189561,0.0-19.0-3.9,13470,List2B,white,woman,,,,,"{""Q0"":""luke is being touched by fred""}","<img src=""stim_listB/touch6.gif""style=""height:400px;""></stim_listB>",is being touched by,,,,,,
null,"<div style=""font-size:60px;"">+</div>",,html-keyboard-response,384,2190070,0.0-19.0-0.10,13470,List2B,white,woman,,,,null,,,,,,,,,
null,"<img src=""stim_listB/hug5.gif""style=""height:400px;""></stim_listB>",,html-keyboard-response,385,2192079,0.0-19.0-1.10,13470,List2B,white,woman,,,,null,,,,,,,,,
null,is hugging,,html-keyboard-response,386,2194083,0.0-19.0-2.10,13470,List2B,white,woman,,,,null,,,,,,,,,
21785,,,survey-text,387,2215873,0.0-19.0-3.10,13470,List2B,white,woman,,,,,"{""Q0"":""fred is hugging luke""}","<img src=""stim_listB/hug5.gif""style=""height:400px;""></stim_listB>",is hugging,,,,,,
null,"<div style=""font-size:60px;"">+</div>",,html-keyboard-response,388,2216380,0.0-19.0-0.11,13470,List2B,white,woman,,,,null,,,,,,,,,
null,"<img src=""stim_listB/oppose7.gif""style=""height:400px;""></stim_listB>",,html-keyboard-response,389,2218391,0.0-19.0-1.11,13470,List2B,white,woman,,,,null,,,,,,,,,
null,is opposing,,html-keyboard-response,390,2220405,0.0-19.0-2.11,13470,List2B,white,woman,,,,null,,,,,,,,,
7423,,,survey-text,391,2227832,0.0-19.0-3.11,13470,List2B,white,woman,,,,,"{""Q0"":""kate is opposing jane""}","<img src=""stim_listB/oppose7.gif""style=""height:400px;""></stim_listB>",is opposing,,,,,,
null,"<div style=""font-size:60px;"">+</div>",,html-keyboard-response,392,2228348,0.0-19.0-0.12,13470,List2B,white,woman,,,,null,,,,,,,,,
null,"<img src=""stim_listB/greet1.gif""style=""height:400px;""></stim_listB>",,html-keyboard-response,393,2230349,0.0-19.0-1.12,13470,List2B,white,woman,,,,null,,,,,,,,,
null,is greeting,,html-keyboard-response,394,2232364,0.0-19.0-2.12,13470,List2B,white,woman,,,,null,,,,,,,,,
5632,,,survey-text,395,2238000,0.0-19.0-3.12,13470,List2B,white,woman,,,,,"{""Q0"":""ruth is greeting david""}","<img src=""stim_listB/greet1.gif""style=""height:400px;""></stim_listB>",is greeting,,,,,,
null,"<div style=""font-size:60px;"">+</div>",,html-keyboard-response,396,2238506,0.0-19.0-0.13,13470,List2B,white,woman,,,,null,,,,,,,,,
null,"<img src=""stim_listB/copy4.gif""style=""height:400px;""></stim_listB>",,html-keyboard-response,397,2240509,0.0-19.0-1.13,13470,List2B,white,woman,,,,null,,,,,,,,,
null,is being copied by,,html-keyboard-response,398,2242523,0.0-19.0-2.13,13470,List2B,white,woman,,,,null,,,,,,,,,
9361,,,survey-text,399,2251888,0.0-19.0-3.13,13470,List2B,white,woman,,,,,"{""Q0"":""fred is being copied by kate""}","<img src=""stim_listB/copy4.gif""style=""height:400px;""></stim_listB>",is being copied by,,,,,,
null,"<div style=""font-size:60px;"">+</div>",,html-keyboard-response,400,2252391,0.0-19.0-0.14,13470,List2B,white,woman,,,,null,,,,,,,,,
null,"<img src=""stim_listB/seduce4.gif""style=""height:400px;""></stim_listB>",,html-keyboard-response,401,2254404,0.0-19.0-1.14,13470,List2B,white,woman,,,,null,,,,,,,,,
null,is being seduced by,,html-keyboard-response,402,2256418,0.0-19.0-2.14,13470,List2B,white,woman,,,,null,,,,,,,,,
9898,,,survey-text,403,2266321,0.0-19.0-3.14,13470,List2B,white,woman,,,,,"{""Q0"":""mike is being seduced by beth""}","<img src=""stim_listB/seduce4.gif""style=""height:400px;""></stim_listB>",is being seduced by,,,,,,
null,"<div style=""font-size:60px;"">+</div>",,html-keyboard-response,404,2266835,0.0-19.0-0.15,13470,List2B,white,woman,,,,null,,,,,,,,,
null,"<img src=""stim_listB/greet5.gif""style=""height:400px;""></stim_listB>",,html-keyboard-response,405,2268849,0.0-19.0-1.15,13470,List2B,white,woman,,,,null,,,,,,,,,
null,is greeting,,html-keyboard-response,406,2270864,0.0-19.0-2.15,13470,List2B,white,woman,,,,null,,,,,,,,,
4988,,,survey-text,407,2275857,0.0-19.0-3.15,13470,List2B,white,woman,,,,,"{""Q0"":""david is greeting fred""}","<img src=""stim_listB/greet5.gif""style=""height:400px;""></stim_listB>",is greeting,,,,,,
null,"<div style=""font-size:60px;"">+</div>",,html-keyboard-response,408,2276373,0.0-19.0-0.16,13470,List2B,white,woman,,,,null,,,,,,,,,
null,"<img src=""stim_listB/look8.gif""style=""height:400px;""></stim_listB>",,html-keyboard-response,409,2278381,0.0-19.0-1.16,13470,List2B,white,woman,,,,null,,,,,,,,,
null,is being looked at by,,html-keyboard-response,410,2280383,0.0-19.0-2.16,13470,List2B,white,woman,,,,null,,,,,,,,,
8053,,,survey-text,411,2288440,0.0-19.0-3.16,13470,List2B,white,woman,,,,,"{""Q0"":""kate is being looked at by jane""}","<img src=""stim_listB/look8.gif""style=""height:400px;""></stim_listB>",is being looked at by,,,,,,
null,"<div style=""font-size:60px;"">+</div>",,html-keyboard-response,412,2288947,0.0-19.0-0.17,13470,List2B,white,woman,,,,null,,,,,,,,,
null,"<img src=""stim_listB/kiss5.gif""style=""height:400px;""></stim_listB>",,html-keyboard-response,413,2290960,0.0-19.0-1.17,13470,List2B,white,woman,,,,null,,,,,,,,,
null,is kissing,,html-keyboard-response,414,2292971,0.0-19.0-2.17,13470,List2B,white,woman,,,,null,,,,,,,,,
5634,,,survey-text,415,2298609,0.0-19.0-3.17,13470,List2B,white,woman,,,,,"{""Q0"":""fred is kissing luke""}","<img src=""stim_listB/kiss5.gif""style=""height:400px;""></stim_listB>",is kissing,,,,,,
null,"<div style=""font-size:60px;"">+</div>",,html-keyboard-response,416,2299117,0.0-19.0-0.18,13470,List2B,white,woman,,,,null,,,,,,,,,
null,"<img src=""stim_listB/look7.gif""style=""height:400px;""></stim_listB>",,html-keyboard-response,417,2301122,0.0-19.0-1.18,13470,List2B,white,woman,,,,null,,,,,,,,,
null,is looking at,,html-keyboard-response,418,2303125,0.0-19.0-2.18,13470,List2B,white,woman,,,,null,,,,,,,,,
6894,,,survey-text,419,2310025,0.0-19.0-3.18,13470,List2B,white,woman,,,,,"{""Q0"":""ruth is looking at beth""}","<img src=""stim_listB/look7.gif""style=""height:400px;""></stim_listB>",is looking at,,,,,,
null,"<div style=""font-size:60px;"">+</div>",,html-keyboard-response,420,2310540,0.0-19.0-0.19,13470,List2B,white,woman,,,,null,,,,,,,,,
null,"<img src=""stim_listB/copy7.gif""style=""height:400px;""></stim_listB>",,html-keyboard-response,421,2312548,0.0-19.0-1.19,13470,List2B,white,woman,,,,null,,,,,,,,,
null,is copying,,html-keyboard-response,422,2314556,0.0-19.0-2.19,13470,List2B,white,woman,,,,null,,,,,,,,,
12239,,,survey-text,423,2326801,0.0-19.0-3.19,13470,List2B,white,woman,,,,,"{""Q0"":""beth is copying jane""}","<img src=""stim_listB/copy7.gif""style=""height:400px;""></stim_listB>",is copying,,,,,,
3019,<p>Thank you for completing that task.</p><p>The final part of this session is a questionnaire that will take about 4 minutes.</p><p>Press Continue.</p>,0,html-button-response,424,2329822,0.0-20.0,13470,List2B,white,woman,,,,,,,,,,,,,
32997,,,survey-text,425,2363841,0.0-21.0,13470,List2B,white,woman,,,,,"{""Q0"":""53"",""Q1"":""english"",""Q2"":""english"",""Q3"":""USA"",""Q4"":""USA"",""Q5"":""white"",""Q6"":""female""}",,,demographics,,,,,
2591,<p>Have you lived in the USA for the last 5 years or more?</p>,0,html-button-response,426,2366438,0.0-22.0,13470,List2B,white,woman,,,,,,,,fiveyears,,,,,
2740,<p>Move the slider to show the extent to which you agree with the following statements.</p>,0,html-button-response,427,2370182,0.0-23.0,13470,List2B,white,woman,,,,,,,,,,,,,
23762,,,html-slider-response,428,2394951,0.0-24.0-0.0-0.0,13470,List2B,white,woman,,,,,,,,survey_gender,72,,,I have a lot in common with the average person of my gender.,average
9234,,,html-slider-response,429,2404190,0.0-24.0-0.0-0.1,13470,List2B,white,woman,,,,,,,,survey_gender,58,,,I am glad to have the friends that I have.,filler
4164,,,html-slider-response,430,2408358,0.0-24.0-0.0-0.2,13470,List2B,white,woman,,,,,,,,survey_gender,42,,,I have a lot in common with my friends.,filler
10963,,,html-slider-response,431,2419326,0.0-24.0-0.0-0.3,13470,List2B,white,woman,,,,,,,,survey_gender,80,,,I often think about my actions.,filler
11404,,,html-slider-response,432,2430734,0.0-24.0-0.0-0.4,13470,List2B,white,woman,,,,,,,,survey_gender,66,,,People of my gender have a lot in common with each other.,common
7154,,,html-slider-response,433,2437892,0.0-24.0-0.0-0.5,13470,List2B,white,woman,,,,,,,,survey_gender,76,,,I consider myself a highly empathetic person.,filler
4366,,,html-slider-response,434,2442258,0.0-24.0-0.0-0.6,13470,List2B,white,woman,,,,,,,,survey_gender,93,,,I am glad to be my gender.,glad
5713,,,html-slider-response,435,2447973,0.0-24.0-0.0-0.7,13470,List2B,white,woman,,,,,,,,survey_gender,34,,,I would say I am an animal person.,filler
9115,,,html-slider-response,436,2457093,0.0-24.0-0.0-0.8,13470,List2B,white,woman,,,,,,,,survey_gender,35,,,I feel solidarity with my friends.,filler
8245,,,html-slider-response,437,2465341,0.0-24.0-0.0-0.9,13470,List2B,white,woman,,,,,,,,survey_gender,74,,,People of my gender are very similar to each other.,verysimilar
4163,,,html-slider-response,438,2469510,0.0-24.0-0.0-0.10,13470,List2B,white,woman,,,,,,,,survey_gender,94,,,It is pleasant to be my gender.,pleasant
3995,,,html-slider-response,439,2473509,0.0-24.0-0.0-0.11,13470,List2B,white,woman,,,,,,,,survey_gender,90,,,I feel solidarity with my gender.,solidarity
3261,,,html-slider-response,440,2476775,0.0-24.0-0.0-0.12,13470,List2B,white,woman,,,,,,,,survey_gender,90,,,I feel committed to my gender.,committed
7061,,,html-slider-response,441,2483839,0.0-24.0-0.0-0.13,13470,List2B,white,woman,,,,,,,,survey_gender,78,,,Being around my friends gives me a good feeling.,filler
5651,,,html-slider-response,442,2489494,0.0-24.0-0.0-0.14,13470,List2B,white,woman,,,,,,,,survey_gender,30,,,I often think about the fact that I am my gender.,often
5260,,,html-slider-response,443,2494758,0.0-24.0-0.0-0.15,13470,List2B,white,woman,,,,,,,,survey_gender,62,,,My friends have a lot in common with each other.,filler
4746,,,html-slider-response,444,2499510,0.0-24.0-0.0-0.16,13470,List2B,white,woman,,,,,,,,survey_gender,79,,,I think that my gender has a lot to be proud of.,proud
4885,,,html-slider-response,445,2504398,0.0-24.0-0.0-0.17,13470,List2B,white,woman,,,,,,,,survey_gender,71,,,I feel a bond with my friends.,filler
4396,,,html-slider-response,446,2508797,0.0-24.0-0.0-0.18,13470,List2B,white,woman,,,,,,,,survey_gender,35,,,Routine is not important to me.,filler
5173,,,html-slider-response,447,2513974,0.0-24.0-0.0-0.19,13470,List2B,white,woman,,,,,,,,survey_gender,73,,,Being my gender gives me a good feeling.,feeling
6891,,,html-slider-response,448,2520870,0.0-24.0-0.0-0.20,13470,List2B,white,woman,,,,,,,,survey_gender,63,,,My friends understand me.,filler
8437,,,html-slider-response,449,2529309,0.0-24.0-0.0-0.21,13470,List2B,white,woman,,,,,,,,survey_gender,52,,,Most of the friends in my life are very similar to me.,filler
7291,,,html-slider-response,450,2536605,0.0-24.0-0.0-0.22,13470,List2B,white,woman,,,,,,,,survey_gender,20,,,Family is not more important to me than friendship.,filler
6076,,,html-slider-response,451,2542685,0.0-24.0-0.0-0.23,13470,List2B,white,woman,,,,,,,,survey_gender,90,,,The fact that I am my gender is an important part of my identity.,identity
3338,,,html-slider-response,452,2546030,0.0-24.0-0.0-0.24,13470,List2B,white,woman,,,,,,,,survey_gender,89,,,I feel a bond with my gender.,bond
7804,,,html-slider-response,453,2553837,0.0-24.0-0.0-0.25,13470,List2B,white,woman,,,,,,,,survey_gender,88,,,Being my gender is an important part of how I see myself.,important
9236,,,html-slider-response,454,2563077,0.0-24.0-0.0-0.26,13470,List2B,white,woman,,,,,,,,survey_gender,38,,,It is not always easy for people to know what I am thinking.,filler
8535,,,html-slider-response,455,2571615,0.0-24.0-0.0-0.27,13470,List2B,white,woman,,,,,,,,survey_gender,57,,,I am similar to the average person of my gender.,similar
7043,,,html-slider-response,456,2578661,0.0-24.0-1.0-0.0,13470,List2B,white,woman,,,,,,,,survey_race,32,,,People of my race have a lot in common with each other.,common
5499,,,html-slider-response,457,2584164,0.0-24.0-1.0-0.1,13470,List2B,white,woman,,,,,,,,survey_race,63,,,It is pleasant to be my race.,pleasant
6132,,,html-slider-response,458,2590301,0.0-24.0-1.0-0.2,13470,List2B,white,woman,,,,,,,,survey_race,72,,,I think that my race has a lot to be proud of.,proud
7140,,,html-slider-response,459,2597445,0.0-24.0-1.0-0.3,13470,List2B,white,woman,,,,,,,,survey_race,34,,,I have a lot in common with the average person of my race.,average
4629,,,html-slider-response,460,2602077,0.0-24.0-1.0-0.4,13470,List2B,white,woman,,,,,,,,survey_race,37,,,I am glad to be my age.,filler
5355,,,html-slider-response,461,2607437,0.0-24.0-1.0-0.5,13470,List2B,white,woman,,,,,,,,survey_race,38,,,People of my race are very similar to each other.,verysimilar
4133,,,html-slider-response,462,2611573,0.0-24.0-1.0-0.6,13470,List2B,white,woman,,,,,,,,survey_race,37,,,I am glad to be the age I am.,filler
6948,,,html-slider-response,463,2618525,0.0-24.0-1.0-0.7,13470,List2B,white,woman,,,,,,,,survey_race,60,,,My age is not an important part of who I am.,filler
3452,,,html-slider-response,464,2621981,0.0-24.0-1.0-0.8,13470,List2B,white,woman,,,,,,,,survey_race,32,,,Being my age gives me a good feeling.,filler
7547,,,html-slider-response,465,2629533,0.0-24.0-1.0-0.9,13470,List2B,white,woman,,,,,,,,survey_race,32,,,I am similar to the average person of my race.,similar
9420,,,html-slider-response,466,2638958,0.0-24.0-1.0-0.10,13470,List2B,white,woman,,,,,,,,survey_race,35,,,I have a lot in common with people of a similar age to me.,filler
4619,,,html-slider-response,467,2643581,0.0-24.0-1.0-0.11,13470,List2B,white,woman,,,,,,,,survey_race,74,,,I feel committed to my race.,committed
5691,,,html-slider-response,468,2649277,0.0-24.0-1.0-0.12,13470,List2B,white,woman,,,,,,,,survey_race,34,,,I often think about the fact that I am my race.,often
8676,,,html-slider-response,469,2657958,0.0-24.0-1.0-0.13,13470,List2B,white,woman,,,,,,,,survey_race,57,,,I feel solidarity with people the same age as me.,filler
5179,,,html-slider-response,470,2663141,0.0-24.0-1.0-0.14,13470,List2B,white,woman,,,,,,,,survey_race,63,,,I often think about the fact that I am my age.,filler
6348,,,html-slider-response,471,2669493,0.0-24.0-1.0-0.15,13470,List2B,white,woman,,,,,,,,survey_race,60,,,People my age have a lot in common with each other.,filler
3635,,,html-slider-response,472,2673133,0.0-24.0-1.0-0.16,13470,List2B,white,woman,,,,,,,,survey_race,64,,,"The older I get, the wiser I feel.",filler
4883,,,html-slider-response,473,2678021,0.0-24.0-1.0-0.17,13470,List2B,white,woman,,,,,,,,survey_race,73,,,I am glad to be my race.,glad
5019,,,html-slider-response,474,2683045,0.0-24.0-1.0-0.18,13470,List2B,white,woman,,,,,,,,survey_race,37,,,Being my race is an important part of how I see myself.,important
4220,,,html-slider-response,475,2687269,0.0-24.0-1.0-0.19,13470,List2B,white,woman,,,,,,,,survey_race,28,,,I enjoy being in large groups.,filler
4236,,,html-slider-response,476,2691510,0.0-24.0-1.0-0.20,13470,List2B,white,woman,,,,,,,,survey_race,10,,,I consider myself an extrovert.,filler
5283,,,html-slider-response,477,2696797,0.0-24.0-1.0-0.21,13470,List2B,white,woman,,,,,,,,survey_race,62,,,I feel a bond with people the same age as me.,filler
10163,,,html-slider-response,478,2706964,0.0-24.0-1.0-0.22,13470,List2B,white,woman,,,,,,,,survey_race,39,,,Being my race gives me a good feeling.,feeling
3965,,,html-slider-response,479,2710933,0.0-24.0-1.0-0.23,13470,List2B,white,woman,,,,,,,,survey_race,93,,,I consider myself an introvert.,filler
4938,,,html-slider-response,480,2715877,0.0-24.0-1.0-0.24,13470,List2B,white,woman,,,,,,,,survey_race,69,,,I feel a bond with my race.,bond
3996,,,html-slider-response,481,2719876,0.0-24.0-1.0-0.25,13470,List2B,white,woman,,,,,,,,survey_race,66,,,I feel solidarity with my race.,solidarity
7035,,,html-slider-response,482,2726917,0.0-24.0-1.0-0.26,13470,List2B,white,woman,,,,,,,,survey_race,42,,,The fact that I am my race is an important part of my identity.,identity
8332,,,html-slider-response,483,2735253,0.0-24.0-1.0-0.27,13470,List2B,white,woman,,,,,,,,survey_race,42,,,Getting older does not worry me.,filler
9405,,,survey-text,484,2744664,0.0-25.0,13470,List2B,white,woman,,,,,"{""Q0"":""ccc""}",,,worker_id,,,,,
13943,,,external-html,485,2758973,0.0-26.0,13470,List2B,white,woman,debrief.html,,,,,,,,,,,,
