rt,stimulus,button_pressed,trial_type,trial_index,time_elapsed,internal_node_id,subject,list,ppt_race,ppt_gender,url,first_guess,correct,key_press,responses,image_type,phrase_type,test_part,response,stimulus1,stimulus2,question_type,survey_item
1674.6,Welcome to the experiment. Press Continue to begin.,0,html-button-response,0,1677,0.0-0.0,13580,List2A,white,woman,,,,,,,,,,,,,
58291.2,,,external-html,1,61105,0.0-1.0,13580,List2A,white,woman,consent.html,,,,,,,,,,,,
18841.1,"<p>On the next page, you will see portraits of 8 people and their names.</p><p>Your first task is to take a few minutes to memorise the names of these people.</p><p>You will have to recall their names during the rest of the experiment, so it is</p><p>essential that you try to memorise these people and their names as best as you can.</p><br><p><strong>You will then be tested on your memory of these names and portraits.</strong></p><br><p>The experiment will start after you have completed this memory test.</p><br><p>Ready?</p>",0,html-button-response,2,79948,0.0-2.0,13580,List2A,white,woman,,,,,,,,,,,,,
177157.2,"<img src='img/portrait_matrix_list2.jpg' style='width:900px;height:500px;''></img><p>If you have memorised all the portraits and names and are ready to start, press Continue.</p><p><strong>Please note: Your memory of these faces will be tested 4 times during this experiment.</strong></p>",0,html-button-response,3,258102,0.0-3.0-0.0,13580,List2A,white,woman,,,,,,,,,,,,,
4583.5,"<img src=""portrait/WW2.jpg""style=""height:400px;""></img>",2,html-button-response,4,263691,0.0-3.0-1.0,13580,List2A,white,woman,,TRUE,3,,,,,,,,,,
11076.3,"<img src=""portrait/WW2.jpg""style=""height:400px;""></img>",3,html-button-response,5,275775,0.0-3.0-3.0-0.0,13580,List2A,white,woman,,FALSE,3,,,,,,,,,,
null,CORRECT,,html-keyboard-response,6,277281,0.0-3.0-3.0-1.0-0.0,13580,List2A,white,woman,,,,null,,,,,,,,,
5836.2,"<img src=""portrait/BM2.jpg""style=""height:400px;""></img>",5,html-button-response,7,283121,0.0-3.0-4.0,13580,List2A,white,woman,,TRUE,5,,,,,,,,,,
null,CORRECT,,html-keyboard-response,8,284624,0.0-3.0-5.0-0.0,13580,List2A,white,woman,,,,null,,,,,,,,,
13796.3,"<img src=""portrait/WM2.jpg""style=""height:400px;""></img>",7,html-button-response,9,298422,0.0-3.0-7.0,13580,List2A,white,woman,,TRUE,7,,,,,,,,,,
null,CORRECT,,html-keyboard-response,10,299932,0.0-3.0-8.0-0.0,13580,List2A,white,woman,,,,null,,,,,,,,,
4311.8,"<img src=""portrait/WM1.jpg""style=""height:400px;""></img>",6,html-button-response,11,304246,0.0-3.0-10.0,13580,List2A,white,woman,,TRUE,6,,,,,,,,,,
null,CORRECT,,html-keyboard-response,12,305749,0.0-3.0-11.0-0.0,13580,List2A,white,woman,,,,null,,,,,,,,,
2141.8,"<img src=""portrait/BM1.jpg""style=""height:400px;""></img>",4,html-button-response,13,307892,0.0-3.0-13.0,13580,List2A,white,woman,,TRUE,4,,,,,,,,,,
null,CORRECT,,html-keyboard-response,14,309395,0.0-3.0-14.0-0.0,13580,List2A,white,woman,,,,null,,,,,,,,,
5773,"<img src=""portrait/WW1.jpg""style=""height:400px;""></img>",1,html-button-response,15,315170,0.0-3.0-16.0,13580,List2A,white,woman,,TRUE,1,,,,,,,,,,
null,CORRECT,,html-keyboard-response,16,316672,0.0-3.0-17.0-0.0,13580,List2A,white,woman,,,,null,,,,,,,,,
5380.5,"<img src=""portrait/BW2.jpg""style=""height:400px;""></img>",2,html-button-response,17,322054,0.0-3.0-19.0,13580,List2A,white,woman,,TRUE,2,,,,,,,,,,
null,CORRECT,,html-keyboard-response,18,323556,0.0-3.0-20.0-0.0,13580,List2A,white,woman,,,,null,,,,,,,,,
3615.6,"<img src=""portrait/BW1.jpg""style=""height:400px;""></img>",0,html-button-response,19,327173,0.0-3.0-22.0,13580,List2A,white,woman,,TRUE,0,,,,,,,,,,
null,CORRECT,,html-keyboard-response,20,328681,0.0-3.0-23.0-0.0,13580,List2A,white,woman,,,,null,,,,,,,,,
5386.1,<p>You got 7 out of 8 right first time. Press Continue.</p>,0,html-button-response,21,334069,0.0-3.0-25.0,13580,List2A,white,woman,,,,,,,,,,,,,
3303.6,"As you did not score 100%, the memory game will repeat. Press Continue.",0,html-button-response,22,338377,0.0-3.0-26.0-0.0,13580,List2A,white,woman,,,,,,,,,,,,,
3576,"<img src='img/portrait_matrix_list2.jpg' style='width:900px;height:500px;''></img><p>If you have memorised all the portraits and names and are ready to start, press Continue.</p><p><strong>Please note: Your memory of these faces will be tested 4 times during this experiment.</strong></p>",0,html-button-response,23,342957,0.0-3.1-0.1,13580,List2A,white,woman,,,,,,,,,,,,,
2801.2,"<img src=""portrait/WW2.jpg""style=""height:400px;""></img>",3,html-button-response,24,346762,0.0-3.1-1.1,13580,List2A,white,woman,,TRUE,3,,,,,,,,,,
null,CORRECT,,html-keyboard-response,25,348265,0.0-3.1-2.1-0.1,13580,List2A,white,woman,,,,null,,,,,,,,,
5561.1,"<img src=""portrait/BM2.jpg""style=""height:400px;""></img>",5,html-button-response,26,353828,0.0-3.1-4.1,13580,List2A,white,woman,,TRUE,5,,,,,,,,,,
null,CORRECT,,html-keyboard-response,27,355332,0.0-3.1-5.1-0.1,13580,List2A,white,woman,,,,null,,,,,,,,,
4669.8,"<img src=""portrait/WM2.jpg""style=""height:400px;""></img>",7,html-button-response,28,360003,0.0-3.1-7.1,13580,List2A,white,woman,,TRUE,7,,,,,,,,,,
null,CORRECT,,html-keyboard-response,29,361509,0.0-3.1-8.1-0.1,13580,List2A,white,woman,,,,null,,,,,,,,,
1975.8,"<img src=""portrait/WM1.jpg""style=""height:400px;""></img>",6,html-button-response,30,363487,0.0-3.1-10.1,13580,List2A,white,woman,,TRUE,6,,,,,,,,,,
null,CORRECT,,html-keyboard-response,31,364989,0.0-3.1-11.1-0.1,13580,List2A,white,woman,,,,null,,,,,,,,,
2245.9,"<img src=""portrait/BM1.jpg""style=""height:400px;""></img>",4,html-button-response,32,367237,0.0-3.1-13.1,13580,List2A,white,woman,,TRUE,4,,,,,,,,,,
null,CORRECT,,html-keyboard-response,33,368740,0.0-3.1-14.1-0.1,13580,List2A,white,woman,,,,null,,,,,,,,,
4094,"<img src=""portrait/WW1.jpg""style=""height:400px;""></img>",1,html-button-response,34,372836,0.0-3.1-16.1,13580,List2A,white,woman,,TRUE,1,,,,,,,,,,
null,CORRECT,,html-keyboard-response,35,374341,0.0-3.1-17.1-0.1,13580,List2A,white,woman,,,,null,,,,,,,,,
1251.1,"<img src=""portrait/BW2.jpg""style=""height:400px;""></img>",2,html-button-response,36,375595,0.0-3.1-19.1,13580,List2A,white,woman,,TRUE,2,,,,,,,,,,
null,CORRECT,,html-keyboard-response,37,377098,0.0-3.1-20.1-0.1,13580,List2A,white,woman,,,,null,,,,,,,,,
1213.4,"<img src=""portrait/BW1.jpg""style=""height:400px;""></img>",0,html-button-response,38,378314,0.0-3.1-22.1,13580,List2A,white,woman,,TRUE,0,,,,,,,,,,
null,CORRECT,,html-keyboard-response,39,379817,0.0-3.1-23.1-0.1,13580,List2A,white,woman,,,,null,,,,,,,,,
1172.5,<p>You got 8 out of 8 right first time. Press Continue.</p>,0,html-button-response,40,380991,0.0-3.1-25.1,13580,List2A,white,woman,,,,,,,,,,,,,
27583.8,"<p>In this experiment, you will view photographs of the people from the memory game interacting.</p><p>By using the <strong>exact</strong> phrase given <i>after</i> the photograph appears and recalling the correct names of the people in the photographs, form a sentence describing the interaction. You do not need to capitalise names.</p><p>Type your answer in the space provided. Please complete every sentence before moving onto the next trial.</p><p>You will only have a few seconds to memorise each given photograph and phrase before you can respond, so try your best to focus.</p><p>An example is given below. Press 'Continue' when you are ready.</p><img src='img/speaking_example.jpg' style='width:800px;height:460px;''></img>",0,html-button-response,41,409577,0.0-4.0,13580,List2A,white,woman,,,,,,,,,,,,,
9119.7,"<p>Before the experiment starts, you will watch two example trials. Press 'Continue'.</p>",0,html-button-response,42,419703,0.0-5.0,13580,List2A,white,woman,,,,,,,,,,,,,
null,<img src='img/play_eg.gif' style='height:400px;''></img>,,html-keyboard-response,43,422709,0.0-6.0,13580,List2A,white,woman,,,,null,,,,,,,,,
null,<p>is playing with</p>,,html-keyboard-response,44,424710,0.0-7.0,13580,List2A,white,woman,,,,null,,,,,,,,,
3686.9,<p><b>Answer:</b> jane is playing with ruth</p>,0,html-button-response,45,428398,0.0-8.0,13580,List2A,white,woman,,,,,,,,,,,,,
null,<img src='img/dance_eg.gif' style='height:400px;''></img>,,html-keyboard-response,46,431403,0.0-9.0,13580,List2A,white,woman,,,,null,,,,,,,,,
null,<p>is being entertained by</p>,,html-keyboard-response,47,433405,0.0-10.0,13580,List2A,white,woman,,,,null,,,,,,,,,
2776.7,<p><b>Answer:</b> fred is being entertained by mike</p>,0,html-button-response,48,436183,0.0-11.0,13580,List2A,white,woman,,,,,,,,,,,,,
1955.3,"<p>Ready to start the experiment?</p><br><p><strong>Remember to describe the picture using a full sentence,</strong></p><p><strong>that combines the names of the people with the <i>exact</i> phrase given.</strong></p><p><strong>To receive full payment you must do this correctly.</strong></p><p><strong> You do not need to capitalise names or use punctuation.</strong></p><br><p>Press 'Continue' to begin.</p>",0,html-button-response,49,439141,0.0-12.0,13580,List2A,white,woman,,,,,,,,,,,,,
null,"<div style=""font-size:60px;"">+</div>",,html-keyboard-response,50,440644,0.0-13.0-0.0,13580,List2A,white,woman,,,,null,,,,,,,,,
null,"<img src=""stim_listA/seduce7.gif""style=""height:400px;""></stim_listA>",,html-keyboard-response,51,442647,0.0-13.0-1.0,13580,List2A,white,woman,,,,null,,,,,,,,,
null,is seducing,,html-keyboard-response,52,444649,0.0-13.0-2.0,13580,List2A,white,woman,,,,null,,,,,,,,,
10353,,,survey-text,53,455009,0.0-13.0-3.0,13580,List2A,white,woman,,,,,"{""Q0"":""kate is seducing ruth""}","<img src=""stim_listA/seduce7.gif""style=""height:400px;""></stim_listA>",is seducing,,,,,,
null,"<div style=""font-size:60px;"">+</div>",,html-keyboard-response,54,455513,0.0-13.0-0.1,13580,List2A,white,woman,,,,null,,,,,,,,,
null,"<img src=""stim_listA/copy7.gif""style=""height:400px;""></stim_listA>",,html-keyboard-response,55,457516,0.0-13.0-1.1,13580,List2A,white,woman,,,,null,,,,,,,,,
null,is copying,,html-keyboard-response,56,459518,0.0-13.0-2.1,13580,List2A,white,woman,,,,null,,,,,,,,,
7700.5,,,survey-text,57,467223,0.0-13.0-3.1,13580,List2A,white,woman,,,,,"{""Q0"":""jane is copying beth""}","<img src=""stim_listA/copy7.gif""style=""height:400px;""></stim_listA>",is copying,,,,,,
null,"<div style=""font-size:60px;"">+</div>",,html-keyboard-response,58,467724,0.0-13.0-0.2,13580,List2A,white,woman,,,,null,,,,,,,,,
null,"<img src=""stim_listA/touch1.gif""style=""height:400px;""></stim_listA>",,html-keyboard-response,59,469730,0.0-13.0-1.2,13580,List2A,white,woman,,,,null,,,,,,,,,
null,is touching,,html-keyboard-response,60,471732,0.0-13.0-2.2,13580,List2A,white,woman,,,,null,,,,,,,,,
12495.5,,,survey-text,61,484232,0.0-13.0-3.2,13580,List2A,white,woman,,,,,"{""Q0"":""jane is touching dave""}","<img src=""stim_listA/touch1.gif""style=""height:400px;""></stim_listA>",is touching,,,,,,
null,"<div style=""font-size:60px;"">+</div>",,html-keyboard-response,62,484735,0.0-13.0-0.3,13580,List2A,white,woman,,,,null,,,,,,,,,
null,"<img src=""stim_listA/kiss3.gif""style=""height:400px;""></stim_listA>",,html-keyboard-response,63,486737,0.0-13.0-1.3,13580,List2A,white,woman,,,,null,,,,,,,,,
null,is kissing,,html-keyboard-response,64,488740,0.0-13.0-2.3,13580,List2A,white,woman,,,,null,,,,,,,,,
4422.6,,,survey-text,65,493167,0.0-13.0-3.3,13580,List2A,white,woman,,,,,"{""Q0"":""beth is kissing fred""}","<img src=""stim_listA/kiss3.gif""style=""height:400px;""></stim_listA>",is kissing,,,,,,
null,"<div style=""font-size:60px;"">+</div>",,html-keyboard-response,66,493669,0.0-13.0-0.4,13580,List2A,white,woman,,,,null,,,,,,,,,
null,"<img src=""stim_listA/shout2.gif""style=""height:400px;""></stim_listA>",,html-keyboard-response,67,495672,0.0-13.0-1.4,13580,List2A,white,woman,,,,null,,,,,,,,,
null,is being shouted at by,,html-keyboard-response,68,497674,0.0-13.0-2.4,13580,List2A,white,woman,,,,null,,,,,,,,,
11893.5,,,survey-text,69,509571,0.0-13.0-3.4,13580,List2A,white,woman,,,,,"{""Q0"":""Jane is being shouted at by dave""}","<img src=""stim_listA/shout2.gif""style=""height:400px;""></stim_listA>",is being shouted at by,,,,,,
null,"<div style=""font-size:60px;"">+</div>",,html-keyboard-response,70,510073,0.0-13.0-0.5,13580,List2A,white,woman,,,,null,,,,,,,,,
null,"<img src=""stim_listA/seduce1.gif""style=""height:400px;""></stim_listA>",,html-keyboard-response,71,512076,0.0-13.0-1.5,13580,List2A,white,woman,,,,null,,,,,,,,,
null,is seducing,,html-keyboard-response,72,514078,0.0-13.0-2.5,13580,List2A,white,woman,,,,null,,,,,,,,,
6333.3,,,survey-text,73,520414,0.0-13.0-3.5,13580,List2A,white,woman,,,,,"{""Q0"":""mike is seducing jane""}","<img src=""stim_listA/seduce1.gif""style=""height:400px;""></stim_listA>",is seducing,,,,,,
null,"<div style=""font-size:60px;"">+</div>",,html-keyboard-response,74,520916,0.0-13.0-0.6,13580,List2A,white,woman,,,,null,,,,,,,,,
null,"<img src=""stim_listA/copy4.gif""style=""height:400px;""></stim_listA>",,html-keyboard-response,75,522919,0.0-13.0-1.6,13580,List2A,white,woman,,,,null,,,,,,,,,
null,is being copied by,,html-keyboard-response,76,524921,0.0-13.0-2.6,13580,List2A,white,woman,,,,null,,,,,,,,,
8851.1,,,survey-text,77,533775,0.0-13.0-3.6,13580,List2A,white,woman,,,,,"{""Q0"":""fred is being copied by kate""}","<img src=""stim_listA/copy4.gif""style=""height:400px;""></stim_listA>",is being copied by,,,,,,
null,"<div style=""font-size:60px;"">+</div>",,html-keyboard-response,78,534277,0.0-13.0-0.7,13580,List2A,white,woman,,,,null,,,,,,,,,
null,"<img src=""stim_listA/look5.gif""style=""height:400px;""></stim_listA>",,html-keyboard-response,79,536282,0.0-13.0-1.7,13580,List2A,white,woman,,,,null,,,,,,,,,
null,is looking at,,html-keyboard-response,80,538283,0.0-13.0-2.7,13580,List2A,white,woman,,,,null,,,,,,,,,
5705.1,,,survey-text,81,543994,0.0-13.0-3.7,13580,List2A,white,woman,,,,,"{""Q0"":""fred is looking at luke""}","<img src=""stim_listA/look5.gif""style=""height:400px;""></stim_listA>",is looking at,,,,,,
null,"<div style=""font-size:60px;"">+</div>",,html-keyboard-response,82,544496,0.0-13.0-0.8,13580,List2A,white,woman,,,,null,,,,,,,,,
null,"<img src=""stim_listA/touch4.gif""style=""height:400px;""></stim_listA>",,html-keyboard-response,83,546500,0.0-13.0-1.8,13580,List2A,white,woman,,,,null,,,,,,,,,
null,is being touched by,,html-keyboard-response,84,548503,0.0-13.0-2.8,13580,List2A,white,woman,,,,null,,,,,,,,,
5385.9,,,survey-text,85,553894,0.0-13.0-3.8,13580,List2A,white,woman,,,,,"{""Q0"":""fred is being touched by beth""}","<img src=""stim_listA/touch4.gif""style=""height:400px;""></stim_listA>",is being touched by,,,,,,
null,"<div style=""font-size:60px;"">+</div>",,html-keyboard-response,86,554396,0.0-13.0-0.9,13580,List2A,white,woman,,,,null,,,,,,,,,
null,"<img src=""stim_listA/hug4.gif""style=""height:400px;""></stim_listA>",,html-keyboard-response,87,556399,0.0-13.0-1.9,13580,List2A,white,woman,,,,null,,,,,,,,,
null,is being hugged by,,html-keyboard-response,88,558400,0.0-13.0-2.9,13580,List2A,white,woman,,,,null,,,,,,,,,
9212.2,,,survey-text,89,567616,0.0-13.0-3.9,13580,List2A,white,woman,,,,,"{""Q0"":""Kate is being hugged by mike""}","<img src=""stim_listA/hug4.gif""style=""height:400px;""></stim_listA>",is being hugged by,,,,,,
null,"<div style=""font-size:60px;"">+</div>",,html-keyboard-response,90,568118,0.0-13.0-0.10,13580,List2A,white,woman,,,,null,,,,,,,,,
null,"<img src=""stim_listA/look7.gif""style=""height:400px;""></stim_listA>",,html-keyboard-response,91,570124,0.0-13.0-1.10,13580,List2A,white,woman,,,,null,,,,,,,,,
null,is looking at,,html-keyboard-response,92,572127,0.0-13.0-2.10,13580,List2A,white,woman,,,,null,,,,,,,,,
4330.2,,,survey-text,93,576461,0.0-13.0-3.10,13580,List2A,white,woman,,,,,"{""Q0"":""beth is looking at ruth""}","<img src=""stim_listA/look7.gif""style=""height:400px;""></stim_listA>",is looking at,,,,,,
null,"<div style=""font-size:60px;"">+</div>",,html-keyboard-response,94,576963,0.0-13.0-0.11,13580,List2A,white,woman,,,,null,,,,,,,,,
null,"<img src=""stim_listA/greet7.gif""style=""height:400px;""></stim_listA>",,html-keyboard-response,95,578969,0.0-13.0-1.11,13580,List2A,white,woman,,,,null,,,,,,,,,
null,is greeting,,html-keyboard-response,96,580970,0.0-13.0-2.11,13580,List2A,white,woman,,,,null,,,,,,,,,
5837.6,,,survey-text,97,586812,0.0-13.0-3.11,13580,List2A,white,woman,,,,,"{""Q0"":""beth is greeting jane""}","<img src=""stim_listA/greet7.gif""style=""height:400px;""></stim_listA>",is greeting,,,,,,
null,"<div style=""font-size:60px;"">+</div>",,html-keyboard-response,98,587313,0.0-13.0-0.12,13580,List2A,white,woman,,,,null,,,,,,,,,
null,"<img src=""stim_listA/greet4.gif""style=""height:400px;""></stim_listA>",,html-keyboard-response,99,589317,0.0-13.0-1.12,13580,List2A,white,woman,,,,null,,,,,,,,,
null,is being greeted by,,html-keyboard-response,100,591319,0.0-13.0-2.12,13580,List2A,white,woman,,,,null,,,,,,,,,
6872.9,,,survey-text,101,598195,0.0-13.0-3.12,13580,List2A,white,woman,,,,,"{""Q0"":""kate is being greeted by fred""}","<img src=""stim_listA/greet4.gif""style=""height:400px;""></stim_listA>",is being greeted by,,,,,,
null,"<div style=""font-size:60px;"">+</div>",,html-keyboard-response,102,598699,0.0-13.0-0.13,13580,List2A,white,woman,,,,null,,,,,,,,,
null,"<img src=""stim_listA/look4.gif""style=""height:400px;""></stim_listA>",,html-keyboard-response,103,600701,0.0-13.0-1.13,13580,List2A,white,woman,,,,null,,,,,,,,,
null,is being looked at by,,html-keyboard-response,104,602705,0.0-13.0-2.13,13580,List2A,white,woman,,,,null,,,,,,,,,
6017,,,survey-text,105,608726,0.0-13.0-3.13,13580,List2A,white,woman,,,,,"{""Q0"":""mike is being looked at by kate""}","<img src=""stim_listA/look4.gif""style=""height:400px;""></stim_listA>",is being looked at by,,,,,,
null,"<div style=""font-size:60px;"">+</div>",,html-keyboard-response,106,609228,0.0-13.0-0.14,13580,List2A,white,woman,,,,null,,,,,,,,,
null,"<img src=""stim_listA/seduce8.gif""style=""height:400px;""></stim_listA>",,html-keyboard-response,107,611232,0.0-13.0-1.14,13580,List2A,white,woman,,,,null,,,,,,,,,
null,is being seduced by,,html-keyboard-response,108,613233,0.0-13.0-2.14,13580,List2A,white,woman,,,,null,,,,,,,,,
8199.2,,,survey-text,109,621435,0.0-13.0-3.14,13580,List2A,white,woman,,,,,"{""Q0"":""beth is being seduced by jane""}","<img src=""stim_listA/seduce8.gif""style=""height:400px;""></stim_listA>",is being seduced by,,,,,,
null,"<div style=""font-size:60px;"">+</div>",,html-keyboard-response,110,621936,0.0-13.0-0.15,13580,List2A,white,woman,,,,null,,,,,,,,,
null,"<img src=""stim_listA/look2.gif""style=""height:400px;""></stim_listA>",,html-keyboard-response,111,623939,0.0-13.0-1.15,13580,List2A,white,woman,,,,null,,,,,,,,,
null,is being looked at by,,html-keyboard-response,112,625940,0.0-13.0-2.15,13580,List2A,white,woman,,,,null,,,,,,,,,
6740.8,,,survey-text,113,632684,0.0-13.0-3.15,13580,List2A,white,woman,,,,,"{""Q0"":""jane is being looked at by dave""}","<img src=""stim_listA/look2.gif""style=""height:400px;""></stim_listA>",is being looked at by,,,,,,
null,"<div style=""font-size:60px;"">+</div>",,html-keyboard-response,114,633187,0.0-13.0-0.16,13580,List2A,white,woman,,,,null,,,,,,,,,
null,"<img src=""stim_listA/shout7.gif""style=""height:400px;""></stim_listA>",,html-keyboard-response,115,635191,0.0-13.0-1.16,13580,List2A,white,woman,,,,null,,,,,,,,,
null,is shouting at,,html-keyboard-response,116,637194,0.0-13.0-2.16,13580,List2A,white,woman,,,,null,,,,,,,,,
5497.6,,,survey-text,117,642695,0.0-13.0-3.16,13580,List2A,white,woman,,,,,"{""Q0"":""beth is shouting at ruth""}","<img src=""stim_listA/shout7.gif""style=""height:400px;""></stim_listA>",is shouting at,,,,,,
null,"<div style=""font-size:60px;"">+</div>",,html-keyboard-response,118,643197,0.0-13.0-0.17,13580,List2A,white,woman,,,,null,,,,,,,,,
null,"<img src=""stim_listA/touch2.gif""style=""height:400px;""></stim_listA>",,html-keyboard-response,119,645200,0.0-13.0-1.17,13580,List2A,white,woman,,,,null,,,,,,,,,
null,is being touched by,,html-keyboard-response,120,647203,0.0-13.0-2.17,13580,List2A,white,woman,,,,null,,,,,,,,,
5368.6,,,survey-text,121,652574,0.0-13.0-3.17,13580,List2A,white,woman,,,,,"{""Q0"":""mike is being touched by ruth""}","<img src=""stim_listA/touch2.gif""style=""height:400px;""></stim_listA>",is being touched by,,,,,,
null,"<div style=""font-size:60px;"">+</div>",,html-keyboard-response,122,653076,0.0-13.0-0.18,13580,List2A,white,woman,,,,null,,,,,,,,,
null,"<img src=""stim_listA/hug5.gif""style=""height:400px;""></stim_listA>",,html-keyboard-response,123,655079,0.0-13.0-1.18,13580,List2A,white,woman,,,,null,,,,,,,,,
null,is hugging,,html-keyboard-response,124,657081,0.0-13.0-2.18,13580,List2A,white,woman,,,,null,,,,,,,,,
7054.7,,,survey-text,125,664138,0.0-13.0-3.18,13580,List2A,white,woman,,,,,"{""Q0"":""fred is hugging luke""}","<img src=""stim_listA/hug5.gif""style=""height:400px;""></stim_listA>",is hugging,,,,,,
null,"<div style=""font-size:60px;"">+</div>",,html-keyboard-response,126,664640,0.0-13.0-0.19,13580,List2A,white,woman,,,,null,,,,,,,,,
null,"<img src=""stim_listA/copy6.gif""style=""height:400px;""></stim_listA>",,html-keyboard-response,127,666642,0.0-13.0-1.19,13580,List2A,white,woman,,,,null,,,,,,,,,
null,is being copied by,,html-keyboard-response,128,668643,0.0-13.0-2.19,13580,List2A,white,woman,,,,null,,,,,,,,,
5258.4,,,survey-text,129,673905,0.0-13.0-3.19,13580,List2A,white,woman,,,,,"{""Q0"":""luke is being copied by mike""}","<img src=""stim_listA/copy6.gif""style=""height:400px;""></stim_listA>",is being copied by,,,,,,
3663.9,"<img src='img/portrait_matrix_list2.jpg' style='width:900px;height:500px;''></img><p>If you have memorised all the portraits and names and are ready to start, press Continue.</p><p><strong>Please note: Your memory of these faces will be tested 4 times during this experiment.</strong></p>",0,html-button-response,130,677572,0.0-14.0-0.0,13580,List2A,white,woman,,,,,,,,,,,,,
1818.3,"<img src=""portrait/WM2.jpg""style=""height:400px;""></img>",7,html-button-response,131,680392,0.0-14.0-1.0,13580,List2A,white,woman,,TRUE,7,,,,,,,,,,
null,CORRECT,,html-keyboard-response,132,681895,0.0-14.0-2.0-0.0,13580,List2A,white,woman,,,,null,,,,,,,,,
1510.1,"<img src=""portrait/BM2.jpg""style=""height:400px;""></img>",5,html-button-response,133,683408,0.0-14.0-4.0,13580,List2A,white,woman,,TRUE,5,,,,,,,,,,
null,CORRECT,,html-keyboard-response,134,684914,0.0-14.0-5.0-0.0,13580,List2A,white,woman,,,,null,,,,,,,,,
1280.8,"<img src=""portrait/BM1.jpg""style=""height:400px;""></img>",4,html-button-response,135,686197,0.0-14.0-7.0,13580,List2A,white,woman,,TRUE,4,,,,,,,,,,
null,CORRECT,,html-keyboard-response,136,687704,0.0-14.0-8.0-0.0,13580,List2A,white,woman,,,,null,,,,,,,,,
1168,"<img src=""portrait/WW2.jpg""style=""height:400px;""></img>",3,html-button-response,137,688874,0.0-14.0-10.0,13580,List2A,white,woman,,TRUE,3,,,,,,,,,,
null,CORRECT,,html-keyboard-response,138,690378,0.0-14.0-11.0-0.0,13580,List2A,white,woman,,,,null,,,,,,,,,
1622.6,"<img src=""portrait/BW1.jpg""style=""height:400px;""></img>",0,html-button-response,139,692002,0.0-14.0-13.0,13580,List2A,white,woman,,TRUE,0,,,,,,,,,,
null,CORRECT,,html-keyboard-response,140,693505,0.0-14.0-14.0-0.0,13580,List2A,white,woman,,,,null,,,,,,,,,
4631.9,"<img src=""portrait/WW1.jpg""style=""height:400px;""></img>",1,html-button-response,141,698139,0.0-14.0-16.0,13580,List2A,white,woman,,TRUE,1,,,,,,,,,,
null,CORRECT,,html-keyboard-response,142,699642,0.0-14.0-17.0-0.0,13580,List2A,white,woman,,,,null,,,,,,,,,
2707.6,"<img src=""portrait/BW2.jpg""style=""height:400px;""></img>",2,html-button-response,143,702352,0.0-14.0-19.0,13580,List2A,white,woman,,TRUE,2,,,,,,,,,,
null,CORRECT,,html-keyboard-response,144,703859,0.0-14.0-20.0-0.0,13580,List2A,white,woman,,,,null,,,,,,,,,
1528.5,"<img src=""portrait/WM1.jpg""style=""height:400px;""></img>",6,html-button-response,145,705389,0.0-14.0-22.0,13580,List2A,white,woman,,TRUE,6,,,,,,,,,,
null,CORRECT,,html-keyboard-response,146,706892,0.0-14.0-23.0-0.0,13580,List2A,white,woman,,,,null,,,,,,,,,
2645.1,<p>You got 8 out of 8 right first time. Press Continue.</p>,0,html-button-response,147,709540,0.0-14.0-25.0,13580,List2A,white,woman,,,,,,,,,,,,,
null,"<div style=""font-size:60px;"">+</div>",,html-keyboard-response,148,711044,0.0-15.0-0.0,13580,List2A,white,woman,,,,null,,,,,,,,,
null,"<img src=""stim_listA/hug1.gif""style=""height:400px;""></stim_listA>",,html-keyboard-response,149,713049,0.0-15.0-1.0,13580,List2A,white,woman,,,,null,,,,,,,,,
null,is hugging,,html-keyboard-response,150,715050,0.0-15.0-2.0,13580,List2A,white,woman,,,,null,,,,,,,,,
5626.5,,,survey-text,151,720680,0.0-15.0-3.0,13580,List2A,white,woman,,,,,"{""Q0"":""mike is hugging ruth""}","<img src=""stim_listA/hug1.gif""style=""height:400px;""></stim_listA>",is hugging,,,,,,
null,"<div style=""font-size:60px;"">+</div>",,html-keyboard-response,152,721182,0.0-15.0-0.1,13580,List2A,white,woman,,,,null,,,,,,,,,
null,"<img src=""stim_listA/copy8.gif""style=""height:400px;""></stim_listA>",,html-keyboard-response,153,723187,0.0-15.0-1.1,13580,List2A,white,woman,,,,null,,,,,,,,,
null,is being copied by,,html-keyboard-response,154,725189,0.0-15.0-2.1,13580,List2A,white,woman,,,,null,,,,,,,,,
5679.9,,,survey-text,155,730873,0.0-15.0-3.1,13580,List2A,white,woman,,,,,"{""Q0"":""kate is being copied by ruth""}","<img src=""stim_listA/copy8.gif""style=""height:400px;""></stim_listA>",is being copied by,,,,,,
null,"<div style=""font-size:60px;"">+</div>",,html-keyboard-response,156,731375,0.0-15.0-0.2,13580,List2A,white,woman,,,,null,,,,,,,,,
null,"<img src=""stim_listA/seduce4.gif""style=""height:400px;""></stim_listA>",,html-keyboard-response,157,733378,0.0-15.0-1.2,13580,List2A,white,woman,,,,null,,,,,,,,,
null,is being seduced by,,html-keyboard-response,158,735379,0.0-15.0-2.2,13580,List2A,white,woman,,,,null,,,,,,,,,
10496.3,,,survey-text,159,745879,0.0-15.0-3.2,13580,List2A,white,woman,,,,,"{""Q0"":""beth is being seduced by luke""}","<img src=""stim_listA/seduce4.gif""style=""height:400px;""></stim_listA>",is being seduced by,,,,,,
null,"<div style=""font-size:60px;"">+</div>",,html-keyboard-response,160,746380,0.0-15.0-0.3,13580,List2A,white,woman,,,,null,,,,,,,,,
null,"<img src=""stim_listA/kiss2.gif""style=""height:400px;""></stim_listA>",,html-keyboard-response,161,748383,0.0-15.0-1.3,13580,List2A,white,woman,,,,null,,,,,,,,,
null,is being kissed by,,html-keyboard-response,162,750385,0.0-15.0-2.3,13580,List2A,white,woman,,,,null,,,,,,,,,
4358.6,,,survey-text,163,754747,0.0-15.0-3.3,13580,List2A,white,woman,,,,,"{""Q0"":""jane is being kissed by dave""}","<img src=""stim_listA/kiss2.gif""style=""height:400px;""></stim_listA>",is being kissed by,,,,,,
null,"<div style=""font-size:60px;"">+</div>",,html-keyboard-response,164,755249,0.0-15.0-0.4,13580,List2A,white,woman,,,,null,,,,,,,,,
null,"<img src=""stim_listA/hug3.gif""style=""height:400px;""></stim_listA>",,html-keyboard-response,165,757253,0.0-15.0-1.4,13580,List2A,white,woman,,,,null,,,,,,,,,
null,is hugging,,html-keyboard-response,166,759255,0.0-15.0-2.4,13580,List2A,white,woman,,,,null,,,,,,,,,
5341.8,,,survey-text,167,764600,0.0-15.0-3.4,13580,List2A,white,woman,,,,,"{""Q0"":""fred is hugging beth""}","<img src=""stim_listA/hug3.gif""style=""height:400px;""></stim_listA>",is hugging,,,,,,
null,"<div style=""font-size:60px;"">+</div>",,html-keyboard-response,168,765102,0.0-15.0-0.5,13580,List2A,white,woman,,,,null,,,,,,,,,
null,"<img src=""stim_listA/challenge4.gif""style=""height:400px;""></stim_listA>",,html-keyboard-response,169,767105,0.0-15.0-1.5,13580,List2A,white,woman,,,,null,,,,,,,,,
null,is being challenged by,,html-keyboard-response,170,769108,0.0-15.0-2.5,13580,List2A,white,woman,,,,null,,,,,,,,,
6202.1,,,survey-text,171,775313,0.0-15.0-3.5,13580,List2A,white,woman,,,,,"{""Q0"":""fred is being challenged by kate""}","<img src=""stim_listA/challenge4.gif""style=""height:400px;""></stim_listA>",is being challenged by,,,,,,
null,"<div style=""font-size:60px;"">+</div>",,html-keyboard-response,172,775816,0.0-15.0-0.6,13580,List2A,white,woman,,,,null,,,,,,,,,
null,"<img src=""stim_listA/challenge6.gif""style=""height:400px;""></stim_listA>",,html-keyboard-response,173,777819,0.0-15.0-1.6,13580,List2A,white,woman,,,,null,,,,,,,,,
null,is being challenged by,,html-keyboard-response,174,779824,0.0-15.0-2.6,13580,List2A,white,woman,,,,null,,,,,,,,,
6124.1,,,survey-text,175,785951,0.0-15.0-3.6,13580,List2A,white,woman,,,,,"{""Q0"":""mike is being challenged by luke""}","<img src=""stim_listA/challenge6.gif""style=""height:400px;""></stim_listA>",is being challenged by,,,,,,
null,"<div style=""font-size:60px;"">+</div>",,html-keyboard-response,176,786453,0.0-15.0-0.7,13580,List2A,white,woman,,,,null,,,,,,,,,
null,"<img src=""stim_listA/greet3.gif""style=""height:400px;""></stim_listA>",,html-keyboard-response,177,788461,0.0-15.0-1.7,13580,List2A,white,woman,,,,null,,,,,,,,,
null,is greeting,,html-keyboard-response,178,790464,0.0-15.0-2.7,13580,List2A,white,woman,,,,null,,,,,,,,,
9325.5,,,survey-text,179,799792,0.0-15.0-3.7,13580,List2A,white,woman,,,,,"{""Q0"":""beth is greeting mike""}","<img src=""stim_listA/greet3.gif""style=""height:400px;""></stim_listA>",is greeting,,,,,,
null,"<div style=""font-size:60px;"">+</div>",,html-keyboard-response,180,800295,0.0-15.0-0.8,13580,List2A,white,woman,,,,null,,,,,,,,,
null,"<img src=""stim_listA/hug6.gif""style=""height:400px;""></stim_listA>",,html-keyboard-response,181,802299,0.0-15.0-1.8,13580,List2A,white,woman,,,,null,,,,,,,,,
null,is being hugged by,,html-keyboard-response,182,804301,0.0-15.0-2.8,13580,List2A,white,woman,,,,null,,,,,,,,,
5296.5,,,survey-text,183,809601,0.0-15.0-3.8,13580,List2A,white,woman,,,,,"{""Q0"":""mike is being hugged by dave""}","<img src=""stim_listA/hug6.gif""style=""height:400px;""></stim_listA>",is being hugged by,,,,,,
null,"<div style=""font-size:60px;"">+</div>",,html-keyboard-response,184,810103,0.0-15.0-0.9,13580,List2A,white,woman,,,,null,,,,,,,,,
null,"<img src=""stim_listA/seduce3.gif""style=""height:400px;""></stim_listA>",,html-keyboard-response,185,812106,0.0-15.0-1.9,13580,List2A,white,woman,,,,null,,,,,,,,,
null,is seducing,,html-keyboard-response,186,814109,0.0-15.0-2.9,13580,List2A,white,woman,,,,null,,,,,,,,,
4713.6,,,survey-text,187,818827,0.0-15.0-3.9,13580,List2A,white,woman,,,,,"{""Q0"":""fred is seducing kate""}","<img src=""stim_listA/seduce3.gif""style=""height:400px;""></stim_listA>",is seducing,,,,,,
null,"<div style=""font-size:60px;"">+</div>",,html-keyboard-response,188,819329,0.0-15.0-0.10,13580,List2A,white,woman,,,,null,,,,,,,,,
null,"<img src=""stim_listA/oppose2.gif""style=""height:400px;""></stim_listA>",,html-keyboard-response,189,821337,0.0-15.0-1.10,13580,List2A,white,woman,,,,null,,,,,,,,,
null,is being opposed by,,html-keyboard-response,190,823343,0.0-15.0-2.10,13580,List2A,white,woman,,,,null,,,,,,,,,
6593.7,,,survey-text,191,829940,0.0-15.0-3.10,13580,List2A,white,woman,,,,,"{""Q0"":""luke is being opposed by ruth""}","<img src=""stim_listA/oppose2.gif""style=""height:400px;""></stim_listA>",is being opposed by,,,,,,
null,"<div style=""font-size:60px;"">+</div>",,html-keyboard-response,192,830442,0.0-15.0-0.11,13580,List2A,white,woman,,,,null,,,,,,,,,
null,"<img src=""stim_listA/shout5.gif""style=""height:400px;""></stim_listA>",,html-keyboard-response,193,832445,0.0-15.0-1.11,13580,List2A,white,woman,,,,null,,,,,,,,,
null,is shouting at,,html-keyboard-response,194,834446,0.0-15.0-2.11,13580,List2A,white,woman,,,,null,,,,,,,,,
11710,,,survey-text,195,846159,0.0-15.0-3.11,13580,List2A,white,woman,,,,,"{""Q0"":""mike is being fought by luke""}","<img src=""stim_listA/shout5.gif""style=""height:400px;""></stim_listA>",is shouting at,,,,,,
null,"<div style=""font-size:60px;"">+</div>",,html-keyboard-response,196,846662,0.0-15.0-0.12,13580,List2A,white,woman,,,,null,,,,,,,,,
null,"<img src=""stim_listA/kiss8.gif""style=""height:400px;""></stim_listA>",,html-keyboard-response,197,848664,0.0-15.0-1.12,13580,List2A,white,woman,,,,null,,,,,,,,,
null,is being kissed by,,html-keyboard-response,198,850665,0.0-15.0-2.12,13580,List2A,white,woman,,,,null,,,,,,,,,
8206.2,,,survey-text,199,858875,0.0-15.0-3.12,13580,List2A,white,woman,,,,,"{""Q0"":""jane is being kissed by kate""}","<img src=""stim_listA/kiss8.gif""style=""height:400px;""></stim_listA>",is being kissed by,,,,,,
null,"<div style=""font-size:60px;"">+</div>",,html-keyboard-response,200,859377,0.0-15.0-0.13,13580,List2A,white,woman,,,,null,,,,,,,,,
null,"<img src=""stim_listA/seduce6.gif""style=""height:400px;""></stim_listA>",,html-keyboard-response,201,861380,0.0-15.0-1.13,13580,List2A,white,woman,,,,null,,,,,,,,,
null,is being seduced by,,html-keyboard-response,202,863385,0.0-15.0-2.13,13580,List2A,white,woman,,,,null,,,,,,,,,
7474.8,,,survey-text,203,870863,0.0-15.0-3.13,13580,List2A,white,woman,,,,,"{""Q0"":""fred is being seduced by dave""}","<img src=""stim_listA/seduce6.gif""style=""height:400px;""></stim_listA>",is being seduced by,,,,,,
null,"<div style=""font-size:60px;"">+</div>",,html-keyboard-response,204,871367,0.0-15.0-0.14,13580,List2A,white,woman,,,,null,,,,,,,,,
null,"<img src=""stim_listA/kiss5.gif""style=""height:400px;""></stim_listA>",,html-keyboard-response,205,873371,0.0-15.0-1.14,13580,List2A,white,woman,,,,null,,,,,,,,,
null,is kissing,,html-keyboard-response,206,875373,0.0-15.0-2.14,13580,List2A,white,woman,,,,null,,,,,,,,,
6127.5,,,survey-text,207,881504,0.0-15.0-3.14,13580,List2A,white,woman,,,,,"{""Q0"":""fred is kissing luke""}","<img src=""stim_listA/kiss5.gif""style=""height:400px;""></stim_listA>",is kissing,,,,,,
null,"<div style=""font-size:60px;"">+</div>",,html-keyboard-response,208,882006,0.0-15.0-0.15,13580,List2A,white,woman,,,,null,,,,,,,,,
null,"<img src=""stim_listA/touch3.gif""style=""height:400px;""></stim_listA>",,html-keyboard-response,209,884008,0.0-15.0-1.15,13580,List2A,white,woman,,,,null,,,,,,,,,
null,is touching,,html-keyboard-response,210,886009,0.0-15.0-2.15,13580,List2A,white,woman,,,,null,,,,,,,,,
3438.7,,,survey-text,211,889451,0.0-15.0-3.15,13580,List2A,white,woman,,,,,"{""Q0"":""mike is touching kate""}","<img src=""stim_listA/touch3.gif""style=""height:400px;""></stim_listA>",is touching,,,,,,
null,"<div style=""font-size:60px;"">+</div>",,html-keyboard-response,212,889954,0.0-15.0-0.16,13580,List2A,white,woman,,,,null,,,,,,,,,
null,"<img src=""stim_listA/oppose1.gif""style=""height:400px;""></stim_listA>",,html-keyboard-response,213,891956,0.0-15.0-1.16,13580,List2A,white,woman,,,,null,,,,,,,,,
null,is opposing,,html-keyboard-response,214,893957,0.0-15.0-2.16,13580,List2A,white,woman,,,,null,,,,,,,,,
5725.4,,,survey-text,215,899686,0.0-15.0-3.16,13580,List2A,white,woman,,,,,"{""Q0"":""jane is opposing dave""}","<img src=""stim_listA/oppose1.gif""style=""height:400px;""></stim_listA>",is opposing,,,,,,
null,"<div style=""font-size:60px;"">+</div>",,html-keyboard-response,216,900187,0.0-15.0-0.17,13580,List2A,white,woman,,,,null,,,,,,,,,
null,"<img src=""stim_listA/touch5.gif""style=""height:400px;""></stim_listA>",,html-keyboard-response,217,902190,0.0-15.0-1.17,13580,List2A,white,woman,,,,null,,,,,,,,,
null,is touching,,html-keyboard-response,218,904191,0.0-15.0-2.17,13580,List2A,white,woman,,,,null,,,,,,,,,
3682.7,,,survey-text,219,907877,0.0-15.0-3.17,13580,List2A,white,woman,,,,,"{""Q0"":""mike is touching dave""}","<img src=""stim_listA/touch5.gif""style=""height:400px;""></stim_listA>",is touching,,,,,,
null,"<div style=""font-size:60px;"">+</div>",,html-keyboard-response,220,908379,0.0-15.0-0.18,13580,List2A,white,woman,,,,null,,,,,,,,,
null,"<img src=""stim_listA/shout1.gif""style=""height:400px;""></stim_listA>",,html-keyboard-response,221,910381,0.0-15.0-1.18,13580,List2A,white,woman,,,,null,,,,,,,,,
null,is shouting at,,html-keyboard-response,222,912382,0.0-15.0-2.18,13580,List2A,white,woman,,,,null,,,,,,,,,
5838.6,,,survey-text,223,918224,0.0-15.0-3.18,13580,List2A,white,woman,,,,,"{""Q0"":""luke is shouting at ruth""}","<img src=""stim_listA/shout1.gif""style=""height:400px;""></stim_listA>",is shouting at,,,,,,
null,"<div style=""font-size:60px;"">+</div>",,html-keyboard-response,224,918726,0.0-15.0-0.19,13580,List2A,white,woman,,,,null,,,,,,,,,
null,"<img src=""stim_listA/copy5.gif""style=""height:400px;""></stim_listA>",,html-keyboard-response,225,920733,0.0-15.0-1.19,13580,List2A,white,woman,,,,null,,,,,,,,,
null,is copying,,html-keyboard-response,226,922737,0.0-15.0-2.19,13580,List2A,white,woman,,,,null,,,,,,,,,
5339.9,,,survey-text,227,928080,0.0-15.0-3.19,13580,List2A,white,woman,,,,,"{""Q0"":""fred is copying dave""}","<img src=""stim_listA/copy5.gif""style=""height:400px;""></stim_listA>",is copying,,,,,,
2785.6,"<img src='img/portrait_matrix_list2.jpg' style='width:900px;height:500px;''></img><p>If you have memorised all the portraits and names and are ready to start, press Continue.</p><p><strong>Please note: Your memory of these faces will be tested 4 times during this experiment.</strong></p>",0,html-button-response,228,930868,0.0-16.0-0.0,13580,List2A,white,woman,,,,,,,,,,,,,
2250.5,"<img src=""portrait/WM2.jpg""style=""height:400px;""></img>",7,html-button-response,229,934122,0.0-16.0-1.0,13580,List2A,white,woman,,TRUE,7,,,,,,,,,,
null,CORRECT,,html-keyboard-response,230,935625,0.0-16.0-2.0-0.0,13580,List2A,white,woman,,,,null,,,,,,,,,
1323.4,"<img src=""portrait/BM1.jpg""style=""height:400px;""></img>",4,html-button-response,231,936951,0.0-16.0-4.0,13580,List2A,white,woman,,TRUE,4,,,,,,,,,,
null,CORRECT,,html-keyboard-response,232,938455,0.0-16.0-5.0-0.0,13580,List2A,white,woman,,,,null,,,,,,,,,
1268,"<img src=""portrait/WW2.jpg""style=""height:400px;""></img>",3,html-button-response,233,939726,0.0-16.0-7.0,13580,List2A,white,woman,,TRUE,3,,,,,,,,,,
null,CORRECT,,html-keyboard-response,234,941231,0.0-16.0-8.0-0.0,13580,List2A,white,woman,,,,null,,,,,,,,,
1424.3,"<img src=""portrait/BM2.jpg""style=""height:400px;""></img>",5,html-button-response,235,942658,0.0-16.0-10.0,13580,List2A,white,woman,,TRUE,5,,,,,,,,,,
null,CORRECT,,html-keyboard-response,236,944163,0.0-16.0-11.0-0.0,13580,List2A,white,woman,,,,null,,,,,,,,,
3498.5,"<img src=""portrait/BW2.jpg""style=""height:400px;""></img>",2,html-button-response,237,947665,0.0-16.0-13.0,13580,List2A,white,woman,,TRUE,2,,,,,,,,,,
null,CORRECT,,html-keyboard-response,238,949167,0.0-16.0-14.0-0.0,13580,List2A,white,woman,,,,null,,,,,,,,,
1423.6,"<img src=""portrait/WW1.jpg""style=""height:400px;""></img>",1,html-button-response,239,950593,0.0-16.0-16.0,13580,List2A,white,woman,,TRUE,1,,,,,,,,,,
null,CORRECT,,html-keyboard-response,240,952095,0.0-16.0-17.0-0.0,13580,List2A,white,woman,,,,null,,,,,,,,,
2023.6,"<img src=""portrait/WM1.jpg""style=""height:400px;""></img>",6,html-button-response,241,954121,0.0-16.0-19.0,13580,List2A,white,woman,,TRUE,6,,,,,,,,,,
null,CORRECT,,html-keyboard-response,242,955625,0.0-16.0-20.0-0.0,13580,List2A,white,woman,,,,null,,,,,,,,,
1579.6,"<img src=""portrait/BW1.jpg""style=""height:400px;""></img>",0,html-button-response,243,957207,0.0-16.0-22.0,13580,List2A,white,woman,,TRUE,0,,,,,,,,,,
null,CORRECT,,html-keyboard-response,244,958711,0.0-16.0-23.0-0.0,13580,List2A,white,woman,,,,null,,,,,,,,,
1374.2,<p>You got 8 out of 8 right first time. Press Continue.</p>,0,html-button-response,245,960087,0.0-16.0-25.0,13580,List2A,white,woman,,,,,,,,,,,,,
null,"<div style=""font-size:60px;"">+</div>",,html-keyboard-response,246,961591,0.0-17.0-0.0,13580,List2A,white,woman,,,,null,,,,,,,,,
null,"<img src=""stim_listA/look3.gif""style=""height:400px;""></stim_listA>",,html-keyboard-response,247,963594,0.0-17.0-1.0,13580,List2A,white,woman,,,,null,,,,,,,,,
null,is looking at,,html-keyboard-response,248,965597,0.0-17.0-2.0,13580,List2A,white,woman,,,,null,,,,,,,,,
7681.2,,,survey-text,249,973281,0.0-17.0-3.0,13580,List2A,white,woman,,,,,"{""Q0"":""Beth is being looked at by fred""}","<img src=""stim_listA/look3.gif""style=""height:400px;""></stim_listA>",is looking at,,,,,,
null,"<div style=""font-size:60px;"">+</div>",,html-keyboard-response,250,973783,0.0-17.0-0.1,13580,List2A,white,woman,,,,null,,,,,,,,,
null,"<img src=""stim_listA/oppose8.gif""style=""height:400px;""></stim_listA>",,html-keyboard-response,251,975785,0.0-17.0-1.1,13580,List2A,white,woman,,,,null,,,,,,,,,
null,is being opposed by,,html-keyboard-response,252,977788,0.0-17.0-2.1,13580,List2A,white,woman,,,,null,,,,,,,,,
5684.8,,,survey-text,253,983476,0.0-17.0-3.1,13580,List2A,white,woman,,,,,"{""Q0"":""beth is being opposed by ruth""}","<img src=""stim_listA/oppose8.gif""style=""height:400px;""></stim_listA>",is being opposed by,,,,,,
null,"<div style=""font-size:60px;"">+</div>",,html-keyboard-response,254,983978,0.0-17.0-0.2,13580,List2A,white,woman,,,,null,,,,,,,,,
null,"<img src=""stim_listA/greet5.gif""style=""height:400px;""></stim_listA>",,html-keyboard-response,255,985980,0.0-17.0-1.2,13580,List2A,white,woman,,,,null,,,,,,,,,
null,is greeting,,html-keyboard-response,256,987983,0.0-17.0-2.2,13580,List2A,white,woman,,,,null,,,,,,,,,
7122.4,,,survey-text,257,995110,0.0-17.0-3.2,13580,List2A,white,woman,,,,,"{""Q0"":""dave is greeting fred""}","<img src=""stim_listA/greet5.gif""style=""height:400px;""></stim_listA>",is greeting,,,,,,
null,"<div style=""font-size:60px;"">+</div>",,html-keyboard-response,258,995612,0.0-17.0-0.3,13580,List2A,white,woman,,,,null,,,,,,,,,
null,"<img src=""stim_listA/challenge1.gif""style=""height:400px;""></stim_listA>",,html-keyboard-response,259,997618,0.0-17.0-1.3,13580,List2A,white,woman,,,,null,,,,,,,,,
null,is challenging,,html-keyboard-response,260,999620,0.0-17.0-2.3,13580,List2A,white,woman,,,,null,,,,,,,,,
6147.1,,,survey-text,261,1005774,0.0-17.0-3.3,13580,List2A,white,woman,,,,,"{""Q0"":""dave is challenging ruth""}","<img src=""stim_listA/challenge1.gif""style=""height:400px;""></stim_listA>",is challenging,,,,,,
null,"<div style=""font-size:60px;"">+</div>",,html-keyboard-response,262,1006276,0.0-17.0-0.4,13580,List2A,white,woman,,,,null,,,,,,,,,
null,"<img src=""stim_listA/shout4.gif""style=""height:400px;""></stim_listA>",,html-keyboard-response,263,1008278,0.0-17.0-1.4,13580,List2A,white,woman,,,,null,,,,,,,,,
null,is being shouted at by,,html-keyboard-response,264,1010282,0.0-17.0-2.4,13580,List2A,white,woman,,,,null,,,,,,,,,
5950.2,,,survey-text,265,1016236,0.0-17.0-3.4,13580,List2A,white,woman,,,,,"{""Q0"":""mike is being shouted at by kate""}","<img src=""stim_listA/shout4.gif""style=""height:400px;""></stim_listA>",is being shouted at by,,,,,,
null,"<div style=""font-size:60px;"">+</div>",,html-keyboard-response,266,1016738,0.0-17.0-0.5,13580,List2A,white,woman,,,,null,,,,,,,,,
null,"<img src=""stim_listA/challenge7.gif""style=""height:400px;""></stim_listA>",,html-keyboard-response,267,1018743,0.0-17.0-1.5,13580,List2A,white,woman,,,,null,,,,,,,,,
null,is challenging,,html-keyboard-response,268,1020747,0.0-17.0-2.5,13580,List2A,white,woman,,,,null,,,,,,,,,
6438.1,,,survey-text,269,1027189,0.0-17.0-3.5,13580,List2A,white,woman,,,,,"{""Q0"":""jane is challenging beth""}","<img src=""stim_listA/challenge7.gif""style=""height:400px;""></stim_listA>",is challenging,,,,,,
null,"<div style=""font-size:60px;"">+</div>",,html-keyboard-response,270,1027691,0.0-17.0-0.6,13580,List2A,white,woman,,,,null,,,,,,,,,
null,"<img src=""stim_listA/shout6.gif""style=""height:400px;""></stim_listA>",,html-keyboard-response,271,1029695,0.0-17.0-1.6,13580,List2A,white,woman,,,,null,,,,,,,,,
null,is being shouted at by,,html-keyboard-response,272,1031697,0.0-17.0-2.6,13580,List2A,white,woman,,,,null,,,,,,,,,
5910.3,,,survey-text,273,1037611,0.0-17.0-3.6,13580,List2A,white,woman,,,,,"{""Q0"":""mike is being shouted at by dave""}","<img src=""stim_listA/shout6.gif""style=""height:400px;""></stim_listA>",is being shouted at by,,,,,,
null,"<div style=""font-size:60px;"">+</div>",,html-keyboard-response,274,1038112,0.0-17.0-0.7,13580,List2A,white,woman,,,,null,,,,,,,,,
null,"<img src=""stim_listA/look1.gif""style=""height:400px;""></stim_listA>",,html-keyboard-response,275,1040115,0.0-17.0-1.7,13580,List2A,white,woman,,,,null,,,,,,,,,
null,is looking at,,html-keyboard-response,276,1042118,0.0-17.0-2.7,13580,List2A,white,woman,,,,null,,,,,,,,,
6262.2,,,survey-text,277,1048385,0.0-17.0-3.7,13580,List2A,white,woman,,,,,"{""Q0"":""luke is being looked at by ruth""}","<img src=""stim_listA/look1.gif""style=""height:400px;""></stim_listA>",is looking at,,,,,,
null,"<div style=""font-size:60px;"">+</div>",,html-keyboard-response,278,1048887,0.0-17.0-0.8,13580,List2A,white,woman,,,,null,,,,,,,,,
null,"<img src=""stim_listA/oppose3.gif""style=""height:400px;""></stim_listA>",,html-keyboard-response,279,1050890,0.0-17.0-1.8,13580,List2A,white,woman,,,,null,,,,,,,,,
null,is opposing,,html-keyboard-response,280,1052894,0.0-17.0-2.8,13580,List2A,white,woman,,,,null,,,,,,,,,
5795.2,,,survey-text,281,1058693,0.0-17.0-3.8,13580,List2A,white,woman,,,,,"{""Q0"":""kate is opposing mike""}","<img src=""stim_listA/oppose3.gif""style=""height:400px;""></stim_listA>",is opposing,,,,,,
null,"<div style=""font-size:60px;"">+</div>",,html-keyboard-response,282,1059195,0.0-17.0-0.9,13580,List2A,white,woman,,,,null,,,,,,,,,
null,"<img src=""stim_listA/copy3.gif""style=""height:400px;""></stim_listA>",,html-keyboard-response,283,1061197,0.0-17.0-1.9,13580,List2A,white,woman,,,,null,,,,,,,,,
null,is copying,,html-keyboard-response,284,1063199,0.0-17.0-2.9,13580,List2A,white,woman,,,,null,,,,,,,,,
4037.9,,,survey-text,285,1067240,0.0-17.0-3.9,13580,List2A,white,woman,,,,,"{""Q0"":""mike is copying beth""}","<img src=""stim_listA/copy3.gif""style=""height:400px;""></stim_listA>",is copying,,,,,,
null,"<div style=""font-size:60px;"">+</div>",,html-keyboard-response,286,1067741,0.0-17.0-0.10,13580,List2A,white,woman,,,,null,,,,,,,,,
null,"<img src=""stim_listA/shout8.gif""style=""height:400px;""></stim_listA>",,html-keyboard-response,287,1069747,0.0-17.0-1.10,13580,List2A,white,woman,,,,null,,,,,,,,,
null,is being shouted at by,,html-keyboard-response,288,1071748,0.0-17.0-2.10,13580,List2A,white,woman,,,,null,,,,,,,,,
5454.3,,,survey-text,289,1077206,0.0-17.0-3.10,13580,List2A,white,woman,,,,,"{""Q0"":""kate is being shouted at by jane""}","<img src=""stim_listA/shout8.gif""style=""height:400px;""></stim_listA>",is being shouted at by,,,,,,
null,"<div style=""font-size:60px;"">+</div>",,html-keyboard-response,290,1077708,0.0-17.0-0.11,13580,List2A,white,woman,,,,null,,,,,,,,,
null,"<img src=""stim_listA/oppose5.gif""style=""height:400px;""></stim_listA>",,html-keyboard-response,291,1079710,0.0-17.0-1.11,13580,List2A,white,woman,,,,null,,,,,,,,,
null,is opposing,,html-keyboard-response,292,1081711,0.0-17.0-2.11,13580,List2A,white,woman,,,,null,,,,,,,,,
3661.5,,,survey-text,293,1085376,0.0-17.0-3.11,13580,List2A,white,woman,,,,,"{""Q0"":""dave is opposing mike""}","<img src=""stim_listA/oppose5.gif""style=""height:400px;""></stim_listA>",is opposing,,,,,,
null,"<div style=""font-size:60px;"">+</div>",,html-keyboard-response,294,1085877,0.0-17.0-0.12,13580,List2A,white,woman,,,,null,,,,,,,,,
null,"<img src=""stim_listA/kiss1.gif""style=""height:400px;""></stim_listA>",,html-keyboard-response,295,1087880,0.0-17.0-1.12,13580,List2A,white,woman,,,,null,,,,,,,,,
null,is kissing,,html-keyboard-response,296,1089883,0.0-17.0-2.12,13580,List2A,white,woman,,,,null,,,,,,,,,
7006.7,,,survey-text,297,1096894,0.0-17.0-3.12,13580,List2A,white,woman,,,,,"{""Q0"":""ruth is kissing luke""}","<img src=""stim_listA/kiss1.gif""style=""height:400px;""></stim_listA>",is kissing,,,,,,
null,"<div style=""font-size:60px;"">+</div>",,html-keyboard-response,298,1097396,0.0-17.0-0.13,13580,List2A,white,woman,,,,null,,,,,,,,,
null,"<img src=""stim_listA/oppose7.gif""style=""height:400px;""></stim_listA>",,html-keyboard-response,299,1099402,0.0-17.0-1.13,13580,List2A,white,woman,,,,null,,,,,,,,,
null,is opposing,,html-keyboard-response,300,1101405,0.0-17.0-2.13,13580,List2A,white,woman,,,,null,,,,,,,,,
5588.4,,,survey-text,301,1106996,0.0-17.0-3.13,13580,List2A,white,woman,,,,,"{""Q0"":""jane is opposing kate""}","<img src=""stim_listA/oppose7.gif""style=""height:400px;""></stim_listA>",is opposing,,,,,,
null,"<div style=""font-size:60px;"">+</div>",,html-keyboard-response,302,1107497,0.0-17.0-0.14,13580,List2A,white,woman,,,,null,,,,,,,,,
null,"<img src=""stim_listA/greet8.gif""style=""height:400px;""></stim_listA>",,html-keyboard-response,303,1109500,0.0-17.0-1.14,13580,List2A,white,woman,,,,null,,,,,,,,,
null,is being greeted by,,html-keyboard-response,304,1111504,0.0-17.0-2.14,13580,List2A,white,woman,,,,null,,,,,,,,,
7142.7,,,survey-text,305,1118650,0.0-17.0-3.14,13580,List2A,white,woman,,,,,"{""Q0"":""kate is being greeted by ruth""}","<img src=""stim_listA/greet8.gif""style=""height:400px;""></stim_listA>",is being greeted by,,,,,,
null,"<div style=""font-size:60px;"">+</div>",,html-keyboard-response,306,1119152,0.0-17.0-0.15,13580,List2A,white,woman,,,,null,,,,,,,,,
null,"<img src=""stim_listA/copy1.gif""style=""height:400px;""></stim_listA>",,html-keyboard-response,307,1121157,0.0-17.0-1.15,13580,List2A,white,woman,,,,null,,,,,,,,,
null,is copying,,html-keyboard-response,308,1123161,0.0-17.0-2.15,13580,List2A,white,woman,,,,null,,,,,,,,,
4624.1,,,survey-text,309,1127789,0.0-17.0-3.15,13580,List2A,white,woman,,,,,"{""Q0"":""ruth is copying dave""}","<img src=""stim_listA/copy1.gif""style=""height:400px;""></stim_listA>",is copying,,,,,,
null,"<div style=""font-size:60px;"">+</div>",,html-keyboard-response,310,1128291,0.0-17.0-0.16,13580,List2A,white,woman,,,,null,,,,,,,,,
null,"<img src=""stim_listA/challenge5.gif""style=""height:400px;""></stim_listA>",,html-keyboard-response,311,1130293,0.0-17.0-1.16,13580,List2A,white,woman,,,,null,,,,,,,,,
null,is challenging,,html-keyboard-response,312,1132298,0.0-17.0-2.16,13580,List2A,white,woman,,,,null,,,,,,,,,
4236.9,,,survey-text,313,1136538,0.0-17.0-3.16,13580,List2A,white,woman,,,,,"{""Q0"":""fred is challenging dave""}","<img src=""stim_listA/challenge5.gif""style=""height:400px;""></stim_listA>",is challenging,,,,,,
null,"<div style=""font-size:60px;"">+</div>",,html-keyboard-response,314,1137040,0.0-17.0-0.17,13580,List2A,white,woman,,,,null,,,,,,,,,
null,"<img src=""stim_listA/challenge2.gif""style=""height:400px;""></stim_listA>",,html-keyboard-response,315,1139042,0.0-17.0-1.17,13580,List2A,white,woman,,,,null,,,,,,,,,
null,is being challenged by,,html-keyboard-response,316,1141044,0.0-17.0-2.17,13580,List2A,white,woman,,,,null,,,,,,,,,
8362.4,,,survey-text,317,1149409,0.0-17.0-3.17,13580,List2A,white,woman,,,,,"{""Q0"":""jane is being challenged by luke""}","<img src=""stim_listA/challenge2.gif""style=""height:400px;""></stim_listA>",is being challenged by,,,,,,
null,"<div style=""font-size:60px;"">+</div>",,html-keyboard-response,318,1149911,0.0-17.0-0.18,13580,List2A,white,woman,,,,null,,,,,,,,,
null,"<img src=""stim_listA/touch6.gif""style=""height:400px;""></stim_listA>",,html-keyboard-response,319,1151916,0.0-17.0-1.18,13580,List2A,white,woman,,,,null,,,,,,,,,
null,is being touched by,,html-keyboard-response,320,1153920,0.0-17.0-2.18,13580,List2A,white,woman,,,,null,,,,,,,,,
10199.5,,,survey-text,321,1164123,0.0-17.0-3.18,13580,List2A,white,woman,,,,,"{""Q0"":""fred is being touched by dave""}","<img src=""stim_listA/touch6.gif""style=""height:400px;""></stim_listA>",is being touched by,,,,,,
null,"<div style=""font-size:60px;"">+</div>",,html-keyboard-response,322,1164625,0.0-17.0-0.19,13580,List2A,white,woman,,,,null,,,,,,,,,
null,"<img src=""stim_listA/challenge3.gif""style=""height:400px;""></stim_listA>",,html-keyboard-response,323,1166628,0.0-17.0-1.19,13580,List2A,white,woman,,,,null,,,,,,,,,
null,is challenging,,html-keyboard-response,324,1168631,0.0-17.0-2.19,13580,List2A,white,woman,,,,null,,,,,,,,,
4261.8,,,survey-text,325,1172896,0.0-17.0-3.19,13580,List2A,white,woman,,,,,"{""Q0"":""mike is challenging beth""}","<img src=""stim_listA/challenge3.gif""style=""height:400px;""></stim_listA>",is challenging,,,,,,
2708.4,"<img src='img/portrait_matrix_list2.jpg' style='width:900px;height:500px;''></img><p>If you have memorised all the portraits and names and are ready to start, press Continue.</p><p><strong>Please note: Your memory of these faces will be tested 4 times during this experiment.</strong></p>",0,html-button-response,326,1175606,0.0-18.0-0.0,13580,List2A,white,woman,,,,,,,,,,,,,
2802.8,"<img src=""portrait/WW1.jpg""style=""height:400px;""></img>",1,html-button-response,327,1179412,0.0-18.0-1.0,13580,List2A,white,woman,,TRUE,1,,,,,,,,,,
null,CORRECT,,html-keyboard-response,328,1180918,0.0-18.0-2.0-0.0,13580,List2A,white,woman,,,,null,,,,,,,,,
1394.6,"<img src=""portrait/BM1.jpg""style=""height:400px;""></img>",4,html-button-response,329,1182315,0.0-18.0-4.0,13580,List2A,white,woman,,TRUE,4,,,,,,,,,,
null,CORRECT,,html-keyboard-response,330,1183817,0.0-18.0-5.0-0.0,13580,List2A,white,woman,,,,null,,,,,,,,,
4705.7,"<img src=""portrait/BW1.jpg""style=""height:400px;""></img>",0,html-button-response,331,1188525,0.0-18.0-7.0,13580,List2A,white,woman,,TRUE,0,,,,,,,,,,
null,CORRECT,,html-keyboard-response,332,1190029,0.0-18.0-8.0-0.0,13580,List2A,white,woman,,,,null,,,,,,,,,
3540.3,"<img src=""portrait/BM2.jpg""style=""height:400px;""></img>",5,html-button-response,333,1193572,0.0-18.0-10.0,13580,List2A,white,woman,,TRUE,5,,,,,,,,,,
null,CORRECT,,html-keyboard-response,334,1195075,0.0-18.0-11.0-0.0,13580,List2A,white,woman,,,,null,,,,,,,,,
2309.2,"<img src=""portrait/WM1.jpg""style=""height:400px;""></img>",6,html-button-response,335,1197387,0.0-18.0-13.0,13580,List2A,white,woman,,TRUE,6,,,,,,,,,,
null,CORRECT,,html-keyboard-response,336,1198889,0.0-18.0-14.0-0.0,13580,List2A,white,woman,,,,null,,,,,,,,,
1375.3,"<img src=""portrait/BW2.jpg""style=""height:400px;""></img>",2,html-button-response,337,1200266,0.0-18.0-16.0,13580,List2A,white,woman,,TRUE,2,,,,,,,,,,
null,CORRECT,,html-keyboard-response,338,1201769,0.0-18.0-17.0-0.0,13580,List2A,white,woman,,,,null,,,,,,,,,
1716.3,"<img src=""portrait/WM2.jpg""style=""height:400px;""></img>",7,html-button-response,339,1203487,0.0-18.0-19.0,13580,List2A,white,woman,,TRUE,7,,,,,,,,,,
null,CORRECT,,html-keyboard-response,340,1204991,0.0-18.0-20.0-0.0,13580,List2A,white,woman,,,,null,,,,,,,,,
2735.3,"<img src=""portrait/WW2.jpg""style=""height:400px;""></img>",3,html-button-response,341,1207728,0.0-18.0-22.0,13580,List2A,white,woman,,TRUE,3,,,,,,,,,,
null,CORRECT,,html-keyboard-response,342,1209231,0.0-18.0-23.0-0.0,13580,List2A,white,woman,,,,null,,,,,,,,,
1552.7,<p>You got 8 out of 8 right first time. Press Continue.</p>,0,html-button-response,343,1210788,0.0-18.0-25.0,13580,List2A,white,woman,,,,,,,,,,,,,
null,"<div style=""font-size:60px;"">+</div>",,html-keyboard-response,344,1212294,0.0-19.0-0.0,13580,List2A,white,woman,,,,null,,,,,,,,,
null,"<img src=""stim_listA/kiss6.gif""style=""height:400px;""></stim_listA>",,html-keyboard-response,345,1214297,0.0-19.0-1.0,13580,List2A,white,woman,,,,null,,,,,,,,,
null,is being kissed by,,html-keyboard-response,346,1216299,0.0-19.0-2.0,13580,List2A,white,woman,,,,null,,,,,,,,,
9199.4,,,survey-text,347,1225503,0.0-19.0-3.0,13580,List2A,white,woman,,,,,"{""Q0"":""mike is being kissed by dave""}","<img src=""stim_listA/kiss6.gif""style=""height:400px;""></stim_listA>",is being kissed by,,,,,,
null,"<div style=""font-size:60px;"">+</div>",,html-keyboard-response,348,1226005,0.0-19.0-0.1,13580,List2A,white,woman,,,,null,,,,,,,,,
null,"<img src=""stim_listA/seduce2.gif""style=""height:400px;""></stim_listA>",,html-keyboard-response,349,1228012,0.0-19.0-1.1,13580,List2A,white,woman,,,,null,,,,,,,,,
null,is being seduced by,,html-keyboard-response,350,1230014,0.0-19.0-2.1,13580,List2A,white,woman,,,,null,,,,,,,,,
5203.1,,,survey-text,351,1235221,0.0-19.0-3.1,13580,List2A,white,woman,,,,,"{""Q0"":""dave is being seduced by ruth""}","<img src=""stim_listA/seduce2.gif""style=""height:400px;""></stim_listA>",is being seduced by,,,,,,
null,"<div style=""font-size:60px;"">+</div>",,html-keyboard-response,352,1235723,0.0-19.0-0.2,13580,List2A,white,woman,,,,null,,,,,,,,,
null,"<img src=""stim_listA/seduce5.gif""style=""height:400px;""></stim_listA>",,html-keyboard-response,353,1237725,0.0-19.0-1.2,13580,List2A,white,woman,,,,null,,,,,,,,,
null,is seducing,,html-keyboard-response,354,1239730,0.0-19.0-2.2,13580,List2A,white,woman,,,,null,,,,,,,,,
11752.8,,,survey-text,355,1251486,0.0-19.0-3.2,13580,List2A,white,woman,,,,,"{""Q0"":""dave is seducing luke""}","<img src=""stim_listA/seduce5.gif""style=""height:400px;""></stim_listA>",is seducing,,,,,,
null,"<div style=""font-size:60px;"">+</div>",,html-keyboard-response,356,1251988,0.0-19.0-0.3,13580,List2A,white,woman,,,,null,,,,,,,,,
null,"<img src=""stim_listA/hug2.gif""style=""height:400px;""></stim_listA>",,html-keyboard-response,357,1253990,0.0-19.0-1.3,13580,List2A,white,woman,,,,null,,,,,,,,,
null,is being hugged by,,html-keyboard-response,358,1255992,0.0-19.0-2.3,13580,List2A,white,woman,,,,null,,,,,,,,,
5729.7,,,survey-text,359,1261725,0.0-19.0-3.3,13580,List2A,white,woman,,,,,"{""Q0"":""jane is being hugged by dave""}","<img src=""stim_listA/hug2.gif""style=""height:400px;""></stim_listA>",is being hugged by,,,,,,
null,"<div style=""font-size:60px;"">+</div>",,html-keyboard-response,360,1262226,0.0-19.0-0.4,13580,List2A,white,woman,,,,null,,,,,,,,,
null,"<img src=""stim_listA/touch8.gif""style=""height:400px;""></stim_listA>",,html-keyboard-response,361,1264233,0.0-19.0-1.4,13580,List2A,white,woman,,,,null,,,,,,,,,
null,is being touched by,,html-keyboard-response,362,1266234,0.0-19.0-2.4,13580,List2A,white,woman,,,,null,,,,,,,,,
9572.6,,,survey-text,363,1275810,0.0-19.0-3.4,13580,List2A,white,woman,,,,,"{""Q0"":""beth is being touched by ruth""}","<img src=""stim_listA/touch8.gif""style=""height:400px;""></stim_listA>",is being touched by,,,,,,
null,"<div style=""font-size:60px;"">+</div>",,html-keyboard-response,364,1276312,0.0-19.0-0.5,13580,List2A,white,woman,,,,null,,,,,,,,,
null,"<img src=""stim_listA/oppose4.gif""style=""height:400px;""></stim_listA>",,html-keyboard-response,365,1278314,0.0-19.0-1.5,13580,List2A,white,woman,,,,null,,,,,,,,,
null,is being opposed by,,html-keyboard-response,366,1280316,0.0-19.0-2.5,13580,List2A,white,woman,,,,null,,,,,,,,,
6001.2,,,survey-text,367,1286320,0.0-19.0-3.5,13580,List2A,white,woman,,,,,"{""Q0"":""beth is being opposed by fred""}","<img src=""stim_listA/oppose4.gif""style=""height:400px;""></stim_listA>",is being opposed by,,,,,,
null,"<div style=""font-size:60px;"">+</div>",,html-keyboard-response,368,1286822,0.0-19.0-0.6,13580,List2A,white,woman,,,,null,,,,,,,,,
null,"<img src=""stim_listA/kiss7.gif""style=""height:400px;""></stim_listA>",,html-keyboard-response,369,1288827,0.0-19.0-1.6,13580,List2A,white,woman,,,,null,,,,,,,,,
null,is kissing,,html-keyboard-response,370,1290828,0.0-19.0-2.6,13580,List2A,white,woman,,,,null,,,,,,,,,
4128.4,,,survey-text,371,1294960,0.0-19.0-3.6,13580,List2A,white,woman,,,,,"{""Q0"":""beth is kissing ruth""}","<img src=""stim_listA/kiss7.gif""style=""height:400px;""></stim_listA>",is kissing,,,,,,
null,"<div style=""font-size:60px;"">+</div>",,html-keyboard-response,372,1295461,0.0-19.0-0.7,13580,List2A,white,woman,,,,null,,,,,,,,,
null,"<img src=""stim_listA/look6.gif""style=""height:400px;""></stim_listA>",,html-keyboard-response,373,1297467,0.0-19.0-1.7,13580,List2A,white,woman,,,,null,,,,,,,,,
null,is being looked at by,,html-keyboard-response,374,1299469,0.0-19.0-2.7,13580,List2A,white,woman,,,,null,,,,,,,,,
4529.4,,,survey-text,375,1304002,0.0-19.0-3.7,13580,List2A,white,woman,,,,,"{""Q0"":""mike is being looked at by dave""}","<img src=""stim_listA/look6.gif""style=""height:400px;""></stim_listA>",is being looked at by,,,,,,
null,"<div style=""font-size:60px;"">+</div>",,html-keyboard-response,376,1304504,0.0-19.0-0.8,13580,List2A,white,woman,,,,null,,,,,,,,,
null,"<img src=""stim_listA/kiss4.gif""style=""height:400px;""></stim_listA>",,html-keyboard-response,377,1306506,0.0-19.0-1.8,13580,List2A,white,woman,,,,null,,,,,,,,,
null,is being kissed by,,html-keyboard-response,378,1308509,0.0-19.0-2.8,13580,List2A,white,woman,,,,null,,,,,,,,,
6131.5,,,survey-text,379,1314644,0.0-19.0-3.8,13580,List2A,white,woman,,,,,"{""Q0"":""mike is being kissed by kate""}","<img src=""stim_listA/kiss4.gif""style=""height:400px;""></stim_listA>",is being kissed by,,,,,,
null,"<div style=""font-size:60px;"">+</div>",,html-keyboard-response,380,1315146,0.0-19.0-0.9,13580,List2A,white,woman,,,,null,,,,,,,,,
null,"<img src=""stim_listA/hug7.gif""style=""height:400px;""></stim_listA>",,html-keyboard-response,381,1317148,0.0-19.0-1.9,13580,List2A,white,woman,,,,null,,,,,,,,,
null,is hugging,,html-keyboard-response,382,1319152,0.0-19.0-2.9,13580,List2A,white,woman,,,,null,,,,,,,,,
5635.3,,,survey-text,383,1324791,0.0-19.0-3.9,13580,List2A,white,woman,,,,,"{""Q0"":""beth is hugging ruth""}","<img src=""stim_listA/hug7.gif""style=""height:400px;""></stim_listA>",is hugging,,,,,,
null,"<div style=""font-size:60px;"">+</div>",,html-keyboard-response,384,1325293,0.0-19.0-0.10,13580,List2A,white,woman,,,,null,,,,,,,,,
null,"<img src=""stim_listA/touch7.gif""style=""height:400px;""></stim_listA>",,html-keyboard-response,385,1327296,0.0-19.0-1.10,13580,List2A,white,woman,,,,null,,,,,,,,,
null,is touching,,html-keyboard-response,386,1329299,0.0-19.0-2.10,13580,List2A,white,woman,,,,null,,,,,,,,,
5545.4,,,survey-text,387,1334849,0.0-19.0-3.10,13580,List2A,white,woman,,,,,"{""Q0"":""jane is touching kate""}","<img src=""stim_listA/touch7.gif""style=""height:400px;""></stim_listA>",is touching,,,,,,
null,"<div style=""font-size:60px;"">+</div>",,html-keyboard-response,388,1335353,0.0-19.0-0.11,13580,List2A,white,woman,,,,null,,,,,,,,,
null,"<img src=""stim_listA/oppose6.gif""style=""height:400px;""></stim_listA>",,html-keyboard-response,389,1337356,0.0-19.0-1.11,13580,List2A,white,woman,,,,null,,,,,,,,,
null,is being opposed by,,html-keyboard-response,390,1339359,0.0-19.0-2.11,13580,List2A,white,woman,,,,null,,,,,,,,,
11597,,,survey-text,391,1350958,0.0-19.0-3.11,13580,List2A,white,woman,,,,,"{""Q0"":""mike is being opposed by luke""}","<img src=""stim_listA/oppose6.gif""style=""height:400px;""></stim_listA>",is being opposed by,,,,,,
null,"<div style=""font-size:60px;"">+</div>",,html-keyboard-response,392,1351460,0.0-19.0-0.12,13580,List2A,white,woman,,,,null,,,,,,,,,
null,"<img src=""stim_listA/copy2.gif""style=""height:400px;""></stim_listA>",,html-keyboard-response,393,1353462,0.0-19.0-1.12,13580,List2A,white,woman,,,,null,,,,,,,,,
null,is being copied by,,html-keyboard-response,394,1355464,0.0-19.0-2.12,13580,List2A,white,woman,,,,null,,,,,,,,,
9777.7,,,survey-text,395,1365245,0.0-19.0-3.12,13580,List2A,white,woman,,,,,"{""Q0"":""luke is being copied by jane""}","<img src=""stim_listA/copy2.gif""style=""height:400px;""></stim_listA>",is being copied by,,,,,,
null,"<div style=""font-size:60px;"">+</div>",,html-keyboard-response,396,1365746,0.0-19.0-0.13,13580,List2A,white,woman,,,,null,,,,,,,,,
null,"<img src=""stim_listA/greet2.gif""style=""height:400px;""></stim_listA>",,html-keyboard-response,397,1367750,0.0-19.0-1.13,13580,List2A,white,woman,,,,null,,,,,,,,,
null,is being greeted by,,html-keyboard-response,398,1369752,0.0-19.0-2.13,13580,List2A,white,woman,,,,null,,,,,,,,,
12928,,,survey-text,399,1382683,0.0-19.0-3.13,13580,List2A,white,woman,,,,,"{""Q0"":""luke is being greeted by jane""}","<img src=""stim_listA/greet2.gif""style=""height:400px;""></stim_listA>",is being greeted by,,,,,,
null,"<div style=""font-size:60px;"">+</div>",,html-keyboard-response,400,1383185,0.0-19.0-0.14,13580,List2A,white,woman,,,,null,,,,,,,,,
null,"<img src=""stim_listA/greet1.gif""style=""height:400px;""></stim_listA>",,html-keyboard-response,401,1385190,0.0-19.0-1.14,13580,List2A,white,woman,,,,null,,,,,,,,,
null,is greeting,,html-keyboard-response,402,1387192,0.0-19.0-2.14,13580,List2A,white,woman,,,,null,,,,,,,,,
5048.2,,,survey-text,403,1392244,0.0-19.0-3.14,13580,List2A,white,woman,,,,,"{""Q0"":""ruth is greeting dave""}","<img src=""stim_listA/greet1.gif""style=""height:400px;""></stim_listA>",is greeting,,,,,,
null,"<div style=""font-size:60px;"">+</div>",,html-keyboard-response,404,1392747,0.0-19.0-0.15,13580,List2A,white,woman,,,,null,,,,,,,,,
null,"<img src=""stim_listA/shout3.gif""style=""height:400px;""></stim_listA>",,html-keyboard-response,405,1394749,0.0-19.0-1.15,13580,List2A,white,woman,,,,null,,,,,,,,,
null,is shouting at,,html-keyboard-response,406,1396750,0.0-19.0-2.15,13580,List2A,white,woman,,,,null,,,,,,,,,
6519.2,,,survey-text,407,1403273,0.0-19.0-3.15,13580,List2A,white,woman,,,,,"{""Q0"":""fred is shouting at beth""}","<img src=""stim_listA/shout3.gif""style=""height:400px;""></stim_listA>",is shouting at,,,,,,
null,"<div style=""font-size:60px;"">+</div>",,html-keyboard-response,408,1403775,0.0-19.0-0.16,13580,List2A,white,woman,,,,null,,,,,,,,,
null,"<img src=""stim_listA/hug8.gif""style=""height:400px;""></stim_listA>",,html-keyboard-response,409,1405778,0.0-19.0-1.16,13580,List2A,white,woman,,,,null,,,,,,,,,
null,is being hugged by,,html-keyboard-response,410,1407780,0.0-19.0-2.16,13580,List2A,white,woman,,,,null,,,,,,,,,
9641.6,,,survey-text,411,1417425,0.0-19.0-3.16,13580,List2A,white,woman,,,,,"{""Q0"":""kate is being hugged by jane""}","<img src=""stim_listA/hug8.gif""style=""height:400px;""></stim_listA>",is being hugged by,,,,,,
null,"<div style=""font-size:60px;"">+</div>",,html-keyboard-response,412,1417927,0.0-19.0-0.17,13580,List2A,white,woman,,,,null,,,,,,,,,
null,"<img src=""stim_listA/challenge8.gif""style=""height:400px;""></stim_listA>",,html-keyboard-response,413,1419929,0.0-19.0-1.17,13580,List2A,white,woman,,,,null,,,,,,,,,
null,is being challenged by,,html-keyboard-response,414,1421930,0.0-19.0-2.17,13580,List2A,white,woman,,,,null,,,,,,,,,
5751.4,,,survey-text,415,1427685,0.0-19.0-3.17,13580,List2A,white,woman,,,,,"{""Q0"":""kate is being challenged by ruth""}","<img src=""stim_listA/challenge8.gif""style=""height:400px;""></stim_listA>",is being challenged by,,,,,,
null,"<div style=""font-size:60px;"">+</div>",,html-keyboard-response,416,1428187,0.0-19.0-0.18,13580,List2A,white,woman,,,,null,,,,,,,,,
null,"<img src=""stim_listA/look8.gif""style=""height:400px;""></stim_listA>",,html-keyboard-response,417,1430192,0.0-19.0-1.18,13580,List2A,white,woman,,,,null,,,,,,,,,
null,is being looked at by,,html-keyboard-response,418,1432194,0.0-19.0-2.18,13580,List2A,white,woman,,,,null,,,,,,,,,
6080.7,,,survey-text,419,1438279,0.0-19.0-3.18,13580,List2A,white,woman,,,,,"{""Q0"":""jane is being looked at by kate""}","<img src=""stim_listA/look8.gif""style=""height:400px;""></stim_listA>",is being looked at by,,,,,,
null,"<div style=""font-size:60px;"">+</div>",,html-keyboard-response,420,1438782,0.0-19.0-0.19,13580,List2A,white,woman,,,,null,,,,,,,,,
null,"<img src=""stim_listA/greet6.gif""style=""height:400px;""></stim_listA>",,html-keyboard-response,421,1440786,0.0-19.0-1.19,13580,List2A,white,woman,,,,null,,,,,,,,,
null,is being greeted by,,html-keyboard-response,422,1442790,0.0-19.0-2.19,13580,List2A,white,woman,,,,null,,,,,,,,,
6850.8,,,survey-text,423,1449644,0.0-19.0-3.19,13580,List2A,white,woman,,,,,"{""Q0"":""mike is being greeted by luke""}","<img src=""stim_listA/greet6.gif""style=""height:400px;""></stim_listA>",is being greeted by,,,,,,
2977.2,<p>Thank you for completing that task.</p><p>The final part of this session is a questionnaire that will take about 4 minutes.</p><p>Press Continue.</p>,0,html-button-response,424,1452623,0.0-20.0,13580,List2A,white,woman,,,,,,,,,,,,,
24954.6,,,survey-text,425,1478587,0.0-21.0,13580,List2A,white,woman,,,,,"{""Q0"":""25"",""Q1"":""English"",""Q2"":""english"",""Q3"":""united states"",""Q4"":""american"",""Q5"":""white"",""Q6"":""female""}",,,demographics,,,,,
2401.7,<p>Have you lived in the USA for the last 5 years or more?</p>,0,html-button-response,426,1480992,0.0-22.0,13580,List2A,white,woman,,,,,,,,fiveyears,,,,,
2946.3,<p>Move the slider to show the extent to which you agree with the following statements.</p>,0,html-button-response,427,1484940,0.0-23.0,13580,List2A,white,woman,,,,,,,,,,,,,
6168.6,,,html-slider-response,428,1492118,0.0-24.0-0.0-0.0,13580,List2A,white,woman,,,,,,,,survey_gender,74,,,People of my gender are very similar to each other.,verysimilar
3420.9,,,html-slider-response,429,1495542,0.0-24.0-0.0-0.1,13580,List2A,white,woman,,,,,,,,survey_gender,100,,,I consider myself a highly empathetic person.,filler
4733.3,,,html-slider-response,430,1500278,0.0-24.0-0.0-0.2,13580,List2A,white,woman,,,,,,,,survey_gender,54,,,I have a lot in common with my friends.,filler
3124.1,,,html-slider-response,431,1503405,0.0-24.0-0.0-0.3,13580,List2A,white,woman,,,,,,,,survey_gender,99,,,I feel a bond with my friends.,filler
2303.2,,,html-slider-response,432,1505710,0.0-24.0-0.0-0.4,13580,List2A,white,woman,,,,,,,,survey_gender,97,,,My friends understand me.,filler
3685.3,,,html-slider-response,433,1509398,0.0-24.0-0.0-0.5,13580,List2A,white,woman,,,,,,,,survey_gender,74,,,I would say I am an animal person.,filler
3619,,,html-slider-response,434,1513020,0.0-24.0-0.0-0.6,13580,List2A,white,woman,,,,,,,,survey_gender,100,,,I feel committed to my gender.,committed
3747,,,html-slider-response,435,1516769,0.0-24.0-0.0-0.7,13580,List2A,white,woman,,,,,,,,survey_gender,100,,,I think that my gender has a lot to be proud of.,proud
3391.9,,,html-slider-response,436,1520164,0.0-24.0-0.0-0.8,13580,List2A,white,woman,,,,,,,,survey_gender,92,,,People of my gender have a lot in common with each other.,common
3352.6,,,html-slider-response,437,1523519,0.0-24.0-0.0-0.9,13580,List2A,white,woman,,,,,,,,survey_gender,100,,,Being around my friends gives me a good feeling.,filler
4774.8,,,html-slider-response,438,1528297,0.0-24.0-0.0-0.10,13580,List2A,white,woman,,,,,,,,survey_gender,67,,,It is not always easy for people to know what I am thinking.,filler
6232.6,,,html-slider-response,439,1534532,0.0-24.0-0.0-0.11,13580,List2A,white,woman,,,,,,,,survey_gender,34,,,Most of the friends in my life are very similar to me.,filler
5611.8,,,html-slider-response,440,1540146,0.0-24.0-0.0-0.12,13580,List2A,white,woman,,,,,,,,survey_gender,53,,,I have a lot in common with the average person of my gender.,average
3889.4,,,html-slider-response,441,1544039,0.0-24.0-0.0-0.13,13580,List2A,white,woman,,,,,,,,survey_gender,100,,,I am glad to have the friends that I have.,filler
4696.7,,,html-slider-response,442,1548738,0.0-24.0-0.0-0.14,13580,List2A,white,woman,,,,,,,,survey_gender,63,,,I often think about my actions.,filler
2913.7,,,html-slider-response,443,1551654,0.0-24.0-0.0-0.15,13580,List2A,white,woman,,,,,,,,survey_gender,100,,,I feel a bond with my gender.,bond
5112.8,,,html-slider-response,444,1556770,0.0-24.0-0.0-0.16,13580,List2A,white,woman,,,,,,,,survey_gender,11,,,Routine is not important to me.,filler
3509.6,,,html-slider-response,445,1560283,0.0-24.0-0.0-0.17,13580,List2A,white,woman,,,,,,,,survey_gender,100,,,I am glad to be my gender.,glad
4858.4,,,html-slider-response,446,1565144,0.0-24.0-0.0-0.18,13580,List2A,white,woman,,,,,,,,survey_gender,100,,,Being my gender gives me a good feeling.,feeling
3031.2,,,html-slider-response,447,1568179,0.0-24.0-0.0-0.19,13580,List2A,white,woman,,,,,,,,survey_gender,100,,,I feel solidarity with my friends.,filler
7547.7,,,html-slider-response,448,1575729,0.0-24.0-0.0-0.20,13580,List2A,white,woman,,,,,,,,survey_gender,100,,,I often think about the fact that I am my gender.,often
6093.9,,,html-slider-response,449,1581825,0.0-24.0-0.0-0.21,13580,List2A,white,woman,,,,,,,,survey_gender,26,,,Family is not more important to me than friendship.,filler
4328.6,,,html-slider-response,450,1586156,0.0-24.0-0.0-0.22,13580,List2A,white,woman,,,,,,,,survey_gender,100,,,The fact that I am my gender is an important part of my identity.,identity
4565.1,,,html-slider-response,451,1590725,0.0-24.0-0.0-0.23,13580,List2A,white,woman,,,,,,,,survey_gender,69,,,I am similar to the average person of my gender.,similar
2573.1,,,html-slider-response,452,1593300,0.0-24.0-0.0-0.24,13580,List2A,white,woman,,,,,,,,survey_gender,99,,,I feel solidarity with my gender.,solidarity
4655.9,,,html-slider-response,453,1597958,0.0-24.0-0.0-0.25,13580,List2A,white,woman,,,,,,,,survey_gender,100,,,It is pleasant to be my gender.,pleasant
3192.4,,,html-slider-response,454,1601153,0.0-24.0-0.0-0.26,13580,List2A,white,woman,,,,,,,,survey_gender,32,,,My friends have a lot in common with each other.,filler
3299.6,,,html-slider-response,455,1604455,0.0-24.0-0.0-0.27,13580,List2A,white,woman,,,,,,,,survey_gender,70,,,Being my gender is an important part of how I see myself.,important
3198.7,,,html-slider-response,456,1607656,0.0-24.0-1.0-0.0,13580,List2A,white,woman,,,,,,,,survey_race,65,,,I am glad to be my race.,glad
2772.9,,,html-slider-response,457,1610431,0.0-24.0-1.0-0.1,13580,List2A,white,woman,,,,,,,,survey_race,65,,,It is pleasant to be my race.,pleasant
3679.6,,,html-slider-response,458,1614113,0.0-24.0-1.0-0.2,13580,List2A,white,woman,,,,,,,,survey_race,54,,,I am similar to the average person of my race.,similar
2795.8,,,html-slider-response,459,1616911,0.0-24.0-1.0-0.3,13580,List2A,white,woman,,,,,,,,survey_race,92,,,"The older I get, the wiser I feel.",filler
3947.8,,,html-slider-response,460,1620862,0.0-24.0-1.0-0.4,13580,List2A,white,woman,,,,,,,,survey_race,72,,,The fact that I am my race is an important part of my identity.,identity
2866.3,,,html-slider-response,461,1623731,0.0-24.0-1.0-0.5,13580,List2A,white,woman,,,,,,,,survey_race,100,,,I am glad to be the age I am.,filler
3168.5,,,html-slider-response,462,1626901,0.0-24.0-1.0-0.6,13580,List2A,white,woman,,,,,,,,survey_race,37,,,Being my age gives me a good feeling.,filler
3069.9,,,html-slider-response,463,1629974,0.0-24.0-1.0-0.7,13580,List2A,white,woman,,,,,,,,survey_race,100,,,I consider myself an extrovert.,filler
3913.9,,,html-slider-response,464,1633890,0.0-24.0-1.0-0.8,13580,List2A,white,woman,,,,,,,,survey_race,40,,,People of my race are very similar to each other.,verysimilar
3675.7,,,html-slider-response,465,1637568,0.0-24.0-1.0-0.9,13580,List2A,white,woman,,,,,,,,survey_race,17,,,My age is not an important part of who I am.,filler
19455.4,,,html-slider-response,466,1657026,0.0-24.0-1.0-0.10,13580,List2A,white,woman,,,,,,,,survey_race,71,,,I feel a bond with my race.,bond
2464.9,,,html-slider-response,467,1659494,0.0-24.0-1.0-0.11,13580,List2A,white,woman,,,,,,,,survey_race,68,,,I feel solidarity with my race.,solidarity
6433.8,,,html-slider-response,468,1665930,0.0-24.0-1.0-0.12,13580,List2A,white,woman,,,,,,,,survey_race,91,,,I feel a bond with people the same age as me.,filler
2684.4,,,html-slider-response,469,1668618,0.0-24.0-1.0-0.13,13580,List2A,white,woman,,,,,,,,survey_race,24,,,I enjoy being in large groups.,filler
4325.9,,,html-slider-response,470,1672945,0.0-24.0-1.0-0.14,13580,List2A,white,woman,,,,,,,,survey_race,64,,,I am glad to be my age.,filler
2678.5,,,html-slider-response,471,1675626,0.0-24.0-1.0-0.15,13580,List2A,white,woman,,,,,,,,survey_race,70,,,Being my race is an important part of how I see myself.,important
3924.7,,,html-slider-response,472,1679553,0.0-24.0-1.0-0.16,13580,List2A,white,woman,,,,,,,,survey_race,35,,,I have a lot in common with people of a similar age to me.,filler
3300.2,,,html-slider-response,473,1682857,0.0-24.0-1.0-0.17,13580,List2A,white,woman,,,,,,,,survey_race,100,,,I feel committed to my race.,committed
2979.1,,,html-slider-response,474,1685838,0.0-24.0-1.0-0.18,13580,List2A,white,woman,,,,,,,,survey_race,1,,,I consider myself an introvert.,filler
5589.5,,,html-slider-response,475,1691430,0.0-24.0-1.0-0.19,13580,List2A,white,woman,,,,,,,,survey_race,62,,,I often think about the fact that I am my race.,often
2371.7,,,html-slider-response,476,1693805,0.0-24.0-1.0-0.20,13580,List2A,white,woman,,,,,,,,survey_race,96,,,Being my race gives me a good feeling.,feeling
6452.7,,,html-slider-response,477,1700260,0.0-24.0-1.0-0.21,13580,List2A,white,woman,,,,,,,,survey_race,10,,,Getting older does not worry me.,filler
5643.7,,,html-slider-response,478,1705907,0.0-24.0-1.0-0.22,13580,List2A,white,woman,,,,,,,,survey_race,27,,,People my age have a lot in common with each other.,filler
3531.7,,,html-slider-response,479,1709442,0.0-24.0-1.0-0.23,13580,List2A,white,woman,,,,,,,,survey_race,5,,,I feel solidarity with people the same age as me.,filler
3677.4,,,html-slider-response,480,1713122,0.0-24.0-1.0-0.24,13580,List2A,white,woman,,,,,,,,survey_race,61,,,I think that my race has a lot to be proud of.,proud
5397.1,,,html-slider-response,481,1718522,0.0-24.0-1.0-0.25,13580,List2A,white,woman,,,,,,,,survey_race,36,,,I have a lot in common with the average person of my race.,average
2955.5,,,html-slider-response,482,1721480,0.0-24.0-1.0-0.26,13580,List2A,white,woman,,,,,,,,survey_race,43,,,People of my race have a lot in common with each other.,common
9781.2,,,html-slider-response,483,1731265,0.0-24.0-1.0-0.27,13580,List2A,white,woman,,,,,,,,survey_race,70,,,I often think about the fact that I am my age.,filler
8806.2,,,survey-text,484,1740076,0.0-25.0,13580,List2A,white,woman,,,,,"{""Q0"":""ccc""}",,,worker_id,,,,,
2587.2,,,external-html,485,1742922,0.0-26.0,13580,List2A,white,woman,debrief.html,,,,,,,,,,,,
