rt,stimulus,button_pressed,trial_type,trial_index,time_elapsed,internal_node_id,subject,list,ppt_race,ppt_gender,url,first_guess,correct,key_press,responses,image_type,phrase_type,test_part,response,stimulus1,stimulus2,question_type,survey_item
4706.6,Welcome to the experiment. Press Continue to begin.,0,html-button-response,0,4711,0.0-0.0,14719,List1A,white,man,,,,,,,,,,,,,
119683,,,external-html,1,126392,0.0-1.0,14719,List1A,white,man,consent.html,,,,,,,,,,,,
5046.4,"<p>On the next page, you will see portraits of 8 people and their names.</p><p>Your first task is to take a few minutes to memorise the names of these people.</p><p>You will have to recall their names during the rest of the experiment, so it is</p><p>essential that you try to memorise these people and their names as best as you can.</p><br><p><strong>You will then be tested on your memory of these names and portraits.</strong></p><br><p>The experiment will start after you have completed this memory test.</p><br><p>Ready?</p>",0,html-button-response,2,131440,0.0-2.0,14719,List1A,white,man,,,,,,,,,,,,,
14411.7,"<img src='img/portrait_matrix_list1.jpg' style='width:900px;height:500px;''></img><p>If you have memorised all the portraits and names and are ready to start, press Continue.</p><p><strong>Please note: Your memory of these faces will be tested 4 times during this experiment.</strong></p>",0,html-button-response,3,146854,0.0-3.0-0.0,14719,List1A,white,man,,,,,,,,,,,,,
17256,"<img src=""portrait/BW2.jpg""style=""height:400px;""></img>",2,html-button-response,4,165112,0.0-3.0-1.0,14719,List1A,white,man,,TRUE,2,,,,,,,,,,
null,CORRECT,,html-keyboard-response,5,166616,0.0-3.0-2.0-0.0,14719,List1A,white,man,,,,null,,,,,,,,,
7172.2,"<img src=""portrait/WM1.jpg""style=""height:400px;""></img>",6,html-button-response,6,173790,0.0-3.0-4.0,14719,List1A,white,man,,TRUE,6,,,,,,,,,,
null,CORRECT,,html-keyboard-response,7,175295,0.0-3.0-5.0-0.0,14719,List1A,white,man,,,,null,,,,,,,,,
16281.8,"<img src=""portrait/BW1.jpg""style=""height:400px;""></img>",4,html-button-response,8,191578,0.0-3.0-7.0,14719,List1A,white,man,,TRUE,0,,,,,,,,,,
14617.6,"<img src=""portrait/BW1.jpg""style=""height:400px;""></img>",0,html-button-response,9,207197,0.0-3.0-9.0-0.0,14719,List1A,white,man,,FALSE,0,,,,,,,,,,
null,CORRECT,,html-keyboard-response,10,208700,0.0-3.0-9.0-1.0-0.0,14719,List1A,white,man,,,,null,,,,,,,,,
9906.2,"<img src=""portrait/WW2.jpg""style=""height:400px;""></img>",4,html-button-response,11,218607,0.0-3.0-10.0,14719,List1A,white,man,,TRUE,3,,,,,,,,,,
5607.9,"<img src=""portrait/WW2.jpg""style=""height:400px;""></img>",3,html-button-response,12,225217,0.0-3.0-12.0-0.0,14719,List1A,white,man,,FALSE,3,,,,,,,,,,
null,CORRECT,,html-keyboard-response,13,226728,0.0-3.0-12.0-1.0-0.0,14719,List1A,white,man,,,,null,,,,,,,,,
12795.5,"<img src=""portrait/BM1.jpg""style=""height:400px;""></img>",5,html-button-response,14,239525,0.0-3.0-13.0,14719,List1A,white,man,,TRUE,4,,,,,,,,,,
2781.3,"<img src=""portrait/BM1.jpg""style=""height:400px;""></img>",4,html-button-response,15,243309,0.0-3.0-15.0-0.0,14719,List1A,white,man,,FALSE,4,,,,,,,,,,
null,CORRECT,,html-keyboard-response,16,244812,0.0-3.0-15.0-1.0-0.0,14719,List1A,white,man,,,,null,,,,,,,,,
5938.3,"<img src=""portrait/WW1.jpg""style=""height:400px;""></img>",7,html-button-response,17,250751,0.0-3.0-16.0,14719,List1A,white,man,,TRUE,1,,,,,,,,,,
2429.3,"<img src=""portrait/WW1.jpg""style=""height:400px;""></img>",1,html-button-response,18,254183,0.0-3.0-18.0-0.0,14719,List1A,white,man,,FALSE,1,,,,,,,,,,
null,CORRECT,,html-keyboard-response,19,255685,0.0-3.0-18.0-1.0-0.0,14719,List1A,white,man,,,,null,,,,,,,,,
7122.3,"<img src=""portrait/WM2.jpg""style=""height:400px;""></img>",5,html-button-response,20,262809,0.0-3.0-19.0,14719,List1A,white,man,,TRUE,7,,,,,,,,,,
3313.2,"<img src=""portrait/WM2.jpg""style=""height:400px;""></img>",7,html-button-response,21,267125,0.0-3.0-21.0-0.0,14719,List1A,white,man,,FALSE,7,,,,,,,,,,
null,CORRECT,,html-keyboard-response,22,268627,0.0-3.0-21.0-1.0-0.0,14719,List1A,white,man,,,,null,,,,,,,,,
12564.9,"<img src=""portrait/BM2.jpg""style=""height:400px;""></img>",6,html-button-response,23,281193,0.0-3.0-22.0,14719,List1A,white,man,,TRUE,5,,,,,,,,,,
2822,"<img src=""portrait/BM2.jpg""style=""height:400px;""></img>",5,html-button-response,24,285017,0.0-3.0-24.0-0.0,14719,List1A,white,man,,FALSE,5,,,,,,,,,,
null,CORRECT,,html-keyboard-response,25,286519,0.0-3.0-24.0-1.0-0.0,14719,List1A,white,man,,,,null,,,,,,,,,
2662.1,<p>You got 2 out of 8 right first time. Press Continue.</p>,0,html-button-response,26,289183,0.0-3.0-25.0,14719,List1A,white,man,,,,,,,,,,,,,
7199.4,"As you did not score 100%, the memory game will repeat. Press Continue.",0,html-button-response,27,297385,0.0-3.0-26.0-0.0,14719,List1A,white,man,,,,,,,,,,,,,
44100.7,"<img src='img/portrait_matrix_list1.jpg' style='width:900px;height:500px;''></img><p>If you have memorised all the portraits and names and are ready to start, press Continue.</p><p><strong>Please note: Your memory of these faces will be tested 4 times during this experiment.</strong></p>",0,html-button-response,28,342489,0.0-3.1-0.1,14719,List1A,white,man,,,,,,,,,,,,,
4408.5,"<img src=""portrait/BW2.jpg""style=""height:400px;""></img>",2,html-button-response,29,347899,0.0-3.1-1.1,14719,List1A,white,man,,TRUE,2,,,,,,,,,,
null,CORRECT,,html-keyboard-response,30,349402,0.0-3.1-2.1-0.1,14719,List1A,white,man,,,,null,,,,,,,,,
4949.2,"<img src=""portrait/WM1.jpg""style=""height:400px;""></img>",6,html-button-response,31,354353,0.0-3.1-4.1,14719,List1A,white,man,,TRUE,6,,,,,,,,,,
null,CORRECT,,html-keyboard-response,32,355856,0.0-3.1-5.1-0.1,14719,List1A,white,man,,,,null,,,,,,,,,
3847.7,"<img src=""portrait/BW1.jpg""style=""height:400px;""></img>",0,html-button-response,33,359704,0.0-3.1-7.1,14719,List1A,white,man,,TRUE,0,,,,,,,,,,
null,CORRECT,,html-keyboard-response,34,361207,0.0-3.1-8.1-0.1,14719,List1A,white,man,,,,null,,,,,,,,,
4498.5,"<img src=""portrait/WW2.jpg""style=""height:400px;""></img>",3,html-button-response,35,365706,0.0-3.1-10.1,14719,List1A,white,man,,TRUE,3,,,,,,,,,,
null,CORRECT,,html-keyboard-response,36,367210,0.0-3.1-11.1-0.1,14719,List1A,white,man,,,,null,,,,,,,,,
3675.4,"<img src=""portrait/BM1.jpg""style=""height:400px;""></img>",4,html-button-response,37,370886,0.0-3.1-13.1,14719,List1A,white,man,,TRUE,4,,,,,,,,,,
null,CORRECT,,html-keyboard-response,38,372389,0.0-3.1-14.1-0.1,14719,List1A,white,man,,,,null,,,,,,,,,
4069.7,"<img src=""portrait/WW1.jpg""style=""height:400px;""></img>",1,html-button-response,39,376460,0.0-3.1-16.1,14719,List1A,white,man,,TRUE,1,,,,,,,,,,
null,CORRECT,,html-keyboard-response,40,377962,0.0-3.1-17.1-0.1,14719,List1A,white,man,,,,null,,,,,,,,,
3676.8,"<img src=""portrait/WM2.jpg""style=""height:400px;""></img>",7,html-button-response,41,381640,0.0-3.1-19.1,14719,List1A,white,man,,TRUE,7,,,,,,,,,,
null,CORRECT,,html-keyboard-response,42,383142,0.0-3.1-20.1-0.1,14719,List1A,white,man,,,,null,,,,,,,,,
4616.7,"<img src=""portrait/BM2.jpg""style=""height:400px;""></img>",5,html-button-response,43,387760,0.0-3.1-22.1,14719,List1A,white,man,,TRUE,5,,,,,,,,,,
null,CORRECT,,html-keyboard-response,44,389263,0.0-3.1-23.1-0.1,14719,List1A,white,man,,,,null,,,,,,,,,
2208.3,<p>You got 8 out of 8 right first time. Press Continue.</p>,0,html-button-response,45,391472,0.0-3.1-25.1,14719,List1A,white,man,,,,,,,,,,,,,
28966.2,"<p>In this experiment, you will view photographs of the people from the memory game interacting.</p><p>By using the <strong>exact</strong> phrase given <i>after</i> the photograph appears and recalling the correct names of the people in the photographs, form a sentence describing the interaction. You do not need to capitalise names.</p><p>Type your answer in the space provided. Please complete every sentence before moving onto the next trial.</p><p>You will only have a few seconds to memorise each given photograph and phrase before you can respond, so try your best to focus.</p><p>An example is given below. Press 'Continue' when you are ready.</p><img src='img/speaking_example.jpg' style='width:800px;height:460px;''></img>",0,html-button-response,46,421440,0.0-4.0,14719,List1A,white,man,,,,,,,,,,,,,
2710.6,"<p>Before the experiment starts, you will watch two example trials. Press 'Continue'.</p>",0,html-button-response,47,425152,0.0-5.0,14719,List1A,white,man,,,,,,,,,,,,,
null,<img src='img/play_eg.gif' style='height:400px;''></img>,,html-keyboard-response,48,428154,0.0-6.0,14719,List1A,white,man,,,,null,,,,,,,,,
null,<p>is playing with</p>,,html-keyboard-response,49,430155,0.0-7.0,14719,List1A,white,man,,,,null,,,,,,,,,
5355.7,<p><b>Answer:</b> kate is playing with beth</p>,0,html-button-response,50,435512,0.0-8.0,14719,List1A,white,man,,,,,,,,,,,,,
null,<img src='img/dance_eg.gif' style='height:400px;''></img>,,html-keyboard-response,51,438513,0.0-9.0,14719,List1A,white,man,,,,null,,,,,,,,,
null,<p>is being entertained by</p>,,html-keyboard-response,52,440514,0.0-10.0,14719,List1A,white,man,,,,null,,,,,,,,,
1554.5,<p><b>Answer:</b> luke is being entertained by dave</p>,0,html-button-response,53,442070,0.0-11.0,14719,List1A,white,man,,,,,,,,,,,,,
1969.1,"<p>Ready to start the experiment?</p><br><p><strong>Remember to describe the picture using a full sentence,</strong></p><p><strong>that combines the names of the people with the <i>exact</i> phrase given.</strong></p><p><strong>To receive full payment you must do this correctly.</strong></p><p><strong> You do not need to capitalise names or use punctuation.</strong></p><br><p>Press 'Continue' to begin.</p>",0,html-button-response,54,445042,0.0-12.0,14719,List1A,white,man,,,,,,,,,,,,,
null,"<div style=""font-size:60px;"">+</div>",,html-keyboard-response,55,446544,0.0-13.0-0.0,14719,List1A,white,man,,,,null,,,,,,,,,
null,"<img src=""stim_listA/copy2.gif""style=""height:400px;""></stim_listA>",,html-keyboard-response,56,448547,0.0-13.0-1.0,14719,List1A,white,man,,,,null,,,,,,,,,
null,is being copied by,,html-keyboard-response,57,450549,0.0-13.0-2.0,14719,List1A,white,man,,,,null,,,,,,,,,
43205.8,,,survey-text,58,493759,0.0-13.0-3.0,14719,List1A,white,man,,,,,"{""Q0"":""kate is to speaking jane""}","<img src=""stim_listA/copy2.gif""style=""height:400px;""></stim_listA>",is being copied by,,,,,,
null,"<div style=""font-size:60px;"">+</div>",,html-keyboard-response,59,494261,0.0-13.0-0.1,14719,List1A,white,man,,,,null,,,,,,,,,
null,"<img src=""stim_listA/look4.gif""style=""height:400px;""></stim_listA>",,html-keyboard-response,60,496262,0.0-13.0-1.1,14719,List1A,white,man,,,,null,,,,,,,,,
null,is being looked at by,,html-keyboard-response,61,498264,0.0-13.0-2.1,14719,List1A,white,man,,,,null,,,,,,,,,
16987.4,,,survey-text,62,515254,0.0-13.0-3.1,14719,List1A,white,man,,,,,"{""Q0"":""Dave is to speaking Jane""}","<img src=""stim_listA/look4.gif""style=""height:400px;""></stim_listA>",is being looked at by,,,,,,
null,"<div style=""font-size:60px;"">+</div>",,html-keyboard-response,63,515755,0.0-13.0-0.2,14719,List1A,white,man,,,,null,,,,,,,,,
null,"<img src=""stim_listA/touch4.gif""style=""height:400px;""></stim_listA>",,html-keyboard-response,64,517757,0.0-13.0-1.2,14719,List1A,white,man,,,,null,,,,,,,,,
null,is being touched by,,html-keyboard-response,65,519758,0.0-13.0-2.2,14719,List1A,white,man,,,,null,,,,,,,,,
59524.7,,,survey-text,66,579284,0.0-13.0-3.2,14719,List1A,white,man,,,,,"{""Q0"":""Luke is to speaking ruth""}","<img src=""stim_listA/touch4.gif""style=""height:400px;""></stim_listA>",is being touched by,,,,,,
null,"<div style=""font-size:60px;"">+</div>",,html-keyboard-response,67,579785,0.0-13.0-0.3,14719,List1A,white,man,,,,null,,,,,,,,,
null,"<img src=""stim_listA/kiss7.gif""style=""height:400px;""></stim_listA>",,html-keyboard-response,68,581787,0.0-13.0-1.3,14719,List1A,white,man,,,,null,,,,,,,,,
null,is kissing,,html-keyboard-response,69,583787,0.0-13.0-2.3,14719,List1A,white,man,,,,null,,,,,,,,,
39318.4,,,survey-text,70,623109,0.0-13.0-3.3,14719,List1A,white,man,,,,,"{""Q0"":""Ruth is kissing to Dave""}","<img src=""stim_listA/kiss7.gif""style=""height:400px;""></stim_listA>",is kissing,,,,,,
null,"<div style=""font-size:60px;"">+</div>",,html-keyboard-response,71,623610,0.0-13.0-0.4,14719,List1A,white,man,,,,null,,,,,,,,,
null,"<img src=""stim_listA/seduce5.gif""style=""height:400px;""></stim_listA>",,html-keyboard-response,72,625612,0.0-13.0-1.4,14719,List1A,white,man,,,,null,,,,,,,,,
null,is seducing,,html-keyboard-response,73,627613,0.0-13.0-2.4,14719,List1A,white,man,,,,null,,,,,,,,,
31805.1,,,survey-text,74,659421,0.0-13.0-3.4,14719,List1A,white,man,,,,,"{""Q0"":""Fred is securing to Dave""}","<img src=""stim_listA/seduce5.gif""style=""height:400px;""></stim_listA>",is seducing,,,,,,
null,"<div style=""font-size:60px;"">+</div>",,html-keyboard-response,75,659922,0.0-13.0-0.5,14719,List1A,white,man,,,,null,,,,,,,,,
null,"<img src=""stim_listA/oppose3.gif""style=""height:400px;""></stim_listA>",,html-keyboard-response,76,661924,0.0-13.0-1.5,14719,List1A,white,man,,,,null,,,,,,,,,
null,is opposing,,html-keyboard-response,77,663925,0.0-13.0-2.5,14719,List1A,white,man,,,,null,,,,,,,,,
22422.6,,,survey-text,78,686349,0.0-13.0-3.5,14719,List1A,white,man,,,,,"{""Q0"":""Dave is opposing to jane""}","<img src=""stim_listA/oppose3.gif""style=""height:400px;""></stim_listA>",is opposing,,,,,,
null,"<div style=""font-size:60px;"">+</div>",,html-keyboard-response,79,686850,0.0-13.0-0.6,14719,List1A,white,man,,,,null,,,,,,,,,
null,"<img src=""stim_listA/challenge5.gif""style=""height:400px;""></stim_listA>",,html-keyboard-response,80,688851,0.0-13.0-1.6,14719,List1A,white,man,,,,null,,,,,,,,,
null,is challenging,,html-keyboard-response,81,690853,0.0-13.0-2.6,14719,List1A,white,man,,,,null,,,,,,,,,
24635.9,,,survey-text,82,715491,0.0-13.0-3.6,14719,List1A,white,man,,,,,"{""Q0"":""Luke is challenging to Mike ""}","<img src=""stim_listA/challenge5.gif""style=""height:400px;""></stim_listA>",is challenging,,,,,,
null,"<div style=""font-size:60px;"">+</div>",,html-keyboard-response,83,715992,0.0-13.0-0.7,14719,List1A,white,man,,,,null,,,,,,,,,
null,"<img src=""stim_listA/greet4.gif""style=""height:400px;""></stim_listA>",,html-keyboard-response,84,717994,0.0-13.0-1.7,14719,List1A,white,man,,,,null,,,,,,,,,
null,is being greeted by,,html-keyboard-response,85,719995,0.0-13.0-2.7,14719,List1A,white,man,,,,null,,,,,,,,,
30511.7,,,survey-text,86,750508,0.0-13.0-3.7,14719,List1A,white,man,,,,,"{""Q0"":""Jane is greeting by Luke ""}","<img src=""stim_listA/greet4.gif""style=""height:400px;""></stim_listA>",is being greeted by,,,,,,
null,"<div style=""font-size:60px;"">+</div>",,html-keyboard-response,87,751009,0.0-13.0-0.8,14719,List1A,white,man,,,,null,,,,,,,,,
null,"<img src=""stim_listA/kiss6.gif""style=""height:400px;""></stim_listA>",,html-keyboard-response,88,753011,0.0-13.0-1.8,14719,List1A,white,man,,,,null,,,,,,,,,
null,is being kissed by,,html-keyboard-response,89,755012,0.0-13.0-2.8,14719,List1A,white,man,,,,null,,,,,,,,,
31756.6,,,survey-text,90,786771,0.0-13.0-3.8,14719,List1A,white,man,,,,,"{""Q0"":""Dave is kissed by Mike""}","<img src=""stim_listA/kiss6.gif""style=""height:400px;""></stim_listA>",is being kissed by,,,,,,
null,"<div style=""font-size:60px;"">+</div>",,html-keyboard-response,91,787273,0.0-13.0-0.9,14719,List1A,white,man,,,,null,,,,,,,,,
null,"<img src=""stim_listA/touch6.gif""style=""height:400px;""></stim_listA>",,html-keyboard-response,92,789274,0.0-13.0-1.9,14719,List1A,white,man,,,,null,,,,,,,,,
null,is being touched by,,html-keyboard-response,93,791275,0.0-13.0-2.9,14719,List1A,white,man,,,,null,,,,,,,,,
34397.3,,,survey-text,94,825674,0.0-13.0-3.9,14719,List1A,white,man,,,,,"{""Q0"":""Fred is being touch by luke""}","<img src=""stim_listA/touch6.gif""style=""height:400px;""></stim_listA>",is being touched by,,,,,,
null,"<div style=""font-size:60px;"">+</div>",,html-keyboard-response,95,826175,0.0-13.0-0.10,14719,List1A,white,man,,,,null,,,,,,,,,
null,"<img src=""stim_listA/shout3.gif""style=""height:400px;""></stim_listA>",,html-keyboard-response,96,828176,0.0-13.0-1.10,14719,List1A,white,man,,,,null,,,,,,,,,
null,is shouting at,,html-keyboard-response,97,830177,0.0-13.0-2.10,14719,List1A,white,man,,,,null,,,,,,,,,
19480,,,survey-text,98,849659,0.0-13.0-3.10,14719,List1A,white,man,,,,,"{""Q0"":""Jane is shooting at luke""}","<img src=""stim_listA/shout3.gif""style=""height:400px;""></stim_listA>",is shouting at,,,,,,
null,"<div style=""font-size:60px;"">+</div>",,html-keyboard-response,99,850160,0.0-13.0-0.11,14719,List1A,white,man,,,,null,,,,,,,,,
null,"<img src=""stim_listA/look8.gif""style=""height:400px;""></stim_listA>",,html-keyboard-response,100,852161,0.0-13.0-1.11,14719,List1A,white,man,,,,null,,,,,,,,,
null,is being looked at by,,html-keyboard-response,101,854162,0.0-13.0-2.11,14719,List1A,white,man,,,,null,,,,,,,,,
15031,,,survey-text,102,869195,0.0-13.0-3.11,14719,List1A,white,man,,,,,"{""Q0"":""Kate is looking by jane""}","<img src=""stim_listA/look8.gif""style=""height:400px;""></stim_listA>",is being looked at by,,,,,,
null,"<div style=""font-size:60px;"">+</div>",,html-keyboard-response,103,869696,0.0-13.0-0.12,14719,List1A,white,man,,,,null,,,,,,,,,
null,"<img src=""stim_listA/oppose8.gif""style=""height:400px;""></stim_listA>",,html-keyboard-response,104,871698,0.0-13.0-1.12,14719,List1A,white,man,,,,null,,,,,,,,,
null,is being opposed by,,html-keyboard-response,105,873698,0.0-13.0-2.12,14719,List1A,white,man,,,,null,,,,,,,,,
19174.9,,,survey-text,106,892875,0.0-13.0-3.12,14719,List1A,white,man,,,,,"{""Q0"":""Beth is opposed by jane""}","<img src=""stim_listA/oppose8.gif""style=""height:400px;""></stim_listA>",is being opposed by,,,,,,
null,"<div style=""font-size:60px;"">+</div>",,html-keyboard-response,107,893377,0.0-13.0-0.13,14719,List1A,white,man,,,,null,,,,,,,,,
null,"<img src=""stim_listA/shout2.gif""style=""height:400px;""></stim_listA>",,html-keyboard-response,108,895379,0.0-13.0-1.13,14719,List1A,white,man,,,,null,,,,,,,,,
null,is being shouted at by,,html-keyboard-response,109,897380,0.0-13.0-2.13,14719,List1A,white,man,,,,null,,,,,,,,,
20692.8,,,survey-text,110,918075,0.0-13.0-3.13,14719,List1A,white,man,,,,,"{""Q0"":""Kate is being shouted by Mike""}","<img src=""stim_listA/shout2.gif""style=""height:400px;""></stim_listA>",is being shouted at by,,,,,,
null,"<div style=""font-size:60px;"">+</div>",,html-keyboard-response,111,918576,0.0-13.0-0.14,14719,List1A,white,man,,,,null,,,,,,,,,
null,"<img src=""stim_listA/touch3.gif""style=""height:400px;""></stim_listA>",,html-keyboard-response,112,920578,0.0-13.0-1.14,14719,List1A,white,man,,,,null,,,,,,,,,
null,is touching,,html-keyboard-response,113,922579,0.0-13.0-2.14,14719,List1A,white,man,,,,null,,,,,,,,,
13621.7,,,survey-text,114,936203,0.0-13.0-3.14,14719,List1A,white,man,,,,,"{""Q0"":""dave is touching by jane""}","<img src=""stim_listA/touch3.gif""style=""height:400px;""></stim_listA>",is touching,,,,,,
null,"<div style=""font-size:60px;"">+</div>",,html-keyboard-response,115,936705,0.0-13.0-0.15,14719,List1A,white,man,,,,null,,,,,,,,,
null,"<img src=""stim_listA/shout4.gif""style=""height:400px;""></stim_listA>",,html-keyboard-response,116,938707,0.0-13.0-1.15,14719,List1A,white,man,,,,null,,,,,,,,,
null,is being shouted at by,,html-keyboard-response,117,940709,0.0-13.0-2.15,14719,List1A,white,man,,,,null,,,,,,,,,
14883.4,,,survey-text,118,955594,0.0-13.0-3.15,14719,List1A,white,man,,,,,"{""Q0"":""Dave is shouted by Jane""}","<img src=""stim_listA/shout4.gif""style=""height:400px;""></stim_listA>",is being shouted at by,,,,,,
null,"<div style=""font-size:60px;"">+</div>",,html-keyboard-response,119,956097,0.0-13.0-0.16,14719,List1A,white,man,,,,null,,,,,,,,,
null,"<img src=""stim_listA/shout8.gif""style=""height:400px;""></stim_listA>",,html-keyboard-response,120,958098,0.0-13.0-1.16,14719,List1A,white,man,,,,null,,,,,,,,,
null,is being shouted at by,,html-keyboard-response,121,960099,0.0-13.0-2.16,14719,List1A,white,man,,,,null,,,,,,,,,
18925.1,,,survey-text,122,979026,0.0-13.0-3.16,14719,List1A,white,man,,,,,"{""Q0"":""Kate is shouted by jane""}","<img src=""stim_listA/shout8.gif""style=""height:400px;""></stim_listA>",is being shouted at by,,,,,,
null,"<div style=""font-size:60px;"">+</div>",,html-keyboard-response,123,979527,0.0-13.0-0.17,14719,List1A,white,man,,,,null,,,,,,,,,
null,"<img src=""stim_listA/copy8.gif""style=""height:400px;""></stim_listA>",,html-keyboard-response,124,981528,0.0-13.0-1.17,14719,List1A,white,man,,,,null,,,,,,,,,
null,is being copied by,,html-keyboard-response,125,983529,0.0-13.0-2.17,14719,List1A,white,man,,,,null,,,,,,,,,
38406.7,,,survey-text,126,1021938,0.0-13.0-3.17,14719,List1A,white,man,,,,,"{""Q0"":""Beth is being copied by jane ""}","<img src=""stim_listA/copy8.gif""style=""height:400px;""></stim_listA>",is being copied by,,,,,,
null,"<div style=""font-size:60px;"">+</div>",,html-keyboard-response,127,1022439,0.0-13.0-0.18,14719,List1A,white,man,,,,null,,,,,,,,,
null,"<img src=""stim_listA/touch1.gif""style=""height:400px;""></stim_listA>",,html-keyboard-response,128,1024441,0.0-13.0-1.18,14719,List1A,white,man,,,,null,,,,,,,,,
null,is touching,,html-keyboard-response,129,1026442,0.0-13.0-2.18,14719,List1A,white,man,,,,null,,,,,,,,,
19701.3,,,survey-text,130,1046146,0.0-13.0-3.18,14719,List1A,white,man,,,,,"{""Q0"":""Kate is touching by mike""}","<img src=""stim_listA/touch1.gif""style=""height:400px;""></stim_listA>",is touching,,,,,,
null,"<div style=""font-size:60px;"">+</div>",,html-keyboard-response,131,1046647,0.0-13.0-0.19,14719,List1A,white,man,,,,null,,,,,,,,,
null,"<img src=""stim_listA/shout6.gif""style=""height:400px;""></stim_listA>",,html-keyboard-response,132,1048649,0.0-13.0-1.19,14719,List1A,white,man,,,,null,,,,,,,,,
null,is being shouted at by,,html-keyboard-response,133,1050650,0.0-13.0-2.19,14719,List1A,white,man,,,,null,,,,,,,,,
23829.9,,,survey-text,134,1074482,0.0-13.0-3.19,14719,List1A,white,man,,,,,"{""Q0"":""Dave is shouted by mike""}","<img src=""stim_listA/shout6.gif""style=""height:400px;""></stim_listA>",is being shouted at by,,,,,,
7015.5,"<img src='img/portrait_matrix_list1.jpg' style='width:900px;height:500px;''></img><p>If you have memorised all the portraits and names and are ready to start, press Continue.</p><p><strong>Please note: Your memory of these faces will be tested 4 times during this experiment.</strong></p>",0,html-button-response,135,1081498,0.0-14.0-0.0,14719,List1A,white,man,,,,,,,,,,,,,
3608.2,"<img src=""portrait/WW2.jpg""style=""height:400px;""></img>",3,html-button-response,136,1086108,0.0-14.0-1.0,14719,List1A,white,man,,TRUE,3,,,,,,,,,,
null,CORRECT,,html-keyboard-response,137,1087610,0.0-14.0-2.0-0.0,14719,List1A,white,man,,,,null,,,,,,,,,
3972,"<img src=""portrait/BW2.jpg""style=""height:400px;""></img>",2,html-button-response,138,1091584,0.0-14.0-4.0,14719,List1A,white,man,,TRUE,2,,,,,,,,,,
null,CORRECT,,html-keyboard-response,139,1093086,0.0-14.0-5.0-0.0,14719,List1A,white,man,,,,null,,,,,,,,,
7328.5,"<img src=""portrait/WM1.jpg""style=""height:400px;""></img>",6,html-button-response,140,1100415,0.0-14.0-7.0,14719,List1A,white,man,,TRUE,6,,,,,,,,,,
null,CORRECT,,html-keyboard-response,141,1101918,0.0-14.0-8.0-0.0,14719,List1A,white,man,,,,null,,,,,,,,,
5866.1,"<img src=""portrait/BW1.jpg""style=""height:400px;""></img>",0,html-button-response,142,1107785,0.0-14.0-10.0,14719,List1A,white,man,,TRUE,0,,,,,,,,,,
null,CORRECT,,html-keyboard-response,143,1109287,0.0-14.0-11.0-0.0,14719,List1A,white,man,,,,null,,,,,,,,,
4305.2,"<img src=""portrait/BM1.jpg""style=""height:400px;""></img>",4,html-button-response,144,1113593,0.0-14.0-13.0,14719,List1A,white,man,,TRUE,4,,,,,,,,,,
null,CORRECT,,html-keyboard-response,145,1115095,0.0-14.0-14.0-0.0,14719,List1A,white,man,,,,null,,,,,,,,,
6571.4,"<img src=""portrait/BM2.jpg""style=""height:400px;""></img>",5,html-button-response,146,1121667,0.0-14.0-16.0,14719,List1A,white,man,,TRUE,5,,,,,,,,,,
null,CORRECT,,html-keyboard-response,147,1123170,0.0-14.0-17.0-0.0,14719,List1A,white,man,,,,null,,,,,,,,,
6210.4,"<img src=""portrait/WM2.jpg""style=""height:400px;""></img>",7,html-button-response,148,1129381,0.0-14.0-19.0,14719,List1A,white,man,,TRUE,7,,,,,,,,,,
null,CORRECT,,html-keyboard-response,149,1130885,0.0-14.0-20.0-0.0,14719,List1A,white,man,,,,null,,,,,,,,,
6711,"<img src=""portrait/WW1.jpg""style=""height:400px;""></img>",1,html-button-response,150,1137597,0.0-14.0-22.0,14719,List1A,white,man,,TRUE,1,,,,,,,,,,
null,CORRECT,,html-keyboard-response,151,1139100,0.0-14.0-23.0-0.0,14719,List1A,white,man,,,,null,,,,,,,,,
1245.6,<p>You got 8 out of 8 right first time. Press Continue.</p>,0,html-button-response,152,1140347,0.0-14.0-25.0,14719,List1A,white,man,,,,,,,,,,,,,
null,"<div style=""font-size:60px;"">+</div>",,html-keyboard-response,153,1141849,0.0-15.0-0.0,14719,List1A,white,man,,,,null,,,,,,,,,
null,"<img src=""stim_listA/seduce2.gif""style=""height:400px;""></stim_listA>",,html-keyboard-response,154,1143851,0.0-15.0-1.0,14719,List1A,white,man,,,,null,,,,,,,,,
null,is being seduced by,,html-keyboard-response,155,1145852,0.0-15.0-2.0,14719,List1A,white,man,,,,null,,,,,,,,,
19002.8,,,survey-text,156,1164857,0.0-15.0-3.0,14719,List1A,white,man,,,,,"{""Q0"":""Beth is being shouted by mike""}","<img src=""stim_listA/seduce2.gif""style=""height:400px;""></stim_listA>",is being seduced by,,,,,,
null,"<div style=""font-size:60px;"">+</div>",,html-keyboard-response,157,1165358,0.0-15.0-0.1,14719,List1A,white,man,,,,null,,,,,,,,,
null,"<img src=""stim_listA/look3.gif""style=""height:400px;""></stim_listA>",,html-keyboard-response,158,1167360,0.0-15.0-1.1,14719,List1A,white,man,,,,null,,,,,,,,,
null,is looking at,,html-keyboard-response,159,1169361,0.0-15.0-2.1,14719,List1A,white,man,,,,null,,,,,,,,,
10581.7,,,survey-text,160,1179945,0.0-15.0-3.1,14719,List1A,white,man,,,,,"{""Q0"":""Luke is looking at Jane""}","<img src=""stim_listA/look3.gif""style=""height:400px;""></stim_listA>",is looking at,,,,,,
null,"<div style=""font-size:60px;"">+</div>",,html-keyboard-response,161,1180447,0.0-15.0-0.2,14719,List1A,white,man,,,,null,,,,,,,,,
null,"<img src=""stim_listA/look2.gif""style=""height:400px;""></stim_listA>",,html-keyboard-response,162,1182449,0.0-15.0-1.2,14719,List1A,white,man,,,,null,,,,,,,,,
null,is being looked at by,,html-keyboard-response,163,1184451,0.0-15.0-2.2,14719,List1A,white,man,,,,null,,,,,,,,,
20300.1,,,survey-text,164,1204753,0.0-15.0-3.2,14719,List1A,white,man,,,,,"{""Q0"":""Kate is being looked by Mike""}","<img src=""stim_listA/look2.gif""style=""height:400px;""></stim_listA>",is being looked at by,,,,,,
null,"<div style=""font-size:60px;"">+</div>",,html-keyboard-response,165,1205254,0.0-15.0-0.3,14719,List1A,white,man,,,,null,,,,,,,,,
null,"<img src=""stim_listA/greet8.gif""style=""height:400px;""></stim_listA>",,html-keyboard-response,166,1207255,0.0-15.0-1.3,14719,List1A,white,man,,,,null,,,,,,,,,
null,is being greeted by,,html-keyboard-response,167,1209256,0.0-15.0-2.3,14719,List1A,white,man,,,,null,,,,,,,,,
20526.4,,,survey-text,168,1229785,0.0-15.0-3.3,14719,List1A,white,man,,,,,"{""Q0"":""Beth is being greeted by Jane""}","<img src=""stim_listA/greet8.gif""style=""height:400px;""></stim_listA>",is being greeted by,,,,,,
null,"<div style=""font-size:60px;"">+</div>",,html-keyboard-response,169,1230286,0.0-15.0-0.4,14719,List1A,white,man,,,,null,,,,,,,,,
null,"<img src=""stim_listA/greet1.gif""style=""height:400px;""></stim_listA>",,html-keyboard-response,170,1232288,0.0-15.0-1.4,14719,List1A,white,man,,,,null,,,,,,,,,
null,is greeting,,html-keyboard-response,171,1234289,0.0-15.0-2.4,14719,List1A,white,man,,,,null,,,,,,,,,
18989.3,,,survey-text,172,1253281,0.0-15.0-3.4,14719,List1A,white,man,,,,,"{""Q0"":""Beth is greeting by mike""}","<img src=""stim_listA/greet1.gif""style=""height:400px;""></stim_listA>",is greeting,,,,,,
null,"<div style=""font-size:60px;"">+</div>",,html-keyboard-response,173,1253783,0.0-15.0-0.5,14719,List1A,white,man,,,,null,,,,,,,,,
null,"<img src=""stim_listA/copy3.gif""style=""height:400px;""></stim_listA>",,html-keyboard-response,174,1255784,0.0-15.0-1.5,14719,List1A,white,man,,,,null,,,,,,,,,
null,is copying,,html-keyboard-response,175,1257786,0.0-15.0-2.5,14719,List1A,white,man,,,,null,,,,,,,,,
23556.6,,,survey-text,176,1281344,0.0-15.0-3.5,14719,List1A,white,man,,,,,"{""Q0"":""dave is coping by jane""}","<img src=""stim_listA/copy3.gif""style=""height:400px;""></stim_listA>",is copying,,,,,,
null,"<div style=""font-size:60px;"">+</div>",,html-keyboard-response,177,1281845,0.0-15.0-0.6,14719,List1A,white,man,,,,null,,,,,,,,,
null,"<img src=""stim_listA/copy1.gif""style=""height:400px;""></stim_listA>",,html-keyboard-response,178,1283847,0.0-15.0-1.6,14719,List1A,white,man,,,,null,,,,,,,,,
null,is copying,,html-keyboard-response,179,1285848,0.0-15.0-2.6,14719,List1A,white,man,,,,null,,,,,,,,,
22958.6,,,survey-text,180,1308808,0.0-15.0-3.6,14719,List1A,white,man,,,,,"{""Q0"":""Beth is coping mike""}","<img src=""stim_listA/copy1.gif""style=""height:400px;""></stim_listA>",is copying,,,,,,
null,"<div style=""font-size:60px;"">+</div>",,html-keyboard-response,181,1309311,0.0-15.0-0.7,14719,List1A,white,man,,,,null,,,,,,,,,
null,"<img src=""stim_listA/look1.gif""style=""height:400px;""></stim_listA>",,html-keyboard-response,182,1311313,0.0-15.0-1.7,14719,List1A,white,man,,,,null,,,,,,,,,
null,is looking at,,html-keyboard-response,183,1313314,0.0-15.0-2.7,14719,List1A,white,man,,,,null,,,,,,,,,
12636,,,survey-text,184,1325952,0.0-15.0-3.7,14719,List1A,white,man,,,,,"{""Q0"":""Fred is looking at beth""}","<img src=""stim_listA/look1.gif""style=""height:400px;""></stim_listA>",is looking at,,,,,,
null,"<div style=""font-size:60px;"">+</div>",,html-keyboard-response,185,1326453,0.0-15.0-0.8,14719,List1A,white,man,,,,null,,,,,,,,,
null,"<img src=""stim_listA/copy7.gif""style=""height:400px;""></stim_listA>",,html-keyboard-response,186,1328455,0.0-15.0-1.8,14719,List1A,white,man,,,,null,,,,,,,,,
null,is copying,,html-keyboard-response,187,1330457,0.0-15.0-2.8,14719,List1A,white,man,,,,null,,,,,,,,,
10501.2,,,survey-text,188,1340960,0.0-15.0-3.8,14719,List1A,white,man,,,,,"{""Q0"":""Kate is coping jane""}","<img src=""stim_listA/copy7.gif""style=""height:400px;""></stim_listA>",is copying,,,,,,
null,"<div style=""font-size:60px;"">+</div>",,html-keyboard-response,189,1341461,0.0-15.0-0.9,14719,List1A,white,man,,,,null,,,,,,,,,
null,"<img src=""stim_listA/hug2.gif""style=""height:400px;""></stim_listA>",,html-keyboard-response,190,1343463,0.0-15.0-1.9,14719,List1A,white,man,,,,null,,,,,,,,,
null,is being hugged by,,html-keyboard-response,191,1345464,0.0-15.0-2.9,14719,List1A,white,man,,,,null,,,,,,,,,
15693.8,,,survey-text,192,1361160,0.0-15.0-3.9,14719,List1A,white,man,,,,,"{""Q0"":""Kate is being hugged by mike""}","<img src=""stim_listA/hug2.gif""style=""height:400px;""></stim_listA>",is being hugged by,,,,,,
null,"<div style=""font-size:60px;"">+</div>",,html-keyboard-response,193,1361662,0.0-15.0-0.10,14719,List1A,white,man,,,,null,,,,,,,,,
null,"<img src=""stim_listA/touch2.gif""style=""height:400px;""></stim_listA>",,html-keyboard-response,194,1363664,0.0-15.0-1.10,14719,List1A,white,man,,,,null,,,,,,,,,
null,is being touched by,,html-keyboard-response,195,1365665,0.0-15.0-2.10,14719,List1A,white,man,,,,null,,,,,,,,,
14925,,,survey-text,196,1380592,0.0-15.0-3.10,14719,List1A,white,man,,,,,"{""Q0"":""fred is being touched by beth""}","<img src=""stim_listA/touch2.gif""style=""height:400px;""></stim_listA>",is being touched by,,,,,,
null,"<div style=""font-size:60px;"">+</div>",,html-keyboard-response,197,1381093,0.0-15.0-0.11,14719,List1A,white,man,,,,null,,,,,,,,,
null,"<img src=""stim_listA/hug8.gif""style=""height:400px;""></stim_listA>",,html-keyboard-response,198,1383096,0.0-15.0-1.11,14719,List1A,white,man,,,,null,,,,,,,,,
null,is being hugged by,,html-keyboard-response,199,1385097,0.0-15.0-2.11,14719,List1A,white,man,,,,null,,,,,,,,,
21996.6,,,survey-text,200,1407095,0.0-15.0-3.11,14719,List1A,white,man,,,,,"{""Q0"":""kate is being hugged by jane""}","<img src=""stim_listA/hug8.gif""style=""height:400px;""></stim_listA>",is being hugged by,,,,,,
null,"<div style=""font-size:60px;"">+</div>",,html-keyboard-response,201,1407596,0.0-15.0-0.12,14719,List1A,white,man,,,,null,,,,,,,,,
null,"<img src=""stim_listA/seduce7.gif""style=""height:400px;""></stim_listA>",,html-keyboard-response,202,1409598,0.0-15.0-1.12,14719,List1A,white,man,,,,null,,,,,,,,,
null,is seducing,,html-keyboard-response,203,1411599,0.0-15.0-2.12,14719,List1A,white,man,,,,null,,,,,,,,,
31638.3,,,survey-text,204,1443239,0.0-15.0-3.12,14719,List1A,white,man,,,,,"{""Q0"":""Beth is being lough at jane""}","<img src=""stim_listA/seduce7.gif""style=""height:400px;""></stim_listA>",is seducing,,,,,,
null,"<div style=""font-size:60px;"">+</div>",,html-keyboard-response,205,1443741,0.0-15.0-0.13,14719,List1A,white,man,,,,null,,,,,,,,,
null,"<img src=""stim_listA/look6.gif""style=""height:400px;""></stim_listA>",,html-keyboard-response,206,1445743,0.0-15.0-1.13,14719,List1A,white,man,,,,null,,,,,,,,,
null,is being looked at by,,html-keyboard-response,207,1447744,0.0-15.0-2.13,14719,List1A,white,man,,,,null,,,,,,,,,
11701.1,,,survey-text,208,1459447,0.0-15.0-3.13,14719,List1A,white,man,,,,,"{""Q0"":""Dave is being looking as mike""}","<img src=""stim_listA/look6.gif""style=""height:400px;""></stim_listA>",is being looked at by,,,,,,
null,"<div style=""font-size:60px;"">+</div>",,html-keyboard-response,209,1459949,0.0-15.0-0.14,14719,List1A,white,man,,,,null,,,,,,,,,
null,"<img src=""stim_listA/hug5.gif""style=""height:400px;""></stim_listA>",,html-keyboard-response,210,1461951,0.0-15.0-1.14,14719,List1A,white,man,,,,null,,,,,,,,,
null,is hugging,,html-keyboard-response,211,1463952,0.0-15.0-2.14,14719,List1A,white,man,,,,null,,,,,,,,,
11453.1,,,survey-text,212,1475407,0.0-15.0-3.14,14719,List1A,white,man,,,,,"{""Q0"":""Fred is hugging luke""}","<img src=""stim_listA/hug5.gif""style=""height:400px;""></stim_listA>",is hugging,,,,,,
null,"<div style=""font-size:60px;"">+</div>",,html-keyboard-response,213,1475908,0.0-15.0-0.15,14719,List1A,white,man,,,,null,,,,,,,,,
null,"<img src=""stim_listA/hug3.gif""style=""height:400px;""></stim_listA>",,html-keyboard-response,214,1477910,0.0-15.0-1.15,14719,List1A,white,man,,,,null,,,,,,,,,
null,is hugging,,html-keyboard-response,215,1479911,0.0-15.0-2.15,14719,List1A,white,man,,,,null,,,,,,,,,
13901.7,,,survey-text,216,1493815,0.0-15.0-3.15,14719,List1A,white,man,,,,,"{""Q0"":""Ruth is coping luke""}","<img src=""stim_listA/hug3.gif""style=""height:400px;""></stim_listA>",is hugging,,,,,,
null,"<div style=""font-size:60px;"">+</div>",,html-keyboard-response,217,1494317,0.0-15.0-0.16,14719,List1A,white,man,,,,null,,,,,,,,,
null,"<img src=""stim_listA/kiss5.gif""style=""height:400px;""></stim_listA>",,html-keyboard-response,218,1496319,0.0-15.0-1.16,14719,List1A,white,man,,,,null,,,,,,,,,
null,is kissing,,html-keyboard-response,219,1498320,0.0-15.0-2.16,14719,List1A,white,man,,,,null,,,,,,,,,
22276.8,,,survey-text,220,1520599,0.0-15.0-3.16,14719,List1A,white,man,,,,,"{""Q0"":""Fred is kissing luke""}","<img src=""stim_listA/kiss5.gif""style=""height:400px;""></stim_listA>",is kissing,,,,,,
null,"<div style=""font-size:60px;"">+</div>",,html-keyboard-response,221,1521100,0.0-15.0-0.17,14719,List1A,white,man,,,,null,,,,,,,,,
null,"<img src=""stim_listA/oppose7.gif""style=""height:400px;""></stim_listA>",,html-keyboard-response,222,1523102,0.0-15.0-1.17,14719,List1A,white,man,,,,null,,,,,,,,,
null,is opposing,,html-keyboard-response,223,1525103,0.0-15.0-2.17,14719,List1A,white,man,,,,null,,,,,,,,,
19581.3,,,survey-text,224,1544687,0.0-15.0-3.17,14719,List1A,white,man,,,,,"{""Q0"":""Kate is opposing jane""}","<img src=""stim_listA/oppose7.gif""style=""height:400px;""></stim_listA>",is opposing,,,,,,
null,"<div style=""font-size:60px;"">+</div>",,html-keyboard-response,225,1545188,0.0-15.0-0.18,14719,List1A,white,man,,,,null,,,,,,,,,
null,"<img src=""stim_listA/kiss3.gif""style=""height:400px;""></stim_listA>",,html-keyboard-response,226,1547190,0.0-15.0-1.18,14719,List1A,white,man,,,,null,,,,,,,,,
null,is kissing,,html-keyboard-response,227,1549191,0.0-15.0-2.18,14719,List1A,white,man,,,,null,,,,,,,,,
12293.8,,,survey-text,228,1561486,0.0-15.0-3.18,14719,List1A,white,man,,,,,"{""Q0"":""luke is kissing jane""}","<img src=""stim_listA/kiss3.gif""style=""height:400px;""></stim_listA>",is kissing,,,,,,
null,"<div style=""font-size:60px;"">+</div>",,html-keyboard-response,229,1561988,0.0-15.0-0.19,14719,List1A,white,man,,,,null,,,,,,,,,
null,"<img src=""stim_listA/challenge1.gif""style=""height:400px;""></stim_listA>",,html-keyboard-response,230,1563989,0.0-15.0-1.19,14719,List1A,white,man,,,,null,,,,,,,,,
null,is challenging,,html-keyboard-response,231,1565990,0.0-15.0-2.19,14719,List1A,white,man,,,,null,,,,,,,,,
12661.9,,,survey-text,232,1578654,0.0-15.0-3.19,14719,List1A,white,man,,,,,"{""Q0"":""Beth is challanging mike""}","<img src=""stim_listA/challenge1.gif""style=""height:400px;""></stim_listA>",is challenging,,,,,,
13135.4,"<img src='img/portrait_matrix_list1.jpg' style='width:900px;height:500px;''></img><p>If you have memorised all the portraits and names and are ready to start, press Continue.</p><p><strong>Please note: Your memory of these faces will be tested 4 times during this experiment.</strong></p>",0,html-button-response,233,1591791,0.0-16.0-0.0,14719,List1A,white,man,,,,,,,,,,,,,
3441.5,"<img src=""portrait/WW2.jpg""style=""height:400px;""></img>",3,html-button-response,234,1596235,0.0-16.0-1.0,14719,List1A,white,man,,TRUE,3,,,,,,,,,,
null,CORRECT,,html-keyboard-response,235,1597738,0.0-16.0-2.0-0.0,14719,List1A,white,man,,,,null,,,,,,,,,
5117.6,"<img src=""portrait/WM1.jpg""style=""height:400px;""></img>",6,html-button-response,236,1602857,0.0-16.0-4.0,14719,List1A,white,man,,TRUE,6,,,,,,,,,,
null,CORRECT,,html-keyboard-response,237,1604359,0.0-16.0-5.0-0.0,14719,List1A,white,man,,,,null,,,,,,,,,
3346,"<img src=""portrait/WW1.jpg""style=""height:400px;""></img>",1,html-button-response,238,1607707,0.0-16.0-7.0,14719,List1A,white,man,,TRUE,1,,,,,,,,,,
null,CORRECT,,html-keyboard-response,239,1609209,0.0-16.0-8.0-0.0,14719,List1A,white,man,,,,null,,,,,,,,,
5892.6,"<img src=""portrait/BW2.jpg""style=""height:400px;""></img>",2,html-button-response,240,1615103,0.0-16.0-10.0,14719,List1A,white,man,,TRUE,2,,,,,,,,,,
null,CORRECT,,html-keyboard-response,241,1617737,0.0-16.0-11.0-0.0,14719,List1A,white,man,,,,null,,,,,,,,,
16180.9,"<img src=""portrait/BM2.jpg""style=""height:400px;""></img>",5,html-button-response,242,1633920,0.0-16.0-13.0,14719,List1A,white,man,,TRUE,5,,,,,,,,,,
null,CORRECT,,html-keyboard-response,243,1635423,0.0-16.0-14.0-0.0,14719,List1A,white,man,,,,null,,,,,,,,,
5294.6,"<img src=""portrait/BW1.jpg""style=""height:400px;""></img>",0,html-button-response,244,1640719,0.0-16.0-16.0,14719,List1A,white,man,,TRUE,0,,,,,,,,,,
null,CORRECT,,html-keyboard-response,245,1642221,0.0-16.0-17.0-0.0,14719,List1A,white,man,,,,null,,,,,,,,,
4226.7,"<img src=""portrait/WM2.jpg""style=""height:400px;""></img>",7,html-button-response,246,1646449,0.0-16.0-19.0,14719,List1A,white,man,,TRUE,7,,,,,,,,,,
null,CORRECT,,html-keyboard-response,247,1647951,0.0-16.0-20.0-0.0,14719,List1A,white,man,,,,null,,,,,,,,,
19850.9,"<img src=""portrait/BM1.jpg""style=""height:400px;""></img>",4,html-button-response,248,1667803,0.0-16.0-22.0,14719,List1A,white,man,,TRUE,4,,,,,,,,,,
null,CORRECT,,html-keyboard-response,249,1669304,0.0-16.0-23.0-0.0,14719,List1A,white,man,,,,null,,,,,,,,,
4149.4,<p>You got 8 out of 8 right first time. Press Continue.</p>,0,html-button-response,250,1673454,0.0-16.0-25.0,14719,List1A,white,man,,,,,,,,,,,,,
null,"<div style=""font-size:60px;"">+</div>",,html-keyboard-response,251,1674957,0.0-17.0-0.0,14719,List1A,white,man,,,,null,,,,,,,,,
null,"<img src=""stim_listA/seduce4.gif""style=""height:400px;""></stim_listA>",,html-keyboard-response,252,1676959,0.0-17.0-1.0,14719,List1A,white,man,,,,null,,,,,,,,,
null,is being seduced by,,html-keyboard-response,253,1678960,0.0-17.0-2.0,14719,List1A,white,man,,,,null,,,,,,,,,
31979.2,,,survey-text,254,1710942,0.0-17.0-3.0,14719,List1A,white,man,,,,,"{""Q0"":""Dave is being schussed by jane ""}","<img src=""stim_listA/seduce4.gif""style=""height:400px;""></stim_listA>",is being seduced by,,,,,,
null,"<div style=""font-size:60px;"">+</div>",,html-keyboard-response,255,1711443,0.0-17.0-0.1,14719,List1A,white,man,,,,null,,,,,,,,,
null,"<img src=""stim_listA/touch8.gif""style=""height:400px;""></stim_listA>",,html-keyboard-response,256,1713444,0.0-17.0-1.1,14719,List1A,white,man,,,,null,,,,,,,,,
null,is being touched by,,html-keyboard-response,257,1715445,0.0-17.0-2.1,14719,List1A,white,man,,,,null,,,,,,,,,
18214.5,,,survey-text,258,1733662,0.0-17.0-3.1,14719,List1A,white,man,,,,,"{""Q0"":""Ruth is touching beth""}","<img src=""stim_listA/touch8.gif""style=""height:400px;""></stim_listA>",is being touched by,,,,,,
null,"<div style=""font-size:60px;"">+</div>",,html-keyboard-response,259,1734163,0.0-17.0-0.2,14719,List1A,white,man,,,,null,,,,,,,,,
null,"<img src=""stim_listA/shout1.gif""style=""height:400px;""></stim_listA>",,html-keyboard-response,260,1736165,0.0-17.0-1.2,14719,List1A,white,man,,,,null,,,,,,,,,
null,is shouting at,,html-keyboard-response,261,1738166,0.0-17.0-2.2,14719,List1A,white,man,,,,null,,,,,,,,,
14837.1,,,survey-text,262,1753004,0.0-17.0-3.2,14719,List1A,white,man,,,,,"{""Q0"":""Fred is shouting at beth""}","<img src=""stim_listA/shout1.gif""style=""height:400px;""></stim_listA>",is shouting at,,,,,,
null,"<div style=""font-size:60px;"">+</div>",,html-keyboard-response,263,1753507,0.0-17.0-0.3,14719,List1A,white,man,,,,null,,,,,,,,,
null,"<img src=""stim_listA/greet3.gif""style=""height:400px;""></stim_listA>",,html-keyboard-response,264,1755512,0.0-17.0-1.3,14719,List1A,white,man,,,,null,,,,,,,,,
null,is greeting,,html-keyboard-response,265,1757513,0.0-17.0-2.3,14719,List1A,white,man,,,,null,,,,,,,,,
15417.9,,,survey-text,266,1772933,0.0-17.0-3.3,14719,List1A,white,man,,,,,"{""Q0"":""dave is coping jane""}","<img src=""stim_listA/greet3.gif""style=""height:400px;""></stim_listA>",is greeting,,,,,,
null,"<div style=""font-size:60px;"">+</div>",,html-keyboard-response,267,1773435,0.0-17.0-0.4,14719,List1A,white,man,,,,null,,,,,,,,,
null,"<img src=""stim_listA/oppose4.gif""style=""height:400px;""></stim_listA>",,html-keyboard-response,268,1775436,0.0-17.0-1.4,14719,List1A,white,man,,,,null,,,,,,,,,
null,is being opposed by,,html-keyboard-response,269,1777437,0.0-17.0-2.4,14719,List1A,white,man,,,,null,,,,,,,,,
24165.2,,,survey-text,270,1801604,0.0-17.0-3.4,14719,List1A,white,man,,,,,"{""Q0"":""Ruth is shouting luke""}","<img src=""stim_listA/oppose4.gif""style=""height:400px;""></stim_listA>",is being opposed by,,,,,,
null,"<div style=""font-size:60px;"">+</div>",,html-keyboard-response,271,1802107,0.0-17.0-0.5,14719,List1A,white,man,,,,null,,,,,,,,,
null,"<img src=""stim_listA/kiss1.gif""style=""height:400px;""></stim_listA>",,html-keyboard-response,272,1804109,0.0-17.0-1.5,14719,List1A,white,man,,,,null,,,,,,,,,
null,is kissing,,html-keyboard-response,273,1806110,0.0-17.0-2.5,14719,List1A,white,man,,,,null,,,,,,,,,
16948.1,,,survey-text,274,1823061,0.0-17.0-3.5,14719,List1A,white,man,,,,,"{""Q0"":""Fred is kissing beth""}","<img src=""stim_listA/kiss1.gif""style=""height:400px;""></stim_listA>",is kissing,,,,,,
null,"<div style=""font-size:60px;"">+</div>",,html-keyboard-response,275,1823563,0.0-17.0-0.6,14719,List1A,white,man,,,,null,,,,,,,,,
null,"<img src=""stim_listA/seduce1.gif""style=""height:400px;""></stim_listA>",,html-keyboard-response,276,1825564,0.0-17.0-1.6,14719,List1A,white,man,,,,null,,,,,,,,,
null,is seducing,,html-keyboard-response,277,1827565,0.0-17.0-2.6,14719,List1A,white,man,,,,null,,,,,,,,,
26309.5,,,survey-text,278,1853877,0.0-17.0-3.6,14719,List1A,white,man,,,,,"{""Q0"":""Beth is seducing mike""}","<img src=""stim_listA/seduce1.gif""style=""height:400px;""></stim_listA>",is seducing,,,,,,
null,"<div style=""font-size:60px;"">+</div>",,html-keyboard-response,279,1854378,0.0-17.0-0.7,14719,List1A,white,man,,,,null,,,,,,,,,
null,"<img src=""stim_listA/seduce3.gif""style=""height:400px;""></stim_listA>",,html-keyboard-response,280,1856380,0.0-17.0-1.7,14719,List1A,white,man,,,,null,,,,,,,,,
null,is seducing,,html-keyboard-response,281,1858382,0.0-17.0-2.7,14719,List1A,white,man,,,,null,,,,,,,,,
10396.9,,,survey-text,282,1868780,0.0-17.0-3.7,14719,List1A,white,man,,,,,"{""Q0"":""Jane is seducing luke""}","<img src=""stim_listA/seduce3.gif""style=""height:400px;""></stim_listA>",is seducing,,,,,,
null,"<div style=""font-size:60px;"">+</div>",,html-keyboard-response,283,1869281,0.0-17.0-0.8,14719,List1A,white,man,,,,null,,,,,,,,,
null,"<img src=""stim_listA/touch5.gif""style=""height:400px;""></stim_listA>",,html-keyboard-response,284,1871283,0.0-17.0-1.8,14719,List1A,white,man,,,,null,,,,,,,,,
null,is touching,,html-keyboard-response,285,1873285,0.0-17.0-2.8,14719,List1A,white,man,,,,null,,,,,,,,,
11221.2,,,survey-text,286,1884508,0.0-17.0-3.8,14719,List1A,white,man,,,,,"{""Q0"":""Dave is touching mike""}","<img src=""stim_listA/touch5.gif""style=""height:400px;""></stim_listA>",is touching,,,,,,
null,"<div style=""font-size:60px;"">+</div>",,html-keyboard-response,287,1885009,0.0-17.0-0.9,14719,List1A,white,man,,,,null,,,,,,,,,
null,"<img src=""stim_listA/seduce6.gif""style=""height:400px;""></stim_listA>",,html-keyboard-response,288,1887011,0.0-17.0-1.9,14719,List1A,white,man,,,,null,,,,,,,,,
null,is being seduced by,,html-keyboard-response,289,1889012,0.0-17.0-2.9,14719,List1A,white,man,,,,null,,,,,,,,,
35221.2,,,survey-text,290,1924236,0.0-17.0-3.9,14719,List1A,white,man,,,,,"{""Q0"":""mike is being seducing by luke""}","<img src=""stim_listA/seduce6.gif""style=""height:400px;""></stim_listA>",is being seduced by,,,,,,
null,"<div style=""font-size:60px;"">+</div>",,html-keyboard-response,291,1924738,0.0-17.0-0.10,14719,List1A,white,man,,,,null,,,,,,,,,
null,"<img src=""stim_listA/greet7.gif""style=""height:400px;""></stim_listA>",,html-keyboard-response,292,1926739,0.0-17.0-1.10,14719,List1A,white,man,,,,null,,,,,,,,,
null,is greeting,,html-keyboard-response,293,1928740,0.0-17.0-2.10,14719,List1A,white,man,,,,null,,,,,,,,,
21861.2,,,survey-text,294,1950603,0.0-17.0-3.10,14719,List1A,white,man,,,,,"{""Q0"":""kate is greeting luke""}","<img src=""stim_listA/greet7.gif""style=""height:400px;""></stim_listA>",is greeting,,,,,,
null,"<div style=""font-size:60px;"">+</div>",,html-keyboard-response,295,1951104,0.0-17.0-0.11,14719,List1A,white,man,,,,null,,,,,,,,,
null,"<img src=""stim_listA/copy6.gif""style=""height:400px;""></stim_listA>",,html-keyboard-response,296,1953106,0.0-17.0-1.11,14719,List1A,white,man,,,,null,,,,,,,,,
null,is being copied by,,html-keyboard-response,297,1955106,0.0-17.0-2.11,14719,List1A,white,man,,,,null,,,,,,,,,
12062.8,,,survey-text,298,1967171,0.0-17.0-3.11,14719,List1A,white,man,,,,,"{""Q0"":""Dave is being copied fred""}","<img src=""stim_listA/copy6.gif""style=""height:400px;""></stim_listA>",is being copied by,,,,,,
null,"<div style=""font-size:60px;"">+</div>",,html-keyboard-response,299,1967673,0.0-17.0-0.12,14719,List1A,white,man,,,,null,,,,,,,,,
null,"<img src=""stim_listA/oppose2.gif""style=""height:400px;""></stim_listA>",,html-keyboard-response,300,1969674,0.0-17.0-1.12,14719,List1A,white,man,,,,null,,,,,,,,,
null,is being opposed by,,html-keyboard-response,301,1971676,0.0-17.0-2.12,14719,List1A,white,man,,,,null,,,,,,,,,
22709.6,,,survey-text,302,1994388,0.0-17.0-3.12,14719,List1A,white,man,,,,,"{""Q0"":""Fred is being opposing beth""}","<img src=""stim_listA/oppose2.gif""style=""height:400px;""></stim_listA>",is being opposed by,,,,,,
null,"<div style=""font-size:60px;"">+</div>",,html-keyboard-response,303,1994890,0.0-17.0-0.13,14719,List1A,white,man,,,,null,,,,,,,,,
null,"<img src=""stim_listA/kiss8.gif""style=""height:400px;""></stim_listA>",,html-keyboard-response,304,1996891,0.0-17.0-1.13,14719,List1A,white,man,,,,null,,,,,,,,,
null,is being kissed by,,html-keyboard-response,305,1998892,0.0-17.0-2.13,14719,List1A,white,man,,,,null,,,,,,,,,
13877.8,,,survey-text,306,2012772,0.0-17.0-3.13,14719,List1A,white,man,,,,,"{""Q0"":""jane is being kissed by beth""}","<img src=""stim_listA/kiss8.gif""style=""height:400px;""></stim_listA>",is being kissed by,,,,,,
null,"<div style=""font-size:60px;"">+</div>",,html-keyboard-response,307,2013272,0.0-17.0-0.14,14719,List1A,white,man,,,,null,,,,,,,,,
null,"<img src=""stim_listA/copy4.gif""style=""height:400px;""></stim_listA>",,html-keyboard-response,308,2015274,0.0-17.0-1.14,14719,List1A,white,man,,,,null,,,,,,,,,
null,is being copied by,,html-keyboard-response,309,2017275,0.0-17.0-2.14,14719,List1A,white,man,,,,null,,,,,,,,,
16238.4,,,survey-text,310,2033515,0.0-17.0-3.14,14719,List1A,white,man,,,,,"{""Q0"":""Jane is being copied by luke""}","<img src=""stim_listA/copy4.gif""style=""height:400px;""></stim_listA>",is being copied by,,,,,,
null,"<div style=""font-size:60px;"">+</div>",,html-keyboard-response,311,2034017,0.0-17.0-0.15,14719,List1A,white,man,,,,null,,,,,,,,,
null,"<img src=""stim_listA/challenge3.gif""style=""height:400px;""></stim_listA>",,html-keyboard-response,312,2036018,0.0-17.0-1.15,14719,List1A,white,man,,,,null,,,,,,,,,
null,is challenging,,html-keyboard-response,313,2038019,0.0-17.0-2.15,14719,List1A,white,man,,,,null,,,,,,,,,
27142.7,,,survey-text,314,2065163,0.0-17.0-3.15,14719,List1A,white,man,,,,,"{""Q0"":""Dave is being challenging ruth""}","<img src=""stim_listA/challenge3.gif""style=""height:400px;""></stim_listA>",is challenging,,,,,,
null,"<div style=""font-size:60px;"">+</div>",,html-keyboard-response,315,2065664,0.0-17.0-0.16,14719,List1A,white,man,,,,null,,,,,,,,,
null,"<img src=""stim_listA/oppose1.gif""style=""height:400px;""></stim_listA>",,html-keyboard-response,316,2067666,0.0-17.0-1.16,14719,List1A,white,man,,,,null,,,,,,,,,
null,is opposing,,html-keyboard-response,317,2069668,0.0-17.0-2.16,14719,List1A,white,man,,,,null,,,,,,,,,
11365.4,,,survey-text,318,2081035,0.0-17.0-3.16,14719,List1A,white,man,,,,,"{""Q0"":""mike is opposing kate""}","<img src=""stim_listA/oppose1.gif""style=""height:400px;""></stim_listA>",is opposing,,,,,,
null,"<div style=""font-size:60px;"">+</div>",,html-keyboard-response,319,2081536,0.0-17.0-0.17,14719,List1A,white,man,,,,null,,,,,,,,,
null,"<img src=""stim_listA/shout5.gif""style=""height:400px;""></stim_listA>",,html-keyboard-response,320,2083537,0.0-17.0-1.17,14719,List1A,white,man,,,,null,,,,,,,,,
null,is shouting at,,html-keyboard-response,321,2085538,0.0-17.0-2.17,14719,List1A,white,man,,,,null,,,,,,,,,
20486.4,,,survey-text,322,2106027,0.0-17.0-3.17,14719,List1A,white,man,,,,,"{""Q0"":""Fred is being shouting at luke""}","<img src=""stim_listA/shout5.gif""style=""height:400px;""></stim_listA>",is shouting at,,,,,,
null,"<div style=""font-size:60px;"">+</div>",,html-keyboard-response,323,2106528,0.0-17.0-0.18,14719,List1A,white,man,,,,null,,,,,,,,,
null,"<img src=""stim_listA/copy5.gif""style=""height:400px;""></stim_listA>",,html-keyboard-response,324,2108530,0.0-17.0-1.18,14719,List1A,white,man,,,,null,,,,,,,,,
null,is copying,,html-keyboard-response,325,2110531,0.0-17.0-2.18,14719,List1A,white,man,,,,null,,,,,,,,,
9677.4,,,survey-text,326,2120211,0.0-17.0-3.18,14719,List1A,white,man,,,,,"{""Q0"":""Mike is coping luke""}","<img src=""stim_listA/copy5.gif""style=""height:400px;""></stim_listA>",is copying,,,,,,
null,"<div style=""font-size:60px;"">+</div>",,html-keyboard-response,327,2120712,0.0-17.0-0.19,14719,List1A,white,man,,,,null,,,,,,,,,
null,"<img src=""stim_listA/kiss2.gif""style=""height:400px;""></stim_listA>",,html-keyboard-response,328,2122714,0.0-17.0-1.19,14719,List1A,white,man,,,,null,,,,,,,,,
null,is being kissed by,,html-keyboard-response,329,2124715,0.0-17.0-2.19,14719,List1A,white,man,,,,null,,,,,,,,,
12501.8,,,survey-text,330,2137219,0.0-17.0-3.19,14719,List1A,white,man,,,,,"{""Q0"":""Mike is being kissed by kate""}","<img src=""stim_listA/kiss2.gif""style=""height:400px;""></stim_listA>",is being kissed by,,,,,,
2877.5,"<img src='img/portrait_matrix_list1.jpg' style='width:900px;height:500px;''></img><p>If you have memorised all the portraits and names and are ready to start, press Continue.</p><p><strong>Please note: Your memory of these faces will be tested 4 times during this experiment.</strong></p>",0,html-button-response,331,2140097,0.0-18.0-0.0,14719,List1A,white,man,,,,,,,,,,,,,
4510.3,"<img src=""portrait/WW1.jpg""style=""height:400px;""></img>",1,html-button-response,332,2145609,0.0-18.0-1.0,14719,List1A,white,man,,TRUE,1,,,,,,,,,,
null,CORRECT,,html-keyboard-response,333,2147111,0.0-18.0-2.0-0.0,14719,List1A,white,man,,,,null,,,,,,,,,
4734.6,"<img src=""portrait/BW1.jpg""style=""height:400px;""></img>",0,html-button-response,334,2151847,0.0-18.0-4.0,14719,List1A,white,man,,TRUE,0,,,,,,,,,,
null,CORRECT,,html-keyboard-response,335,2153349,0.0-18.0-5.0-0.0,14719,List1A,white,man,,,,null,,,,,,,,,
3533,"<img src=""portrait/WW2.jpg""style=""height:400px;""></img>",3,html-button-response,336,2156884,0.0-18.0-7.0,14719,List1A,white,man,,TRUE,3,,,,,,,,,,
null,CORRECT,,html-keyboard-response,337,2158387,0.0-18.0-8.0-0.0,14719,List1A,white,man,,,,null,,,,,,,,,
4583.3,"<img src=""portrait/WM2.jpg""style=""height:400px;""></img>",7,html-button-response,338,2162971,0.0-18.0-10.0,14719,List1A,white,man,,TRUE,7,,,,,,,,,,
null,CORRECT,,html-keyboard-response,339,2164474,0.0-18.0-11.0-0.0,14719,List1A,white,man,,,,null,,,,,,,,,
3984.3,"<img src=""portrait/BW2.jpg""style=""height:400px;""></img>",2,html-button-response,340,2168459,0.0-18.0-13.0,14719,List1A,white,man,,TRUE,2,,,,,,,,,,
null,CORRECT,,html-keyboard-response,341,2169963,0.0-18.0-14.0-0.0,14719,List1A,white,man,,,,null,,,,,,,,,
4175.2,"<img src=""portrait/BM2.jpg""style=""height:400px;""></img>",5,html-button-response,342,2174139,0.0-18.0-16.0,14719,List1A,white,man,,TRUE,5,,,,,,,,,,
null,CORRECT,,html-keyboard-response,343,2175642,0.0-18.0-17.0-0.0,14719,List1A,white,man,,,,null,,,,,,,,,
3090,"<img src=""portrait/BM1.jpg""style=""height:400px;""></img>",4,html-button-response,344,2178733,0.0-18.0-19.0,14719,List1A,white,man,,TRUE,4,,,,,,,,,,
null,CORRECT,,html-keyboard-response,345,2180235,0.0-18.0-20.0-0.0,14719,List1A,white,man,,,,null,,,,,,,,,
5234.6,"<img src=""portrait/WM1.jpg""style=""height:400px;""></img>",6,html-button-response,346,2185471,0.0-18.0-22.0,14719,List1A,white,man,,TRUE,6,,,,,,,,,,
null,CORRECT,,html-keyboard-response,347,2186974,0.0-18.0-23.0-0.0,14719,List1A,white,man,,,,null,,,,,,,,,
1133.5,<p>You got 8 out of 8 right first time. Press Continue.</p>,0,html-button-response,348,2188109,0.0-18.0-25.0,14719,List1A,white,man,,,,,,,,,,,,,
null,"<div style=""font-size:60px;"">+</div>",,html-keyboard-response,349,2189610,0.0-19.0-0.0,14719,List1A,white,man,,,,null,,,,,,,,,
null,"<img src=""stim_listA/look5.gif""style=""height:400px;""></stim_listA>",,html-keyboard-response,350,2191612,0.0-19.0-1.0,14719,List1A,white,man,,,,null,,,,,,,,,
null,is looking at,,html-keyboard-response,351,2193613,0.0-19.0-2.0,14719,List1A,white,man,,,,null,,,,,,,,,
11419.3,,,survey-text,352,2205034,0.0-19.0-3.0,14719,List1A,white,man,,,,,"{""Q0"":""Fred is looking as luke""}","<img src=""stim_listA/look5.gif""style=""height:400px;""></stim_listA>",is looking at,,,,,,
null,"<div style=""font-size:60px;"">+</div>",,html-keyboard-response,353,2205536,0.0-19.0-0.1,14719,List1A,white,man,,,,null,,,,,,,,,
null,"<img src=""stim_listA/hug4.gif""style=""height:400px;""></stim_listA>",,html-keyboard-response,354,2207537,0.0-19.0-1.1,14719,List1A,white,man,,,,null,,,,,,,,,
null,is being hugged by,,html-keyboard-response,355,2209539,0.0-19.0-2.1,14719,List1A,white,man,,,,null,,,,,,,,,
490034.5,,,survey-text,356,2699575,0.0-19.0-3.1,14719,List1A,white,man,,,,,"{""Q0"":""jane is being coping mike""}","<img src=""stim_listA/hug4.gif""style=""height:400px;""></stim_listA>",is being hugged by,,,,,,
null,"<div style=""font-size:60px;"">+</div>",,html-keyboard-response,357,2700076,0.0-19.0-0.2,14719,List1A,white,man,,,,null,,,,,,,,,
null,"<img src=""stim_listA/greet5.gif""style=""height:400px;""></stim_listA>",,html-keyboard-response,358,2702078,0.0-19.0-1.2,14719,List1A,white,man,,,,null,,,,,,,,,
null,is greeting,,html-keyboard-response,359,2704080,0.0-19.0-2.2,14719,List1A,white,man,,,,null,,,,,,,,,
19355.8,,,survey-text,360,2723438,0.0-19.0-3.2,14719,List1A,white,man,,,,,"{""Q0"":""mike is greeting luke ""}","<img src=""stim_listA/greet5.gif""style=""height:400px;""></stim_listA>",is greeting,,,,,,
null,"<div style=""font-size:60px;"">+</div>",,html-keyboard-response,361,2723939,0.0-19.0-0.3,14719,List1A,white,man,,,,null,,,,,,,,,
null,"<img src=""stim_listA/challenge4.gif""style=""height:400px;""></stim_listA>",,html-keyboard-response,362,2725941,0.0-19.0-1.3,14719,List1A,white,man,,,,null,,,,,,,,,
null,is being challenged by,,html-keyboard-response,363,2727943,0.0-19.0-2.3,14719,List1A,white,man,,,,null,,,,,,,,,
37392.7,,,survey-text,364,2765337,0.0-19.0-3.3,14719,List1A,white,man,,,,,"{""Q0"":""jane is being challenging luke ""}","<img src=""stim_listA/challenge4.gif""style=""height:400px;""></stim_listA>",is being challenged by,,,,,,
null,"<div style=""font-size:60px;"">+</div>",,html-keyboard-response,365,2765840,0.0-19.0-0.4,14719,List1A,white,man,,,,null,,,,,,,,,
null,"<img src=""stim_listA/kiss4.gif""style=""height:400px;""></stim_listA>",,html-keyboard-response,366,2767842,0.0-19.0-1.4,14719,List1A,white,man,,,,null,,,,,,,,,
null,is being kissed by,,html-keyboard-response,367,2769844,0.0-19.0-2.4,14719,List1A,white,man,,,,null,,,,,,,,,
21839.8,,,survey-text,368,2791686,0.0-19.0-3.4,14719,List1A,white,man,,,,,"{""Q0"":""Dave is being kissing by jane""}","<img src=""stim_listA/kiss4.gif""style=""height:400px;""></stim_listA>",is being kissed by,,,,,,
null,"<div style=""font-size:60px;"">+</div>",,html-keyboard-response,369,2792189,0.0-19.0-0.5,14719,List1A,white,man,,,,null,,,,,,,,,
null,"<img src=""stim_listA/oppose6.gif""style=""height:400px;""></stim_listA>",,html-keyboard-response,370,2794190,0.0-19.0-1.5,14719,List1A,white,man,,,,null,,,,,,,,,
null,is being opposed by,,html-keyboard-response,371,2796192,0.0-19.0-2.5,14719,List1A,white,man,,,,null,,,,,,,,,
14652.2,,,survey-text,372,2810847,0.0-19.0-3.5,14719,List1A,white,man,,,,,"{""Q0"":""Fred is being opposed by luke""}","<img src=""stim_listA/oppose6.gif""style=""height:400px;""></stim_listA>",is being opposed by,,,,,,
null,"<div style=""font-size:60px;"">+</div>",,html-keyboard-response,373,2811349,0.0-19.0-0.6,14719,List1A,white,man,,,,null,,,,,,,,,
null,"<img src=""stim_listA/challenge8.gif""style=""height:400px;""></stim_listA>",,html-keyboard-response,374,2813351,0.0-19.0-1.6,14719,List1A,white,man,,,,null,,,,,,,,,
null,is being challenged by,,html-keyboard-response,375,2815354,0.0-19.0-2.6,14719,List1A,white,man,,,,null,,,,,,,,,
24586.9,,,survey-text,376,2839943,0.0-19.0-3.6,14719,List1A,white,man,,,,,"{""Q0"":""Jane is being opposing by beth""}","<img src=""stim_listA/challenge8.gif""style=""height:400px;""></stim_listA>",is being challenged by,,,,,,
null,"<div style=""font-size:60px;"">+</div>",,html-keyboard-response,377,2840444,0.0-19.0-0.7,14719,List1A,white,man,,,,null,,,,,,,,,
null,"<img src=""stim_listA/hug1.gif""style=""height:400px;""></stim_listA>",,html-keyboard-response,378,2842446,0.0-19.0-1.7,14719,List1A,white,man,,,,null,,,,,,,,,
null,is hugging,,html-keyboard-response,379,2844447,0.0-19.0-2.7,14719,List1A,white,man,,,,null,,,,,,,,,
30877.4,,,survey-text,380,2875326,0.0-19.0-3.7,14719,List1A,white,man,,,,,"{""Q0"":""Fred is hugging beth""}","<img src=""stim_listA/hug1.gif""style=""height:400px;""></stim_listA>",is hugging,,,,,,
null,"<div style=""font-size:60px;"">+</div>",,html-keyboard-response,381,2875826,0.0-19.0-0.8,14719,List1A,white,man,,,,null,,,,,,,,,
null,"<img src=""stim_listA/oppose5.gif""style=""height:400px;""></stim_listA>",,html-keyboard-response,382,2877828,0.0-19.0-1.8,14719,List1A,white,man,,,,null,,,,,,,,,
null,is opposing,,html-keyboard-response,383,2879829,0.0-19.0-2.8,14719,List1A,white,man,,,,null,,,,,,,,,
10934.7,,,survey-text,384,2890765,0.0-19.0-3.8,14719,List1A,white,man,,,,,"{""Q0"":""Dave is opposing mike""}","<img src=""stim_listA/oppose5.gif""style=""height:400px;""></stim_listA>",is opposing,,,,,,
null,"<div style=""font-size:60px;"">+</div>",,html-keyboard-response,385,2891268,0.0-19.0-0.9,14719,List1A,white,man,,,,null,,,,,,,,,
null,"<img src=""stim_listA/hug6.gif""style=""height:400px;""></stim_listA>",,html-keyboard-response,386,2893270,0.0-19.0-1.9,14719,List1A,white,man,,,,null,,,,,,,,,
null,is being hugged by,,html-keyboard-response,387,2895271,0.0-19.0-2.9,14719,List1A,white,man,,,,null,,,,,,,,,
12548.5,,,survey-text,388,2907821,0.0-19.0-3.9,14719,List1A,white,man,,,,,"{""Q0"":""Dave is being hugged by mike""}","<img src=""stim_listA/hug6.gif""style=""height:400px;""></stim_listA>",is being hugged by,,,,,,
null,"<div style=""font-size:60px;"">+</div>",,html-keyboard-response,389,2908323,0.0-19.0-0.10,14719,List1A,white,man,,,,null,,,,,,,,,
null,"<img src=""stim_listA/challenge2.gif""style=""height:400px;""></stim_listA>",,html-keyboard-response,390,2910325,0.0-19.0-1.10,14719,List1A,white,man,,,,null,,,,,,,,,
null,is being challenged by,,html-keyboard-response,391,2912327,0.0-19.0-2.10,14719,List1A,white,man,,,,null,,,,,,,,,
23860.2,,,survey-text,392,2936190,0.0-19.0-3.10,14719,List1A,white,man,,,,,"{""Q0"":""jane is coping mike""}","<img src=""stim_listA/challenge2.gif""style=""height:400px;""></stim_listA>",is being challenged by,,,,,,
null,"<div style=""font-size:60px;"">+</div>",,html-keyboard-response,393,2936692,0.0-19.0-0.11,14719,List1A,white,man,,,,null,,,,,,,,,
null,"<img src=""stim_listA/shout7.gif""style=""height:400px;""></stim_listA>",,html-keyboard-response,394,2938693,0.0-19.0-1.11,14719,List1A,white,man,,,,null,,,,,,,,,
null,is shouting at,,html-keyboard-response,395,2940695,0.0-19.0-2.11,14719,List1A,white,man,,,,null,,,,,,,,,
18293,,,survey-text,396,2958990,0.0-19.0-3.11,14719,List1A,white,man,,,,,"{""Q0"":""Beth is shouting at ruth""}","<img src=""stim_listA/shout7.gif""style=""height:400px;""></stim_listA>",is shouting at,,,,,,
null,"<div style=""font-size:60px;"">+</div>",,html-keyboard-response,397,2959491,0.0-19.0-0.12,14719,List1A,white,man,,,,null,,,,,,,,,
null,"<img src=""stim_listA/look7.gif""style=""height:400px;""></stim_listA>",,html-keyboard-response,398,2961492,0.0-19.0-1.12,14719,List1A,white,man,,,,null,,,,,,,,,
null,is looking at,,html-keyboard-response,399,2963494,0.0-19.0-2.12,14719,List1A,white,man,,,,null,,,,,,,,,
10517.9,,,survey-text,400,2974014,0.0-19.0-3.12,14719,List1A,white,man,,,,,"{""Q0"":""Beth is looking at ruth""}","<img src=""stim_listA/look7.gif""style=""height:400px;""></stim_listA>",is looking at,,,,,,
null,"<div style=""font-size:60px;"">+</div>",,html-keyboard-response,401,2974515,0.0-19.0-0.13,14719,List1A,white,man,,,,null,,,,,,,,,
null,"<img src=""stim_listA/challenge6.gif""style=""height:400px;""></stim_listA>",,html-keyboard-response,402,2976517,0.0-19.0-1.13,14719,List1A,white,man,,,,null,,,,,,,,,
null,is being challenged by,,html-keyboard-response,403,2978518,0.0-19.0-2.13,14719,List1A,white,man,,,,null,,,,,,,,,
17829.7,,,survey-text,404,2996349,0.0-19.0-3.13,14719,List1A,white,man,,,,,"{""Q0"":""Dave is being challenged by fred ""}","<img src=""stim_listA/challenge6.gif""style=""height:400px;""></stim_listA>",is being challenged by,,,,,,
null,"<div style=""font-size:60px;"">+</div>",,html-keyboard-response,405,2996850,0.0-19.0-0.14,14719,List1A,white,man,,,,null,,,,,,,,,
null,"<img src=""stim_listA/challenge7.gif""style=""height:400px;""></stim_listA>",,html-keyboard-response,406,2998852,0.0-19.0-1.14,14719,List1A,white,man,,,,null,,,,,,,,,
null,is challenging,,html-keyboard-response,407,3000853,0.0-19.0-2.14,14719,List1A,white,man,,,,null,,,,,,,,,
24718.1,,,survey-text,408,3025573,0.0-19.0-3.14,14719,List1A,white,man,,,,,"{""Q0"":""Kate is challenging ruth""}","<img src=""stim_listA/challenge7.gif""style=""height:400px;""></stim_listA>",is challenging,,,,,,
null,"<div style=""font-size:60px;"">+</div>",,html-keyboard-response,409,3026076,0.0-19.0-0.15,14719,List1A,white,man,,,,null,,,,,,,,,
null,"<img src=""stim_listA/hug7.gif""style=""height:400px;""></stim_listA>",,html-keyboard-response,410,3028078,0.0-19.0-1.15,14719,List1A,white,man,,,,null,,,,,,,,,
null,is hugging,,html-keyboard-response,411,3030079,0.0-19.0-2.15,14719,List1A,white,man,,,,null,,,,,,,,,
10027.4,,,survey-text,412,3040109,0.0-19.0-3.15,14719,List1A,white,man,,,,,"{""Q0"":""Beth is hugging ruth""}","<img src=""stim_listA/hug7.gif""style=""height:400px;""></stim_listA>",is hugging,,,,,,
null,"<div style=""font-size:60px;"">+</div>",,html-keyboard-response,413,3040610,0.0-19.0-0.16,14719,List1A,white,man,,,,null,,,,,,,,,
null,"<img src=""stim_listA/seduce8.gif""style=""height:400px;""></stim_listA>",,html-keyboard-response,414,3042612,0.0-19.0-1.16,14719,List1A,white,man,,,,null,,,,,,,,,
null,is being seduced by,,html-keyboard-response,415,3044615,0.0-19.0-2.16,14719,List1A,white,man,,,,null,,,,,,,,,
22012.1,,,survey-text,416,3066629,0.0-19.0-3.16,14719,List1A,white,man,,,,,"{""Q0"":""beth is hugging mike""}","<img src=""stim_listA/seduce8.gif""style=""height:400px;""></stim_listA>",is being seduced by,,,,,,
null,"<div style=""font-size:60px;"">+</div>",,html-keyboard-response,417,3067131,0.0-19.0-0.17,14719,List1A,white,man,,,,null,,,,,,,,,
null,"<img src=""stim_listA/touch7.gif""style=""height:400px;""></stim_listA>",,html-keyboard-response,418,3069133,0.0-19.0-1.17,14719,List1A,white,man,,,,null,,,,,,,,,
null,is touching,,html-keyboard-response,419,3071134,0.0-19.0-2.17,14719,List1A,white,man,,,,null,,,,,,,,,
23212.6,,,survey-text,420,3094348,0.0-19.0-3.17,14719,List1A,white,man,,,,,"{""Q0"":""jane is touching kate""}","<img src=""stim_listA/touch7.gif""style=""height:400px;""></stim_listA>",is touching,,,,,,
null,"<div style=""font-size:60px;"">+</div>",,html-keyboard-response,421,3094849,0.0-19.0-0.18,14719,List1A,white,man,,,,null,,,,,,,,,
null,"<img src=""stim_listA/greet6.gif""style=""height:400px;""></stim_listA>",,html-keyboard-response,422,3096851,0.0-19.0-1.18,14719,List1A,white,man,,,,null,,,,,,,,,
null,is being greeted by,,html-keyboard-response,423,3098852,0.0-19.0-2.18,14719,List1A,white,man,,,,null,,,,,,,,,
24309.9,,,survey-text,424,3123165,0.0-19.0-3.18,14719,List1A,white,man,,,,,"{""Q0"":""dave is being greeted by fred""}","<img src=""stim_listA/greet6.gif""style=""height:400px;""></stim_listA>",is being greeted by,,,,,,
null,"<div style=""font-size:60px;"">+</div>",,html-keyboard-response,425,3123666,0.0-19.0-0.19,14719,List1A,white,man,,,,null,,,,,,,,,
null,"<img src=""stim_listA/greet2.gif""style=""height:400px;""></stim_listA>",,html-keyboard-response,426,3125668,0.0-19.0-1.19,14719,List1A,white,man,,,,null,,,,,,,,,
null,is being greeted by,,html-keyboard-response,427,3127669,0.0-19.0-2.19,14719,List1A,white,man,,,,null,,,,,,,,,
10717.6,,,survey-text,428,3138389,0.0-19.0-3.19,14719,List1A,white,man,,,,,"{""Q0"":""fred is greeted by kate""}","<img src=""stim_listA/greet2.gif""style=""height:400px;""></stim_listA>",is being greeted by,,,,,,
3353.6,<p>Thank you for completing that task.</p><p>The final part of this session is a questionnaire that will take about 4 minutes.</p><p>Press Continue.</p>,0,html-button-response,429,3141743,0.0-20.0,14719,List1A,white,man,,,,,,,,,,,,,
42064.4,,,survey-text,430,3184811,0.0-21.0,14719,List1A,white,man,,,,,"{""Q0"":""38"",""Q1"":""English"",""Q2"":""English"",""Q3"":""USA"",""Q4"":""United states"",""Q5"":""White"",""Q6"":""Male""}",,,demographics,,,,,
2457.7,<p>Have you lived in the USA for the last 5 years or more?</p>,0,html-button-response,431,3187270,0.0-22.0,14719,List1A,white,man,,,,,,,,fiveyears,,,,,
2910.3,<p>Move the slider to show the extent to which you agree with the following statements.</p>,0,html-button-response,432,3191183,0.0-23.0,14719,List1A,white,man,,,,,,,,,,,,,
13505,,,html-slider-response,433,3205706,0.0-24.0-0.0-0.0,14719,List1A,white,man,,,,,,,,survey_gender,81,,,I often think about the fact that I am my gender.,often
6982.1,,,html-slider-response,434,3212690,0.0-24.0-0.0-0.1,14719,List1A,white,man,,,,,,,,survey_gender,2,,,I would say I am an animal person.,filler
4370.3,,,html-slider-response,435,3217062,0.0-24.0-0.0-0.2,14719,List1A,white,man,,,,,,,,survey_gender,45,,,I feel solidarity with my gender.,solidarity
3284.3,,,html-slider-response,436,3220348,0.0-24.0-0.0-0.3,14719,List1A,white,man,,,,,,,,survey_gender,83,,,Being around my friends gives me a good feeling.,filler
3406.6,,,html-slider-response,437,3223756,0.0-24.0-0.0-0.4,14719,List1A,white,man,,,,,,,,survey_gender,100,,,I often think about my actions.,filler
8616.3,,,html-slider-response,438,3232374,0.0-24.0-0.0-0.5,14719,List1A,white,man,,,,,,,,survey_gender,72,,,I am similar to the average person of my gender.,similar
3978.2,,,html-slider-response,439,3236354,0.0-24.0-0.0-0.6,14719,List1A,white,man,,,,,,,,survey_gender,72,,,People of my gender are very similar to each other.,verysimilar
14790.4,,,html-slider-response,440,3251146,0.0-24.0-0.0-0.7,14719,List1A,white,man,,,,,,,,survey_gender,52,,,I am glad to have the friends that I have.,filler
3444.3,,,html-slider-response,441,3254592,0.0-24.0-0.0-0.8,14719,List1A,white,man,,,,,,,,survey_gender,67,,,I am glad to be my gender.,glad
3936.8,,,html-slider-response,442,3258530,0.0-24.0-0.0-0.9,14719,List1A,white,man,,,,,,,,survey_gender,41,,,I consider myself a highly empathetic person.,filler
2468.6,,,html-slider-response,443,3261000,0.0-24.0-0.0-0.10,14719,List1A,white,man,,,,,,,,survey_gender,77,,,I feel solidarity with my friends.,filler
2890.6,,,html-slider-response,444,3263892,0.0-24.0-0.0-0.11,14719,List1A,white,man,,,,,,,,survey_gender,21,,,Routine is not important to me.,filler
2990.5,,,html-slider-response,445,3266884,0.0-24.0-0.0-0.12,14719,List1A,white,man,,,,,,,,survey_gender,89,,,Most of the friends in my life are very similar to me.,filler
2304.7,,,html-slider-response,446,3269190,0.0-24.0-0.0-0.13,14719,List1A,white,man,,,,,,,,survey_gender,80,,,Being my gender is an important part of how I see myself.,important
3912.2,,,html-slider-response,447,3273104,0.0-24.0-0.0-0.14,14719,List1A,white,man,,,,,,,,survey_gender,73,,,I feel a bond with my friends.,filler
2390.4,,,html-slider-response,448,3275496,0.0-24.0-0.0-0.15,14719,List1A,white,man,,,,,,,,survey_gender,70,,,I feel a bond with my gender.,bond
2843.4,,,html-slider-response,449,3278342,0.0-24.0-0.0-0.16,14719,List1A,white,man,,,,,,,,survey_gender,68,,,I think that my gender has a lot to be proud of.,proud
3022.6,,,html-slider-response,450,3281366,0.0-24.0-0.0-0.17,14719,List1A,white,man,,,,,,,,survey_gender,82,,,I feel committed to my gender.,committed
3354.6,,,html-slider-response,451,3284722,0.0-24.0-0.0-0.18,14719,List1A,white,man,,,,,,,,survey_gender,64,,,I have a lot in common with the average person of my gender.,average
15042.7,,,html-slider-response,452,3299766,0.0-24.0-0.0-0.19,14719,List1A,white,man,,,,,,,,survey_gender,49,,,It is pleasant to be my gender.,pleasant
3690.3,,,html-slider-response,453,3303458,0.0-24.0-0.0-0.20,14719,List1A,white,man,,,,,,,,survey_gender,67,,,Being my gender gives me a good feeling.,feeling
2418.7,,,html-slider-response,454,3305878,0.0-24.0-0.0-0.21,14719,List1A,white,man,,,,,,,,survey_gender,34,,,Family is not more important to me than friendship.,filler
2214.4,,,html-slider-response,455,3308094,0.0-24.0-0.0-0.22,14719,List1A,white,man,,,,,,,,survey_gender,78,,,I have a lot in common with my friends.,filler
8724.9,,,html-slider-response,456,3316820,0.0-24.0-0.0-0.23,14719,List1A,white,man,,,,,,,,survey_gender,53,,,My friends have a lot in common with each other.,filler
3312.3,,,html-slider-response,457,3320134,0.0-24.0-0.0-0.24,14719,List1A,white,man,,,,,,,,survey_gender,88,,,My friends understand me.,filler
1944.9,,,html-slider-response,458,3322080,0.0-24.0-0.0-0.25,14719,List1A,white,man,,,,,,,,survey_gender,36,,,It is not always easy for people to know what I am thinking.,filler
1966.9,,,html-slider-response,459,3324048,0.0-24.0-0.0-0.26,14719,List1A,white,man,,,,,,,,survey_gender,70,,,People of my gender have a lot in common with each other.,common
1705,,,html-slider-response,460,3325754,0.0-24.0-0.0-0.27,14719,List1A,white,man,,,,,,,,survey_gender,38,,,The fact that I am my gender is an important part of my identity.,identity
1594.8,,,html-slider-response,461,3327350,0.0-24.0-1.0-0.0,14719,List1A,white,man,,,,,,,,survey_race,61,,,I consider myself an extrovert.,filler
1660.9,,,html-slider-response,462,3329012,0.0-24.0-1.0-0.1,14719,List1A,white,man,,,,,,,,survey_race,65,,,People of my race have a lot in common with each other.,common
1790.9,,,html-slider-response,463,3330804,0.0-24.0-1.0-0.2,14719,List1A,white,man,,,,,,,,survey_race,37,,,I often think about the fact that I am my age.,filler
2706.8,,,html-slider-response,464,3333512,0.0-24.0-1.0-0.3,14719,List1A,white,man,,,,,,,,survey_race,63,,,The fact that I am my race is an important part of my identity.,identity
5024.3,,,html-slider-response,465,3338538,0.0-24.0-1.0-0.4,14719,List1A,white,man,,,,,,,,survey_race,62,,,I am glad to be the age I am.,filler
2988.2,,,html-slider-response,466,3341528,0.0-24.0-1.0-0.5,14719,List1A,white,man,,,,,,,,survey_race,16,,,My age is not an important part of who I am.,filler
2152.2,,,html-slider-response,467,3343682,0.0-24.0-1.0-0.6,14719,List1A,white,man,,,,,,,,survey_race,61,,,People my age have a lot in common with each other.,filler
1762.6,,,html-slider-response,468,3345446,0.0-24.0-1.0-0.7,14719,List1A,white,man,,,,,,,,survey_race,67,,,Being my age gives me a good feeling.,filler
1910.7,,,html-slider-response,469,3347358,0.0-24.0-1.0-0.8,14719,List1A,white,man,,,,,,,,survey_race,36,,,"The older I get, the wiser I feel.",filler
1796.6,,,html-slider-response,470,3349156,0.0-24.0-1.0-0.9,14719,List1A,white,man,,,,,,,,survey_race,61,,,I am glad to be my race.,glad
1934.8,,,html-slider-response,471,3351092,0.0-24.0-1.0-0.10,14719,List1A,white,man,,,,,,,,survey_race,26,,,I feel solidarity with people the same age as me.,filler
1700.9,,,html-slider-response,472,3352794,0.0-24.0-1.0-0.11,14719,List1A,white,man,,,,,,,,survey_race,72,,,I have a lot in common with people of a similar age to me.,filler
2168.9,,,html-slider-response,473,3354964,0.0-24.0-1.0-0.12,14719,List1A,white,man,,,,,,,,survey_race,68,,,I think that my race has a lot to be proud of.,proud
2248,,,html-slider-response,474,3357214,0.0-24.0-1.0-0.13,14719,List1A,white,man,,,,,,,,survey_race,88,,,I feel a bond with people the same age as me.,filler
2386.8,,,html-slider-response,475,3359602,0.0-24.0-1.0-0.14,14719,List1A,white,man,,,,,,,,survey_race,69,,,It is pleasant to be my race.,pleasant
2025,,,html-slider-response,476,3361628,0.0-24.0-1.0-0.15,14719,List1A,white,man,,,,,,,,survey_race,73,,,Being my race is an important part of how I see myself.,important
1636.9,,,html-slider-response,477,3363266,0.0-24.0-1.0-0.16,14719,List1A,white,man,,,,,,,,survey_race,76,,,I feel a bond with my race.,bond
1311,,,html-slider-response,478,3364578,0.0-24.0-1.0-0.17,14719,List1A,white,man,,,,,,,,survey_race,67,,,Getting older does not worry me.,filler
2280.8,,,html-slider-response,479,3366860,0.0-24.0-1.0-0.18,14719,List1A,white,man,,,,,,,,survey_race,23,,,I have a lot in common with the average person of my race.,average
1750.4,,,html-slider-response,480,3368612,0.0-24.0-1.0-0.19,14719,List1A,white,man,,,,,,,,survey_race,67,,,Being my race gives me a good feeling.,feeling
1630.4,,,html-slider-response,481,3370244,0.0-24.0-1.0-0.20,14719,List1A,white,man,,,,,,,,survey_race,39,,,I am glad to be my age.,filler
2125,,,html-slider-response,482,3372370,0.0-24.0-1.0-0.21,14719,List1A,white,man,,,,,,,,survey_race,72,,,I enjoy being in large groups.,filler
3812.8,,,html-slider-response,483,3376184,0.0-24.0-1.0-0.22,14719,List1A,white,man,,,,,,,,survey_race,71,,,I am similar to the average person of my race.,similar
1710.4,,,html-slider-response,484,3377896,0.0-24.0-1.0-0.23,14719,List1A,white,man,,,,,,,,survey_race,26,,,I feel committed to my race.,committed
2012.8,,,html-slider-response,485,3379910,0.0-24.0-1.0-0.24,14719,List1A,white,man,,,,,,,,survey_race,73,,,I often think about the fact that I am my race.,often
3038.5,,,html-slider-response,486,3382950,0.0-24.0-1.0-0.25,14719,List1A,white,man,,,,,,,,survey_race,67,,,I feel solidarity with my race.,solidarity
6798.5,,,html-slider-response,487,3389749,0.0-24.0-1.0-0.26,14719,List1A,white,man,,,,,,,,survey_race,57,,,People of my race are very similar to each other.,verysimilar
3418.5,,,html-slider-response,488,3393170,0.0-24.0-1.0-0.27,14719,List1A,white,man,,,,,,,,survey_race,22,,,I consider myself an introvert.,filler
7107.8,,,survey-text,489,3400280,0.0-25.0,14719,List1A,white,man,,,,,"{""Q0"":""ccc""}",,,worker_id,,,,,
10883.2,,,external-html,490,3412172,0.0-26.0,14719,List1A,white,man,debrief.html,,,,,,,,,,,,
