"rt","stimulus","button_pressed","trial_type","trial_index","time_elapsed","internal_node_id","subject","list","ppt_race","ppt_gender","url","first_guess","correct","key_press","responses","image_type","phrase_type","test_part","response","stimulus1","stimulus2","question_type","survey_item"
"3460.1000003814697","Welcome to the experiment. Press Continue to begin.","0","html-button-response","0","3462","0.0-0.0","14730","List2A","black","woman","","","","","","","","","","","","",""
"158839.59999990463","","","external-html","1","163455","0.0-1.0","14730","List2A","black","woman","consent.html","","","","","","","","","","","",""
"21607.5","<p>On the next page, you will see portraits of 8 people and their names.</p><p>Your first task is to take a few minutes to memorise the names of these people.</p><p>You will have to recall their names during the rest of the experiment, so it is</p><p>essential that you try to memorise these people and their names as best as you can.</p><br><p><strong>You will then be tested on your memory of these names and portraits.</strong></p><br><p>The experiment will start after you have completed this memory test.</p><br><p>Ready?</p>","0","html-button-response","2","185064","0.0-2.0","14730","List2A","black","woman","","","","","","","","","","","","",""
"200299.09999990463","<img src='img/portrait_matrix_list2.jpg' style='width:900px;height:500px;''></img><p>If you have memorised all the portraits and names and are ready to start, press Continue.</p><p><strong>Please note: Your memory of these faces will be tested 4 times during this experiment.</strong></p>","0","html-button-response","3","386378","0.0-3.0-0.0","14730","List2A","black","woman","","","","","","","","","","","","",""
"4589","<img src=""portrait/WW1.jpg""style=""height:400px;""></img>","3","html-button-response","4","391983","0.0-3.0-1.0","14730","List2A","black","woman","","true","1","","","","","","","","","",""
"13313.400000095367","<img src=""portrait/WW1.jpg""style=""height:400px;""></img>","1","html-button-response","5","406306","0.0-3.0-3.0-0.0","14730","List2A","black","woman","","false","1","","","","","","","","","",""
"null","CORRECT","","html-keyboard-response","6","407838","0.0-3.0-3.0-1.0-0.0","14730","List2A","black","woman","","","","null","","","","","","","","",""
"4312.10000038147","<img src=""portrait/WM1.jpg""style=""height:400px;""></img>","6","html-button-response","7","412152","0.0-3.0-4.0","14730","List2A","black","woman","","true","6","","","","","","","","","",""
"null","CORRECT","","html-keyboard-response","8","413670","0.0-3.0-5.0-0.0","14730","List2A","black","woman","","","","null","","","","","","","","",""
"3582","<img src=""portrait/BW2.jpg""style=""height:400px;""></img>","2","html-button-response","9","417254","0.0-3.0-7.0","14730","List2A","black","woman","","true","2","","","","","","","","","",""
"null","CORRECT","","html-keyboard-response","10","418784","0.0-3.0-8.0-0.0","14730","List2A","black","woman","","","","null","","","","","","","","",""
"3484.5","<img src=""portrait/BW1.jpg""style=""height:400px;""></img>","0","html-button-response","11","422270","0.0-3.0-10.0","14730","List2A","black","woman","","true","0","","","","","","","","","",""
"null","CORRECT","","html-keyboard-response","12","423783","0.0-3.0-11.0-0.0","14730","List2A","black","woman","","","","null","","","","","","","","",""
"3901.5","<img src=""portrait/BM1.jpg""style=""height:400px;""></img>","4","html-button-response","13","427686","0.0-3.0-13.0","14730","List2A","black","woman","","true","4","","","","","","","","","",""
"null","CORRECT","","html-keyboard-response","14","429197","0.0-3.0-14.0-0.0","14730","List2A","black","woman","","","","null","","","","","","","","",""
"2273","<img src=""portrait/BM2.jpg""style=""height:400px;""></img>","5","html-button-response","15","431471","0.0-3.0-16.0","14730","List2A","black","woman","","true","5","","","","","","","","","",""
"null","CORRECT","","html-keyboard-response","16","432997","0.0-3.0-17.0-0.0","14730","List2A","black","woman","","","","null","","","","","","","","",""
"1901.4000000953674","<img src=""portrait/WM2.jpg""style=""height:400px;""></img>","7","html-button-response","17","434900","0.0-3.0-19.0","14730","List2A","black","woman","","true","7","","","","","","","","","",""
"null","CORRECT","","html-keyboard-response","18","436413","0.0-3.0-20.0-0.0","14730","List2A","black","woman","","","","null","","","","","","","","",""
"4398.900000095367","<img src=""portrait/WW2.jpg""style=""height:400px;""></img>","3","html-button-response","19","440813","0.0-3.0-22.0","14730","List2A","black","woman","","true","3","","","","","","","","","",""
"null","CORRECT","","html-keyboard-response","20","442327","0.0-3.0-23.0-0.0","14730","List2A","black","woman","","","","null","","","","","","","","",""
"3100.2000002861023","<p>You got 7 out of 8 right first time. Press Continue.</p>","0","html-button-response","21","445429","0.0-3.0-25.0","14730","List2A","black","woman","","","","","","","","","","","","",""
"3432.6000003814697","As you did not score 100%, the memory game will repeat. Press Continue.","0","html-button-response","22","449879","0.0-3.0-26.0-0.0","14730","List2A","black","woman","","","","","","","","","","","","",""
"3954","<img src='img/portrait_matrix_list2.jpg' style='width:900px;height:500px;''></img><p>If you have memorised all the portraits and names and are ready to start, press Continue.</p><p><strong>Please note: Your memory of these faces will be tested 4 times during this experiment.</strong></p>","0","html-button-response","23","454845","0.0-3.1-0.1","14730","List2A","black","woman","","","","","","","","","","","","",""
"2577.199999809265","<img src=""portrait/WW1.jpg""style=""height:400px;""></img>","1","html-button-response","24","458427","0.0-3.1-1.1","14730","List2A","black","woman","","true","1","","","","","","","","","",""
"null","CORRECT","","html-keyboard-response","25","459948","0.0-3.1-2.1-0.1","14730","List2A","black","woman","","","","null","","","","","","","","",""
"2776.699999809265","<img src=""portrait/WM1.jpg""style=""height:400px;""></img>","6","html-button-response","26","462726","0.0-3.1-4.1","14730","List2A","black","woman","","true","6","","","","","","","","","",""
"null","CORRECT","","html-keyboard-response","27","464238","0.0-3.1-5.1-0.1","14730","List2A","black","woman","","","","null","","","","","","","","",""
"2252.9000000953674","<img src=""portrait/BW2.jpg""style=""height:400px;""></img>","2","html-button-response","28","466492","0.0-3.1-7.1","14730","List2A","black","woman","","true","2","","","","","","","","","",""
"null","CORRECT","","html-keyboard-response","29","468021","0.0-3.1-8.1-0.1","14730","List2A","black","woman","","","","null","","","","","","","","",""
"4835.099999904633","<img src=""portrait/BW1.jpg""style=""height:400px;""></img>","0","html-button-response","30","472858","0.0-3.1-10.1","14730","List2A","black","woman","","true","0","","","","","","","","","",""
"null","CORRECT","","html-keyboard-response","31","474382","0.0-3.1-11.1-0.1","14730","List2A","black","woman","","","","null","","","","","","","","",""
"1670.6999998092651","<img src=""portrait/BM1.jpg""style=""height:400px;""></img>","4","html-button-response","32","476054","0.0-3.1-13.1","14730","List2A","black","woman","","true","4","","","","","","","","","",""
"null","CORRECT","","html-keyboard-response","33","477585","0.0-3.1-14.1-0.1","14730","List2A","black","woman","","","","null","","","","","","","","",""
"2001","<img src=""portrait/BM2.jpg""style=""height:400px;""></img>","5","html-button-response","34","479588","0.0-3.1-16.1","14730","List2A","black","woman","","true","5","","","","","","","","","",""
"null","CORRECT","","html-keyboard-response","35","481095","0.0-3.1-17.1-0.1","14730","List2A","black","woman","","","","null","","","","","","","","",""
"2588.5","<img src=""portrait/WM2.jpg""style=""height:400px;""></img>","7","html-button-response","36","483685","0.0-3.1-19.1","14730","List2A","black","woman","","true","7","","","","","","","","","",""
"null","CORRECT","","html-keyboard-response","37","485199","0.0-3.1-20.1-0.1","14730","List2A","black","woman","","","","null","","","","","","","","",""
"4185","<img src=""portrait/WW2.jpg""style=""height:400px;""></img>","3","html-button-response","38","489385","0.0-3.1-22.1","14730","List2A","black","woman","","true","3","","","","","","","","","",""
"null","CORRECT","","html-keyboard-response","39","490915","0.0-3.1-23.1-0.1","14730","List2A","black","woman","","","","null","","","","","","","","",""
"1667.8000001907349","<p>You got 8 out of 8 right first time. Press Continue.</p>","0","html-button-response","40","492584","0.0-3.1-25.1","14730","List2A","black","woman","","","","","","","","","","","","",""
"45162.2999997139","<p>In this experiment, you will view photographs of the people from the memory game interacting.</p><p>By using the <strong>exact</strong> phrase given <i>after</i> the photograph appears and recalling the correct names of the people in the photographs, form a sentence describing the interaction. You do not need to capitalise names.</p><p>Type your answer in the space provided. Please complete every sentence before moving onto the next trial.</p><p>You will only have a few seconds to memorise each given photograph and phrase before you can respond, so try your best to focus.</p><p>An example is given below. Press 'Continue' when you are ready.</p><img src='img/speaking_example.jpg' style='width:800px;height:460px;''></img>","0","html-button-response","41","538751","0.0-4.0","14730","List2A","black","woman","","","","","","","","","","","","",""
"4999.599999904633","<p>Before the experiment starts, you will watch two example trials. Press 'Continue'.</p>","0","html-button-response","42","544766","0.0-5.0","14730","List2A","black","woman","","","","","","","","","","","","",""
"null","<img src='img/play_eg.gif' style='height:400px;''></img>","","html-keyboard-response","43","547782","0.0-6.0","14730","List2A","black","woman","","","","null","","","","","","","","",""
"null","<p>is playing with</p>","","html-keyboard-response","44","549790","0.0-7.0","14730","List2A","black","woman","","","","null","","","","","","","","",""
"9459.199999809265","<p><b>Answer:</b> jane is playing with ruth</p>","0","html-button-response","45","559250","0.0-8.0","14730","List2A","black","woman","","","","","","","","","","","","",""
"null","<img src='img/dance_eg.gif' style='height:400px;''></img>","","html-keyboard-response","46","562277","0.0-9.0","14730","List2A","black","woman","","","","null","","","","","","","","",""
"null","<p>is being entertained by</p>","","html-keyboard-response","47","564290","0.0-10.0","14730","List2A","black","woman","","","","null","","","","","","","","",""
"3853.9000000953674","<p><b>Answer:</b> fred is being entertained by mike</p>","0","html-button-response","48","568145","0.0-11.0","14730","List2A","black","woman","","","","","","","","","","","","",""
"10797.700000286102","<p>Ready to start the experiment?</p><br><p><strong>Remember to describe the picture using a full sentence,</strong></p><p><strong>that combines the names of the people with the <i>exact</i> phrase given.</strong></p><p><strong>To receive full payment you must do this correctly.</strong></p><p><strong> You do not need to capitalise names or use punctuation.</strong></p><br><p>Press 'Continue' to begin.</p>","0","html-button-response","49","579956","0.0-12.0","14730","List2A","black","woman","","","","","","","","","","","","",""
"null","<div style=""font-size:60px;"">+</div>","","html-keyboard-response","50","581473","0.0-13.0-0.0","14730","List2A","black","woman","","","","null","","","","","","","","",""
"null","<img src=""stim_listA/seduce6.gif""style=""height:400px;""></stim_listA>","","html-keyboard-response","51","583492","0.0-13.0-1.0","14730","List2A","black","woman","","","","null","","","","","","","","",""
"null","is being seduced by","","html-keyboard-response","52","585493","0.0-13.0-2.0","14730","List2A","black","woman","","","","null","","","","","","","","",""
"24143.199999809265","","","survey-text","53","609638","0.0-13.0-3.0","14730","List2A","black","woman","","","","","{""Q0"":""Fred + Dave""}","<img src=""stim_listA/seduce6.gif""style=""height:400px;""></stim_listA>","is being seduced by","","","","","",""
"null","<div style=""font-size:60px;"">+</div>","","html-keyboard-response","54","610146","0.0-13.0-0.1","14730","List2A","black","woman","","","","null","","","","","","","","",""
"null","<img src=""stim_listA/greet1.gif""style=""height:400px;""></stim_listA>","","html-keyboard-response","55","612159","0.0-13.0-1.1","14730","List2A","black","woman","","","","null","","","","","","","","",""
"null","is greeting","","html-keyboard-response","56","614165","0.0-13.0-2.1","14730","List2A","black","woman","","","","null","","","","","","","","",""
"24812.400000095367","","","survey-text","57","638980","0.0-13.0-3.1","14730","List2A","black","woman","","","","","{""Q0"":""Dave is greeting Ruth.""}","<img src=""stim_listA/greet1.gif""style=""height:400px;""></stim_listA>","is greeting","","","","","",""
"null","<div style=""font-size:60px;"">+</div>","","html-keyboard-response","58","639493","0.0-13.0-0.2","14730","List2A","black","woman","","","","null","","","","","","","","",""
"null","<img src=""stim_listA/shout1.gif""style=""height:400px;""></stim_listA>","","html-keyboard-response","59","641509","0.0-13.0-1.2","14730","List2A","black","woman","","","","null","","","","","","","","",""
"null","is shouting at","","html-keyboard-response","60","643524","0.0-13.0-2.2","14730","List2A","black","woman","","","","null","","","","","","","","",""
"14648.199999809265","","","survey-text","61","658175","0.0-13.0-3.2","14730","List2A","black","woman","","","","","{""Q0"":""Luke is shouting at Ruth.""}","<img src=""stim_listA/shout1.gif""style=""height:400px;""></stim_listA>","is shouting at","","","","","",""
"null","<div style=""font-size:60px;"">+</div>","","html-keyboard-response","62","658684","0.0-13.0-0.3","14730","List2A","black","woman","","","","null","","","","","","","","",""
"null","<img src=""stim_listA/kiss1.gif""style=""height:400px;""></stim_listA>","","html-keyboard-response","63","660689","0.0-13.0-1.3","14730","List2A","black","woman","","","","null","","","","","","","","",""
"null","is kissing","","html-keyboard-response","64","662705","0.0-13.0-2.3","14730","List2A","black","woman","","","","null","","","","","","","","",""
"10564.5","","","survey-text","65","673271","0.0-13.0-3.3","14730","List2A","black","woman","","","","","{""Q0"":""Luke is kissing Ruth.""}","<img src=""stim_listA/kiss1.gif""style=""height:400px;""></stim_listA>","is kissing","","","","","",""
"null","<div style=""font-size:60px;"">+</div>","","html-keyboard-response","66","673783","0.0-13.0-0.4","14730","List2A","black","woman","","","","null","","","","","","","","",""
"null","<img src=""stim_listA/shout2.gif""style=""height:400px;""></stim_listA>","","html-keyboard-response","67","675799","0.0-13.0-1.4","14730","List2A","black","woman","","","","null","","","","","","","","",""
"null","is being shouted at by","","html-keyboard-response","68","677812","0.0-13.0-2.4","14730","List2A","black","woman","","","","null","","","","","","","","",""
"24033.60000038147","","","survey-text","69","701848","0.0-13.0-3.4","14730","List2A","black","woman","","","","","{""Q0"":""Jane is being shouted at by Dave.""}","<img src=""stim_listA/shout2.gif""style=""height:400px;""></stim_listA>","is being shouted at by","","","","","",""
"null","<div style=""font-size:60px;"">+</div>","","html-keyboard-response","70","702359","0.0-13.0-0.5","14730","List2A","black","woman","","","","null","","","","","","","","",""
"null","<img src=""stim_listA/touch6.gif""style=""height:400px;""></stim_listA>","","html-keyboard-response","71","704361","0.0-13.0-1.5","14730","List2A","black","woman","","","","null","","","","","","","","",""
"null","is being touched by","","html-keyboard-response","72","706376","0.0-13.0-2.5","14730","List2A","black","woman","","","","null","","","","","","","","",""
"18747.300000190735","","","survey-text","73","725124","0.0-13.0-3.5","14730","List2A","black","woman","","","","","{""Q0"":""Fred is being touched by Luke.""}","<img src=""stim_listA/touch6.gif""style=""height:400px;""></stim_listA>","is being touched by","","","","","",""
"null","<div style=""font-size:60px;"">+</div>","","html-keyboard-response","74","725637","0.0-13.0-0.6","14730","List2A","black","woman","","","","null","","","","","","","","",""
"null","<img src=""stim_listA/look6.gif""style=""height:400px;""></stim_listA>","","html-keyboard-response","75","727653","0.0-13.0-1.6","14730","List2A","black","woman","","","","null","","","","","","","","",""
"null","is being looked at by","","html-keyboard-response","76","729660","0.0-13.0-2.6","14730","List2A","black","woman","","","","null","","","","","","","","",""
"12623.800000190735","","","survey-text","77","742285","0.0-13.0-3.6","14730","List2A","black","woman","","","","","{""Q0"":""Mike is being looked at by Dave.""}","<img src=""stim_listA/look6.gif""style=""height:400px;""></stim_listA>","is being looked at by","","","","","",""
"null","<div style=""font-size:60px;"">+</div>","","html-keyboard-response","78","742800","0.0-13.0-0.7","14730","List2A","black","woman","","","","null","","","","","","","","",""
"null","<img src=""stim_listA/shout4.gif""style=""height:400px;""></stim_listA>","","html-keyboard-response","79","744810","0.0-13.0-1.7","14730","List2A","black","woman","","","","null","","","","","","","","",""
"null","is being shouted at by","","html-keyboard-response","80","746815","0.0-13.0-2.7","14730","List2A","black","woman","","","","null","","","","","","","","",""
"10598.799999713898","","","survey-text","81","757416","0.0-13.0-3.7","14730","List2A","black","woman","","","","","{""Q0"":""Kate is being shouted at by Mike.""}","<img src=""stim_listA/shout4.gif""style=""height:400px;""></stim_listA>","is being shouted at by","","","","","",""
"null","<div style=""font-size:60px;"">+</div>","","html-keyboard-response","82","757929","0.0-13.0-0.8","14730","List2A","black","woman","","","","null","","","","","","","","",""
"null","<img src=""stim_listA/seduce4.gif""style=""height:400px;""></stim_listA>","","html-keyboard-response","83","759945","0.0-13.0-1.8","14730","List2A","black","woman","","","","null","","","","","","","","",""
"null","is being seduced by","","html-keyboard-response","84","761962","0.0-13.0-2.8","14730","List2A","black","woman","","","","null","","","","","","","","",""
"27861.699999809265","","","survey-text","85","789825","0.0-13.0-3.8","14730","List2A","black","woman","","","","","{""Q0"":""Beth is ""}","<img src=""stim_listA/seduce4.gif""style=""height:400px;""></stim_listA>","is being seduced by","","","","","",""
"null","<div style=""font-size:60px;"">+</div>","","html-keyboard-response","86","790341","0.0-13.0-0.9","14730","List2A","black","woman","","","","null","","","","","","","","",""
"null","<img src=""stim_listA/seduce1.gif""style=""height:400px;""></stim_listA>","","html-keyboard-response","87","792353","0.0-13.0-1.9","14730","List2A","black","woman","","","","null","","","","","","","","",""
"null","is seducing","","html-keyboard-response","88","794353","0.0-13.0-2.9","14730","List2A","black","woman","","","","null","","","","","","","","",""
"8697.700000286102","","","survey-text","89","803053","0.0-13.0-3.9","14730","List2A","black","woman","","","","","{""Q0"":""Luke is seducing Jane.""}","<img src=""stim_listA/seduce1.gif""style=""height:400px;""></stim_listA>","is seducing","","","","","",""
"null","<div style=""font-size:60px;"">+</div>","","html-keyboard-response","90","803568","0.0-13.0-0.10","14730","List2A","black","woman","","","","null","","","","","","","","",""
"null","<img src=""stim_listA/seduce8.gif""style=""height:400px;""></stim_listA>","","html-keyboard-response","91","805582","0.0-13.0-1.10","14730","List2A","black","woman","","","","null","","","","","","","","",""
"null","is being seduced by","","html-keyboard-response","92","807584","0.0-13.0-2.10","14730","List2A","black","woman","","","","null","","","","","","","","",""
"11231.60000038147","","","survey-text","93","818818","0.0-13.0-3.10","14730","List2A","black","woman","","","","","{""Q0"":""Beth is being seduced by Jane.""}","<img src=""stim_listA/seduce8.gif""style=""height:400px;""></stim_listA>","is being seduced by","","","","","",""
"null","<div style=""font-size:60px;"">+</div>","","html-keyboard-response","94","819327","0.0-13.0-0.11","14730","List2A","black","woman","","","","null","","","","","","","","",""
"null","<img src=""stim_listA/oppose8.gif""style=""height:400px;""></stim_listA>","","html-keyboard-response","95","821335","0.0-13.0-1.11","14730","List2A","black","woman","","","","null","","","","","","","","",""
"null","is being opposed by","","html-keyboard-response","96","823351","0.0-13.0-2.11","14730","List2A","black","woman","","","","null","","","","","","","","",""
"12027.400000095367","","","survey-text","97","835381","0.0-13.0-3.11","14730","List2A","black","woman","","","","","{""Q0"":""Beth is being opposed by Ruth.""}","<img src=""stim_listA/oppose8.gif""style=""height:400px;""></stim_listA>","is being opposed by","","","","","",""
"null","<div style=""font-size:60px;"">+</div>","","html-keyboard-response","98","835891","0.0-13.0-0.12","14730","List2A","black","woman","","","","null","","","","","","","","",""
"null","<img src=""stim_listA/challenge5.gif""style=""height:400px;""></stim_listA>","","html-keyboard-response","99","837897","0.0-13.0-1.12","14730","List2A","black","woman","","","","null","","","","","","","","",""
"null","is challenging","","html-keyboard-response","100","839900","0.0-13.0-2.12","14730","List2A","black","woman","","","","null","","","","","","","","",""
"10806.599999904633","","","survey-text","101","850709","0.0-13.0-3.12","14730","List2A","black","woman","","","","","{""Q0"":""Dave is challenging Fred.""}","<img src=""stim_listA/challenge5.gif""style=""height:400px;""></stim_listA>","is challenging","","","","","",""
"null","<div style=""font-size:60px;"">+</div>","","html-keyboard-response","102","851221","0.0-13.0-0.13","14730","List2A","black","woman","","","","null","","","","","","","","",""
"null","<img src=""stim_listA/greet4.gif""style=""height:400px;""></stim_listA>","","html-keyboard-response","103","853238","0.0-13.0-1.13","14730","List2A","black","woman","","","","null","","","","","","","","",""
"null","is being greeted by","","html-keyboard-response","104","855254","0.0-13.0-2.13","14730","List2A","black","woman","","","","null","","","","","","","","",""
"22646","","","survey-text","105","877901","0.0-13.0-3.13","14730","List2A","black","woman","","","","","{""Q0"":""Kate is being greeted by Fred.""}","<img src=""stim_listA/greet4.gif""style=""height:400px;""></stim_listA>","is being greeted by","","","","","",""
"null","<div style=""font-size:60px;"">+</div>","","html-keyboard-response","106","878413","0.0-13.0-0.14","14730","List2A","black","woman","","","","null","","","","","","","","",""
"null","<img src=""stim_listA/challenge2.gif""style=""height:400px;""></stim_listA>","","html-keyboard-response","107","880418","0.0-13.0-1.14","14730","List2A","black","woman","","","","null","","","","","","","","",""
"null","is being challenged by","","html-keyboard-response","108","882431","0.0-13.0-2.14","14730","List2A","black","woman","","","","null","","","","","","","","",""
"10215.599999904633","","","survey-text","109","892647","0.0-13.0-3.14","14730","List2A","black","woman","","","","","{""Q0"":""Jane is being challenged by Luke.""}","<img src=""stim_listA/challenge2.gif""style=""height:400px;""></stim_listA>","is being challenged by","","","","","",""
"null","<div style=""font-size:60px;"">+</div>","","html-keyboard-response","110","893158","0.0-13.0-0.15","14730","List2A","black","woman","","","","null","","","","","","","","",""
"null","<img src=""stim_listA/oppose4.gif""style=""height:400px;""></stim_listA>","","html-keyboard-response","111","895183","0.0-13.0-1.15","14730","List2A","black","woman","","","","null","","","","","","","","",""
"null","is being opposed by","","html-keyboard-response","112","897191","0.0-13.0-2.15","14730","List2A","black","woman","","","","null","","","","","","","","",""
"18483.199999809265","","","survey-text","113","915676","0.0-13.0-3.15","14730","List2A","black","woman","","","","","{""Q0"":""Beth is being opposed Fred.""}","<img src=""stim_listA/oppose4.gif""style=""height:400px;""></stim_listA>","is being opposed by","","","","","",""
"null","<div style=""font-size:60px;"">+</div>","","html-keyboard-response","114","916181","0.0-13.0-0.16","14730","List2A","black","woman","","","","null","","","","","","","","",""
"null","<img src=""stim_listA/copy8.gif""style=""height:400px;""></stim_listA>","","html-keyboard-response","115","918186","0.0-13.0-1.16","14730","List2A","black","woman","","","","null","","","","","","","","",""
"null","is being copied by","","html-keyboard-response","116","920189","0.0-13.0-2.16","14730","List2A","black","woman","","","","null","","","","","","","","",""
"177586.80000019073","","","survey-text","117","1097777","0.0-13.0-3.16","14730","List2A","black","woman","","","","","{""Q0"":""Ruth is being copied by Kate.""}","<img src=""stim_listA/copy8.gif""style=""height:400px;""></stim_listA>","is being copied by","","","","","",""
"null","<div style=""font-size:60px;"">+</div>","","html-keyboard-response","118","1098287","0.0-13.0-0.17","14730","List2A","black","woman","","","","null","","","","","","","","",""
"null","<img src=""stim_listA/shout7.gif""style=""height:400px;""></stim_listA>","","html-keyboard-response","119","1100290","0.0-13.0-1.17","14730","List2A","black","woman","","","","null","","","","","","","","",""
"null","is shouting at","","html-keyboard-response","120","1102301","0.0-13.0-2.17","14730","List2A","black","woman","","","","null","","","","","","","","",""
"13446.800000190735","","","survey-text","121","1115750","0.0-13.0-3.17","14730","List2A","black","woman","","","","","{""Q0"":""Ruth is shouting at Beth.""}","<img src=""stim_listA/shout7.gif""style=""height:400px;""></stim_listA>","is shouting at","","","","","",""
"null","<div style=""font-size:60px;"">+</div>","","html-keyboard-response","122","1116258","0.0-13.0-0.18","14730","List2A","black","woman","","","","null","","","","","","","","",""
"null","<img src=""stim_listA/kiss7.gif""style=""height:400px;""></stim_listA>","","html-keyboard-response","123","1118264","0.0-13.0-1.18","14730","List2A","black","woman","","","","null","","","","","","","","",""
"null","is kissing","","html-keyboard-response","124","1120266","0.0-13.0-2.18","14730","List2A","black","woman","","","","null","","","","","","","","",""
"8801.099999904633","","","survey-text","125","1129068","0.0-13.0-3.18","14730","List2A","black","woman","","","","","{""Q0"":""Ruth is kissing Beth.""}","<img src=""stim_listA/kiss7.gif""style=""height:400px;""></stim_listA>","is kissing","","","","","",""
"null","<div style=""font-size:60px;"">+</div>","","html-keyboard-response","126","1129580","0.0-13.0-0.19","14730","List2A","black","woman","","","","null","","","","","","","","",""
"null","<img src=""stim_listA/seduce2.gif""style=""height:400px;""></stim_listA>","","html-keyboard-response","127","1131597","0.0-13.0-1.19","14730","List2A","black","woman","","","","null","","","","","","","","",""
"null","is being seduced by","","html-keyboard-response","128","1133602","0.0-13.0-2.19","14730","List2A","black","woman","","","","null","","","","","","","","",""
"11793.900000095367","","","survey-text","129","1145397","0.0-13.0-3.19","14730","List2A","black","woman","","","","","{""Q0"":""Ruth is being seduced by Dave.""}","<img src=""stim_listA/seduce2.gif""style=""height:400px;""></stim_listA>","is being seduced by","","","","","",""
"18776.200000286102","<img src='img/portrait_matrix_list2.jpg' style='width:900px;height:500px;''></img><p>If you have memorised all the portraits and names and are ready to start, press Continue.</p><p><strong>Please note: Your memory of these faces will be tested 4 times during this experiment.</strong></p>","0","html-button-response","130","1164174","0.0-14.0-0.0","14730","List2A","black","woman","","","","","","","","","","","","",""
"2438.9000000953674","<img src=""portrait/BM2.jpg""style=""height:400px;""></img>","5","html-button-response","131","1167625","0.0-14.0-1.0","14730","List2A","black","woman","","true","5","","","","","","","","","",""
"null","CORRECT","","html-keyboard-response","132","1169132","0.0-14.0-2.0-0.0","14730","List2A","black","woman","","","","null","","","","","","","","",""
"2456.7000002861023","<img src=""portrait/BW2.jpg""style=""height:400px;""></img>","2","html-button-response","133","1171590","0.0-14.0-4.0","14730","List2A","black","woman","","true","2","","","","","","","","","",""
"null","CORRECT","","html-keyboard-response","134","1173119","0.0-14.0-5.0-0.0","14730","List2A","black","woman","","","","null","","","","","","","","",""
"3316.800000190735","<img src=""portrait/WW2.jpg""style=""height:400px;""></img>","3","html-button-response","135","1176438","0.0-14.0-7.0","14730","List2A","black","woman","","true","3","","","","","","","","","",""
"null","CORRECT","","html-keyboard-response","136","1177953","0.0-14.0-8.0-0.0","14730","List2A","black","woman","","","","null","","","","","","","","",""
"2933.3999996185303","<img src=""portrait/WW1.jpg""style=""height:400px;""></img>","1","html-button-response","137","1180888","0.0-14.0-10.0","14730","List2A","black","woman","","true","1","","","","","","","","","",""
"null","CORRECT","","html-keyboard-response","138","1182417","0.0-14.0-11.0-0.0","14730","List2A","black","woman","","","","null","","","","","","","","",""
"4050.0999999046326","<img src=""portrait/BM1.jpg""style=""height:400px;""></img>","4","html-button-response","139","1186469","0.0-14.0-13.0","14730","List2A","black","woman","","true","4","","","","","","","","","",""
"null","CORRECT","","html-keyboard-response","140","1187999","0.0-14.0-14.0-0.0","14730","List2A","black","woman","","","","null","","","","","","","","",""
"2233.5999999046326","<img src=""portrait/WM2.jpg""style=""height:400px;""></img>","7","html-button-response","141","1190234","0.0-14.0-16.0","14730","List2A","black","woman","","true","7","","","","","","","","","",""
"null","CORRECT","","html-keyboard-response","142","1191765","0.0-14.0-17.0-0.0","14730","List2A","black","woman","","","","null","","","","","","","","",""
"4100.099999904633","<img src=""portrait/BW1.jpg""style=""height:400px;""></img>","0","html-button-response","143","1195866","0.0-14.0-19.0","14730","List2A","black","woman","","true","0","","","","","","","","","",""
"null","CORRECT","","html-keyboard-response","144","1197381","0.0-14.0-20.0-0.0","14730","List2A","black","woman","","","","null","","","","","","","","",""
"2399.7000002861023","<img src=""portrait/WM1.jpg""style=""height:400px;""></img>","6","html-button-response","145","1199782","0.0-14.0-22.0","14730","List2A","black","woman","","true","6","","","","","","","","","",""
"null","CORRECT","","html-keyboard-response","146","1201313","0.0-14.0-23.0-0.0","14730","List2A","black","woman","","","","null","","","","","","","","",""
"2566.9000000953674","<p>You got 8 out of 8 right first time. Press Continue.</p>","0","html-button-response","147","1203881","0.0-14.0-25.0","14730","List2A","black","woman","","","","","","","","","","","","",""
"null","<div style=""font-size:60px;"">+</div>","","html-keyboard-response","148","1205411","0.0-15.0-0.0","14730","List2A","black","woman","","","","null","","","","","","","","",""
"null","<img src=""stim_listA/hug6.gif""style=""height:400px;""></stim_listA>","","html-keyboard-response","149","1207427","0.0-15.0-1.0","14730","List2A","black","woman","","","","null","","","","","","","","",""
"null","is being hugged by","","html-keyboard-response","150","1209441","0.0-15.0-2.0","14730","List2A","black","woman","","","","null","","","","","","","","",""
"16133.599999904633","","","survey-text","151","1225577","0.0-15.0-3.0","14730","List2A","black","woman","","","","","{""Q0"":""Mike is being hugged by Dave.""}","<img src=""stim_listA/hug6.gif""style=""height:400px;""></stim_listA>","is being hugged by","","","","","",""
"null","<div style=""font-size:60px;"">+</div>","","html-keyboard-response","152","1226088","0.0-15.0-0.1","14730","List2A","black","woman","","","","null","","","","","","","","",""
"null","<img src=""stim_listA/challenge4.gif""style=""height:400px;""></stim_listA>","","html-keyboard-response","153","1228102","0.0-15.0-1.1","14730","List2A","black","woman","","","","null","","","","","","","","",""
"null","is being challenged by","","html-keyboard-response","154","1230106","0.0-15.0-2.1","14730","List2A","black","woman","","","","null","","","","","","","","",""
"11613.400000095367","","","survey-text","155","1241721","0.0-15.0-3.1","14730","List2A","black","woman","","","","","{""Q0"":""Kate is being challenged by Fred.""}","<img src=""stim_listA/challenge4.gif""style=""height:400px;""></stim_listA>","is being challenged by","","","","","",""
"null","<div style=""font-size:60px;"">+</div>","","html-keyboard-response","156","1242235","0.0-15.0-0.2","14730","List2A","black","woman","","","","null","","","","","","","","",""
"null","<img src=""stim_listA/hug5.gif""style=""height:400px;""></stim_listA>","","html-keyboard-response","157","1244251","0.0-15.0-1.2","14730","List2A","black","woman","","","","null","","","","","","","","",""
"null","is hugging","","html-keyboard-response","158","1246258","0.0-15.0-2.2","14730","List2A","black","woman","","","","null","","","","","","","","",""
"8641.900000095367","","","survey-text","159","1254901","0.0-15.0-3.2","14730","List2A","black","woman","","","","","{""Q0"":""Luke is hugging Fred.""}","<img src=""stim_listA/hug5.gif""style=""height:400px;""></stim_listA>","is hugging","","","","","",""
"null","<div style=""font-size:60px;"">+</div>","","html-keyboard-response","160","1255415","0.0-15.0-0.3","14730","List2A","black","woman","","","","null","","","","","","","","",""
"null","<img src=""stim_listA/look7.gif""style=""height:400px;""></stim_listA>","","html-keyboard-response","161","1257425","0.0-15.0-1.3","14730","List2A","black","woman","","","","null","","","","","","","","",""
"null","is looking at","","html-keyboard-response","162","1259430","0.0-15.0-2.3","14730","List2A","black","woman","","","","null","","","","","","","","",""
"10068.799999713898","","","survey-text","163","1269501","0.0-15.0-3.3","14730","List2A","black","woman","","","","","{""Q0"":""Beth is looking at Ruth.""}","<img src=""stim_listA/look7.gif""style=""height:400px;""></stim_listA>","is looking at","","","","","",""
"null","<div style=""font-size:60px;"">+</div>","","html-keyboard-response","164","1270003","0.0-15.0-0.4","14730","List2A","black","woman","","","","null","","","","","","","","",""
"null","<img src=""stim_listA/shout8.gif""style=""height:400px;""></stim_listA>","","html-keyboard-response","165","1272009","0.0-15.0-1.4","14730","List2A","black","woman","","","","null","","","","","","","","",""
"null","is being shouted at by","","html-keyboard-response","166","1274011","0.0-15.0-2.4","14730","List2A","black","woman","","","","null","","","","","","","","",""
"14414.900000095367","","","survey-text","167","1288427","0.0-15.0-3.4","14730","List2A","black","woman","","","","","{""Q0"":""Kate is being shouted at by Jane.""}","<img src=""stim_listA/shout8.gif""style=""height:400px;""></stim_listA>","is being shouted at by","","","","","",""
"null","<div style=""font-size:60px;"">+</div>","","html-keyboard-response","168","1288931","0.0-15.0-0.5","14730","List2A","black","woman","","","","null","","","","","","","","",""
"null","<img src=""stim_listA/hug2.gif""style=""height:400px;""></stim_listA>","","html-keyboard-response","169","1290936","0.0-15.0-1.5","14730","List2A","black","woman","","","","null","","","","","","","","",""
"null","is being hugged by","","html-keyboard-response","170","1292940","0.0-15.0-2.5","14730","List2A","black","woman","","","","null","","","","","","","","",""
"9798.099999904633","","","survey-text","171","1302739","0.0-15.0-3.5","14730","List2A","black","woman","","","","","{""Q0"":""Kate is being hugged by Dave.""}","<img src=""stim_listA/hug2.gif""style=""height:400px;""></stim_listA>","is being hugged by","","","","","",""
"null","<div style=""font-size:60px;"">+</div>","","html-keyboard-response","172","1303242","0.0-15.0-0.6","14730","List2A","black","woman","","","","null","","","","","","","","",""
"null","<img src=""stim_listA/greet5.gif""style=""height:400px;""></stim_listA>","","html-keyboard-response","173","1305254","0.0-15.0-1.6","14730","List2A","black","woman","","","","null","","","","","","","","",""
"null","is greeting","","html-keyboard-response","174","1307267","0.0-15.0-2.6","14730","List2A","black","woman","","","","null","","","","","","","","",""
"8347.800000190735","","","survey-text","175","1315616","0.0-15.0-3.6","14730","List2A","black","woman","","","","","{""Q0"":""Dave is greeting Fred.""}","<img src=""stim_listA/greet5.gif""style=""height:400px;""></stim_listA>","is greeting","","","","","",""
"null","<div style=""font-size:60px;"">+</div>","","html-keyboard-response","176","1316132","0.0-15.0-0.7","14730","List2A","black","woman","","","","null","","","","","","","","",""
"null","<img src=""stim_listA/kiss3.gif""style=""height:400px;""></stim_listA>","","html-keyboard-response","177","1318150","0.0-15.0-1.7","14730","List2A","black","woman","","","","null","","","","","","","","",""
"null","is kissing","","html-keyboard-response","178","1320154","0.0-15.0-2.7","14730","List2A","black","woman","","","","null","","","","","","","","",""
"9109.400000095367","","","survey-text","179","1329266","0.0-15.0-3.7","14730","List2A","black","woman","","","","","{""Q0"":""Beth is kissing Fred.""}","<img src=""stim_listA/kiss3.gif""style=""height:400px;""></stim_listA>","is kissing","","","","","",""
"null","<div style=""font-size:60px;"">+</div>","","html-keyboard-response","180","1329780","0.0-15.0-0.8","14730","List2A","black","woman","","","","null","","","","","","","","",""
"null","<img src=""stim_listA/oppose1.gif""style=""height:400px;""></stim_listA>","","html-keyboard-response","181","1331796","0.0-15.0-1.8","14730","List2A","black","woman","","","","null","","","","","","","","",""
"null","is opposing","","html-keyboard-response","182","1333805","0.0-15.0-2.8","14730","List2A","black","woman","","","","null","","","","","","","","",""
"31150.10000038147","","","survey-text","183","1364957","0.0-15.0-3.8","14730","List2A","black","woman","","","","","{""Q0"":""Dave is challenging Jane.""}","<img src=""stim_listA/oppose1.gif""style=""height:400px;""></stim_listA>","is opposing","","","","","",""
"null","<div style=""font-size:60px;"">+</div>","","html-keyboard-response","184","1365469","0.0-15.0-0.9","14730","List2A","black","woman","","","","null","","","","","","","","",""
"null","<img src=""stim_listA/shout6.gif""style=""height:400px;""></stim_listA>","","html-keyboard-response","185","1367481","0.0-15.0-1.9","14730","List2A","black","woman","","","","null","","","","","","","","",""
"null","is being shouted at by","","html-keyboard-response","186","1369486","0.0-15.0-2.9","14730","List2A","black","woman","","","","null","","","","","","","","",""
"10780.900000095367","","","survey-text","187","1380268","0.0-15.0-3.9","14730","List2A","black","woman","","","","","{""Q0"":""Dave is being shouted at by Mike.""}","<img src=""stim_listA/shout6.gif""style=""height:400px;""></stim_listA>","is being shouted at by","","","","","",""
"null","<div style=""font-size:60px;"">+</div>","","html-keyboard-response","188","1380781","0.0-15.0-0.10","14730","List2A","black","woman","","","","null","","","","","","","","",""
"null","<img src=""stim_listA/look3.gif""style=""height:400px;""></stim_listA>","","html-keyboard-response","189","1382784","0.0-15.0-1.10","14730","List2A","black","woman","","","","null","","","","","","","","",""
"null","is looking at","","html-keyboard-response","190","1384794","0.0-15.0-2.10","14730","List2A","black","woman","","","","null","","","","","","","","",""
"8604.900000095367","","","survey-text","191","1393400","0.0-15.0-3.10","14730","List2A","black","woman","","","","","{""Q0"":""Fred is looking at Beth.""}","<img src=""stim_listA/look3.gif""style=""height:400px;""></stim_listA>","is looking at","","","","","",""
"null","<div style=""font-size:60px;"">+</div>","","html-keyboard-response","192","1393911","0.0-15.0-0.11","14730","List2A","black","woman","","","","null","","","","","","","","",""
"null","<img src=""stim_listA/copy5.gif""style=""height:400px;""></stim_listA>","","html-keyboard-response","193","1395914","0.0-15.0-1.11","14730","List2A","black","woman","","","","null","","","","","","","","",""
"null","is copying","","html-keyboard-response","194","1397917","0.0-15.0-2.11","14730","List2A","black","woman","","","","null","","","","","","","","",""
"10978.199999809265","","","survey-text","195","1408896","0.0-15.0-3.11","14730","List2A","black","woman","","","","","{""Q0"":""Dave is copying Fred.""}","<img src=""stim_listA/copy5.gif""style=""height:400px;""></stim_listA>","is copying","","","","","",""
"null","<div style=""font-size:60px;"">+</div>","","html-keyboard-response","196","1409407","0.0-15.0-0.12","14730","List2A","black","woman","","","","null","","","","","","","","",""
"null","<img src=""stim_listA/hug3.gif""style=""height:400px;""></stim_listA>","","html-keyboard-response","197","1411410","0.0-15.0-1.12","14730","List2A","black","woman","","","","null","","","","","","","","",""
"null","is hugging","","html-keyboard-response","198","1413423","0.0-15.0-2.12","14730","List2A","black","woman","","","","null","","","","","","","","",""
"7176.5","","","survey-text","199","1420601","0.0-15.0-3.12","14730","List2A","black","woman","","","","","{""Q0"":""Beth is hugging Fred.""}","<img src=""stim_listA/hug3.gif""style=""height:400px;""></stim_listA>","is hugging","","","","","",""
"null","<div style=""font-size:60px;"">+</div>","","html-keyboard-response","200","1421106","0.0-15.0-0.13","14730","List2A","black","woman","","","","null","","","","","","","","",""
"null","<img src=""stim_listA/challenge7.gif""style=""height:400px;""></stim_listA>","","html-keyboard-response","201","1423122","0.0-15.0-1.13","14730","List2A","black","woman","","","","null","","","","","","","","",""
"null","is challenging","","html-keyboard-response","202","1425135","0.0-15.0-2.13","14730","List2A","black","woman","","","","null","","","","","","","","",""
"8021.700000286102","","","survey-text","203","1433157","0.0-15.0-3.13","14730","List2A","black","woman","","","","","{""Q0"":""Jane is challenging Beth.""}","<img src=""stim_listA/challenge7.gif""style=""height:400px;""></stim_listA>","is challenging","","","","","",""
"null","<div style=""font-size:60px;"">+</div>","","html-keyboard-response","204","1433670","0.0-15.0-0.14","14730","List2A","black","woman","","","","null","","","","","","","","",""
"null","<img src=""stim_listA/greet3.gif""style=""height:400px;""></stim_listA>","","html-keyboard-response","205","1435683","0.0-15.0-1.14","14730","List2A","black","woman","","","","null","","","","","","","","",""
"null","is greeting","","html-keyboard-response","206","1437685","0.0-15.0-2.14","14730","List2A","black","woman","","","","null","","","","","","","","",""
"9081.900000095367","","","survey-text","207","1446768","0.0-15.0-3.14","14730","List2A","black","woman","","","","","{""Q0"":""Mike is greeting Beth.""}","<img src=""stim_listA/greet3.gif""style=""height:400px;""></stim_listA>","is greeting","","","","","",""
"null","<div style=""font-size:60px;"">+</div>","","html-keyboard-response","208","1447283","0.0-15.0-0.15","14730","List2A","black","woman","","","","null","","","","","","","","",""
"null","<img src=""stim_listA/look2.gif""style=""height:400px;""></stim_listA>","","html-keyboard-response","209","1449286","0.0-15.0-1.15","14730","List2A","black","woman","","","","null","","","","","","","","",""
"null","is being looked at by","","html-keyboard-response","210","1451301","0.0-15.0-2.15","14730","List2A","black","woman","","","","null","","","","","","","","",""
"10146.300000190735","","","survey-text","211","1461449","0.0-15.0-3.15","14730","List2A","black","woman","","","","","{""Q0"":""Jane is being looked at by Mike.""}","<img src=""stim_listA/look2.gif""style=""height:400px;""></stim_listA>","is being looked at by","","","","","",""
"null","<div style=""font-size:60px;"">+</div>","","html-keyboard-response","212","1461961","0.0-15.0-0.16","14730","List2A","black","woman","","","","null","","","","","","","","",""
"null","<img src=""stim_listA/shout3.gif""style=""height:400px;""></stim_listA>","","html-keyboard-response","213","1463965","0.0-15.0-1.16","14730","List2A","black","woman","","","","null","","","","","","","","",""
"null","is shouting at","","html-keyboard-response","214","1465967","0.0-15.0-2.16","14730","List2A","black","woman","","","","null","","","","","","","","",""
"8860.800000190735","","","survey-text","215","1474829","0.0-15.0-3.16","14730","List2A","black","woman","","","","","{""Q0"":""Beth is shouting at Fred.""}","<img src=""stim_listA/shout3.gif""style=""height:400px;""></stim_listA>","is shouting at","","","","","",""
"null","<div style=""font-size:60px;"">+</div>","","html-keyboard-response","216","1475333","0.0-15.0-0.17","14730","List2A","black","woman","","","","null","","","","","","","","",""
"null","<img src=""stim_listA/copy2.gif""style=""height:400px;""></stim_listA>","","html-keyboard-response","217","1477341","0.0-15.0-1.17","14730","List2A","black","woman","","","","null","","","","","","","","",""
"null","is being copied by","","html-keyboard-response","218","1479350","0.0-15.0-2.17","14730","List2A","black","woman","","","","null","","","","","","","","",""
"11605.699999809265","","","survey-text","219","1490958","0.0-15.0-3.17","14730","List2A","black","woman","","","","","{""Q0"":""Luke is being copied by Jane.""}","<img src=""stim_listA/copy2.gif""style=""height:400px;""></stim_listA>","is being copied by","","","","","",""
"null","<div style=""font-size:60px;"">+</div>","","html-keyboard-response","220","1491470","0.0-15.0-0.18","14730","List2A","black","woman","","","","null","","","","","","","","",""
"null","<img src=""stim_listA/kiss4.gif""style=""height:400px;""></stim_listA>","","html-keyboard-response","221","1493472","0.0-15.0-1.18","14730","List2A","black","woman","","","","null","","","","","","","","",""
"null","is being kissed by","","html-keyboard-response","222","1495485","0.0-15.0-2.18","14730","List2A","black","woman","","","","null","","","","","","","","",""
"12941.099999904633","","","survey-text","223","1508428","0.0-15.0-3.18","14730","List2A","black","woman","","","","","{""Q0"":""Kate is being kissed by Mike.""}","<img src=""stim_listA/kiss4.gif""style=""height:400px;""></stim_listA>","is being kissed by","","","","","",""
"null","<div style=""font-size:60px;"">+</div>","","html-keyboard-response","224","1508944","0.0-15.0-0.19","14730","List2A","black","woman","","","","null","","","","","","","","",""
"null","<img src=""stim_listA/copy7.gif""style=""height:400px;""></stim_listA>","","html-keyboard-response","225","1510949","0.0-15.0-1.19","14730","List2A","black","woman","","","","null","","","","","","","","",""
"null","is copying","","html-keyboard-response","226","1512965","0.0-15.0-2.19","14730","List2A","black","woman","","","","null","","","","","","","","",""
"7123.900000095367","","","survey-text","227","1520090","0.0-15.0-3.19","14730","List2A","black","woman","","","","","{""Q0"":""Jane is copying Beth.""}","<img src=""stim_listA/copy7.gif""style=""height:400px;""></stim_listA>","is copying","","","","","",""
"8022.200000286102","<img src='img/portrait_matrix_list2.jpg' style='width:900px;height:500px;''></img><p>If you have memorised all the portraits and names and are ready to start, press Continue.</p><p><strong>Please note: Your memory of these faces will be tested 4 times during this experiment.</strong></p>","0","html-button-response","228","1528113","0.0-16.0-0.0","14730","List2A","black","woman","","","","","","","","","","","","",""
"2733.2999997138977","<img src=""portrait/BW2.jpg""style=""height:400px;""></img>","2","html-button-response","229","1531862","0.0-16.0-1.0","14730","List2A","black","woman","","true","2","","","","","","","","","",""
"null","CORRECT","","html-keyboard-response","230","1533393","0.0-16.0-2.0-0.0","14730","List2A","black","woman","","","","null","","","","","","","","",""
"2662.699999809265","<img src=""portrait/WM2.jpg""style=""height:400px;""></img>","7","html-button-response","231","1536057","0.0-16.0-4.0","14730","List2A","black","woman","","true","7","","","","","","","","","",""
"null","CORRECT","","html-keyboard-response","232","1537575","0.0-16.0-5.0-0.0","14730","List2A","black","woman","","","","null","","","","","","","","",""
"2282.7999997138977","<img src=""portrait/BM1.jpg""style=""height:400px;""></img>","4","html-button-response","233","1539859","0.0-16.0-7.0","14730","List2A","black","woman","","true","4","","","","","","","","","",""
"null","CORRECT","","html-keyboard-response","234","1541375","0.0-16.0-8.0-0.0","14730","List2A","black","woman","","","","null","","","","","","","","",""
"3333.2999997138977","<img src=""portrait/BM2.jpg""style=""height:400px;""></img>","5","html-button-response","235","1544710","0.0-16.0-10.0","14730","List2A","black","woman","","true","5","","","","","","","","","",""
"null","CORRECT","","html-keyboard-response","236","1546235","0.0-16.0-11.0-0.0","14730","List2A","black","woman","","","","null","","","","","","","","",""
"2355.0999999046326","<img src=""portrait/WW1.jpg""style=""height:400px;""></img>","1","html-button-response","237","1548591","0.0-16.0-13.0","14730","List2A","black","woman","","true","1","","","","","","","","","",""
"null","CORRECT","","html-keyboard-response","238","1550105","0.0-16.0-14.0-0.0","14730","List2A","black","woman","","","","null","","","","","","","","",""
"2649.0999999046326","<img src=""portrait/BW1.jpg""style=""height:400px;""></img>","0","html-button-response","239","1552757","0.0-16.0-16.0","14730","List2A","black","woman","","true","0","","","","","","","","","",""
"null","CORRECT","","html-keyboard-response","240","1554269","0.0-16.0-17.0-0.0","14730","List2A","black","woman","","","","null","","","","","","","","",""
"2463","<img src=""portrait/WM1.jpg""style=""height:400px;""></img>","5","html-button-response","241","1556734","0.0-16.0-19.0","14730","List2A","black","woman","","true","6","","","","","","","","","",""
"3658.2999997138977","<img src=""portrait/WM1.jpg""style=""height:400px;""></img>","6","html-button-response","242","1561404","0.0-16.0-21.0-0.0","14730","List2A","black","woman","","false","6","","","","","","","","","",""
"null","CORRECT","","html-keyboard-response","243","1562918","0.0-16.0-21.0-1.0-0.0","14730","List2A","black","woman","","","","null","","","","","","","","",""
"3684.0999999046326","<img src=""portrait/WW2.jpg""style=""height:400px;""></img>","3","html-button-response","244","1566604","0.0-16.0-22.0","14730","List2A","black","woman","","true","3","","","","","","","","","",""
"null","CORRECT","","html-keyboard-response","245","1568133","0.0-16.0-23.0-0.0","14730","List2A","black","woman","","","","null","","","","","","","","",""
"2717.3999996185303","<p>You got 7 out of 8 right first time. Press Continue.</p>","0","html-button-response","246","1570852","0.0-16.0-25.0","14730","List2A","black","woman","","","","","","","","","","","","",""
"2002.3000001907349","As you did not score 100%, the memory game will repeat. Press Continue.","0","html-button-response","247","1573869","0.0-16.0-26.0-0.0","14730","List2A","black","woman","","","","","","","","","","","","",""
"3517.9000000953674","<img src='img/portrait_matrix_list2.jpg' style='width:900px;height:500px;''></img><p>If you have memorised all the portraits and names and are ready to start, press Continue.</p><p><strong>Please note: Your memory of these faces will be tested 4 times during this experiment.</strong></p>","0","html-button-response","248","1578400","0.0-16.1-0.1","14730","List2A","black","woman","","","","","","","","","","","","",""
"3082.4000000953674","<img src=""portrait/BW2.jpg""style=""height:400px;""></img>","2","html-button-response","249","1582499","0.0-16.1-1.1","14730","List2A","black","woman","","true","2","","","","","","","","","",""
"null","CORRECT","","html-keyboard-response","250","1584027","0.0-16.1-2.1-0.1","14730","List2A","black","woman","","","","null","","","","","","","","",""
"3435.5","<img src=""portrait/WM2.jpg""style=""height:400px;""></img>","7","html-button-response","251","1587464","0.0-16.1-4.1","14730","List2A","black","woman","","true","7","","","","","","","","","",""
"null","CORRECT","","html-keyboard-response","252","1588995","0.0-16.1-5.1-0.1","14730","List2A","black","woman","","","","null","","","","","","","","",""
"2383.7999997138977","<img src=""portrait/BM1.jpg""style=""height:400px;""></img>","4","html-button-response","253","1591380","0.0-16.1-7.1","14730","List2A","black","woman","","true","4","","","","","","","","","",""
"null","CORRECT","","html-keyboard-response","254","1592893","0.0-16.1-8.1-0.1","14730","List2A","black","woman","","","","null","","","","","","","","",""
"1834.5","<img src=""portrait/BM2.jpg""style=""height:400px;""></img>","5","html-button-response","255","1594729","0.0-16.1-10.1","14730","List2A","black","woman","","true","5","","","","","","","","","",""
"null","CORRECT","","html-keyboard-response","256","1596241","0.0-16.1-11.1-0.1","14730","List2A","black","woman","","","","null","","","","","","","","",""
"2270.4000000953674","<img src=""portrait/WW1.jpg""style=""height:400px;""></img>","1","html-button-response","257","1598512","0.0-16.1-13.1","14730","List2A","black","woman","","true","1","","","","","","","","","",""
"null","CORRECT","","html-keyboard-response","258","1600037","0.0-16.1-14.1-0.1","14730","List2A","black","woman","","","","null","","","","","","","","",""
"41895.09999990463","<img src=""portrait/BW1.jpg""style=""height:400px;""></img>","0","html-button-response","259","1641933","0.0-16.1-16.1","14730","List2A","black","woman","","true","0","","","","","","","","","",""
"null","CORRECT","","html-keyboard-response","260","1643463","0.0-16.1-17.1-0.1","14730","List2A","black","woman","","","","null","","","","","","","","",""
"2267.7999997138977","<img src=""portrait/WM1.jpg""style=""height:400px;""></img>","6","html-button-response","261","1645732","0.0-16.1-19.1","14730","List2A","black","woman","","true","6","","","","","","","","","",""
"null","CORRECT","","html-keyboard-response","262","1647248","0.0-16.1-20.1-0.1","14730","List2A","black","woman","","","","null","","","","","","","","",""
"2051.0999999046326","<img src=""portrait/WW2.jpg""style=""height:400px;""></img>","3","html-button-response","263","1649300","0.0-16.1-22.1","14730","List2A","black","woman","","true","3","","","","","","","","","",""
"null","CORRECT","","html-keyboard-response","264","1650828","0.0-16.1-23.1-0.1","14730","List2A","black","woman","","","","null","","","","","","","","",""
"1736.3000001907349","<p>You got 8 out of 8 right first time. Press Continue.</p>","0","html-button-response","265","1652566","0.0-16.1-25.1","14730","List2A","black","woman","","","","","","","","","","","","",""
"null","<div style=""font-size:60px;"">+</div>","","html-keyboard-response","266","1654094","0.0-17.0-0.0","14730","List2A","black","woman","","","","null","","","","","","","","",""
"null","<img src=""stim_listA/oppose3.gif""style=""height:400px;""></stim_listA>","","html-keyboard-response","267","1656103","0.0-17.0-1.0","14730","List2A","black","woman","","","","null","","","","","","","","",""
"null","is opposing","","html-keyboard-response","268","1658119","0.0-17.0-2.0","14730","List2A","black","woman","","","","null","","","","","","","","",""
"11508.300000190735","","","survey-text","269","1669629","0.0-17.0-3.0","14730","List2A","black","woman","","","","","{""Q0"":""Mike is opposing Kate.""}","<img src=""stim_listA/oppose3.gif""style=""height:400px;""></stim_listA>","is opposing","","","","","",""
"null","<div style=""font-size:60px;"">+</div>","","html-keyboard-response","270","1670138","0.0-17.0-0.1","14730","List2A","black","woman","","","","null","","","","","","","","",""
"null","<img src=""stim_listA/oppose6.gif""style=""height:400px;""></stim_listA>","","html-keyboard-response","271","1672140","0.0-17.0-1.1","14730","List2A","black","woman","","","","null","","","","","","","","",""
"null","is being opposed by","","html-keyboard-response","272","1674156","0.0-17.0-2.1","14730","List2A","black","woman","","","","null","","","","","","","","",""
"10667.299999713898","","","survey-text","273","1684825","0.0-17.0-3.1","14730","List2A","black","woman","","","","","{""Q0"":""Luke is being opposed by Fred.""}","<img src=""stim_listA/oppose6.gif""style=""height:400px;""></stim_listA>","is being opposed by","","","","","",""
"null","<div style=""font-size:60px;"">+</div>","","html-keyboard-response","274","1685332","0.0-17.0-0.2","14730","List2A","black","woman","","","","null","","","","","","","","",""
"null","<img src=""stim_listA/touch8.gif""style=""height:400px;""></stim_listA>","","html-keyboard-response","275","1687336","0.0-17.0-1.2","14730","List2A","black","woman","","","","null","","","","","","","","",""
"null","is being touched by","","html-keyboard-response","276","1689348","0.0-17.0-2.2","14730","List2A","black","woman","","","","null","","","","","","","","",""
"20782.299999713898","","","survey-text","277","1710132","0.0-17.0-3.2","14730","List2A","black","woman","","","","","{""Q0"":""Ruth is being touched by Beth.""}","<img src=""stim_listA/touch8.gif""style=""height:400px;""></stim_listA>","is being touched by","","","","","",""
"null","<div style=""font-size:60px;"">+</div>","","html-keyboard-response","278","1710646","0.0-17.0-0.3","14730","List2A","black","woman","","","","null","","","","","","","","",""
"null","<img src=""stim_listA/shout5.gif""style=""height:400px;""></stim_listA>","","html-keyboard-response","279","1712648","0.0-17.0-1.3","14730","List2A","black","woman","","","","null","","","","","","","","",""
"null","is shouting at","","html-keyboard-response","280","1714662","0.0-17.0-2.3","14730","List2A","black","woman","","","","null","","","","","","","","",""
"10034.699999809265","","","survey-text","281","1724698","0.0-17.0-3.3","14730","List2A","black","woman","","","","","{""Q0"":""Luke is shouting at Fred.""}","<img src=""stim_listA/shout5.gif""style=""height:400px;""></stim_listA>","is shouting at","","","","","",""
"null","<div style=""font-size:60px;"">+</div>","","html-keyboard-response","282","1725209","0.0-17.0-0.4","14730","List2A","black","woman","","","","null","","","","","","","","",""
"null","<img src=""stim_listA/kiss2.gif""style=""height:400px;""></stim_listA>","","html-keyboard-response","283","1727212","0.0-17.0-1.4","14730","List2A","black","woman","","","","null","","","","","","","","",""
"null","is being kissed by","","html-keyboard-response","284","1729218","0.0-17.0-2.4","14730","List2A","black","woman","","","","null","","","","","","","","",""
"12774.5","","","survey-text","285","1741995","0.0-17.0-3.4","14730","List2A","black","woman","","","","","{""Q0"":""Jane is being kissed by Dave.""}","<img src=""stim_listA/kiss2.gif""style=""height:400px;""></stim_listA>","is being kissed by","","","","","",""
"null","<div style=""font-size:60px;"">+</div>","","html-keyboard-response","286","1742504","0.0-17.0-0.5","14730","List2A","black","woman","","","","null","","","","","","","","",""
"null","<img src=""stim_listA/look1.gif""style=""height:400px;""></stim_listA>","","html-keyboard-response","287","1744511","0.0-17.0-1.5","14730","List2A","black","woman","","","","null","","","","","","","","",""
"null","is looking at","","html-keyboard-response","288","1746518","0.0-17.0-2.5","14730","List2A","black","woman","","","","null","","","","","","","","",""
"9785.900000095367","","","survey-text","289","1756305","0.0-17.0-3.5","14730","List2A","black","woman","","","","","{""Q0"":""Luke is looking at Ruth.""}","<img src=""stim_listA/look1.gif""style=""height:400px;""></stim_listA>","is looking at","","","","","",""
"null","<div style=""font-size:60px;"">+</div>","","html-keyboard-response","290","1756821","0.0-17.0-0.6","14730","List2A","black","woman","","","","null","","","","","","","","",""
"null","<img src=""stim_listA/challenge6.gif""style=""height:400px;""></stim_listA>","","html-keyboard-response","291","1758833","0.0-17.0-1.6","14730","List2A","black","woman","","","","null","","","","","","","","",""
"null","is being challenged by","","html-keyboard-response","292","1760837","0.0-17.0-2.6","14730","List2A","black","woman","","","","null","","","","","","","","",""
"13344","","","survey-text","293","1774182","0.0-17.0-3.6","14730","List2A","black","woman","","","","","{""Q0"":""Mike is being challenged by Luke.""}","<img src=""stim_listA/challenge6.gif""style=""height:400px;""></stim_listA>","is being challenged by","","","","","",""
"null","<div style=""font-size:60px;"">+</div>","","html-keyboard-response","294","1774696","0.0-17.0-0.7","14730","List2A","black","woman","","","","null","","","","","","","","",""
"null","<img src=""stim_listA/hug7.gif""style=""height:400px;""></stim_listA>","","html-keyboard-response","295","1776706","0.0-17.0-1.7","14730","List2A","black","woman","","","","null","","","","","","","","",""
"null","is hugging","","html-keyboard-response","296","1778710","0.0-17.0-2.7","14730","List2A","black","woman","","","","null","","","","","","","","",""
"11534.800000190735","","","survey-text","297","1790246","0.0-17.0-3.7","14730","List2A","black","woman","","","","","{""Q0"":""Ruth is hugging Beth.""}","<img src=""stim_listA/hug7.gif""style=""height:400px;""></stim_listA>","is hugging","","","","","",""
"null","<div style=""font-size:60px;"">+</div>","","html-keyboard-response","298","1790758","0.0-17.0-0.8","14730","List2A","black","woman","","","","null","","","","","","","","",""
"null","<img src=""stim_listA/oppose7.gif""style=""height:400px;""></stim_listA>","","html-keyboard-response","299","1792774","0.0-17.0-1.8","14730","List2A","black","woman","","","","null","","","","","","","","",""
"null","is opposing","","html-keyboard-response","300","1794776","0.0-17.0-2.8","14730","List2A","black","woman","","","","null","","","","","","","","",""
"16912.099999904633","","","survey-text","301","1811689","0.0-17.0-3.8","14730","List2A","black","woman","","","","","{""Q0"":""Jane is opposing Kate.""}","<img src=""stim_listA/oppose7.gif""style=""height:400px;""></stim_listA>","is opposing","","","","","",""
"null","<div style=""font-size:60px;"">+</div>","","html-keyboard-response","302","1812196","0.0-17.0-0.9","14730","List2A","black","woman","","","","null","","","","","","","","",""
"null","<img src=""stim_listA/challenge1.gif""style=""height:400px;""></stim_listA>","","html-keyboard-response","303","1814208","0.0-17.0-1.9","14730","List2A","black","woman","","","","null","","","","","","","","",""
"null","is challenging","","html-keyboard-response","304","1816219","0.0-17.0-2.9","14730","List2A","black","woman","","","","null","","","","","","","","",""
"12086.89999961853","","","survey-text","305","1828307","0.0-17.0-3.9","14730","List2A","black","woman","","","","","{""Q0"":""Ruth is challenging Dave.""}","<img src=""stim_listA/challenge1.gif""style=""height:400px;""></stim_listA>","is challenging","","","","","",""
"null","<div style=""font-size:60px;"">+</div>","","html-keyboard-response","306","1828814","0.0-17.0-0.10","14730","List2A","black","woman","","","","null","","","","","","","","",""
"null","<img src=""stim_listA/seduce3.gif""style=""height:400px;""></stim_listA>","","html-keyboard-response","307","1830830","0.0-17.0-1.10","14730","List2A","black","woman","","","","null","","","","","","","","",""
"null","is seducing","","html-keyboard-response","308","1832841","0.0-17.0-2.10","14730","List2A","black","woman","","","","null","","","","","","","","",""
"14506.200000286102","","","survey-text","309","1847348","0.0-17.0-3.10","14730","List2A","black","woman","","","","","{""Q0"":""Fred is seducing Kate.""}","<img src=""stim_listA/seduce3.gif""style=""height:400px;""></stim_listA>","is seducing","","","","","",""
"null","<div style=""font-size:60px;"">+</div>","","html-keyboard-response","310","1847860","0.0-17.0-0.11","14730","List2A","black","woman","","","","null","","","","","","","","",""
"null","<img src=""stim_listA/look8.gif""style=""height:400px;""></stim_listA>","","html-keyboard-response","311","1849873","0.0-17.0-1.11","14730","List2A","black","woman","","","","null","","","","","","","","",""
"null","is being looked at by","","html-keyboard-response","312","1851876","0.0-17.0-2.11","14730","List2A","black","woman","","","","null","","","","","","","","",""
"14947.799999713898","","","survey-text","313","1866825","0.0-17.0-3.11","14730","List2A","black","woman","","","","","{""Q0"":""Kate is being looked at by Jane.""}","<img src=""stim_listA/look8.gif""style=""height:400px;""></stim_listA>","is being looked at by","","","","","",""
"null","<div style=""font-size:60px;"">+</div>","","html-keyboard-response","314","1867332","0.0-17.0-0.12","14730","List2A","black","woman","","","","null","","","","","","","","",""
"null","<img src=""stim_listA/copy1.gif""style=""height:400px;""></stim_listA>","","html-keyboard-response","315","1869340","0.0-17.0-1.12","14730","List2A","black","woman","","","","null","","","","","","","","",""
"null","is copying","","html-keyboard-response","316","1871353","0.0-17.0-2.12","14730","List2A","black","woman","","","","null","","","","","","","","",""
"11800.5","","","survey-text","317","1883155","0.0-17.0-3.12","14730","List2A","black","woman","","","","","{""Q0"":""Dave is copying Ruth.""}","<img src=""stim_listA/copy1.gif""style=""height:400px;""></stim_listA>","is copying","","","","","",""
"null","<div style=""font-size:60px;"">+</div>","","html-keyboard-response","318","1883667","0.0-17.0-0.13","14730","List2A","black","woman","","","","null","","","","","","","","",""
"null","<img src=""stim_listA/hug8.gif""style=""height:400px;""></stim_listA>","","html-keyboard-response","319","1885683","0.0-17.0-1.13","14730","List2A","black","woman","","","","null","","","","","","","","",""
"null","is being hugged by","","html-keyboard-response","320","1887693","0.0-17.0-2.13","14730","List2A","black","woman","","","","null","","","","","","","","",""
"10573.5","","","survey-text","321","1898268","0.0-17.0-3.13","14730","List2A","black","woman","","","","","{""Q0"":""Kate is being hugged by Jane.""}","<img src=""stim_listA/hug8.gif""style=""height:400px;""></stim_listA>","is being hugged by","","","","","",""
"null","<div style=""font-size:60px;"">+</div>","","html-keyboard-response","322","1898781","0.0-17.0-0.14","14730","List2A","black","woman","","","","null","","","","","","","","",""
"null","<img src=""stim_listA/look5.gif""style=""height:400px;""></stim_listA>","","html-keyboard-response","323","1900787","0.0-17.0-1.14","14730","List2A","black","woman","","","","null","","","","","","","","",""
"null","is looking at","","html-keyboard-response","324","1902802","0.0-17.0-2.14","14730","List2A","black","woman","","","","null","","","","","","","","",""
"7045.699999809265","","","survey-text","325","1909849","0.0-17.0-3.14","14730","List2A","black","woman","","","","","{""Q0"":""Luke is looking at Fred.""}","<img src=""stim_listA/look5.gif""style=""height:400px;""></stim_listA>","is looking at","","","","","",""
"null","<div style=""font-size:60px;"">+</div>","","html-keyboard-response","326","1910359","0.0-17.0-0.15","14730","List2A","black","woman","","","","null","","","","","","","","",""
"null","<img src=""stim_listA/seduce5.gif""style=""height:400px;""></stim_listA>","","html-keyboard-response","327","1912369","0.0-17.0-1.15","14730","List2A","black","woman","","","","null","","","","","","","","",""
"null","is seducing","","html-keyboard-response","328","1914375","0.0-17.0-2.15","14730","List2A","black","woman","","","","null","","","","","","","","",""
"8621.799999713898","","","survey-text","329","1922999","0.0-17.0-3.15","14730","List2A","black","woman","","","","","{""Q0"":""Luke is seducing Mike.""}","<img src=""stim_listA/seduce5.gif""style=""height:400px;""></stim_listA>","is seducing","","","","","",""
"null","<div style=""font-size:60px;"">+</div>","","html-keyboard-response","330","1923506","0.0-17.0-0.16","14730","List2A","black","woman","","","","null","","","","","","","","",""
"null","<img src=""stim_listA/touch3.gif""style=""height:400px;""></stim_listA>","","html-keyboard-response","331","1925510","0.0-17.0-1.16","14730","List2A","black","woman","","","","null","","","","","","","","",""
"null","is touching","","html-keyboard-response","332","1927526","0.0-17.0-2.16","14730","List2A","black","woman","","","","null","","","","","","","","",""
"9508.900000095367","","","survey-text","333","1937037","0.0-17.0-3.16","14730","List2A","black","woman","","","","","{""Q0"":""Mike is touching Kate.""}","<img src=""stim_listA/touch3.gif""style=""height:400px;""></stim_listA>","is touching","","","","","",""
"null","<div style=""font-size:60px;"">+</div>","","html-keyboard-response","334","1937540","0.0-17.0-0.17","14730","List2A","black","woman","","","","null","","","","","","","","",""
"null","<img src=""stim_listA/kiss5.gif""style=""height:400px;""></stim_listA>","","html-keyboard-response","335","1939552","0.0-17.0-1.17","14730","List2A","black","woman","","","","null","","","","","","","","",""
"null","is kissing","","html-keyboard-response","336","1941555","0.0-17.0-2.17","14730","List2A","black","woman","","","","null","","","","","","","","",""
"9264.699999809265","","","survey-text","337","1950821","0.0-17.0-3.17","14730","List2A","black","woman","","","","","{""Q0"":""Luke is kissing Fred.""}","<img src=""stim_listA/kiss5.gif""style=""height:400px;""></stim_listA>","is kissing","","","","","",""
"null","<div style=""font-size:60px;"">+</div>","","html-keyboard-response","338","1951331","0.0-17.0-0.18","14730","List2A","black","woman","","","","null","","","","","","","","",""
"null","<img src=""stim_listA/touch4.gif""style=""height:400px;""></stim_listA>","","html-keyboard-response","339","1953341","0.0-17.0-1.18","14730","List2A","black","woman","","","","null","","","","","","","","",""
"null","is being touched by","","html-keyboard-response","340","1955345","0.0-17.0-2.18","14730","List2A","black","woman","","","","null","","","","","","","","",""
"11320","","","survey-text","341","1966667","0.0-17.0-3.18","14730","List2A","black","woman","","","","","{""Q0"":""Beth is being touched by Fred.""}","<img src=""stim_listA/touch4.gif""style=""height:400px;""></stim_listA>","is being touched by","","","","","",""
"null","<div style=""font-size:60px;"">+</div>","","html-keyboard-response","342","1967176","0.0-17.0-0.19","14730","List2A","black","woman","","","","null","","","","","","","","",""
"null","<img src=""stim_listA/copy4.gif""style=""height:400px;""></stim_listA>","","html-keyboard-response","343","1969180","0.0-17.0-1.19","14730","List2A","black","woman","","","","null","","","","","","","","",""
"null","is being copied by","","html-keyboard-response","344","1971189","0.0-17.0-2.19","14730","List2A","black","woman","","","","null","","","","","","","","",""
"12322","","","survey-text","345","1983512","0.0-17.0-3.19","14730","List2A","black","woman","","","","","{""Q0"":""Kate is being copied by Fred.""}","<img src=""stim_listA/copy4.gif""style=""height:400px;""></stim_listA>","is being copied by","","","","","",""
"3296.4000000953674","<img src='img/portrait_matrix_list2.jpg' style='width:900px;height:500px;''></img><p>If you have memorised all the portraits and names and are ready to start, press Continue.</p><p><strong>Please note: Your memory of these faces will be tested 4 times during this experiment.</strong></p>","0","html-button-response","346","1986810","0.0-18.0-0.0","14730","List2A","black","woman","","","","","","","","","","","","",""
"5132.300000190735","<img src=""portrait/BW2.jpg""style=""height:400px;""></img>","2","html-button-response","347","1992957","0.0-18.0-1.0","14730","List2A","black","woman","","true","2","","","","","","","","","",""
"null","CORRECT","","html-keyboard-response","348","1994483","0.0-18.0-2.0-0.0","14730","List2A","black","woman","","","","null","","","","","","","","",""
"3941.5999999046326","<img src=""portrait/BW1.jpg""style=""height:400px;""></img>","0","html-button-response","349","1998426","0.0-18.0-4.0","14730","List2A","black","woman","","true","0","","","","","","","","","",""
"null","CORRECT","","html-keyboard-response","350","1999936","0.0-18.0-5.0-0.0","14730","List2A","black","woman","","","","null","","","","","","","","",""
"1702.5","<img src=""portrait/WW1.jpg""style=""height:400px;""></img>","1","html-button-response","351","2001640","0.0-18.0-7.0","14730","List2A","black","woman","","true","1","","","","","","","","","",""
"null","CORRECT","","html-keyboard-response","352","2003169","0.0-18.0-8.0-0.0","14730","List2A","black","woman","","","","null","","","","","","","","",""
"2334.5","<img src=""portrait/WM1.jpg""style=""height:400px;""></img>","6","html-button-response","353","2005505","0.0-18.0-10.0","14730","List2A","black","woman","","true","6","","","","","","","","","",""
"null","CORRECT","","html-keyboard-response","354","2007019","0.0-18.0-11.0-0.0","14730","List2A","black","woman","","","","null","","","","","","","","",""
"1517.7999997138977","<img src=""portrait/BM2.jpg""style=""height:400px;""></img>","5","html-button-response","355","2008538","0.0-18.0-13.0","14730","List2A","black","woman","","true","5","","","","","","","","","",""
"null","CORRECT","","html-keyboard-response","356","2010049","0.0-18.0-14.0-0.0","14730","List2A","black","woman","","","","null","","","","","","","","",""
"2185.7000002861023","<img src=""portrait/WM2.jpg""style=""height:400px;""></img>","7","html-button-response","357","2012237","0.0-18.0-16.0","14730","List2A","black","woman","","true","7","","","","","","","","","",""
"null","CORRECT","","html-keyboard-response","358","2013765","0.0-18.0-17.0-0.0","14730","List2A","black","woman","","","","null","","","","","","","","",""
"2082.9000000953674","<img src=""portrait/BM1.jpg""style=""height:400px;""></img>","4","html-button-response","359","2015850","0.0-18.0-19.0","14730","List2A","black","woman","","true","4","","","","","","","","","",""
"null","CORRECT","","html-keyboard-response","360","2017366","0.0-18.0-20.0-0.0","14730","List2A","black","woman","","","","null","","","","","","","","",""
"2200.300000190735","<img src=""portrait/WW2.jpg""style=""height:400px;""></img>","3","html-button-response","361","2019568","0.0-18.0-22.0","14730","List2A","black","woman","","true","3","","","","","","","","","",""
"null","CORRECT","","html-keyboard-response","362","2021102","0.0-18.0-23.0-0.0","14730","List2A","black","woman","","","","null","","","","","","","","",""
"1718.2000002861023","<p>You got 8 out of 8 right first time. Press Continue.</p>","0","html-button-response","363","2022822","0.0-18.0-25.0","14730","List2A","black","woman","","","","","","","","","","","","",""
"null","<div style=""font-size:60px;"">+</div>","","html-keyboard-response","364","2024347","0.0-19.0-0.0","14730","List2A","black","woman","","","","null","","","","","","","","",""
"null","<img src=""stim_listA/oppose5.gif""style=""height:400px;""></stim_listA>","","html-keyboard-response","365","2026357","0.0-19.0-1.0","14730","List2A","black","woman","","","","null","","","","","","","","",""
"null","is opposing","","html-keyboard-response","366","2028372","0.0-19.0-2.0","14730","List2A","black","woman","","","","null","","","","","","","","",""
"13224.10000038147","","","survey-text","367","2041598","0.0-19.0-3.0","14730","List2A","black","woman","","","","","{""Q0"":""Dave is opposing Mike.""}","<img src=""stim_listA/oppose5.gif""style=""height:400px;""></stim_listA>","is opposing","","","","","",""
"null","<div style=""font-size:60px;"">+</div>","","html-keyboard-response","368","2042111","0.0-19.0-0.1","14730","List2A","black","woman","","","","null","","","","","","","","",""
"null","<img src=""stim_listA/hug4.gif""style=""height:400px;""></stim_listA>","","html-keyboard-response","369","2044124","0.0-19.0-1.1","14730","List2A","black","woman","","","","null","","","","","","","","",""
"null","is being hugged by","","html-keyboard-response","370","2046125","0.0-19.0-2.1","14730","List2A","black","woman","","","","null","","","","","","","","",""
"11066.599999904633","","","survey-text","371","2057193","0.0-19.0-3.1","14730","List2A","black","woman","","","","","{""Q0"":""Mike is being hugged by Kate.""}","<img src=""stim_listA/hug4.gif""style=""height:400px;""></stim_listA>","is being hugged by","","","","","",""
"null","<div style=""font-size:60px;"">+</div>","","html-keyboard-response","372","2057705","0.0-19.0-0.2","14730","List2A","black","woman","","","","null","","","","","","","","",""
"null","<img src=""stim_listA/greet8.gif""style=""height:400px;""></stim_listA>","","html-keyboard-response","373","2059720","0.0-19.0-1.2","14730","List2A","black","woman","","","","null","","","","","","","","",""
"null","is being greeted by","","html-keyboard-response","374","2061727","0.0-19.0-2.2","14730","List2A","black","woman","","","","null","","","","","","","","",""
"12022.60000038147","","","survey-text","375","2073751","0.0-19.0-3.2","14730","List2A","black","woman","","","","","{""Q0"":""Kate is being greeted by Ruth.""}","<img src=""stim_listA/greet8.gif""style=""height:400px;""></stim_listA>","is being greeted by","","","","","",""
"null","<div style=""font-size:60px;"">+</div>","","html-keyboard-response","376","2074252","0.0-19.0-0.3","14730","List2A","black","woman","","","","null","","","","","","","","",""
"null","<img src=""stim_listA/look4.gif""style=""height:400px;""></stim_listA>","","html-keyboard-response","377","2076264","0.0-19.0-1.3","14730","List2A","black","woman","","","","null","","","","","","","","",""
"null","is being looked at by","","html-keyboard-response","378","2078269","0.0-19.0-2.3","14730","List2A","black","woman","","","","null","","","","","","","","",""
"10765.900000095367","","","survey-text","379","2089036","0.0-19.0-3.3","14730","List2A","black","woman","","","","","{""Q0"":""Kate is being looked at by Mike.""}","<img src=""stim_listA/look4.gif""style=""height:400px;""></stim_listA>","is being looked at by","","","","","",""
"null","<div style=""font-size:60px;"">+</div>","","html-keyboard-response","380","2089546","0.0-19.0-0.4","14730","List2A","black","woman","","","","null","","","","","","","","",""
"null","<img src=""stim_listA/copy6.gif""style=""height:400px;""></stim_listA>","","html-keyboard-response","381","2091548","0.0-19.0-1.4","14730","List2A","black","woman","","","","null","","","","","","","","",""
"null","is being copied by","","html-keyboard-response","382","2093563","0.0-19.0-2.4","14730","List2A","black","woman","","","","null","","","","","","","","",""
"11499.800000190735","","","survey-text","383","2105064","0.0-19.0-3.4","14730","List2A","black","woman","","","","","{""Q0"":""Mike is being copied by Luke.""}","<img src=""stim_listA/copy6.gif""style=""height:400px;""></stim_listA>","is being copied by","","","","","",""
"null","<div style=""font-size:60px;"">+</div>","","html-keyboard-response","384","2105574","0.0-19.0-0.5","14730","List2A","black","woman","","","","null","","","","","","","","",""
"null","<img src=""stim_listA/touch5.gif""style=""height:400px;""></stim_listA>","","html-keyboard-response","385","2107591","0.0-19.0-1.5","14730","List2A","black","woman","","","","null","","","","","","","","",""
"null","is touching","","html-keyboard-response","386","2109594","0.0-19.0-2.5","14730","List2A","black","woman","","","","null","","","","","","","","",""
"9855.699999809265","","","survey-text","387","2119451","0.0-19.0-3.5","14730","List2A","black","woman","","","","","{""Q0"":""Mike is touching Dave.""}","<img src=""stim_listA/touch5.gif""style=""height:400px;""></stim_listA>","is touching","","","","","",""
"null","<div style=""font-size:60px;"">+</div>","","html-keyboard-response","388","2119956","0.0-19.0-0.6","14730","List2A","black","woman","","","","null","","","","","","","","",""
"null","<img src=""stim_listA/greet2.gif""style=""height:400px;""></stim_listA>","","html-keyboard-response","389","2121965","0.0-19.0-1.6","14730","List2A","black","woman","","","","null","","","","","","","","",""
"null","is being greeted by","","html-keyboard-response","390","2123970","0.0-19.0-2.6","14730","List2A","black","woman","","","","null","","","","","","","","",""
"12984.300000190735","","","survey-text","391","2136956","0.0-19.0-3.6","14730","List2A","black","woman","","","","","{""Q0"":""Jane is being greeted by Luke.""}","<img src=""stim_listA/greet2.gif""style=""height:400px;""></stim_listA>","is being greeted by","","","","","",""
"null","<div style=""font-size:60px;"">+</div>","","html-keyboard-response","392","2137469","0.0-19.0-0.7","14730","List2A","black","woman","","","","null","","","","","","","","",""
"null","<img src=""stim_listA/greet7.gif""style=""height:400px;""></stim_listA>","","html-keyboard-response","393","2139484","0.0-19.0-1.7","14730","List2A","black","woman","","","","null","","","","","","","","",""
"null","is greeting","","html-keyboard-response","394","2141488","0.0-19.0-2.7","14730","List2A","black","woman","","","","null","","","","","","","","",""
"7428.900000095367","","","survey-text","395","2148919","0.0-19.0-3.7","14730","List2A","black","woman","","","","","{""Q0"":""Jane is greeting Beth.""}","<img src=""stim_listA/greet7.gif""style=""height:400px;""></stim_listA>","is greeting","","","","","",""
"null","<div style=""font-size:60px;"">+</div>","","html-keyboard-response","396","2149432","0.0-19.0-0.8","14730","List2A","black","woman","","","","null","","","","","","","","",""
"null","<img src=""stim_listA/kiss8.gif""style=""height:400px;""></stim_listA>","","html-keyboard-response","397","2151449","0.0-19.0-1.8","14730","List2A","black","woman","","","","null","","","","","","","","",""
"null","is being kissed by","","html-keyboard-response","398","2153461","0.0-19.0-2.8","14730","List2A","black","woman","","","","null","","","","","","","","",""
"13068.60000038147","","","survey-text","399","2166531","0.0-19.0-3.8","14730","List2A","black","woman","","","","","{""Q0"":""Kate is being kissed by Jane.""}","<img src=""stim_listA/kiss8.gif""style=""height:400px;""></stim_listA>","is being kissed by","","","","","",""
"null","<div style=""font-size:60px;"">+</div>","","html-keyboard-response","400","2167043","0.0-19.0-0.9","14730","List2A","black","woman","","","","null","","","","","","","","",""
"null","<img src=""stim_listA/challenge3.gif""style=""height:400px;""></stim_listA>","","html-keyboard-response","401","2169046","0.0-19.0-1.9","14730","List2A","black","woman","","","","null","","","","","","","","",""
"null","is challenging","","html-keyboard-response","402","2171057","0.0-19.0-2.9","14730","List2A","black","woman","","","","null","","","","","","","","",""
"8668.599999904633","","","survey-text","403","2179727","0.0-19.0-3.9","14730","List2A","black","woman","","","","","{""Q0"":""Mike is challenging Beth.""}","<img src=""stim_listA/challenge3.gif""style=""height:400px;""></stim_listA>","is challenging","","","","","",""
"null","<div style=""font-size:60px;"">+</div>","","html-keyboard-response","404","2180231","0.0-19.0-0.10","14730","List2A","black","woman","","","","null","","","","","","","","",""
"null","<img src=""stim_listA/copy3.gif""style=""height:400px;""></stim_listA>","","html-keyboard-response","405","2182238","0.0-19.0-1.10","14730","List2A","black","woman","","","","null","","","","","","","","",""
"null","is copying","","html-keyboard-response","406","2184247","0.0-19.0-2.10","14730","List2A","black","woman","","","","null","","","","","","","","",""
"9475.299999713898","","","survey-text","407","2193723","0.0-19.0-3.10","14730","List2A","black","woman","","","","","{""Q0"":""Mike is copying Beth.""}","<img src=""stim_listA/copy3.gif""style=""height:400px;""></stim_listA>","is copying","","","","","",""
"null","<div style=""font-size:60px;"">+</div>","","html-keyboard-response","408","2194227","0.0-19.0-0.11","14730","List2A","black","woman","","","","null","","","","","","","","",""
"null","<img src=""stim_listA/greet6.gif""style=""height:400px;""></stim_listA>","","html-keyboard-response","409","2196240","0.0-19.0-1.11","14730","List2A","black","woman","","","","null","","","","","","","","",""
"null","is being greeted by","","html-keyboard-response","410","2198242","0.0-19.0-2.11","14730","List2A","black","woman","","","","null","","","","","","","","",""
"8243.5","","","survey-text","411","2206487","0.0-19.0-3.11","14730","List2A","black","woman","","","","","{""Q0"":""Mike is being greeted by Luke.""}","<img src=""stim_listA/greet6.gif""style=""height:400px;""></stim_listA>","is being greeted by","","","","","",""
"null","<div style=""font-size:60px;"">+</div>","","html-keyboard-response","412","2206999","0.0-19.0-0.12","14730","List2A","black","woman","","","","null","","","","","","","","",""
"null","<img src=""stim_listA/seduce7.gif""style=""height:400px;""></stim_listA>","","html-keyboard-response","413","2209001","0.0-19.0-1.12","14730","List2A","black","woman","","","","null","","","","","","","","",""
"null","is seducing","","html-keyboard-response","414","2211002","0.0-19.0-2.12","14730","List2A","black","woman","","","","null","","","","","","","","",""
"8447.199999809265","","","survey-text","415","2219451","0.0-19.0-3.12","14730","List2A","black","woman","","","","","{""Q0"":""Ruth is seducing Kate.""}","<img src=""stim_listA/seduce7.gif""style=""height:400px;""></stim_listA>","is seducing","","","","","",""
"null","<div style=""font-size:60px;"">+</div>","","html-keyboard-response","416","2219962","0.0-19.0-0.13","14730","List2A","black","woman","","","","null","","","","","","","","",""
"null","<img src=""stim_listA/touch2.gif""style=""height:400px;""></stim_listA>","","html-keyboard-response","417","2221964","0.0-19.0-1.13","14730","List2A","black","woman","","","","null","","","","","","","","",""
"null","is being touched by","","html-keyboard-response","418","2223967","0.0-19.0-2.13","14730","List2A","black","woman","","","","null","","","","","","","","",""
"8262.200000286102","","","survey-text","419","2232230","0.0-19.0-3.13","14730","List2A","black","woman","","","","","{""Q0"":""Ruth is touching Luke.""}","<img src=""stim_listA/touch2.gif""style=""height:400px;""></stim_listA>","is being touched by","","","","","",""
"null","<div style=""font-size:60px;"">+</div>","","html-keyboard-response","420","2232743","0.0-19.0-0.14","14730","List2A","black","woman","","","","null","","","","","","","","",""
"null","<img src=""stim_listA/hug1.gif""style=""height:400px;""></stim_listA>","","html-keyboard-response","421","2234758","0.0-19.0-1.14","14730","List2A","black","woman","","","","null","","","","","","","","",""
"null","is hugging","","html-keyboard-response","422","2236774","0.0-19.0-2.14","14730","List2A","black","woman","","","","null","","","","","","","","",""
"10718","","","survey-text","423","2247494","0.0-19.0-3.14","14730","List2A","black","woman","","","","","{""Q0"":""Ruth is hugging Luke.""}","<img src=""stim_listA/hug1.gif""style=""height:400px;""></stim_listA>","is hugging","","","","","",""
"null","<div style=""font-size:60px;"">+</div>","","html-keyboard-response","424","2248003","0.0-19.0-0.15","14730","List2A","black","woman","","","","null","","","","","","","","",""
"null","<img src=""stim_listA/oppose2.gif""style=""height:400px;""></stim_listA>","","html-keyboard-response","425","2250006","0.0-19.0-1.15","14730","List2A","black","woman","","","","null","","","","","","","","",""
"null","is being opposed by","","html-keyboard-response","426","2252018","0.0-19.0-2.15","14730","List2A","black","woman","","","","null","","","","","","","","",""
"14773.599999904633","","","survey-text","427","2266794","0.0-19.0-3.15","14730","List2A","black","woman","","","","","{""Q0"":""Ruth is being opposed by Luke.""}","<img src=""stim_listA/oppose2.gif""style=""height:400px;""></stim_listA>","is being opposed by","","","","","",""
"null","<div style=""font-size:60px;"">+</div>","","html-keyboard-response","428","2267296","0.0-19.0-0.16","14730","List2A","black","woman","","","","null","","","","","","","","",""
"null","<img src=""stim_listA/touch1.gif""style=""height:400px;""></stim_listA>","","html-keyboard-response","429","2269306","0.0-19.0-1.16","14730","List2A","black","woman","","","","null","","","","","","","","",""
"null","is touching","","html-keyboard-response","430","2271316","0.0-19.0-2.16","14730","List2A","black","woman","","","","null","","","","","","","","",""
"10948.5","","","survey-text","431","2282265","0.0-19.0-3.16","14730","List2A","black","woman","","","","","{""Q0"":""Dave is touching Jane.""}","<img src=""stim_listA/touch1.gif""style=""height:400px;""></stim_listA>","is touching","","","","","",""
"null","<div style=""font-size:60px;"">+</div>","","html-keyboard-response","432","2282779","0.0-19.0-0.17","14730","List2A","black","woman","","","","null","","","","","","","","",""
"null","<img src=""stim_listA/challenge8.gif""style=""height:400px;""></stim_listA>","","html-keyboard-response","433","2284795","0.0-19.0-1.17","14730","List2A","black","woman","","","","null","","","","","","","","",""
"null","is being challenged by","","html-keyboard-response","434","2286811","0.0-19.0-2.17","14730","List2A","black","woman","","","","null","","","","","","","","",""
"11284","","","survey-text","435","2298097","0.0-19.0-3.17","14730","List2A","black","woman","","","","","{""Q0"":""Kate is being challenged by Ruth.""}","<img src=""stim_listA/challenge8.gif""style=""height:400px;""></stim_listA>","is being challenged by","","","","","",""
"null","<div style=""font-size:60px;"">+</div>","","html-keyboard-response","436","2298607","0.0-19.0-0.18","14730","List2A","black","woman","","","","null","","","","","","","","",""
"null","<img src=""stim_listA/kiss6.gif""style=""height:400px;""></stim_listA>","","html-keyboard-response","437","2300611","0.0-19.0-1.18","14730","List2A","black","woman","","","","null","","","","","","","","",""
"null","is being kissed by","","html-keyboard-response","438","2302616","0.0-19.0-2.18","14730","List2A","black","woman","","","","null","","","","","","","","",""
"8406.699999809265","","","survey-text","439","2311025","0.0-19.0-3.18","14730","List2A","black","woman","","","","","{""Q0"":""Mike is being kissed by Dave.""}","<img src=""stim_listA/kiss6.gif""style=""height:400px;""></stim_listA>","is being kissed by","","","","","",""
"null","<div style=""font-size:60px;"">+</div>","","html-keyboard-response","440","2311537","0.0-19.0-0.19","14730","List2A","black","woman","","","","null","","","","","","","","",""
"null","<img src=""stim_listA/touch7.gif""style=""height:400px;""></stim_listA>","","html-keyboard-response","441","2313549","0.0-19.0-1.19","14730","List2A","black","woman","","","","null","","","","","","","","",""
"null","is touching","","html-keyboard-response","442","2315561","0.0-19.0-2.19","14730","List2A","black","woman","","","","null","","","","","","","","",""
"7510.5","","","survey-text","443","2323072","0.0-19.0-3.19","14730","List2A","black","woman","","","","","{""Q0"":""Kate is touching Jane.""}","<img src=""stim_listA/touch7.gif""style=""height:400px;""></stim_listA>","is touching","","","","","",""
"3515.5","<p>Thank you for completing that task.</p><p>The final part of this session is a questionnaire that will take about 4 minutes.</p><p>Press Continue.</p>","0","html-button-response","444","2326589","0.0-20.0","14730","List2A","black","woman","","","","","","","","","","","","",""
"50654","","","survey-text","445","2378257","0.0-21.0","14730","List2A","black","woman","","","","","{""Q0"":""33"",""Q1"":""English"",""Q2"":""English"",""Q3"":""United States"",""Q4"":""American"",""Q5"":""African American"",""Q6"":""Female""}","","","demographics","","","","",""
"2764.199999809265","<p>Have you lived in the USA for the last 5 years or more?</p>","0","html-button-response","446","2381023","0.0-22.0","14730","List2A","black","woman","","","","","","","","fiveyears","","","","",""
"3098.5999999046326","<p>Move the slider to show the extent to which you agree with the following statements.</p>","0","html-button-response","447","2385139","0.0-23.0","14730","List2A","black","woman","","","","","","","","","","","","",""
"12482.5","","","html-slider-response","448","2398637","0.0-24.0-0.0-0.0","14730","List2A","black","woman","","","","","","","","survey_race","23","","","Getting older does not worry me.","filler"
"7399.900000095367","","","html-slider-response","449","2406039","0.0-24.0-0.0-0.1","14730","List2A","black","woman","","","","","","","","survey_race","83","","","I am similar to the average person of my race.","similar"
"10025.5","","","html-slider-response","450","2416066","0.0-24.0-0.0-0.2","14730","List2A","black","woman","","","","","","","","survey_race","74","","","I am glad to be my age.","filler"
"6861.400000095367","","","html-slider-response","451","2422929","0.0-24.0-0.0-0.3","14730","List2A","black","woman","","","","","","","","survey_race","100","","","The fact that I am my race is an important part of my identity.","identity"
"6930","","","html-slider-response","452","2429861","0.0-24.0-0.0-0.4","14730","List2A","black","woman","","","","","","","","survey_race","66","","","I have a lot in common with people of a similar age to me.","filler"
"4433.800000190735","","","html-slider-response","453","2434296","0.0-24.0-0.0-0.5","14730","List2A","black","woman","","","","","","","","survey_race","100","","","Being my race gives me a good feeling.","feeling"
"5940.599999904633","","","html-slider-response","454","2440238","0.0-24.0-0.0-0.6","14730","List2A","black","woman","","","","","","","","survey_race","63","","","I am glad to be the age I am.","filler"
"5284","","","html-slider-response","455","2445523","0.0-24.0-0.0-0.7","14730","List2A","black","woman","","","","","","","","survey_race","59","","","Being my age gives me a good feeling.","filler"
"8213.199999809265","","","html-slider-response","456","2453738","0.0-24.0-0.0-0.8","14730","List2A","black","woman","","","","","","","","survey_race","19","","","It is pleasant to be my race.","pleasant"
"6564.700000286102","","","html-slider-response","457","2460304","0.0-24.0-0.0-0.9","14730","List2A","black","woman","","","","","","","","survey_race","24","","","People of my race are very similar to each other.","verysimilar"
"7979.39999961853","","","html-slider-response","458","2468285","0.0-24.0-0.0-0.10","14730","List2A","black","woman","","","","","","","","survey_race","11","","","I feel a bond with people the same age as me.","filler"
"14077.400000095367","","","html-slider-response","459","2482364","0.0-24.0-0.0-0.11","14730","List2A","black","woman","","","","","","","","survey_race","11","","","I have a lot in common with the average person of my race.","average"
"13862.5","","","html-slider-response","460","2496228","0.0-24.0-0.0-0.12","14730","List2A","black","woman","","","","","","","","survey_race","9","","","I enjoy being in large groups.","filler"
"6830.199999809265","","","html-slider-response","461","2503059","0.0-24.0-0.0-0.13","14730","List2A","black","woman","","","","","","","","survey_race","85","","","I often think about the fact that I am my race.","often"
"9325.400000095367","","","html-slider-response","462","2512386","0.0-24.0-0.0-0.14","14730","List2A","black","woman","","","","","","","","survey_race","100","","","I am glad to be my race.","glad"
"7417.900000095367","","","html-slider-response","463","2519805","0.0-24.0-0.0-0.15","14730","List2A","black","woman","","","","","","","","survey_race","7","","","People my age have a lot in common with each other.","filler"
"4446.799999713898","","","html-slider-response","464","2524253","0.0-24.0-0.0-0.16","14730","List2A","black","woman","","","","","","","","survey_race","100","","","I feel committed to my race.","committed"
"6984.5","","","html-slider-response","465","2531239","0.0-24.0-0.0-0.17","14730","List2A","black","woman","","","","","","","","survey_race","8","","","People of my race have a lot in common with each other.","common"
"6142.10000038147","","","html-slider-response","466","2537383","0.0-24.0-0.0-0.18","14730","List2A","black","woman","","","","","","","","survey_race","100","","","I feel solidarity with my race.","solidarity"
"7397.10000038147","","","html-slider-response","467","2544781","0.0-24.0-0.0-0.19","14730","List2A","black","woman","","","","","","","","survey_race","100","","","I feel a bond with my race.","bond"
"44750.59999990463","","","html-slider-response","468","2589533","0.0-24.0-0.0-0.20","14730","List2A","black","woman","","","","","","","","survey_race","95","","","I consider myself an introvert.","filler"
"5101.099999904633","","","html-slider-response","469","2594636","0.0-24.0-0.0-0.21","14730","List2A","black","woman","","","","","","","","survey_race","2","","","I consider myself an extrovert.","filler"
"4463.5","","","html-slider-response","470","2599101","0.0-24.0-0.0-0.22","14730","List2A","black","woman","","","","","","","","survey_race","100","","","I think that my race has a lot to be proud of.","proud"
"5097.800000190735","","","html-slider-response","471","2604200","0.0-24.0-0.0-0.23","14730","List2A","black","woman","","","","","","","","survey_race","94","","","The older I get, the wiser I feel.","filler"
"5513.799999713898","","","html-slider-response","472","2609715","0.0-24.0-0.0-0.24","14730","List2A","black","woman","","","","","","","","survey_race","7","","","I feel solidarity with people the same age as me.","filler"
"7312.699999809265","","","html-slider-response","473","2617029","0.0-24.0-0.0-0.25","14730","List2A","black","woman","","","","","","","","survey_race","26","","","My age is not an important part of who I am.","filler"
"7796.599999904633","","","html-slider-response","474","2624827","0.0-24.0-0.0-0.26","14730","List2A","black","woman","","","","","","","","survey_race","68","","","I often think about the fact that I am my age.","filler"
"9384.299999713898","","","html-slider-response","475","2634213","0.0-24.0-0.0-0.27","14730","List2A","black","woman","","","","","","","","survey_race","100","","","Being my race is an important part of how I see myself.","important"
