"rt","stimulus","button_pressed","trial_type","trial_index","time_elapsed","internal_node_id","subject","list","ppt_race","ppt_gender","url","first_guess","correct","key_press","responses","image_type","phrase_type","test_part","response","stimulus1","stimulus2","question_type","survey_item"
"3279.199999988079","Welcome to the experiment. Press Continue to begin.","0","html-button-response","0","3283","0.0-0.0","14914","List2B","black","woman","","","","","","","","","","","","",""
"19542","","","external-html","1","24526","0.0-1.0","14914","List2B","black","woman","consent.html","","","","","","","","","","","",""
"2029.6000000238419","<p>On the next page, you will see portraits of 8 people and their names.</p><p>Your first task is to take a few minutes to memorise the names of these people.</p><p>You will have to recall their names during the rest of the experiment, so it is</p><p>essential that you try to memorise these people and their names as best as you can.</p><br><p><strong>You will then be tested on your memory of these names and portraits.</strong></p><br><p>The experiment will start after you have completed this memory test.</p><br><p>Ready?</p>","0","html-button-response","2","26559","0.0-2.0","14914","List2B","black","woman","","","","","","","","","","","","",""
"19254.69999998808","<img src='img/portrait_matrix_list2.jpg' style='width:900px;height:500px;''></img><p>If you have memorised all the portraits and names and are ready to start, press Continue.</p><p><strong>Please note: Your memory of these faces will be tested 4 times during this experiment.</strong></p>","0","html-button-response","3","46819","0.0-3.0-0.0","14914","List2B","black","woman","","","","","","","","","","","","",""
"10011.599999964237","<img src=""portrait/WM2.jpg""style=""height:400px;""></img>","7","html-button-response","4","57836","0.0-3.0-1.0","14914","List2B","black","woman","","true","7","","","","","","","","","",""
"null","CORRECT","","html-keyboard-response","5","59363","0.0-3.0-2.0-0.0","14914","List2B","black","woman","","","","null","","","","","","","","",""
"6367.800000011921","<img src=""portrait/WW2.jpg""style=""height:400px;""></img>","3","html-button-response","6","65734","0.0-3.0-4.0","14914","List2B","black","woman","","true","3","","","","","","","","","",""
"null","CORRECT","","html-keyboard-response","7","67259","0.0-3.0-5.0-0.0","14914","List2B","black","woman","","","","null","","","","","","","","",""
"5687.399999976158","<img src=""portrait/BW2.jpg""style=""height:400px;""></img>","2","html-button-response","8","72948","0.0-3.0-7.0","14914","List2B","black","woman","","true","2","","","","","","","","","",""
"null","CORRECT","","html-keyboard-response","9","74477","0.0-3.0-8.0-0.0","14914","List2B","black","woman","","","","null","","","","","","","","",""
"6931.5","<img src=""portrait/BW1.jpg""style=""height:400px;""></img>","0","html-button-response","10","81410","0.0-3.0-10.0","14914","List2B","black","woman","","true","0","","","","","","","","","",""
"null","CORRECT","","html-keyboard-response","11","82947","0.0-3.0-11.0-0.0","14914","List2B","black","woman","","","","null","","","","","","","","",""
"5574.400000035763","<img src=""portrait/BM2.jpg""style=""height:400px;""></img>","5","html-button-response","12","88524","0.0-3.0-13.0","14914","List2B","black","woman","","true","5","","","","","","","","","",""
"null","CORRECT","","html-keyboard-response","13","90039","0.0-3.0-14.0-0.0","14914","List2B","black","woman","","","","null","","","","","","","","",""
"5573.399999976158","<img src=""portrait/WM1.jpg""style=""height:400px;""></img>","6","html-button-response","14","95615","0.0-3.0-16.0","14914","List2B","black","woman","","true","6","","","","","","","","","",""
"null","CORRECT","","html-keyboard-response","15","97126","0.0-3.0-17.0-0.0","14914","List2B","black","woman","","","","null","","","","","","","","",""
"6103.899999976158","<img src=""portrait/WW1.jpg""style=""height:400px;""></img>","1","html-button-response","16","103231","0.0-3.0-19.0","14914","List2B","black","woman","","true","1","","","","","","","","","",""
"null","CORRECT","","html-keyboard-response","17","104753","0.0-3.0-20.0-0.0","14914","List2B","black","woman","","","","null","","","","","","","","",""
"7459","<img src=""portrait/BM1.jpg""style=""height:400px;""></img>","4","html-button-response","18","112215","0.0-3.0-22.0","14914","List2B","black","woman","","true","4","","","","","","","","","",""
"null","CORRECT","","html-keyboard-response","19","113730","0.0-3.0-23.0-0.0","14914","List2B","black","woman","","","","null","","","","","","","","",""
"1889.6000000238419","<p>You got 8 out of 8 right first time. Press Continue.</p>","0","html-button-response","20","115623","0.0-3.0-25.0","14914","List2B","black","woman","","","","","","","","","","","","",""
"52245.80000001192","<p>In this experiment, you will view photographs of the people from the memory game interacting.</p><p>By using the <strong>exact</strong> phrase given <i>after</i> the photograph appears and recalling the correct names of the people in the photographs, form a sentence describing the interaction. You do not need to capitalise names.</p><p>Type your answer in the space provided. Please complete every sentence before moving onto the next trial.</p><p>You will only have a few seconds to memorise each given photograph and phrase before you can respond, so try your best to focus.</p><p>An example is given below. Press 'Continue' when you are ready.</p><img src='img/speaking_example.jpg' style='width:800px;height:460px;''></img>","0","html-button-response","21","168877","0.0-4.0","14914","List2B","black","woman","","","","","","","","","","","","",""
"2445","<p>Before the experiment starts, you will watch two example trials. Press 'Continue'.</p>","0","html-button-response","22","172338","0.0-5.0","14914","List2B","black","woman","","","","","","","","","","","","",""
"null","<img src='img/play_eg.gif' style='height:400px;''></img>","","html-keyboard-response","23","175357","0.0-6.0","14914","List2B","black","woman","","","","null","","","","","","","","",""
"null","<p>is playing with</p>","","html-keyboard-response","24","177370","0.0-7.0","14914","List2B","black","woman","","","","null","","","","","","","","",""
"4273.900000035763","<p><b>Answer:</b> jane is playing with ruth</p>","0","html-button-response","25","181646","0.0-8.0","14914","List2B","black","woman","","","","","","","","","","","","",""
"null","<img src='img/dance_eg.gif' style='height:400px;''></img>","","html-keyboard-response","26","184676","0.0-9.0","14914","List2B","black","woman","","","","null","","","","","","","","",""
"null","<p>is being entertained by</p>","","html-keyboard-response","27","186702","0.0-10.0","14914","List2B","black","woman","","","","null","","","","","","","","",""
"4331.699999988079","<p><b>Answer:</b> fred is being entertained by mike</p>","0","html-button-response","28","191036","0.0-11.0","14914","List2B","black","woman","","","","","","","","","","","","",""
"3954.199999988079","<p>Ready to start the experiment?</p><br><p><strong>Remember to describe the picture using a full sentence,</strong></p><p><strong>that combines the names of the people with the <i>exact</i> phrase given.</strong></p><p><strong>To receive full payment you must do this correctly.</strong></p><p><strong> You do not need to capitalise names or use punctuation.</strong></p><br><p>Press 'Continue' to begin.</p>","0","html-button-response","29","196011","0.0-12.0","14914","List2B","black","woman","","","","","","","","","","","","",""
"null","<div style=""font-size:60px;"">+</div>","","html-keyboard-response","30","197523","0.0-13.0-0.0","14914","List2B","black","woman","","","","null","","","","","","","","",""
"null","<img src=""stim_listB/hug2.gif""style=""height:400px;""></stim_listB>","","html-keyboard-response","31","199531","0.0-13.0-1.0","14914","List2B","black","woman","","","","null","","","","","","","","",""
"null","is being hugged by","","html-keyboard-response","32","201535","0.0-13.0-2.0","14914","List2B","black","woman","","","","null","","","","","","","","",""
"25069.69999998808","","","survey-text","33","226609","0.0-13.0-3.0","14914","List2B","black","woman","","","","","{""Q0"":""jane and dave ""}","<img src=""stim_listB/hug2.gif""style=""height:400px;""></stim_listB>","is being hugged by","","","","","",""
"null","<div style=""font-size:60px;"">+</div>","","html-keyboard-response","34","227125","0.0-13.0-0.1","14914","List2B","black","woman","","","","null","","","","","","","","",""
"null","<img src=""stim_listB/kiss7.gif""style=""height:400px;""></stim_listB>","","html-keyboard-response","35","229132","0.0-13.0-1.1","14914","List2B","black","woman","","","","null","","","","","","","","",""
"null","is kissing","","html-keyboard-response","36","231139","0.0-13.0-2.1","14914","List2B","black","woman","","","","null","","","","","","","","",""
"41601.39999997616","","","survey-text","37","272743","0.0-13.0-3.1","14914","List2B","black","woman","","","","","{""Q0"":""beth is kissing ruth""}","<img src=""stim_listB/kiss7.gif""style=""height:400px;""></stim_listB>","is kissing","","","","","",""
"null","<div style=""font-size:60px;"">+</div>","","html-keyboard-response","38","273255","0.0-13.0-0.2","14914","List2B","black","woman","","","","null","","","","","","","","",""
"null","<img src=""stim_listB/oppose6.gif""style=""height:400px;""></stim_listB>","","html-keyboard-response","39","275258","0.0-13.0-1.2","14914","List2B","black","woman","","","","null","","","","","","","","",""
"null","is being opposed by","","html-keyboard-response","40","277270","0.0-13.0-2.2","14914","List2B","black","woman","","","","null","","","","","","","","",""
"73113.80000001192","","","survey-text","41","350386","0.0-13.0-3.2","14914","List2B","black","woman","","","","","{""Q0"":""luke is being opposed by fred""}","<img src=""stim_listB/oppose6.gif""style=""height:400px;""></stim_listB>","is being opposed by","","","","","",""
"null","<div style=""font-size:60px;"">+</div>","","html-keyboard-response","42","350909","0.0-13.0-0.3","14914","List2B","black","woman","","","","null","","","","","","","","",""
"null","<img src=""stim_listB/seduce4.gif""style=""height:400px;""></stim_listB>","","html-keyboard-response","43","352928","0.0-13.0-1.3","14914","List2B","black","woman","","","","null","","","","","","","","",""
"null","is being seduced by","","html-keyboard-response","44","354946","0.0-13.0-2.3","14914","List2B","black","woman","","","","null","","","","","","","","",""
"69504.5","","","survey-text","45","424454","0.0-13.0-3.3","14914","List2B","black","woman","","","","","{""Q0"":""beth is being seduced by mike""}","<img src=""stim_listB/seduce4.gif""style=""height:400px;""></stim_listB>","is being seduced by","","","","","",""
"null","<div style=""font-size:60px;"">+</div>","","html-keyboard-response","46","424968","0.0-13.0-0.4","14914","List2B","black","woman","","","","null","","","","","","","","",""
"null","<img src=""stim_listB/greet3.gif""style=""height:400px;""></stim_listB>","","html-keyboard-response","47","426974","0.0-13.0-1.4","14914","List2B","black","woman","","","","null","","","","","","","","",""
"null","is greeting","","html-keyboard-response","48","428981","0.0-13.0-2.4","14914","List2B","black","woman","","","","null","","","","","","","","",""
"24445.19999998808","","","survey-text","49","453430","0.0-13.0-3.4","14914","List2B","black","woman","","","","","{""Q0"":""mike is greeting beth""}","<img src=""stim_listB/greet3.gif""style=""height:400px;""></stim_listB>","is greeting","","","","","",""
"null","<div style=""font-size:60px;"">+</div>","","html-keyboard-response","50","453944","0.0-13.0-0.5","14914","List2B","black","woman","","","","null","","","","","","","","",""
"null","<img src=""stim_listB/challenge2.gif""style=""height:400px;""></stim_listB>","","html-keyboard-response","51","455956","0.0-13.0-1.5","14914","List2B","black","woman","","","","null","","","","","","","","",""
"null","is being challenged by","","html-keyboard-response","52","457967","0.0-13.0-2.5","14914","List2B","black","woman","","","","null","","","","","","","","",""
"66781.89999997616","","","survey-text","53","524751","0.0-13.0-3.5","14914","List2B","black","woman","","","","","{""Q0"":""luke is being challenged by jane""}","<img src=""stim_listB/challenge2.gif""style=""height:400px;""></stim_listB>","is being challenged by","","","","","",""
"null","<div style=""font-size:60px;"">+</div>","","html-keyboard-response","54","525266","0.0-13.0-0.6","14914","List2B","black","woman","","","","null","","","","","","","","",""
"null","<img src=""stim_listB/oppose7.gif""style=""height:400px;""></stim_listB>","","html-keyboard-response","55","527283","0.0-13.0-1.6","14914","List2B","black","woman","","","","null","","","","","","","","",""
"null","is opposing","","html-keyboard-response","56","529289","0.0-13.0-2.6","14914","List2B","black","woman","","","","null","","","","","","","","",""
"61149.59999996424","","","survey-text","57","590441","0.0-13.0-3.6","14914","List2B","black","woman","","","","","{""Q0"":""jane is opposing kate""}","<img src=""stim_listB/oppose7.gif""style=""height:400px;""></stim_listB>","is opposing","","","","","",""
"null","<div style=""font-size:60px;"">+</div>","","html-keyboard-response","58","590961","0.0-13.0-0.7","14914","List2B","black","woman","","","","null","","","","","","","","",""
"null","<img src=""stim_listB/touch4.gif""style=""height:400px;""></stim_listB>","","html-keyboard-response","59","592979","0.0-13.0-1.7","14914","List2B","black","woman","","","","null","","","","","","","","",""
"null","is being touched by","","html-keyboard-response","60","594995","0.0-13.0-2.7","14914","List2B","black","woman","","","","null","","","","","","","","",""
"63555.60000002384","","","survey-text","61","658554","0.0-13.0-3.7","14914","List2B","black","woman","","","","","{""Q0"":""beth is being touched by fred""}","<img src=""stim_listB/touch4.gif""style=""height:400px;""></stim_listB>","is being touched by","","","","","",""
"null","<div style=""font-size:60px;"">+</div>","","html-keyboard-response","62","659072","0.0-13.0-0.8","14914","List2B","black","woman","","","","null","","","","","","","","",""
"null","<img src=""stim_listB/kiss3.gif""style=""height:400px;""></stim_listB>","","html-keyboard-response","63","661083","0.0-13.0-1.8","14914","List2B","black","woman","","","","null","","","","","","","","",""
"null","is kissing","","html-keyboard-response","64","663093","0.0-13.0-2.8","14914","List2B","black","woman","","","","null","","","","","","","","",""
"19095.100000023842","","","survey-text","65","682191","0.0-13.0-3.8","14914","List2B","black","woman","","","","","{""Q0"":""beth is kissing fred""}","<img src=""stim_listB/kiss3.gif""style=""height:400px;""></stim_listB>","is kissing","","","","","",""
"null","<div style=""font-size:60px;"">+</div>","","html-keyboard-response","66","682707","0.0-13.0-0.9","14914","List2B","black","woman","","","","null","","","","","","","","",""
"null","<img src=""stim_listB/look3.gif""style=""height:400px;""></stim_listB>","","html-keyboard-response","67","684717","0.0-13.0-1.9","14914","List2B","black","woman","","","","null","","","","","","","","",""
"null","is looking at","","html-keyboard-response","68","686726","0.0-13.0-2.9","14914","List2B","black","woman","","","","null","","","","","","","","",""
"44075.200000047684","","","survey-text","69","730804","0.0-13.0-3.9","14914","List2B","black","woman","","","","","{""Q0"":""beth is looking at fred""}","<img src=""stim_listB/look3.gif""style=""height:400px;""></stim_listB>","is looking at","","","","","",""
"null","<div style=""font-size:60px;"">+</div>","","html-keyboard-response","70","731306","0.0-13.0-0.10","14914","List2B","black","woman","","","","null","","","","","","","","",""
"null","<img src=""stim_listB/seduce3.gif""style=""height:400px;""></stim_listB>","","html-keyboard-response","71","733323","0.0-13.0-1.10","14914","List2B","black","woman","","","","null","","","","","","","","",""
"null","is seducing","","html-keyboard-response","72","735348","0.0-13.0-2.10","14914","List2B","black","woman","","","","null","","","","","","","","",""
"35074","","","survey-text","73","770426","0.0-13.0-3.10","14914","List2B","black","woman","","","","","{""Q0"":""fred is seducing kate""}","<img src=""stim_listB/seduce3.gif""style=""height:400px;""></stim_listB>","is seducing","","","","","",""
"null","<div style=""font-size:60px;"">+</div>","","html-keyboard-response","74","770936","0.0-13.0-0.11","14914","List2B","black","woman","","","","null","","","","","","","","",""
"null","<img src=""stim_listB/look7.gif""style=""height:400px;""></stim_listB>","","html-keyboard-response","75","772946","0.0-13.0-1.11","14914","List2B","black","woman","","","","null","","","","","","","","",""
"null","is looking at","","html-keyboard-response","76","774963","0.0-13.0-2.11","14914","List2B","black","woman","","","","null","","","","","","","","",""
"56304.59999996424","","","survey-text","77","831271","0.0-13.0-3.11","14914","List2B","black","woman","","","","","{""Q0"":""beth is looking at ruth""}","<img src=""stim_listB/look7.gif""style=""height:400px;""></stim_listB>","is looking at","","","","","",""
"null","<div style=""font-size:60px;"">+</div>","","html-keyboard-response","78","831786","0.0-13.0-0.12","14914","List2B","black","woman","","","","null","","","","","","","","",""
"null","<img src=""stim_listB/touch5.gif""style=""height:400px;""></stim_listB>","","html-keyboard-response","79","833791","0.0-13.0-1.12","14914","List2B","black","woman","","","","null","","","","","","","","",""
"null","is touching","","html-keyboard-response","80","835798","0.0-13.0-2.12","14914","List2B","black","woman","","","","null","","","","","","","","",""
"49189.69999998808","","","survey-text","81","884991","0.0-13.0-3.12","14914","List2B","black","woman","","","","","{""Q0"":""mike is touching dave""}","<img src=""stim_listB/touch5.gif""style=""height:400px;""></stim_listB>","is touching","","","","","",""
"null","<div style=""font-size:60px;"">+</div>","","html-keyboard-response","82","885507","0.0-13.0-0.13","14914","List2B","black","woman","","","","null","","","","","","","","",""
"null","<img src=""stim_listB/shout7.gif""style=""height:400px;""></stim_listB>","","html-keyboard-response","83","887514","0.0-13.0-1.13","14914","List2B","black","woman","","","","null","","","","","","","","",""
"null","is shouting at","","html-keyboard-response","84","889523","0.0-13.0-2.13","14914","List2B","black","woman","","","","null","","","","","","","","",""
"71108.30000001192","","","survey-text","85","960634","0.0-13.0-3.13","14914","List2B","black","woman","","","","","{""Q0"":""beth is shouting at ruth""}","<img src=""stim_listB/shout7.gif""style=""height:400px;""></stim_listB>","is shouting at","","","","","",""
"null","<div style=""font-size:60px;"">+</div>","","html-keyboard-response","86","961144","0.0-13.0-0.14","14914","List2B","black","woman","","","","null","","","","","","","","",""
"null","<img src=""stim_listB/touch8.gif""style=""height:400px;""></stim_listB>","","html-keyboard-response","87","963149","0.0-13.0-1.14","14914","List2B","black","woman","","","","null","","","","","","","","",""
"null","is being touched by","","html-keyboard-response","88","965168","0.0-13.0-2.14","14914","List2B","black","woman","","","","null","","","","","","","","",""
"70579","","","survey-text","89","1035750","0.0-13.0-3.14","14914","List2B","black","woman","","","","","{""Q0"":""beth is being touched by ruth""}","<img src=""stim_listB/touch8.gif""style=""height:400px;""></stim_listB>","is being touched by","","","","","",""
"null","<div style=""font-size:60px;"">+</div>","","html-keyboard-response","90","1036264","0.0-13.0-0.15","14914","List2B","black","woman","","","","null","","","","","","","","",""
"null","<img src=""stim_listB/greet7.gif""style=""height:400px;""></stim_listB>","","html-keyboard-response","91","1038269","0.0-13.0-1.15","14914","List2B","black","woman","","","","null","","","","","","","","",""
"null","is greeting","","html-keyboard-response","92","1040279","0.0-13.0-2.15","14914","List2B","black","woman","","","","null","","","","","","","","",""
"39071","","","survey-text","93","1079352","0.0-13.0-3.15","14914","List2B","black","woman","","","","","{""Q0"":""beth is greeting jane""}","<img src=""stim_listB/greet7.gif""style=""height:400px;""></stim_listB>","is greeting","","","","","",""
"null","<div style=""font-size:60px;"">+</div>","","html-keyboard-response","94","1079863","0.0-13.0-0.16","14914","List2B","black","woman","","","","null","","","","","","","","",""
"null","<img src=""stim_listB/challenge4.gif""style=""height:400px;""></stim_listB>","","html-keyboard-response","95","1081874","0.0-13.0-1.16","14914","List2B","black","woman","","","","null","","","","","","","","",""
"null","is being challenged by","","html-keyboard-response","96","1083886","0.0-13.0-2.16","14914","List2B","black","woman","","","","null","","","","","","","","",""
"46559.5","","","survey-text","97","1130448","0.0-13.0-3.16","14914","List2B","black","woman","","","","","{""Q0"":""kate is being challenged by fred""}","<img src=""stim_listB/challenge4.gif""style=""height:400px;""></stim_listB>","is being challenged by","","","","","",""
"null","<div style=""font-size:60px;"">+</div>","","html-keyboard-response","98","1130958","0.0-13.0-0.17","14914","List2B","black","woman","","","","null","","","","","","","","",""
"null","<img src=""stim_listB/seduce1.gif""style=""height:400px;""></stim_listB>","","html-keyboard-response","99","1132969","0.0-13.0-1.17","14914","List2B","black","woman","","","","null","","","","","","","","",""
"null","is seducing","","html-keyboard-response","100","1134971","0.0-13.0-2.17","14914","List2B","black","woman","","","","null","","","","","","","","",""
"56784.80000001192","","","survey-text","101","1191758","0.0-13.0-3.17","14914","List2B","black","woman","","","","","{""Q0"":""luke is seducing jane""}","<img src=""stim_listB/seduce1.gif""style=""height:400px;""></stim_listB>","is seducing","","","","","",""
"null","<div style=""font-size:60px;"">+</div>","","html-keyboard-response","102","1192273","0.0-13.0-0.18","14914","List2B","black","woman","","","","null","","","","","","","","",""
"null","<img src=""stim_listB/challenge5.gif""style=""height:400px;""></stim_listB>","","html-keyboard-response","103","1194277","0.0-13.0-1.18","14914","List2B","black","woman","","","","null","","","","","","","","",""
"null","is challenging","","html-keyboard-response","104","1196289","0.0-13.0-2.18","14914","List2B","black","woman","","","","null","","","","","","","","",""
"53636.10000002384","","","survey-text","105","1249928","0.0-13.0-3.18","14914","List2B","black","woman","","","","","{""Q0"":""dave is challenging fred""}","<img src=""stim_listB/challenge5.gif""style=""height:400px;""></stim_listB>","is challenging","","","","","",""
"null","<div style=""font-size:60px;"">+</div>","","html-keyboard-response","106","1250433","0.0-13.0-0.19","14914","List2B","black","woman","","","","null","","","","","","","","",""
"null","<img src=""stim_listB/touch1.gif""style=""height:400px;""></stim_listB>","","html-keyboard-response","107","1252439","0.0-13.0-1.19","14914","List2B","black","woman","","","","null","","","","","","","","",""
"null","is touching","","html-keyboard-response","108","1254455","0.0-13.0-2.19","14914","List2B","black","woman","","","","null","","","","","","","","",""
"18699.799999952316","","","survey-text","109","1273158","0.0-13.0-3.19","14914","List2B","black","woman","","","","","{""Q0"":""jane is touching dave""}","<img src=""stim_listB/touch1.gif""style=""height:400px;""></stim_listB>","is touching","","","","","",""
"16947.69999998808","<img src='img/portrait_matrix_list2.jpg' style='width:900px;height:500px;''></img><p>If you have memorised all the portraits and names and are ready to start, press Continue.</p><p><strong>Please note: Your memory of these faces will be tested 4 times during this experiment.</strong></p>","0","html-button-response","110","1290108","0.0-14.0-0.0","14914","List2B","black","woman","","","","","","","","","","","","",""
"6103.199999988079","<img src=""portrait/WM1.jpg""style=""height:400px;""></img>","6","html-button-response","111","1297218","0.0-14.0-1.0","14914","List2B","black","woman","","true","6","","","","","","","","","",""
"null","CORRECT","","html-keyboard-response","112","1298752","0.0-14.0-2.0-0.0","14914","List2B","black","woman","","","","null","","","","","","","","",""
"996.1000000238419","<img src=""portrait/BM2.jpg""style=""height:400px;""></img>","6","html-button-response","113","1299751","0.0-14.0-4.0","14914","List2B","black","woman","","true","5","","","","","","","","","",""
"3623.5","<img src=""portrait/BM2.jpg""style=""height:400px;""></img>","5","html-button-response","114","1304385","0.0-14.0-6.0-0.0","14914","List2B","black","woman","","false","5","","","","","","","","","",""
"null","CORRECT","","html-keyboard-response","115","1305910","0.0-14.0-6.0-1.0-0.0","14914","List2B","black","woman","","","","null","","","","","","","","",""
"4109.399999976158","<img src=""portrait/BM1.jpg""style=""height:400px;""></img>","4","html-button-response","116","1310022","0.0-14.0-7.0","14914","List2B","black","woman","","true","4","","","","","","","","","",""
"null","CORRECT","","html-keyboard-response","117","1311560","0.0-14.0-8.0-0.0","14914","List2B","black","woman","","","","null","","","","","","","","",""
"3128.5","<img src=""portrait/WW2.jpg""style=""height:400px;""></img>","3","html-button-response","118","1314691","0.0-14.0-10.0","14914","List2B","black","woman","","true","3","","","","","","","","","",""
"null","CORRECT","","html-keyboard-response","119","1316212","0.0-14.0-11.0-0.0","14914","List2B","black","woman","","","","null","","","","","","","","",""
"3793.800000011921","<img src=""portrait/WW1.jpg""style=""height:400px;""></img>","1","html-button-response","120","1320008","0.0-14.0-13.0","14914","List2B","black","woman","","true","1","","","","","","","","","",""
"null","CORRECT","","html-keyboard-response","121","1321533","0.0-14.0-14.0-0.0","14914","List2B","black","woman","","","","null","","","","","","","","",""
"4422.799999952316","<img src=""portrait/WM2.jpg""style=""height:400px;""></img>","7","html-button-response","122","1325959","0.0-14.0-16.0","14914","List2B","black","woman","","true","7","","","","","","","","","",""
"null","CORRECT","","html-keyboard-response","123","1327475","0.0-14.0-17.0-0.0","14914","List2B","black","woman","","","","null","","","","","","","","",""
"6179.799999952316","<img src=""portrait/BW1.jpg""style=""height:400px;""></img>","0","html-button-response","124","1333658","0.0-14.0-19.0","14914","List2B","black","woman","","true","0","","","","","","","","","",""
"null","CORRECT","","html-keyboard-response","125","1335165","0.0-14.0-20.0-0.0","14914","List2B","black","woman","","","","null","","","","","","","","",""
"3802.099999964237","<img src=""portrait/BW2.jpg""style=""height:400px;""></img>","2","html-button-response","126","1338970","0.0-14.0-22.0","14914","List2B","black","woman","","true","2","","","","","","","","","",""
"null","CORRECT","","html-keyboard-response","127","1340503","0.0-14.0-23.0-0.0","14914","List2B","black","woman","","","","null","","","","","","","","",""
"4014.800000011921","<p>You got 7 out of 8 right first time. Press Continue.</p>","0","html-button-response","128","1344520","0.0-14.0-25.0","14914","List2B","black","woman","","","","","","","","","","","","",""
"17708.5","As you did not score 100%, the memory game will repeat. Press Continue.","0","html-button-response","129","1363245","0.0-14.0-26.0-0.0","14914","List2B","black","woman","","","","","","","","","","","","",""
"4400.599999964237","<img src='img/portrait_matrix_list2.jpg' style='width:900px;height:500px;''></img><p>If you have memorised all the portraits and names and are ready to start, press Continue.</p><p><strong>Please note: Your memory of these faces will be tested 4 times during this experiment.</strong></p>","0","html-button-response","130","1368659","0.0-14.1-0.1","14914","List2B","black","woman","","","","","","","","","","","","",""
"9641.300000011921","<img src=""portrait/WM1.jpg""style=""height:400px;""></img>","6","html-button-response","131","1379309","0.0-14.1-1.1","14914","List2B","black","woman","","true","6","","","","","","","","","",""
"null","CORRECT","","html-keyboard-response","132","1380822","0.0-14.1-2.1-0.1","14914","List2B","black","woman","","","","null","","","","","","","","",""
"3554","<img src=""portrait/BM2.jpg""style=""height:400px;""></img>","5","html-button-response","133","1384378","0.0-14.1-4.1","14914","List2B","black","woman","","true","5","","","","","","","","","",""
"null","CORRECT","","html-keyboard-response","134","1385891","0.0-14.1-5.1-0.1","14914","List2B","black","woman","","","","null","","","","","","","","",""
"6068","<img src=""portrait/BM1.jpg""style=""height:400px;""></img>","4","html-button-response","135","1391961","0.0-14.1-7.1","14914","List2B","black","woman","","true","4","","","","","","","","","",""
"null","CORRECT","","html-keyboard-response","136","1393497","0.0-14.1-8.1-0.1","14914","List2B","black","woman","","","","null","","","","","","","","",""
"5318.799999952316","<img src=""portrait/WW2.jpg""style=""height:400px;""></img>","3","html-button-response","137","1398818","0.0-14.1-10.1","14914","List2B","black","woman","","true","3","","","","","","","","","",""
"null","CORRECT","","html-keyboard-response","138","1400350","0.0-14.1-11.1-0.1","14914","List2B","black","woman","","","","null","","","","","","","","",""
"3814.199999988079","<img src=""portrait/WW1.jpg""style=""height:400px;""></img>","1","html-button-response","139","1404167","0.0-14.1-13.1","14914","List2B","black","woman","","true","1","","","","","","","","","",""
"null","CORRECT","","html-keyboard-response","140","1405693","0.0-14.1-14.1-0.1","14914","List2B","black","woman","","","","null","","","","","","","","",""
"4647.400000035763","<img src=""portrait/WM2.jpg""style=""height:400px;""></img>","7","html-button-response","141","1410343","0.0-14.1-16.1","14914","List2B","black","woman","","true","7","","","","","","","","","",""
"null","CORRECT","","html-keyboard-response","142","1411849","0.0-14.1-17.1-0.1","14914","List2B","black","woman","","","","null","","","","","","","","",""
"4827.399999976158","<img src=""portrait/BW1.jpg""style=""height:400px;""></img>","0","html-button-response","143","1416679","0.0-14.1-19.1","14914","List2B","black","woman","","true","0","","","","","","","","","",""
"null","CORRECT","","html-keyboard-response","144","1418201","0.0-14.1-20.1-0.1","14914","List2B","black","woman","","","","null","","","","","","","","",""
"3865.199999988079","<img src=""portrait/BW2.jpg""style=""height:400px;""></img>","2","html-button-response","145","1422068","0.0-14.1-22.1","14914","List2B","black","woman","","true","2","","","","","","","","","",""
"null","CORRECT","","html-keyboard-response","146","1423581","0.0-14.1-23.1-0.1","14914","List2B","black","woman","","","","null","","","","","","","","",""
"2007.5","<p>You got 8 out of 8 right first time. Press Continue.</p>","0","html-button-response","147","1425591","0.0-14.1-25.1","14914","List2B","black","woman","","","","","","","","","","","","",""
"null","<div style=""font-size:60px;"">+</div>","","html-keyboard-response","148","1427108","0.0-15.0-0.0","14914","List2B","black","woman","","","","null","","","","","","","","",""
"null","<img src=""stim_listB/oppose4.gif""style=""height:400px;""></stim_listB>","","html-keyboard-response","149","1429123","0.0-15.0-1.0","14914","List2B","black","woman","","","","null","","","","","","","","",""
"null","is being opposed by","","html-keyboard-response","150","1431133","0.0-15.0-2.0","14914","List2B","black","woman","","","","null","","","","","","","","",""
"29046.799999952316","","","survey-text","151","1460182","0.0-15.0-3.0","14914","List2B","black","woman","","","","","{""Q0"":""beth is being opposed by fred""}","<img src=""stim_listB/oppose4.gif""style=""height:400px;""></stim_listB>","is being opposed by","","","","","",""
"null","<div style=""font-size:60px;"">+</div>","","html-keyboard-response","152","1460696","0.0-15.0-0.1","14914","List2B","black","woman","","","","null","","","","","","","","",""
"null","<img src=""stim_listB/oppose3.gif""style=""height:400px;""></stim_listB>","","html-keyboard-response","153","1462709","0.0-15.0-1.1","14914","List2B","black","woman","","","","null","","","","","","","","",""
"null","is opposing","","html-keyboard-response","154","1464724","0.0-15.0-2.1","14914","List2B","black","woman","","","","null","","","","","","","","",""
"79797.69999998808","","","survey-text","155","1544524","0.0-15.0-3.1","14914","List2B","black","woman","","","","","{""Q0"":""mike is opposing kate""}","<img src=""stim_listB/oppose3.gif""style=""height:400px;""></stim_listB>","is opposing","","","","","",""
"null","<div style=""font-size:60px;"">+</div>","","html-keyboard-response","156","1545032","0.0-15.0-0.2","14914","List2B","black","woman","","","","null","","","","","","","","",""
"null","<img src=""stim_listB/hug3.gif""style=""height:400px;""></stim_listB>","","html-keyboard-response","157","1547044","0.0-15.0-1.2","14914","List2B","black","woman","","","","null","","","","","","","","",""
"null","is hugging","","html-keyboard-response","158","1549051","0.0-15.0-2.2","14914","List2B","black","woman","","","","null","","","","","","","","",""
"21160.80000001192","","","survey-text","159","1570214","0.0-15.0-3.2","14914","List2B","black","woman","","","","","{""Q0"":""beth is hugging fred""}","<img src=""stim_listB/hug3.gif""style=""height:400px;""></stim_listB>","is hugging","","","","","",""
"null","<div style=""font-size:60px;"">+</div>","","html-keyboard-response","160","1570737","0.0-15.0-0.3","14914","List2B","black","woman","","","","null","","","","","","","","",""
"null","<img src=""stim_listB/oppose1.gif""style=""height:400px;""></stim_listB>","","html-keyboard-response","161","1572746","0.0-15.0-1.3","14914","List2B","black","woman","","","","null","","","","","","","","",""
"null","is opposing","","html-keyboard-response","162","1574752","0.0-15.0-2.3","14914","List2B","black","woman","","","","null","","","","","","","","",""
"29944.399999976158","","","survey-text","163","1604700","0.0-15.0-3.3","14914","List2B","black","woman","","","","","{""Q0"":""jane is opposing dave ""}","<img src=""stim_listB/oppose1.gif""style=""height:400px;""></stim_listB>","is opposing","","","","","",""
"null","<div style=""font-size:60px;"">+</div>","","html-keyboard-response","164","1605220","0.0-15.0-0.4","14914","List2B","black","woman","","","","null","","","","","","","","",""
"null","<img src=""stim_listB/touch2.gif""style=""height:400px;""></stim_listB>","","html-keyboard-response","165","1607231","0.0-15.0-1.4","14914","List2B","black","woman","","","","null","","","","","","","","",""
"null","is being touched by","","html-keyboard-response","166","1609243","0.0-15.0-2.4","14914","List2B","black","woman","","","","null","","","","","","","","",""
"20004.19999998808","","","survey-text","167","1629251","0.0-15.0-3.4","14914","List2B","black","woman","","","","","{""Q0"":""luke is being touched by ruth""}","<img src=""stim_listB/touch2.gif""style=""height:400px;""></stim_listB>","is being touched by","","","","","",""
"null","<div style=""font-size:60px;"">+</div>","","html-keyboard-response","168","1629767","0.0-15.0-0.5","14914","List2B","black","woman","","","","null","","","","","","","","",""
"null","<img src=""stim_listB/challenge3.gif""style=""height:400px;""></stim_listB>","","html-keyboard-response","169","1631777","0.0-15.0-1.5","14914","List2B","black","woman","","","","null","","","","","","","","",""
"null","is challenging","","html-keyboard-response","170","1633789","0.0-15.0-2.5","14914","List2B","black","woman","","","","null","","","","","","","","",""
"35554.5","","","survey-text","171","1669346","0.0-15.0-3.5","14914","List2B","black","woman","","","","","{""Q0"":""mike is challenging beth""}","<img src=""stim_listB/challenge3.gif""style=""height:400px;""></stim_listB>","is challenging","","","","","",""
"null","<div style=""font-size:60px;"">+</div>","","html-keyboard-response","172","1669865","0.0-15.0-0.6","14914","List2B","black","woman","","","","null","","","","","","","","",""
"null","<img src=""stim_listB/hug8.gif""style=""height:400px;""></stim_listB>","","html-keyboard-response","173","1671873","0.0-15.0-1.6","14914","List2B","black","woman","","","","null","","","","","","","","",""
"null","is being hugged by","","html-keyboard-response","174","1673881","0.0-15.0-2.6","14914","List2B","black","woman","","","","null","","","","","","","","",""
"20647","","","survey-text","175","1694530","0.0-15.0-3.6","14914","List2B","black","woman","","","","","{""Q0"":""jane is being hugged by kate ""}","<img src=""stim_listB/hug8.gif""style=""height:400px;""></stim_listB>","is being hugged by","","","","","",""
"null","<div style=""font-size:60px;"">+</div>","","html-keyboard-response","176","1695040","0.0-15.0-0.7","14914","List2B","black","woman","","","","null","","","","","","","","",""
"null","<img src=""stim_listB/challenge8.gif""style=""height:400px;""></stim_listB>","","html-keyboard-response","177","1697053","0.0-15.0-1.7","14914","List2B","black","woman","","","","null","","","","","","","","",""
"null","is being challenged by","","html-keyboard-response","178","1699070","0.0-15.0-2.7","14914","List2B","black","woman","","","","null","","","","","","","","",""
"80270.30000001192","","","survey-text","179","1779344","0.0-15.0-3.7","14914","List2B","black","woman","","","","","{""Q0"":""ruth is being challenged by kate""}","<img src=""stim_listB/challenge8.gif""style=""height:400px;""></stim_listB>","is being challenged by","","","","","",""
"null","<div style=""font-size:60px;"">+</div>","","html-keyboard-response","180","1779857","0.0-15.0-0.8","14914","List2B","black","woman","","","","null","","","","","","","","",""
"null","<img src=""stim_listB/greet2.gif""style=""height:400px;""></stim_listB>","","html-keyboard-response","181","1781890","0.0-15.0-1.8","14914","List2B","black","woman","","","","null","","","","","","","","",""
"null","is being greeted by","","html-keyboard-response","182","1783904","0.0-15.0-2.8","14914","List2B","black","woman","","","","null","","","","","","","","",""
"31372.400000035763","","","survey-text","183","1815280","0.0-15.0-3.8","14914","List2B","black","woman","","","","","{""Q0"":""luke is being greeted by jane ""}","<img src=""stim_listB/greet2.gif""style=""height:400px;""></stim_listB>","is being greeted by","","","","","",""
"null","<div style=""font-size:60px;"">+</div>","","html-keyboard-response","184","1815790","0.0-15.0-0.9","14914","List2B","black","woman","","","","null","","","","","","","","",""
"null","<img src=""stim_listB/oppose5.gif""style=""height:400px;""></stim_listB>","","html-keyboard-response","185","1817802","0.0-15.0-1.9","14914","List2B","black","woman","","","","null","","","","","","","","",""
"null","is opposing","","html-keyboard-response","186","1819822","0.0-15.0-2.9","14914","List2B","black","woman","","","","null","","","","","","","","",""
"25969.600000023842","","","survey-text","187","1845795","0.0-15.0-3.9","14914","List2B","black","woman","","","","","{""Q0"":""mike is opposing dave ""}","<img src=""stim_listB/oppose5.gif""style=""height:400px;""></stim_listB>","is opposing","","","","","",""
"null","<div style=""font-size:60px;"">+</div>","","html-keyboard-response","188","1846309","0.0-15.0-0.10","14914","List2B","black","woman","","","","null","","","","","","","","",""
"null","<img src=""stim_listB/hug6.gif""style=""height:400px;""></stim_listB>","","html-keyboard-response","189","1848311","0.0-15.0-1.10","14914","List2B","black","woman","","","","null","","","","","","","","",""
"null","is being hugged by","","html-keyboard-response","190","1850327","0.0-15.0-2.10","14914","List2B","black","woman","","","","null","","","","","","","","",""
"13577.600000023842","","","survey-text","191","1863909","0.0-15.0-3.10","14914","List2B","black","woman","","","","","{""Q0"":""mike is being hugged by dave ""}","<img src=""stim_listB/hug6.gif""style=""height:400px;""></stim_listB>","is being hugged by","","","","","",""
"null","<div style=""font-size:60px;"">+</div>","","html-keyboard-response","192","1864416","0.0-15.0-0.11","14914","List2B","black","woman","","","","null","","","","","","","","",""
"null","<img src=""stim_listB/look5.gif""style=""height:400px;""></stim_listB>","","html-keyboard-response","193","1866424","0.0-15.0-1.11","14914","List2B","black","woman","","","","null","","","","","","","","",""
"null","is looking at","","html-keyboard-response","194","1868441","0.0-15.0-2.11","14914","List2B","black","woman","","","","null","","","","","","","","",""
"15775","","","survey-text","195","1884220","0.0-15.0-3.11","14914","List2B","black","woman","","","","","{""Q0"":""luke is looking at fred ""}","<img src=""stim_listB/look5.gif""style=""height:400px;""></stim_listB>","is looking at","","","","","",""
"null","<div style=""font-size:60px;"">+</div>","","html-keyboard-response","196","1884727","0.0-15.0-0.12","14914","List2B","black","woman","","","","null","","","","","","","","",""
"null","<img src=""stim_listB/shout4.gif""style=""height:400px;""></stim_listB>","","html-keyboard-response","197","1886736","0.0-15.0-1.12","14914","List2B","black","woman","","","","null","","","","","","","","",""
"null","is being shouted at by","","html-keyboard-response","198","1888750","0.0-15.0-2.12","14914","List2B","black","woman","","","","null","","","","","","","","",""
"45418.60000002384","","","survey-text","199","1934174","0.0-15.0-3.12","14914","List2B","black","woman","","","","","{""Q0"":""mike is being shouted at by kate ""}","<img src=""stim_listB/shout4.gif""style=""height:400px;""></stim_listB>","is being shouted at by","","","","","",""
"null","<div style=""font-size:60px;"">+</div>","","html-keyboard-response","200","1934681","0.0-15.0-0.13","14914","List2B","black","woman","","","","null","","","","","","","","",""
"null","<img src=""stim_listB/touch7.gif""style=""height:400px;""></stim_listB>","","html-keyboard-response","201","1936686","0.0-15.0-1.13","14914","List2B","black","woman","","","","null","","","","","","","","",""
"null","is touching","","html-keyboard-response","202","1938712","0.0-15.0-2.13","14914","List2B","black","woman","","","","null","","","","","","","","",""
"18871.30000001192","","","survey-text","203","1957588","0.0-15.0-3.13","14914","List2B","black","woman","","","","","{""Q0"":""jane is touching kate""}","<img src=""stim_listB/touch7.gif""style=""height:400px;""></stim_listB>","is touching","","","","","",""
"null","<div style=""font-size:60px;"">+</div>","","html-keyboard-response","204","1958108","0.0-15.0-0.14","14914","List2B","black","woman","","","","null","","","","","","","","",""
"null","<img src=""stim_listB/greet6.gif""style=""height:400px;""></stim_listB>","","html-keyboard-response","205","1960112","0.0-15.0-1.14","14914","List2B","black","woman","","","","null","","","","","","","","",""
"null","is being greeted by","","html-keyboard-response","206","1962119","0.0-15.0-2.14","14914","List2B","black","woman","","","","null","","","","","","","","",""
"11260.100000023842","","","survey-text","207","1973384","0.0-15.0-3.14","14914","List2B","black","woman","","","","","{""Q0"":""mike is being greeted by luke ""}","<img src=""stim_listB/greet6.gif""style=""height:400px;""></stim_listB>","is being greeted by","","","","","",""
"null","<div style=""font-size:60px;"">+</div>","","html-keyboard-response","208","1973901","0.0-15.0-0.15","14914","List2B","black","woman","","","","null","","","","","","","","",""
"null","<img src=""stim_listB/seduce7.gif""style=""height:400px;""></stim_listB>","","html-keyboard-response","209","1975913","0.0-15.0-1.15","14914","List2B","black","woman","","","","null","","","","","","","","",""
"null","is seducing","","html-keyboard-response","210","1977916","0.0-15.0-2.15","14914","List2B","black","woman","","","","null","","","","","","","","",""
"16519.900000035763","","","survey-text","211","1994440","0.0-15.0-3.15","14914","List2B","black","woman","","","","","{""Q0"":""ruth is seducing kate""}","<img src=""stim_listB/seduce7.gif""style=""height:400px;""></stim_listB>","is seducing","","","","","",""
"null","<div style=""font-size:60px;"">+</div>","","html-keyboard-response","212","1994959","0.0-15.0-0.16","14914","List2B","black","woman","","","","null","","","","","","","","",""
"null","<img src=""stim_listB/look8.gif""style=""height:400px;""></stim_listB>","","html-keyboard-response","213","1996969","0.0-15.0-1.16","14914","List2B","black","woman","","","","null","","","","","","","","",""
"null","is being looked at by","","html-keyboard-response","214","1998988","0.0-15.0-2.16","14914","List2B","black","woman","","","","null","","","","","","","","",""
"21636.30000001192","","","survey-text","215","2020630","0.0-15.0-3.16","14914","List2B","black","woman","","","","","{""Q0"":""ruth is being looked at by jane ""}","<img src=""stim_listB/look8.gif""style=""height:400px;""></stim_listB>","is being looked at by","","","","","",""
"null","<div style=""font-size:60px;"">+</div>","","html-keyboard-response","216","2021148","0.0-15.0-0.17","14914","List2B","black","woman","","","","null","","","","","","","","",""
"null","<img src=""stim_listB/seduce2.gif""style=""height:400px;""></stim_listB>","","html-keyboard-response","217","2023161","0.0-15.0-1.17","14914","List2B","black","woman","","","","null","","","","","","","","",""
"null","is being seduced by","","html-keyboard-response","218","2025182","0.0-15.0-2.17","14914","List2B","black","woman","","","","null","","","","","","","","",""
"24751.900000035763","","","survey-text","219","2049937","0.0-15.0-3.17","14914","List2B","black","woman","","","","","{""Q0"":""ruth is being seduced by dave ""}","<img src=""stim_listB/seduce2.gif""style=""height:400px;""></stim_listB>","is being seduced by","","","","","",""
"null","<div style=""font-size:60px;"">+</div>","","html-keyboard-response","220","2050444","0.0-15.0-0.18","14914","List2B","black","woman","","","","null","","","","","","","","",""
"null","<img src=""stim_listB/greet5.gif""style=""height:400px;""></stim_listB>","","html-keyboard-response","221","2052453","0.0-15.0-1.18","14914","List2B","black","woman","","","","null","","","","","","","","",""
"null","is greeting","","html-keyboard-response","222","2054456","0.0-15.0-2.18","14914","List2B","black","woman","","","","null","","","","","","","","",""
"19841.80000001192","","","survey-text","223","2074302","0.0-15.0-3.18","14914","List2B","black","woman","","","","","{""Q0"":""fred is greeting dave ""}","<img src=""stim_listB/greet5.gif""style=""height:400px;""></stim_listB>","is greeting","","","","","",""
"null","<div style=""font-size:60px;"">+</div>","","html-keyboard-response","224","2074809","0.0-15.0-0.19","14914","List2B","black","woman","","","","null","","","","","","","","",""
"null","<img src=""stim_listB/copy7.gif""style=""height:400px;""></stim_listB>","","html-keyboard-response","225","2076819","0.0-15.0-1.19","14914","List2B","black","woman","","","","null","","","","","","","","",""
"null","is copying","","html-keyboard-response","226","2078824","0.0-15.0-2.19","14914","List2B","black","woman","","","","null","","","","","","","","",""
"30615.80000001192","","","survey-text","227","2109443","0.0-15.0-3.19","14914","List2B","black","woman","","","","","{""Q0"":""beth is copying jane ""}","<img src=""stim_listB/copy7.gif""style=""height:400px;""></stim_listB>","is copying","","","","","",""
"4489.5","<img src='img/portrait_matrix_list2.jpg' style='width:900px;height:500px;''></img><p>If you have memorised all the portraits and names and are ready to start, press Continue.</p><p><strong>Please note: Your memory of these faces will be tested 4 times during this experiment.</strong></p>","0","html-button-response","228","2113936","0.0-16.0-0.0","14914","List2B","black","woman","","","","","","","","","","","","",""
"13455.899999976158","<img src=""portrait/BM2.jpg""style=""height:400px;""></img>","5","html-button-response","229","2128404","0.0-16.0-1.0","14914","List2B","black","woman","","true","5","","","","","","","","","",""
"null","CORRECT","","html-keyboard-response","230","2129911","0.0-16.0-2.0-0.0","14914","List2B","black","woman","","","","null","","","","","","","","",""
"4775.099999964237","<img src=""portrait/BM1.jpg""style=""height:400px;""></img>","4","html-button-response","231","2134689","0.0-16.0-4.0","14914","List2B","black","woman","","true","4","","","","","","","","","",""
"null","CORRECT","","html-keyboard-response","232","2136199","0.0-16.0-5.0-0.0","14914","List2B","black","woman","","","","null","","","","","","","","",""
"2881","<img src=""portrait/WW2.jpg""style=""height:400px;""></img>","3","html-button-response","233","2139082","0.0-16.0-7.0","14914","List2B","black","woman","","true","3","","","","","","","","","",""
"null","CORRECT","","html-keyboard-response","234","2140623","0.0-16.0-8.0-0.0","14914","List2B","black","woman","","","","null","","","","","","","","",""
"3776.800000011921","<img src=""portrait/WM2.jpg""style=""height:400px;""></img>","7","html-button-response","235","2144403","0.0-16.0-10.0","14914","List2B","black","woman","","true","7","","","","","","","","","",""
"null","CORRECT","","html-keyboard-response","236","2145924","0.0-16.0-11.0-0.0","14914","List2B","black","woman","","","","null","","","","","","","","",""
"4938","<img src=""portrait/BW1.jpg""style=""height:400px;""></img>","0","html-button-response","237","2150865","0.0-16.0-13.0","14914","List2B","black","woman","","true","0","","","","","","","","","",""
"null","CORRECT","","html-keyboard-response","238","2152392","0.0-16.0-14.0-0.0","14914","List2B","black","woman","","","","null","","","","","","","","",""
"3515.399999976158","<img src=""portrait/WM1.jpg""style=""height:400px;""></img>","6","html-button-response","239","2155910","0.0-16.0-16.0","14914","List2B","black","woman","","true","6","","","","","","","","","",""
"null","CORRECT","","html-keyboard-response","240","2157449","0.0-16.0-17.0-0.0","14914","List2B","black","woman","","","","null","","","","","","","","",""
"18874","<img src=""portrait/WW1.jpg""style=""height:400px;""></img>","1","html-button-response","241","2176326","0.0-16.0-19.0","14914","List2B","black","woman","","true","1","","","","","","","","","",""
"null","CORRECT","","html-keyboard-response","242","2177846","0.0-16.0-20.0-0.0","14914","List2B","black","woman","","","","null","","","","","","","","",""
"4428.800000011921","<img src=""portrait/BW2.jpg""style=""height:400px;""></img>","2","html-button-response","243","2182278","0.0-16.0-22.0","14914","List2B","black","woman","","true","2","","","","","","","","","",""
"null","CORRECT","","html-keyboard-response","244","2183811","0.0-16.0-23.0-0.0","14914","List2B","black","woman","","","","null","","","","","","","","",""
"2312.899999976158","<p>You got 8 out of 8 right first time. Press Continue.</p>","0","html-button-response","245","2186127","0.0-16.0-25.0","14914","List2B","black","woman","","","","","","","","","","","","",""
"null","<div style=""font-size:60px;"">+</div>","","html-keyboard-response","246","2187641","0.0-17.0-0.0","14914","List2B","black","woman","","","","null","","","","","","","","",""
"null","<img src=""stim_listB/copy1.gif""style=""height:400px;""></stim_listB>","","html-keyboard-response","247","2189647","0.0-17.0-1.0","14914","List2B","black","woman","","","","null","","","","","","","","",""
"null","is copying","","html-keyboard-response","248","2191651","0.0-17.0-2.0","14914","List2B","black","woman","","","","null","","","","","","","","",""
"34646.39999997616","","","survey-text","249","2226301","0.0-17.0-3.0","14914","List2B","black","woman","","","","","{""Q0"":""ruth is copying dave ""}","<img src=""stim_listB/copy1.gif""style=""height:400px;""></stim_listB>","is copying","","","","","",""
"null","<div style=""font-size:60px;"">+</div>","","html-keyboard-response","250","2226814","0.0-17.0-0.1","14914","List2B","black","woman","","","","null","","","","","","","","",""
"null","<img src=""stim_listB/kiss6.gif""style=""height:400px;""></stim_listB>","","html-keyboard-response","251","2228826","0.0-17.0-1.1","14914","List2B","black","woman","","","","null","","","","","","","","",""
"null","is being kissed by","","html-keyboard-response","252","2230831","0.0-17.0-2.1","14914","List2B","black","woman","","","","null","","","","","","","","",""
"19547.5","","","survey-text","253","2250383","0.0-17.0-3.1","14914","List2B","black","woman","","","","","{""Q0"":""mike is being kissed by dave ""}","<img src=""stim_listB/kiss6.gif""style=""height:400px;""></stim_listB>","is being kissed by","","","","","",""
"null","<div style=""font-size:60px;"">+</div>","","html-keyboard-response","254","2250899","0.0-17.0-0.2","14914","List2B","black","woman","","","","null","","","","","","","","",""
"null","<img src=""stim_listB/oppose8.gif""style=""height:400px;""></stim_listB>","","html-keyboard-response","255","2252908","0.0-17.0-1.2","14914","List2B","black","woman","","","","null","","","","","","","","",""
"null","is being opposed by","","html-keyboard-response","256","2254922","0.0-17.0-2.2","14914","List2B","black","woman","","","","null","","","","","","","","",""
"51366.5","","","survey-text","257","2306291","0.0-17.0-3.2","14914","List2B","black","woman","","","","","{""Q0"":""beth is being opposed by ruth""}","<img src=""stim_listB/oppose8.gif""style=""height:400px;""></stim_listB>","is being opposed by","","","","","",""
"null","<div style=""font-size:60px;"">+</div>","","html-keyboard-response","258","2306798","0.0-17.0-0.3","14914","List2B","black","woman","","","","null","","","","","","","","",""
"null","<img src=""stim_listB/shout3.gif""style=""height:400px;""></stim_listB>","","html-keyboard-response","259","2308803","0.0-17.0-1.3","14914","List2B","black","woman","","","","null","","","","","","","","",""
"null","is shouting at","","html-keyboard-response","260","2310805","0.0-17.0-2.3","14914","List2B","black","woman","","","","null","","","","","","","","",""
"26688.80000001192","","","survey-text","261","2337497","0.0-17.0-3.3","14914","List2B","black","woman","","","","","{""Q0"":""fred is shouting at beth""}","<img src=""stim_listB/shout3.gif""style=""height:400px;""></stim_listB>","is shouting at","","","","","",""
"null","<div style=""font-size:60px;"">+</div>","","html-keyboard-response","262","2338005","0.0-17.0-0.4","14914","List2B","black","woman","","","","null","","","","","","","","",""
"null","<img src=""stim_listB/copy4.gif""style=""height:400px;""></stim_listB>","","html-keyboard-response","263","2340019","0.0-17.0-1.4","14914","List2B","black","woman","","","","null","","","","","","","","",""
"null","is being copied by","","html-keyboard-response","264","2342021","0.0-17.0-2.4","14914","List2B","black","woman","","","","null","","","","","","","","",""
"16258.300000011921","","","survey-text","265","2358283","0.0-17.0-3.4","14914","List2B","black","woman","","","","","{""Q0"":""kate is being copied by fred""}","<img src=""stim_listB/copy4.gif""style=""height:400px;""></stim_listB>","is being copied by","","","","","",""
"null","<div style=""font-size:60px;"">+</div>","","html-keyboard-response","266","2358809","0.0-17.0-0.5","14914","List2B","black","woman","","","","null","","","","","","","","",""
"null","<img src=""stim_listB/shout1.gif""style=""height:400px;""></stim_listB>","","html-keyboard-response","267","2360816","0.0-17.0-1.5","14914","List2B","black","woman","","","","null","","","","","","","","",""
"null","is shouting at","","html-keyboard-response","268","2362836","0.0-17.0-2.5","14914","List2B","black","woman","","","","null","","","","","","","","",""
"16909.19999998808","","","survey-text","269","2379750","0.0-17.0-3.5","14914","List2B","black","woman","","","","","{""Q0"":""ruth is shouting at luke""}","<img src=""stim_listB/shout1.gif""style=""height:400px;""></stim_listB>","is shouting at","","","","","",""
"null","<div style=""font-size:60px;"">+</div>","","html-keyboard-response","270","2380262","0.0-17.0-0.6","14914","List2B","black","woman","","","","null","","","","","","","","",""
"null","<img src=""stim_listB/copy8.gif""style=""height:400px;""></stim_listB>","","html-keyboard-response","271","2382276","0.0-17.0-1.6","14914","List2B","black","woman","","","","null","","","","","","","","",""
"null","is being copied by","","html-keyboard-response","272","2384302","0.0-17.0-2.6","14914","List2B","black","woman","","","","null","","","","","","","","",""
"10451.299999952316","","","survey-text","273","2394758","0.0-17.0-3.6","14914","List2B","black","woman","","","","","{""Q0"":""ruth is being copied by kate ""}","<img src=""stim_listB/copy8.gif""style=""height:400px;""></stim_listB>","is being copied by","","","","","",""
"null","<div style=""font-size:60px;"">+</div>","","html-keyboard-response","274","2395281","0.0-17.0-0.7","14914","List2B","black","woman","","","","null","","","","","","","","",""
"null","<img src=""stim_listB/copy5.gif""style=""height:400px;""></stim_listB>","","html-keyboard-response","275","2397285","0.0-17.0-1.7","14914","List2B","black","woman","","","","null","","","","","","","","",""
"null","is copying","","html-keyboard-response","276","2399303","0.0-17.0-2.7","14914","List2B","black","woman","","","","null","","","","","","","","",""
"17186.69999998808","","","survey-text","277","2416494","0.0-17.0-3.7","14914","List2B","black","woman","","","","","{""Q0"":""fred is copying dave ""}","<img src=""stim_listB/copy5.gif""style=""height:400px;""></stim_listB>","is copying","","","","","",""
"null","<div style=""font-size:60px;"">+</div>","","html-keyboard-response","278","2417002","0.0-17.0-0.8","14914","List2B","black","woman","","","","null","","","","","","","","",""
"null","<img src=""stim_listB/kiss1.gif""style=""height:400px;""></stim_listB>","","html-keyboard-response","279","2419030","0.0-17.0-1.8","14914","List2B","black","woman","","","","null","","","","","","","","",""
"null","is kissing","","html-keyboard-response","280","2421038","0.0-17.0-2.8","14914","List2B","black","woman","","","","null","","","","","","","","",""
"8324.699999988079","","","survey-text","281","2429366","0.0-17.0-3.8","14914","List2B","black","woman","","","","","{""Q0"":""luke is kissing ruth""}","<img src=""stim_listB/kiss1.gif""style=""height:400px;""></stim_listB>","is kissing","","","","","",""
"null","<div style=""font-size:60px;"">+</div>","","html-keyboard-response","282","2429868","0.0-17.0-0.9","14914","List2B","black","woman","","","","null","","","","","","","","",""
"null","<img src=""stim_listB/touch3.gif""style=""height:400px;""></stim_listB>","","html-keyboard-response","283","2431874","0.0-17.0-1.9","14914","List2B","black","woman","","","","null","","","","","","","","",""
"null","is touching","","html-keyboard-response","284","2433882","0.0-17.0-2.9","14914","List2B","black","woman","","","","null","","","","","","","","",""
"10295.300000011921","","","survey-text","285","2444181","0.0-17.0-3.9","14914","List2B","black","woman","","","","","{""Q0"":""mike is touching kate ""}","<img src=""stim_listB/touch3.gif""style=""height:400px;""></stim_listB>","is touching","","","","","",""
"null","<div style=""font-size:60px;"">+</div>","","html-keyboard-response","286","2444691","0.0-17.0-0.10","14914","List2B","black","woman","","","","null","","","","","","","","",""
"null","<img src=""stim_listB/look4.gif""style=""height:400px;""></stim_listB>","","html-keyboard-response","287","2446705","0.0-17.0-1.10","14914","List2B","black","woman","","","","null","","","","","","","","",""
"null","is being looked at by","","html-keyboard-response","288","2448723","0.0-17.0-2.10","14914","List2B","black","woman","","","","null","","","","","","","","",""
"15253.699999988079","","","survey-text","289","2463980","0.0-17.0-3.10","14914","List2B","black","woman","","","","","{""Q0"":""mike is being looked by kate ""}","<img src=""stim_listB/look4.gif""style=""height:400px;""></stim_listB>","is being looked at by","","","","","",""
"null","<div style=""font-size:60px;"">+</div>","","html-keyboard-response","290","2464486","0.0-17.0-0.11","14914","List2B","black","woman","","","","null","","","","","","","","",""
"null","<img src=""stim_listB/shout8.gif""style=""height:400px;""></stim_listB>","","html-keyboard-response","291","2466494","0.0-17.0-1.11","14914","List2B","black","woman","","","","null","","","","","","","","",""
"null","is being shouted at by","","html-keyboard-response","292","2468502","0.0-17.0-2.11","14914","List2B","black","woman","","","","null","","","","","","","","",""
"30843.5","","","survey-text","293","2499349","0.0-17.0-3.11","14914","List2B","black","woman","","","","","{""Q0"":""jane is being shouted at by kate ""}","<img src=""stim_listB/shout8.gif""style=""height:400px;""></stim_listB>","is being shouted at by","","","","","",""
"null","<div style=""font-size:60px;"">+</div>","","html-keyboard-response","294","2499855","0.0-17.0-0.12","14914","List2B","black","woman","","","","null","","","","","","","","",""
"null","<img src=""stim_listB/shout5.gif""style=""height:400px;""></stim_listB>","","html-keyboard-response","295","2501861","0.0-17.0-1.12","14914","List2B","black","woman","","","","null","","","","","","","","",""
"null","is shouting at","","html-keyboard-response","296","2503869","0.0-17.0-2.12","14914","List2B","black","woman","","","","null","","","","","","","","",""
"17125.600000023842","","","survey-text","297","2520999","0.0-17.0-3.12","14914","List2B","black","woman","","","","","{""Q0"":""fred is shouting at luke ""}","<img src=""stim_listB/shout5.gif""style=""height:400px;""></stim_listB>","is shouting at","","","","","",""
"null","<div style=""font-size:60px;"">+</div>","","html-keyboard-response","298","2521517","0.0-17.0-0.13","14914","List2B","black","woman","","","","null","","","","","","","","",""
"null","<img src=""stim_listB/greet8.gif""style=""height:400px;""></stim_listB>","","html-keyboard-response","299","2523521","0.0-17.0-1.13","14914","List2B","black","woman","","","","null","","","","","","","","",""
"null","is being greeted by","","html-keyboard-response","300","2525532","0.0-17.0-2.13","14914","List2B","black","woman","","","","null","","","","","","","","",""
"16622.19999998808","","","survey-text","301","2542158","0.0-17.0-3.13","14914","List2B","black","woman","","","","","{""Q0"":""ruth is being greeted by kate ""}","<img src=""stim_listB/greet8.gif""style=""height:400px;""></stim_listB>","is being greeted by","","","","","",""
"null","<div style=""font-size:60px;"">+</div>","","html-keyboard-response","302","2542674","0.0-17.0-0.14","14914","List2B","black","woman","","","","null","","","","","","","","",""
"null","<img src=""stim_listB/oppose2.gif""style=""height:400px;""></stim_listB>","","html-keyboard-response","303","2544682","0.0-17.0-1.14","14914","List2B","black","woman","","","","null","","","","","","","","",""
"null","is being opposed by","","html-keyboard-response","304","2546705","0.0-17.0-2.14","14914","List2B","black","woman","","","","null","","","","","","","","",""
"14294.5","","","survey-text","305","2561004","0.0-17.0-3.14","14914","List2B","black","woman","","","","","{""Q0"":""ruth is being opposed by luke ""}","<img src=""stim_listB/oppose2.gif""style=""height:400px;""></stim_listB>","is being opposed by","","","","","",""
"null","<div style=""font-size:60px;"">+</div>","","html-keyboard-response","306","2561507","0.0-17.0-0.15","14914","List2B","black","woman","","","","null","","","","","","","","",""
"null","<img src=""stim_listB/kiss8.gif""style=""height:400px;""></stim_listB>","","html-keyboard-response","307","2563525","0.0-17.0-1.15","14914","List2B","black","woman","","","","null","","","","","","","","",""
"null","is being kissed by","","html-keyboard-response","308","2565534","0.0-17.0-2.15","14914","List2B","black","woman","","","","null","","","","","","","","",""
"14069.300000011921","","","survey-text","309","2579608","0.0-17.0-3.15","14914","List2B","black","woman","","","","","{""Q0"":""jane is being kissed by kate ""}","<img src=""stim_listB/kiss8.gif""style=""height:400px;""></stim_listB>","is being kissed by","","","","","",""
"null","<div style=""font-size:60px;"">+</div>","","html-keyboard-response","310","2580115","0.0-17.0-0.16","14914","List2B","black","woman","","","","null","","","","","","","","",""
"null","<img src=""stim_listB/hug4.gif""style=""height:400px;""></stim_listB>","","html-keyboard-response","311","2582132","0.0-17.0-1.16","14914","List2B","black","woman","","","","null","","","","","","","","",""
"null","is being hugged by","","html-keyboard-response","312","2584142","0.0-17.0-2.16","14914","List2B","black","woman","","","","null","","","","","","","","",""
"15525.800000011921","","","survey-text","313","2599673","0.0-17.0-3.16","14914","List2B","black","woman","","","","","{""Q0"":""mike is being hugged by kate""}","<img src=""stim_listB/hug4.gif""style=""height:400px;""></stim_listB>","is being hugged by","","","","","",""
"null","<div style=""font-size:60px;"">+</div>","","html-keyboard-response","314","2600183","0.0-17.0-0.17","14914","List2B","black","woman","","","","null","","","","","","","","",""
"null","<img src=""stim_listB/seduce8.gif""style=""height:400px;""></stim_listB>","","html-keyboard-response","315","2602189","0.0-17.0-1.17","14914","List2B","black","woman","","","","null","","","","","","","","",""
"null","is being seduced by","","html-keyboard-response","316","2604202","0.0-17.0-2.17","14914","List2B","black","woman","","","","null","","","","","","","","",""
"23649.400000035763","","","survey-text","317","2627856","0.0-17.0-3.17","14914","List2B","black","woman","","","","","{""Q0"":""beth is being seduced by jane ""}","<img src=""stim_listB/seduce8.gif""style=""height:400px;""></stim_listB>","is being seduced by","","","","","",""
"null","<div style=""font-size:60px;"">+</div>","","html-keyboard-response","318","2628359","0.0-17.0-0.18","14914","List2B","black","woman","","","","null","","","","","","","","",""
"null","<img src=""stim_listB/challenge1.gif""style=""height:400px;""></stim_listB>","","html-keyboard-response","319","2630366","0.0-17.0-1.18","14914","List2B","black","woman","","","","null","","","","","","","","",""
"null","is challenging","","html-keyboard-response","320","2632372","0.0-17.0-2.18","14914","List2B","black","woman","","","","null","","","","","","","","",""
"32323.299999952316","","","survey-text","321","2664698","0.0-17.0-3.18","14914","List2B","black","woman","","","","","{""Q0"":""dave is challenging ruth ""}","<img src=""stim_listB/challenge1.gif""style=""height:400px;""></stim_listB>","is challenging","","","","","",""
"null","<div style=""font-size:60px;"">+</div>","","html-keyboard-response","322","2665216","0.0-17.0-0.19","14914","List2B","black","woman","","","","null","","","","","","","","",""
"null","<img src=""stim_listB/seduce5.gif""style=""height:400px;""></stim_listB>","","html-keyboard-response","323","2667223","0.0-17.0-1.19","14914","List2B","black","woman","","","","null","","","","","","","","",""
"null","is seducing","","html-keyboard-response","324","2669231","0.0-17.0-2.19","14914","List2B","black","woman","","","","null","","","","","","","","",""
"15984.099999964237","","","survey-text","325","2685220","0.0-17.0-3.19","14914","List2B","black","woman","","","","","{""Q0"":""luke is seducing mike ""}","<img src=""stim_listB/seduce5.gif""style=""height:400px;""></stim_listB>","is seducing","","","","","",""
"10082.900000035763","<img src='img/portrait_matrix_list2.jpg' style='width:900px;height:500px;''></img><p>If you have memorised all the portraits and names and are ready to start, press Continue.</p><p><strong>Please note: Your memory of these faces will be tested 4 times during this experiment.</strong></p>","0","html-button-response","326","2695306","0.0-18.0-0.0","14914","List2B","black","woman","","","","","","","","","","","","",""
"4972.399999976158","<img src=""portrait/WW1.jpg""style=""height:400px;""></img>","1","html-button-response","327","2701287","0.0-18.0-1.0","14914","List2B","black","woman","","true","1","","","","","","","","","",""
"null","CORRECT","","html-keyboard-response","328","2702800","0.0-18.0-2.0-0.0","14914","List2B","black","woman","","","","null","","","","","","","","",""
"4673.700000047684","<img src=""portrait/WM1.jpg""style=""height:400px;""></img>","6","html-button-response","329","2707476","0.0-18.0-4.0","14914","List2B","black","woman","","true","6","","","","","","","","","",""
"null","CORRECT","","html-keyboard-response","330","2708991","0.0-18.0-5.0-0.0","14914","List2B","black","woman","","","","null","","","","","","","","",""
"3640.699999988079","<img src=""portrait/BW1.jpg""style=""height:400px;""></img>","0","html-button-response","331","2712636","0.0-18.0-7.0","14914","List2B","black","woman","","true","0","","","","","","","","","",""
"null","CORRECT","","html-keyboard-response","332","2714147","0.0-18.0-8.0-0.0","14914","List2B","black","woman","","","","null","","","","","","","","",""
"3895.899999976158","<img src=""portrait/BM1.jpg""style=""height:400px;""></img>","4","html-button-response","333","2718046","0.0-18.0-10.0","14914","List2B","black","woman","","true","4","","","","","","","","","",""
"null","CORRECT","","html-keyboard-response","334","2719564","0.0-18.0-11.0-0.0","14914","List2B","black","woman","","","","null","","","","","","","","",""
"5556.899999976158","<img src=""portrait/BW2.jpg""style=""height:400px;""></img>","2","html-button-response","335","2725124","0.0-18.0-13.0","14914","List2B","black","woman","","true","2","","","","","","","","","",""
"null","CORRECT","","html-keyboard-response","336","2726643","0.0-18.0-14.0-0.0","14914","List2B","black","woman","","","","null","","","","","","","","",""
"2178.400000035763","<img src=""portrait/WM2.jpg""style=""height:400px;""></img>","7","html-button-response","337","2728826","0.0-18.0-16.0","14914","List2B","black","woman","","true","7","","","","","","","","","",""
"null","CORRECT","","html-keyboard-response","338","2730339","0.0-18.0-17.0-0.0","14914","List2B","black","woman","","","","null","","","","","","","","",""
"1540","<img src=""portrait/BM2.jpg""style=""height:400px;""></img>","5","html-button-response","339","2731884","0.0-18.0-19.0","14914","List2B","black","woman","","true","5","","","","","","","","","",""
"null","CORRECT","","html-keyboard-response","340","2733406","0.0-18.0-20.0-0.0","14914","List2B","black","woman","","","","null","","","","","","","","",""
"2597.800000011921","<img src=""portrait/WW2.jpg""style=""height:400px;""></img>","3","html-button-response","341","2736007","0.0-18.0-22.0","14914","List2B","black","woman","","true","3","","","","","","","","","",""
"null","CORRECT","","html-keyboard-response","342","2737533","0.0-18.0-23.0-0.0","14914","List2B","black","woman","","","","null","","","","","","","","",""
"1815.800000011921","<p>You got 8 out of 8 right first time. Press Continue.</p>","0","html-button-response","343","2739353","0.0-18.0-25.0","14914","List2B","black","woman","","","","","","","","","","","","",""
"null","<div style=""font-size:60px;"">+</div>","","html-keyboard-response","344","2740879","0.0-19.0-0.0","14914","List2B","black","woman","","","","null","","","","","","","","",""
"null","<img src=""stim_listB/greet4.gif""style=""height:400px;""></stim_listB>","","html-keyboard-response","345","2742886","0.0-19.0-1.0","14914","List2B","black","woman","","","","null","","","","","","","","",""
"null","is being greeted by","","html-keyboard-response","346","2744894","0.0-19.0-2.0","14914","List2B","black","woman","","","","null","","","","","","","","",""
"16899","","","survey-text","347","2761796","0.0-19.0-3.0","14914","List2B","black","woman","","","","","{""Q0"":""fred is being greeted by kate ""}","<img src=""stim_listB/greet4.gif""style=""height:400px;""></stim_listB>","is being greeted by","","","","","",""
"null","<div style=""font-size:60px;"">+</div>","","html-keyboard-response","348","2762299","0.0-19.0-0.1","14914","List2B","black","woman","","","","null","","","","","","","","",""
"null","<img src=""stim_listB/kiss4.gif""style=""height:400px;""></stim_listB>","","html-keyboard-response","349","2764308","0.0-19.0-1.1","14914","List2B","black","woman","","","","null","","","","","","","","",""
"null","is being kissed by","","html-keyboard-response","350","2766314","0.0-19.0-2.1","14914","List2B","black","woman","","","","null","","","","","","","","",""
"11106.199999988079","","","survey-text","351","2777424","0.0-19.0-3.1","14914","List2B","black","woman","","","","","{""Q0"":""mike is being kissed by kate ""}","<img src=""stim_listB/kiss4.gif""style=""height:400px;""></stim_listB>","is being kissed by","","","","","",""
"null","<div style=""font-size:60px;"">+</div>","","html-keyboard-response","352","2777930","0.0-19.0-0.2","14914","List2B","black","woman","","","","null","","","","","","","","",""
"null","<img src=""stim_listB/copy2.gif""style=""height:400px;""></stim_listB>","","html-keyboard-response","353","2779962","0.0-19.0-1.2","14914","List2B","black","woman","","","","null","","","","","","","","",""
"null","is being copied by","","html-keyboard-response","354","2781969","0.0-19.0-2.2","14914","List2B","black","woman","","","","null","","","","","","","","",""
"17062.19999998808","","","survey-text","355","2799036","0.0-19.0-3.2","14914","List2B","black","woman","","","","","{""Q0"":""luke is being copied by ruth""}","<img src=""stim_listB/copy2.gif""style=""height:400px;""></stim_listB>","is being copied by","","","","","",""
"null","<div style=""font-size:60px;"">+</div>","","html-keyboard-response","356","2799540","0.0-19.0-0.3","14914","List2B","black","woman","","","","null","","","","","","","","",""
"null","<img src=""stim_listB/kiss5.gif""style=""height:400px;""></stim_listB>","","html-keyboard-response","357","2801548","0.0-19.0-1.3","14914","List2B","black","woman","","","","null","","","","","","","","",""
"null","is kissing","","html-keyboard-response","358","2803554","0.0-19.0-2.3","14914","List2B","black","woman","","","","null","","","","","","","","",""
"9554.299999952316","","","survey-text","359","2813112","0.0-19.0-3.3","14914","List2B","black","woman","","","","","{""Q0"":""fred is kissing luke ""}","<img src=""stim_listB/kiss5.gif""style=""height:400px;""></stim_listB>","is kissing","","","","","",""
"null","<div style=""font-size:60px;"">+</div>","","html-keyboard-response","360","2813625","0.0-19.0-0.4","14914","List2B","black","woman","","","","null","","","","","","","","",""
"null","<img src=""stim_listB/shout2.gif""style=""height:400px;""></stim_listB>","","html-keyboard-response","361","2815648","0.0-19.0-1.4","14914","List2B","black","woman","","","","null","","","","","","","","",""
"null","is being shouted at by","","html-keyboard-response","362","2817670","0.0-19.0-2.4","14914","List2B","black","woman","","","","null","","","","","","","","",""
"18160.69999998808","","","survey-text","363","2835834","0.0-19.0-3.4","14914","List2B","black","woman","","","","","{""Q0"":""jane is being shouted by dave ""}","<img src=""stim_listB/shout2.gif""style=""height:400px;""></stim_listB>","is being shouted at by","","","","","",""
"null","<div style=""font-size:60px;"">+</div>","","html-keyboard-response","364","2836341","0.0-19.0-0.5","14914","List2B","black","woman","","","","null","","","","","","","","",""
"null","<img src=""stim_listB/touch6.gif""style=""height:400px;""></stim_listB>","","html-keyboard-response","365","2838363","0.0-19.0-1.5","14914","List2B","black","woman","","","","null","","","","","","","","",""
"null","is being touched by","","html-keyboard-response","366","2840369","0.0-19.0-2.5","14914","List2B","black","woman","","","","null","","","","","","","","",""
"16303.899999976158","","","survey-text","367","2856676","0.0-19.0-3.5","14914","List2B","black","woman","","","","","{""Q0"":""luke is being touched by fred ""}","<img src=""stim_listB/touch6.gif""style=""height:400px;""></stim_listB>","is being touched by","","","","","",""
"null","<div style=""font-size:60px;"">+</div>","","html-keyboard-response","368","2857181","0.0-19.0-0.6","14914","List2B","black","woman","","","","null","","","","","","","","",""
"null","<img src=""stim_listB/kiss2.gif""style=""height:400px;""></stim_listB>","","html-keyboard-response","369","2859207","0.0-19.0-1.6","14914","List2B","black","woman","","","","null","","","","","","","","",""
"null","is being kissed by","","html-keyboard-response","370","2861219","0.0-19.0-2.6","14914","List2B","black","woman","","","","null","","","","","","","","",""
"15605.200000047684","","","survey-text","371","2876828","0.0-19.0-3.6","14914","List2B","black","woman","","","","","{""Q0"":""jane is being kissed dave ""}","<img src=""stim_listB/kiss2.gif""style=""height:400px;""></stim_listB>","is being kissed by","","","","","",""
"null","<div style=""font-size:60px;"">+</div>","","html-keyboard-response","372","2877343","0.0-19.0-0.7","14914","List2B","black","woman","","","","null","","","","","","","","",""
"null","<img src=""stim_listB/seduce6.gif""style=""height:400px;""></stim_listB>","","html-keyboard-response","373","2879366","0.0-19.0-1.7","14914","List2B","black","woman","","","","null","","","","","","","","",""
"null","is being seduced by","","html-keyboard-response","374","2881391","0.0-19.0-2.7","14914","List2B","black","woman","","","","null","","","","","","","","",""
"15466.600000023842","","","survey-text","375","2896861","0.0-19.0-3.7","14914","List2B","black","woman","","","","","{""Q0"":""dave is being seduced by fred ""}","<img src=""stim_listB/seduce6.gif""style=""height:400px;""></stim_listB>","is being seduced by","","","","","",""
"null","<div style=""font-size:60px;"">+</div>","","html-keyboard-response","376","2897378","0.0-19.0-0.8","14914","List2B","black","woman","","","","null","","","","","","","","",""
"null","<img src=""stim_listB/hug7.gif""style=""height:400px;""></stim_listB>","","html-keyboard-response","377","2899402","0.0-19.0-1.8","14914","List2B","black","woman","","","","null","","","","","","","","",""
"null","is hugging","","html-keyboard-response","378","2901410","0.0-19.0-2.8","14914","List2B","black","woman","","","","null","","","","","","","","",""
"7512.600000023842","","","survey-text","379","2908926","0.0-19.0-3.8","14914","List2B","black","woman","","","","","{""Q0"":""ruth is hugging beth""}","<img src=""stim_listB/hug7.gif""style=""height:400px;""></stim_listB>","is hugging","","","","","",""
"null","<div style=""font-size:60px;"">+</div>","","html-keyboard-response","380","2909439","0.0-19.0-0.9","14914","List2B","black","woman","","","","null","","","","","","","","",""
"null","<img src=""stim_listB/challenge7.gif""style=""height:400px;""></stim_listB>","","html-keyboard-response","381","2911442","0.0-19.0-1.9","14914","List2B","black","woman","","","","null","","","","","","","","",""
"null","is challenging","","html-keyboard-response","382","2913451","0.0-19.0-2.9","14914","List2B","black","woman","","","","null","","","","","","","","",""
"40018.59999996424","","","survey-text","383","2953472","0.0-19.0-3.9","14914","List2B","black","woman","","","","","{""Q0"":""jane is challenging beth""}","<img src=""stim_listB/challenge7.gif""style=""height:400px;""></stim_listB>","is challenging","","","","","",""
"null","<div style=""font-size:60px;"">+</div>","","html-keyboard-response","384","2953978","0.0-19.0-0.10","14914","List2B","black","woman","","","","null","","","","","","","","",""
"null","<img src=""stim_listB/greet1.gif""style=""height:400px;""></stim_listB>","","html-keyboard-response","385","2955990","0.0-19.0-1.10","14914","List2B","black","woman","","","","null","","","","","","","","",""
"null","is greeting","","html-keyboard-response","386","2957992","0.0-19.0-2.10","14914","List2B","black","woman","","","","null","","","","","","","","",""
"25999.30000001192","","","survey-text","387","2983998","0.0-19.0-3.10","14914","List2B","black","woman","","","","","{""Q0"":""dave is greeting ruth""}","<img src=""stim_listB/greet1.gif""style=""height:400px;""></stim_listB>","is greeting","","","","","",""
"null","<div style=""font-size:60px;"">+</div>","","html-keyboard-response","388","2984510","0.0-19.0-0.11","14914","List2B","black","woman","","","","null","","","","","","","","",""
"null","<img src=""stim_listB/copy3.gif""style=""height:400px;""></stim_listB>","","html-keyboard-response","389","2986517","0.0-19.0-1.11","14914","List2B","black","woman","","","","null","","","","","","","","",""
"null","is copying","","html-keyboard-response","390","2988521","0.0-19.0-2.11","14914","List2B","black","woman","","","","null","","","","","","","","",""
"35382.700000047684","","","survey-text","391","3023907","0.0-19.0-3.11","14914","List2B","black","woman","","","","","{""Q0"":""beth is copying mike ""}","<img src=""stim_listB/copy3.gif""style=""height:400px;""></stim_listB>","is copying","","","","","",""
"null","<div style=""font-size:60px;"">+</div>","","html-keyboard-response","392","3024434","0.0-19.0-0.12","14914","List2B","black","woman","","","","null","","","","","","","","",""
"null","<img src=""stim_listB/copy6.gif""style=""height:400px;""></stim_listB>","","html-keyboard-response","393","3026450","0.0-19.0-1.12","14914","List2B","black","woman","","","","null","","","","","","","","",""
"null","is being copied by","","html-keyboard-response","394","3028453","0.0-19.0-2.12","14914","List2B","black","woman","","","","null","","","","","","","","",""
"16027.800000011921","","","survey-text","395","3044485","0.0-19.0-3.12","14914","List2B","black","woman","","","","","{""Q0"":""mike is being copied by luke""}","<img src=""stim_listB/copy6.gif""style=""height:400px;""></stim_listB>","is being copied by","","","","","",""
"null","<div style=""font-size:60px;"">+</div>","","html-keyboard-response","396","3044988","0.0-19.0-0.13","14914","List2B","black","woman","","","","null","","","","","","","","",""
"null","<img src=""stim_listB/hug1.gif""style=""height:400px;""></stim_listB>","","html-keyboard-response","397","3047011","0.0-19.0-1.13","14914","List2B","black","woman","","","","null","","","","","","","","",""
"null","is hugging","","html-keyboard-response","398","3049024","0.0-19.0-2.13","14914","List2B","black","woman","","","","null","","","","","","","","",""
"21362","","","survey-text","399","3070390","0.0-19.0-3.13","14914","List2B","black","woman","","","","","{""Q0"":""luke is hugging ruth""}","<img src=""stim_listB/hug1.gif""style=""height:400px;""></stim_listB>","is hugging","","","","","",""
"null","<div style=""font-size:60px;"">+</div>","","html-keyboard-response","400","3070908","0.0-19.0-0.14","14914","List2B","black","woman","","","","null","","","","","","","","",""
"null","<img src=""stim_listB/hug5.gif""style=""height:400px;""></stim_listB>","","html-keyboard-response","401","3072916","0.0-19.0-1.14","14914","List2B","black","woman","","","","null","","","","","","","","",""
"null","is hugging","","html-keyboard-response","402","3074921","0.0-19.0-2.14","14914","List2B","black","woman","","","","null","","","","","","","","",""
"15441.800000011921","","","survey-text","403","3090367","0.0-19.0-3.14","14914","List2B","black","woman","","","","","{""Q0"":""fred is hugging luke ""}","<img src=""stim_listB/hug5.gif""style=""height:400px;""></stim_listB>","is hugging","","","","","",""
"null","<div style=""font-size:60px;"">+</div>","","html-keyboard-response","404","3090881","0.0-19.0-0.15","14914","List2B","black","woman","","","","null","","","","","","","","",""
"null","<img src=""stim_listB/look6.gif""style=""height:400px;""></stim_listB>","","html-keyboard-response","405","3092902","0.0-19.0-1.15","14914","List2B","black","woman","","","","null","","","","","","","","",""
"null","is being looked at by","","html-keyboard-response","406","3094909","0.0-19.0-2.15","14914","List2B","black","woman","","","","null","","","","","","","","",""
"10778.900000035763","","","survey-text","407","3105691","0.0-19.0-3.15","14914","List2B","black","woman","","","","","{""Q0"":""mike is being looked at by dave ""}","<img src=""stim_listB/look6.gif""style=""height:400px;""></stim_listB>","is being looked at by","","","","","",""
"null","<div style=""font-size:60px;"">+</div>","","html-keyboard-response","408","3106197","0.0-19.0-0.16","14914","List2B","black","woman","","","","null","","","","","","","","",""
"null","<img src=""stim_listB/look2.gif""style=""height:400px;""></stim_listB>","","html-keyboard-response","409","3108223","0.0-19.0-1.16","14914","List2B","black","woman","","","","null","","","","","","","","",""
"null","is being looked at by","","html-keyboard-response","410","3110230","0.0-19.0-2.16","14914","List2B","black","woman","","","","null","","","","","","","","",""
"9965.899999976158","","","survey-text","411","3120200","0.0-19.0-3.16","14914","List2B","black","woman","","","","","{""Q0"":""jane is being looked at by dave ""}","<img src=""stim_listB/look2.gif""style=""height:400px;""></stim_listB>","is being looked at by","","","","","",""
"null","<div style=""font-size:60px;"">+</div>","","html-keyboard-response","412","3120715","0.0-19.0-0.17","14914","List2B","black","woman","","","","null","","","","","","","","",""
"null","<img src=""stim_listB/shout6.gif""style=""height:400px;""></stim_listB>","","html-keyboard-response","413","3122733","0.0-19.0-1.17","14914","List2B","black","woman","","","","null","","","","","","","","",""
"null","is being shouted at by","","html-keyboard-response","414","3124741","0.0-19.0-2.17","14914","List2B","black","woman","","","","null","","","","","","","","",""
"37781.5","","","survey-text","415","3162527","0.0-19.0-3.17","14914","List2B","black","woman","","","","","{""Q0"":""mike is being shouted at by dave ""}","<img src=""stim_listB/shout6.gif""style=""height:400px;""></stim_listB>","is being shouted at by","","","","","",""
"null","<div style=""font-size:60px;"">+</div>","","html-keyboard-response","416","3163047","0.0-19.0-0.18","14914","List2B","black","woman","","","","null","","","","","","","","",""
"null","<img src=""stim_listB/look1.gif""style=""height:400px;""></stim_listB>","","html-keyboard-response","417","3165051","0.0-19.0-1.18","14914","List2B","black","woman","","","","null","","","","","","","","",""
"null","is looking at","","html-keyboard-response","418","3167068","0.0-19.0-2.18","14914","List2B","black","woman","","","","null","","","","","","","","",""
"9153.800000011921","","","survey-text","419","3176227","0.0-19.0-3.18","14914","List2B","black","woman","","","","","{""Q0"":""luke is looking at ruth""}","<img src=""stim_listB/look1.gif""style=""height:400px;""></stim_listB>","is looking at","","","","","",""
"null","<div style=""font-size:60px;"">+</div>","","html-keyboard-response","420","3176734","0.0-19.0-0.19","14914","List2B","black","woman","","","","null","","","","","","","","",""
"null","<img src=""stim_listB/challenge6.gif""style=""height:400px;""></stim_listB>","","html-keyboard-response","421","3178746","0.0-19.0-1.19","14914","List2B","black","woman","","","","null","","","","","","","","",""
"null","is being challenged by","","html-keyboard-response","422","3180753","0.0-19.0-2.19","14914","List2B","black","woman","","","","null","","","","","","","","",""
"16718.80000001192","","","survey-text","423","3197476","0.0-19.0-3.19","14914","List2B","black","woman","","","","","{""Q0"":""luke is being challenged by mike ""}","<img src=""stim_listB/challenge6.gif""style=""height:400px;""></stim_listB>","is being challenged by","","","","","",""
"6166.199999988079","<p>Thank you for completing that task.</p><p>The final part of this session is a questionnaire that will take about 4 minutes.</p><p>Press Continue.</p>","0","html-button-response","424","3203645","0.0-20.0","14914","List2B","black","woman","","","","","","","","","","","","",""
"67876","","","survey-text","425","3272531","0.0-21.0","14914","List2B","black","woman","","","","","{""Q0"":""41"",""Q1"":""english"",""Q2"":""english"",""Q3"":""usa"",""Q4"":""black"",""Q5"":""black"",""Q6"":""female""}","","","demographics","","","","",""
"2714.199999988079","<p>Have you lived in the USA for the last 5 years or more?</p>","0","html-button-response","426","3275250","0.0-22.0","14914","List2B","black","woman","","","","","","","","fiveyears","","","","",""
"4112.300000011921","<p>Move the slider to show the extent to which you agree with the following statements.</p>","0","html-button-response","427","3280369","0.0-23.0","14914","List2B","black","woman","","","","","","","","","","","","",""
"8505.600000023842","","","html-slider-response","428","3289884","0.0-24.0-0.0-0.0","14914","List2B","black","woman","","","","","","","","survey_gender","100","","","I have a lot in common with my friends.","filler"
"3212.699999988079","","","html-slider-response","429","3293103","0.0-24.0-0.0-0.1","14914","List2B","black","woman","","","","","","","","survey_gender","100","","","I am glad to be my gender.","glad"
"2907.600000023842","","","html-slider-response","430","3296014","0.0-24.0-0.0-0.2","14914","List2B","black","woman","","","","","","","","survey_gender","100","","","I feel solidarity with my friends.","filler"
"6310.100000023842","","","html-slider-response","431","3302329","0.0-24.0-0.0-0.3","14914","List2B","black","woman","","","","","","","","survey_gender","100","","","I am similar to the average person of my gender.","similar"
"5139.400000035763","","","html-slider-response","432","3307473","0.0-24.0-0.0-0.4","14914","List2B","black","woman","","","","","","","","survey_gender","100","","","I feel a bond with my friends.","filler"
"3048.099999964237","","","html-slider-response","433","3310527","0.0-24.0-0.0-0.5","14914","List2B","black","woman","","","","","","","","survey_gender","100","","","Most of the friends in my life are very similar to me.","filler"
"3294","","","html-slider-response","434","3313825","0.0-24.0-0.0-0.6","14914","List2B","black","woman","","","","","","","","survey_gender","100","","","I think that my gender has a lot to be proud of.","proud"
"2597.100000023842","","","html-slider-response","435","3316426","0.0-24.0-0.0-0.7","14914","List2B","black","woman","","","","","","","","survey_gender","100","","","My friends have a lot in common with each other.","filler"
"4274","","","html-slider-response","436","3320704","0.0-24.0-0.0-0.8","14914","List2B","black","woman","","","","","","","","survey_gender","100","","","I would say I am an animal person.","filler"
"4548.600000023842","","","html-slider-response","437","3325256","0.0-24.0-0.0-0.9","14914","List2B","black","woman","","","","","","","","survey_gender","100","","","Being my gender is an important part of how I see myself.","important"
"2782.800000011921","","","html-slider-response","438","3328044","0.0-24.0-0.0-0.10","14914","List2B","black","woman","","","","","","","","survey_gender","100","","","It is not always easy for people to know what I am thinking.","filler"
"3500.600000023842","","","html-slider-response","439","3331550","0.0-24.0-0.0-0.11","14914","List2B","black","woman","","","","","","","","survey_gender","100","","","I often think about the fact that I am my gender.","often"
"3368.699999988079","","","html-slider-response","440","3334922","0.0-24.0-0.0-0.12","14914","List2B","black","woman","","","","","","","","survey_gender","100","","","I often think about my actions.","filler"
"2496.199999988079","","","html-slider-response","441","3337424","0.0-24.0-0.0-0.13","14914","List2B","black","woman","","","","","","","","survey_gender","100","","","I feel committed to my gender.","committed"
"4812.5","","","html-slider-response","442","3342240","0.0-24.0-0.0-0.14","14914","List2B","black","woman","","","","","","","","survey_gender","100","","","Routine is not important to me.","filler"
"3436.600000023842","","","html-slider-response","443","3345682","0.0-24.0-0.0-0.15","14914","List2B","black","woman","","","","","","","","survey_gender","100","","","Family is not more important to me than friendship.","filler"
"3274","","","html-slider-response","444","3348961","0.0-24.0-0.0-0.16","14914","List2B","black","woman","","","","","","","","survey_gender","100","","","Being my gender gives me a good feeling.","feeling"
"3392.699999988079","","","html-slider-response","445","3352360","0.0-24.0-0.0-0.17","14914","List2B","black","woman","","","","","","","","survey_gender","100","","","I have a lot in common with the average person of my gender.","average"
"3027.800000011921","","","html-slider-response","446","3355391","0.0-24.0-0.0-0.18","14914","List2B","black","woman","","","","","","","","survey_gender","100","","","I consider myself a highly empathetic person.","filler"
"2907.5","","","html-slider-response","447","3358303","0.0-24.0-0.0-0.19","14914","List2B","black","woman","","","","","","","","survey_gender","100","","","The fact that I am my gender is an important part of my identity.","identity"
"2753","","","html-slider-response","448","3361062","0.0-24.0-0.0-0.20","14914","List2B","black","woman","","","","","","","","survey_gender","100","","","People of my gender are very similar to each other.","verysimilar"
"3822.199999988079","","","html-slider-response","449","3364888","0.0-24.0-0.0-0.21","14914","List2B","black","woman","","","","","","","","survey_gender","100","","","People of my gender have a lot in common with each other.","common"
"3021.2999999523163","","","html-slider-response","450","3367913","0.0-24.0-0.0-0.22","14914","List2B","black","woman","","","","","","","","survey_gender","54","","","Being around my friends gives me a good feeling.","filler"
"3390.199999988079","","","html-slider-response","451","3371307","0.0-24.0-0.0-0.23","14914","List2B","black","woman","","","","","","","","survey_gender","57","","","I am glad to have the friends that I have.","filler"
"3238","","","html-slider-response","452","3374550","0.0-24.0-0.0-0.24","14914","List2B","black","woman","","","","","","","","survey_gender","100","","","I feel a bond with my gender.","bond"
"2859.300000011921","","","html-slider-response","453","3377414","0.0-24.0-0.0-0.25","14914","List2B","black","woman","","","","","","","","survey_gender","100","","","I feel solidarity with my gender.","solidarity"
"2574.199999988079","","","html-slider-response","454","3379991","0.0-24.0-0.0-0.26","14914","List2B","black","woman","","","","","","","","survey_gender","100","","","My friends understand me.","filler"
"2825.699999988079","","","html-slider-response","455","3382819","0.0-24.0-0.0-0.27","14914","List2B","black","woman","","","","","","","","survey_gender","100","","","It is pleasant to be my gender.","pleasant"
"3524.400000035763","","","html-slider-response","456","3386349","0.0-24.0-1.0-0.0","14914","List2B","black","woman","","","","","","","","survey_race","100","","","People of my race are very similar to each other.","verysimilar"
"3091.300000011921","","","html-slider-response","457","3389446","0.0-24.0-1.0-0.1","14914","List2B","black","woman","","","","","","","","survey_race","100","","","The older I get, the wiser I feel.","filler"
"3368","","","html-slider-response","458","3392819","0.0-24.0-1.0-0.2","14914","List2B","black","woman","","","","","","","","survey_race","100","","","I am glad to be the age I am.","filler"
"4209.5","","","html-slider-response","459","3397034","0.0-24.0-1.0-0.3","14914","List2B","black","woman","","","","","","","","survey_race","100","","","Being my age gives me a good feeling.","filler"
"3540.800000011921","","","html-slider-response","460","3400579","0.0-24.0-1.0-0.4","14914","List2B","black","woman","","","","","","","","survey_race","100","","","Being my race gives me a good feeling.","feeling"
"2856.2000000476837","","","html-slider-response","461","3403441","0.0-24.0-1.0-0.5","14914","List2B","black","woman","","","","","","","","survey_race","100","","","It is pleasant to be my race.","pleasant"
"4681.799999952316","","","html-slider-response","462","3408126","0.0-24.0-1.0-0.6","14914","List2B","black","woman","","","","","","","","survey_race","100","","","I have a lot in common with people of a similar age to me.","filler"
"2935.600000023842","","","html-slider-response","463","3411067","0.0-24.0-1.0-0.7","14914","List2B","black","woman","","","","","","","","survey_race","100","","","I am similar to the average person of my race.","similar"
"2137.600000023842","","","html-slider-response","464","3413208","0.0-24.0-1.0-0.8","14914","List2B","black","woman","","","","","","","","survey_race","100","","","I am glad to be my race.","glad"
"1631.6000000238419","","","html-slider-response","465","3414841","0.0-24.0-1.0-0.9","14914","List2B","black","woman","","","","","","","","survey_race","100","","","I often think about the fact that I am my age.","filler"
"1666.800000011921","","","html-slider-response","466","3416509","0.0-24.0-1.0-0.10","14914","List2B","black","woman","","","","","","","","survey_race","100","","","People my age have a lot in common with each other.","filler"
"2308.100000023842","","","html-slider-response","467","3418818","0.0-24.0-1.0-0.11","14914","List2B","black","woman","","","","","","","","survey_race","100","","","I consider myself an introvert.","filler"
"1900.300000011921","","","html-slider-response","468","3420721","0.0-24.0-1.0-0.12","14914","List2B","black","woman","","","","","","","","survey_race","100","","","I often think about the fact that I am my race.","often"
"1831.699999988079","","","html-slider-response","469","3422555","0.0-24.0-1.0-0.13","14914","List2B","black","woman","","","","","","","","survey_race","100","","","I have a lot in common with the average person of my race.","average"
"1363.6000000238419","","","html-slider-response","470","3423921","0.0-24.0-1.0-0.14","14914","List2B","black","woman","","","","","","","","survey_race","100","","","I think that my race has a lot to be proud of.","proud"
"1546.2000000476837","","","html-slider-response","471","3425469","0.0-24.0-1.0-0.15","14914","List2B","black","woman","","","","","","","","survey_race","100","","","I feel solidarity with my race.","solidarity"
"1363.8999999761581","","","html-slider-response","472","3426835","0.0-24.0-1.0-0.16","14914","List2B","black","woman","","","","","","","","survey_race","100","","","I feel a bond with people the same age as me.","filler"
"1640.5999999642372","","","html-slider-response","473","3428478","0.0-24.0-1.0-0.17","14914","List2B","black","woman","","","","","","","","survey_race","100","","","The fact that I am my race is an important part of my identity.","identity"
"1440.199999988079","","","html-slider-response","474","3429920","0.0-24.0-1.0-0.18","14914","List2B","black","woman","","","","","","","","survey_race","75","","","My age is not an important part of who I am.","filler"
