rt,stimulus,button_pressed,trial_type,trial_index,time_elapsed,internal_node_id,subject,list,ppt_race,ppt_gender,url,first_guess,correct,key_press,responses,image_type,phrase_type,test_part,response,stimulus1,stimulus2,question_type,survey_item
2163.1,Welcome to the experiment. Press Continue to begin.,0,html-button-response,0,2166,0.0-0.0,15076,List2A,black,man,,,,,,,,,,,,,
7753.8,,,external-html,1,11049,0.0-1.0,15076,List2A,black,man,consent.html,,,,,,,,,,,,
26374.1,"<p>On the next page, you will see portraits of 8 people and their names.</p><p>Your first task is to take a few minutes to memorise the names of these people.</p><p>You will have to recall their names during the rest of the experiment, so it is</p><p>essential that you try to memorise these people and their names as best as you can.</p><br><p><strong>You will then be tested on your memory of these names and portraits.</strong></p><br><p>The experiment will start after you have completed this memory test.</p><br><p>Ready?</p>",0,html-button-response,2,37426,0.0-2.0,15076,List2A,black,man,,,,,,,,,,,,,
75625,"<img src='img/portrait_matrix_list2.jpg' style='width:900px;height:500px;''></img><p>If you have memorised all the portraits and names and are ready to start, press Continue.</p><p><strong>Please note: Your memory of these faces will be tested 4 times during this experiment.</strong></p>",0,html-button-response,3,114055,0.0-3.0-0.0,15076,List2A,black,man,,,,,,,,,,,,,
5008.7,"<img src=""portrait/BW2.jpg""style=""height:400px;""></img>",2,html-button-response,4,120070,0.0-3.0-1.0,15076,List2A,black,man,,TRUE,2,,,,,,,,,,
null,CORRECT,,html-keyboard-response,5,121579,0.0-3.0-2.0-0.0,15076,List2A,black,man,,,,null,,,,,,,,,
5505.9,"<img src=""portrait/BM2.jpg""style=""height:400px;""></img>",5,html-button-response,6,127087,0.0-3.0-4.0,15076,List2A,black,man,,TRUE,5,,,,,,,,,,
null,CORRECT,,html-keyboard-response,7,128590,0.0-3.0-5.0-0.0,15076,List2A,black,man,,,,null,,,,,,,,,
6313.5,"<img src=""portrait/WW1.jpg""style=""height:400px;""></img>",1,html-button-response,8,134905,0.0-3.0-7.0,15076,List2A,black,man,,TRUE,1,,,,,,,,,,
null,CORRECT,,html-keyboard-response,9,136410,0.0-3.0-8.0-0.0,15076,List2A,black,man,,,,null,,,,,,,,,
2192.1,"<img src=""portrait/BM1.jpg""style=""height:400px;""></img>",4,html-button-response,10,138604,0.0-3.0-10.0,15076,List2A,black,man,,TRUE,4,,,,,,,,,,
null,CORRECT,,html-keyboard-response,11,140110,0.0-3.0-11.0-0.0,15076,List2A,black,man,,,,null,,,,,,,,,
15685.1,"<img src=""portrait/WW2.jpg""style=""height:400px;""></img>",3,html-button-response,12,155797,0.0-3.0-13.0,15076,List2A,black,man,,TRUE,3,,,,,,,,,,
null,CORRECT,,html-keyboard-response,13,157307,0.0-3.0-14.0-0.0,15076,List2A,black,man,,,,null,,,,,,,,,
2186,"<img src=""portrait/BW1.jpg""style=""height:400px;""></img>",0,html-button-response,14,159494,0.0-3.0-16.0,15076,List2A,black,man,,TRUE,0,,,,,,,,,,
null,CORRECT,,html-keyboard-response,15,161001,0.0-3.0-17.0-0.0,15076,List2A,black,man,,,,null,,,,,,,,,
2394.5,"<img src=""portrait/WM1.jpg""style=""height:400px;""></img>",6,html-button-response,16,163398,0.0-3.0-19.0,15076,List2A,black,man,,TRUE,6,,,,,,,,,,
null,CORRECT,,html-keyboard-response,17,164907,0.0-3.0-20.0-0.0,15076,List2A,black,man,,,,null,,,,,,,,,
1660.1,"<img src=""portrait/WM2.jpg""style=""height:400px;""></img>",7,html-button-response,18,166569,0.0-3.0-22.0,15076,List2A,black,man,,TRUE,7,,,,,,,,,,
null,CORRECT,,html-keyboard-response,19,168074,0.0-3.0-23.0-0.0,15076,List2A,black,man,,,,null,,,,,,,,,
2868.9,<p>You got 8 out of 8 right first time. Press Continue.</p>,0,html-button-response,20,170945,0.0-3.0-25.0,15076,List2A,black,man,,,,,,,,,,,,,
44160.1,"<p>In this experiment, you will view photographs of the people from the memory game interacting.</p><p>By using the <strong>exact</strong> phrase given <i>after</i> the photograph appears and recalling the correct names of the people in the photographs, form a sentence describing the interaction. You do not need to capitalise names.</p><p>Type your answer in the space provided. Please complete every sentence before moving onto the next trial.</p><p>You will only have a few seconds to memorise each given photograph and phrase before you can respond, so try your best to focus.</p><p>An example is given below. Press 'Continue' when you are ready.</p><img src='img/speaking_example.jpg' style='width:800px;height:460px;''></img>",0,html-button-response,21,216113,0.0-4.0,15076,List2A,black,man,,,,,,,,,,,,,
3699.3,"<p>Before the experiment starts, you will watch two example trials. Press 'Continue'.</p>",0,html-button-response,22,220815,0.0-5.0,15076,List2A,black,man,,,,,,,,,,,,,
null,<img src='img/play_eg.gif' style='height:400px;''></img>,,html-keyboard-response,23,223823,0.0-6.0,15076,List2A,black,man,,,,null,,,,,,,,,
null,<p>is playing with</p>,,html-keyboard-response,24,225828,0.0-7.0,15076,List2A,black,man,,,,null,,,,,,,,,
8657.1,<p><b>Answer:</b> jane is playing with ruth</p>,0,html-button-response,25,234486,0.0-8.0,15076,List2A,black,man,,,,,,,,,,,,,
null,<img src='img/dance_eg.gif' style='height:400px;''></img>,,html-keyboard-response,26,237489,0.0-9.0,15076,List2A,black,man,,,,null,,,,,,,,,
null,<p>is being entertained by</p>,,html-keyboard-response,27,239490,0.0-10.0,15076,List2A,black,man,,,,null,,,,,,,,,
3062.4,<p><b>Answer:</b> fred is being entertained by mike</p>,0,html-button-response,28,242553,0.0-11.0,15076,List2A,black,man,,,,,,,,,,,,,
7357,"<p>Ready to start the experiment?</p><br><p><strong>Remember to describe the picture using a full sentence,</strong></p><p><strong>that combines the names of the people with the <i>exact</i> phrase given.</strong></p><p><strong>To receive full payment you must do this correctly.</strong></p><p><strong> You do not need to capitalise names or use punctuation.</strong></p><br><p>Press 'Continue' to begin.</p>",0,html-button-response,29,250917,0.0-12.0,15076,List2A,black,man,,,,,,,,,,,,,
null,"<div style=""font-size:60px;"">+</div>",,html-keyboard-response,30,252423,0.0-13.0-0.0,15076,List2A,black,man,,,,null,,,,,,,,,
null,"<img src=""stim_listA/greet1.gif""style=""height:400px;""></stim_listA>",,html-keyboard-response,31,254428,0.0-13.0-1.0,15076,List2A,black,man,,,,null,,,,,,,,,
null,is greeting,,html-keyboard-response,32,256433,0.0-13.0-2.0,15076,List2A,black,man,,,,null,,,,,,,,,
17884.9,,,survey-text,33,274321,0.0-13.0-3.0,15076,List2A,black,man,,,,,"{""Q0"":""ruth is greeting dave""}","<img src=""stim_listA/greet1.gif""style=""height:400px;""></stim_listA>",is greeting,,,,,,
null,"<div style=""font-size:60px;"">+</div>",,html-keyboard-response,34,274823,0.0-13.0-0.1,15076,List2A,black,man,,,,null,,,,,,,,,
null,"<img src=""stim_listA/look3.gif""style=""height:400px;""></stim_listA>",,html-keyboard-response,35,276829,0.0-13.0-1.1,15076,List2A,black,man,,,,null,,,,,,,,,
null,is looking at,,html-keyboard-response,36,278833,0.0-13.0-2.1,15076,List2A,black,man,,,,null,,,,,,,,,
8200,,,survey-text,37,287035,0.0-13.0-3.1,15076,List2A,black,man,,,,,"{""Q0"":""beth is looking at fred""}","<img src=""stim_listA/look3.gif""style=""height:400px;""></stim_listA>",is looking at,,,,,,
null,"<div style=""font-size:60px;"">+</div>",,html-keyboard-response,38,287536,0.0-13.0-0.2,15076,List2A,black,man,,,,null,,,,,,,,,
null,"<img src=""stim_listA/kiss7.gif""style=""height:400px;""></stim_listA>",,html-keyboard-response,39,289538,0.0-13.0-1.2,15076,List2A,black,man,,,,null,,,,,,,,,
null,is kissing,,html-keyboard-response,40,291539,0.0-13.0-2.2,15076,List2A,black,man,,,,null,,,,,,,,,
12339.2,,,survey-text,41,303880,0.0-13.0-3.2,15076,List2A,black,man,,,,,"{""Q0"":""ruth is kissing beth""}","<img src=""stim_listA/kiss7.gif""style=""height:400px;""></stim_listA>",is kissing,,,,,,
null,"<div style=""font-size:60px;"">+</div>",,html-keyboard-response,42,304381,0.0-13.0-0.3,15076,List2A,black,man,,,,null,,,,,,,,,
null,"<img src=""stim_listA/touch2.gif""style=""height:400px;""></stim_listA>",,html-keyboard-response,43,306387,0.0-13.0-1.3,15076,List2A,black,man,,,,null,,,,,,,,,
null,is being touched by,,html-keyboard-response,44,308391,0.0-13.0-2.3,15076,List2A,black,man,,,,null,,,,,,,,,
12271.3,,,survey-text,45,320665,0.0-13.0-3.3,15076,List2A,black,man,,,,,"{""Q0"":""ruth is being touched by luke""}","<img src=""stim_listA/touch2.gif""style=""height:400px;""></stim_listA>",is being touched by,,,,,,
null,"<div style=""font-size:60px;"">+</div>",,html-keyboard-response,46,321166,0.0-13.0-0.4,15076,List2A,black,man,,,,null,,,,,,,,,
null,"<img src=""stim_listA/touch3.gif""style=""height:400px;""></stim_listA>",,html-keyboard-response,47,323171,0.0-13.0-1.4,15076,List2A,black,man,,,,null,,,,,,,,,
null,is touching,,html-keyboard-response,48,325172,0.0-13.0-2.4,15076,List2A,black,man,,,,null,,,,,,,,,
11469.2,,,survey-text,49,336643,0.0-13.0-3.4,15076,List2A,black,man,,,,,"{""Q0"":""mike is touching kate""}","<img src=""stim_listA/touch3.gif""style=""height:400px;""></stim_listA>",is touching,,,,,,
null,"<div style=""font-size:60px;"">+</div>",,html-keyboard-response,50,337144,0.0-13.0-0.5,15076,List2A,black,man,,,,null,,,,,,,,,
null,"<img src=""stim_listA/copy4.gif""style=""height:400px;""></stim_listA>",,html-keyboard-response,51,339149,0.0-13.0-1.5,15076,List2A,black,man,,,,null,,,,,,,,,
null,is being copied by,,html-keyboard-response,52,341153,0.0-13.0-2.5,15076,List2A,black,man,,,,null,,,,,,,,,
9750.9,,,survey-text,53,350906,0.0-13.0-3.5,15076,List2A,black,man,,,,,"{""Q0"":""fred is being copied by kate""}","<img src=""stim_listA/copy4.gif""style=""height:400px;""></stim_listA>",is being copied by,,,,,,
null,"<div style=""font-size:60px;"">+</div>",,html-keyboard-response,54,351407,0.0-13.0-0.6,15076,List2A,black,man,,,,null,,,,,,,,,
null,"<img src=""stim_listA/seduce4.gif""style=""height:400px;""></stim_listA>",,html-keyboard-response,55,353409,0.0-13.0-1.6,15076,List2A,black,man,,,,null,,,,,,,,,
null,is being seduced by,,html-keyboard-response,56,355411,0.0-13.0-2.6,15076,List2A,black,man,,,,null,,,,,,,,,
9173.9,,,survey-text,57,364588,0.0-13.0-3.6,15076,List2A,black,man,,,,,"{""Q0"":""mike is being seduced by beth""}","<img src=""stim_listA/seduce4.gif""style=""height:400px;""></stim_listA>",is being seduced by,,,,,,
null,"<div style=""font-size:60px;"">+</div>",,html-keyboard-response,58,365089,0.0-13.0-0.7,15076,List2A,black,man,,,,null,,,,,,,,,
null,"<img src=""stim_listA/shout5.gif""style=""height:400px;""></stim_listA>",,html-keyboard-response,59,367091,0.0-13.0-1.7,15076,List2A,black,man,,,,null,,,,,,,,,
null,is shouting at,,html-keyboard-response,60,369092,0.0-13.0-2.7,15076,List2A,black,man,,,,null,,,,,,,,,
7644.9,,,survey-text,61,376740,0.0-13.0-3.7,15076,List2A,black,man,,,,,"{""Q0"":""fred is shouting at luke""}","<img src=""stim_listA/shout5.gif""style=""height:400px;""></stim_listA>",is shouting at,,,,,,
null,"<div style=""font-size:60px;"">+</div>",,html-keyboard-response,62,377241,0.0-13.0-0.8,15076,List2A,black,man,,,,null,,,,,,,,,
null,"<img src=""stim_listA/touch5.gif""style=""height:400px;""></stim_listA>",,html-keyboard-response,63,379245,0.0-13.0-1.8,15076,List2A,black,man,,,,null,,,,,,,,,
null,is touching,,html-keyboard-response,64,381250,0.0-13.0-2.8,15076,List2A,black,man,,,,null,,,,,,,,,
7105,,,survey-text,65,388358,0.0-13.0-3.8,15076,List2A,black,man,,,,,"{""Q0"":""dave is touching mike""}","<img src=""stim_listA/touch5.gif""style=""height:400px;""></stim_listA>",is touching,,,,,,
null,"<div style=""font-size:60px;"">+</div>",,html-keyboard-response,66,388862,0.0-13.0-0.9,15076,List2A,black,man,,,,null,,,,,,,,,
null,"<img src=""stim_listA/greet3.gif""style=""height:400px;""></stim_listA>",,html-keyboard-response,67,390865,0.0-13.0-1.9,15076,List2A,black,man,,,,null,,,,,,,,,
null,is greeting,,html-keyboard-response,68,392870,0.0-13.0-2.9,15076,List2A,black,man,,,,null,,,,,,,,,
11733.1,,,survey-text,69,404606,0.0-13.0-3.9,15076,List2A,black,man,,,,,"{""Q0"":""mike is greeting beth""}","<img src=""stim_listA/greet3.gif""style=""height:400px;""></stim_listA>",is greeting,,,,,,
null,"<div style=""font-size:60px;"">+</div>",,html-keyboard-response,70,405107,0.0-13.0-0.10,15076,List2A,black,man,,,,null,,,,,,,,,
null,"<img src=""stim_listA/hug8.gif""style=""height:400px;""></stim_listA>",,html-keyboard-response,71,407113,0.0-13.0-1.10,15076,List2A,black,man,,,,null,,,,,,,,,
null,is being hugged by,,html-keyboard-response,72,409116,0.0-13.0-2.10,15076,List2A,black,man,,,,null,,,,,,,,,
11041.2,,,survey-text,73,420160,0.0-13.0-3.10,15076,List2A,black,man,,,,,"{""Q0"":""kate is being hugged by jane""}","<img src=""stim_listA/hug8.gif""style=""height:400px;""></stim_listA>",is being hugged by,,,,,,
null,"<div style=""font-size:60px;"">+</div>",,html-keyboard-response,74,420664,0.0-13.0-0.11,15076,List2A,black,man,,,,null,,,,,,,,,
null,"<img src=""stim_listA/kiss8.gif""style=""height:400px;""></stim_listA>",,html-keyboard-response,75,422668,0.0-13.0-1.11,15076,List2A,black,man,,,,null,,,,,,,,,
null,is being kissed by,,html-keyboard-response,76,424672,0.0-13.0-2.11,15076,List2A,black,man,,,,null,,,,,,,,,
8122.3,,,survey-text,77,432797,0.0-13.0-3.11,15076,List2A,black,man,,,,,"{""Q0"":""kate is being kissed by jane""}","<img src=""stim_listA/kiss8.gif""style=""height:400px;""></stim_listA>",is being kissed by,,,,,,
null,"<div style=""font-size:60px;"">+</div>",,html-keyboard-response,78,433298,0.0-13.0-0.12,15076,List2A,black,man,,,,null,,,,,,,,,
null,"<img src=""stim_listA/copy5.gif""style=""height:400px;""></stim_listA>",,html-keyboard-response,79,435301,0.0-13.0-1.12,15076,List2A,black,man,,,,null,,,,,,,,,
null,is copying,,html-keyboard-response,80,437306,0.0-13.0-2.12,15076,List2A,black,man,,,,null,,,,,,,,,
15679.7,,,survey-text,81,452989,0.0-13.0-3.12,15076,List2A,black,man,,,,,"{""Q0"":""fred is copying dave""}","<img src=""stim_listA/copy5.gif""style=""height:400px;""></stim_listA>",is copying,,,,,,
null,"<div style=""font-size:60px;"">+</div>",,html-keyboard-response,82,453490,0.0-13.0-0.13,15076,List2A,black,man,,,,null,,,,,,,,,
null,"<img src=""stim_listA/seduce8.gif""style=""height:400px;""></stim_listA>",,html-keyboard-response,83,455493,0.0-13.0-1.13,15076,List2A,black,man,,,,null,,,,,,,,,
null,is being seduced by,,html-keyboard-response,84,457494,0.0-13.0-2.13,15076,List2A,black,man,,,,null,,,,,,,,,
19540.3,,,survey-text,85,477037,0.0-13.0-3.13,15076,List2A,black,man,,,,,"{""Q0"":""beth is being seduced by jane""}","<img src=""stim_listA/seduce8.gif""style=""height:400px;""></stim_listA>",is being seduced by,,,,,,
null,"<div style=""font-size:60px;"">+</div>",,html-keyboard-response,86,477538,0.0-13.0-0.14,15076,List2A,black,man,,,,null,,,,,,,,,
null,"<img src=""stim_listA/touch7.gif""style=""height:400px;""></stim_listA>",,html-keyboard-response,87,479539,0.0-13.0-1.14,15076,List2A,black,man,,,,null,,,,,,,,,
null,is touching,,html-keyboard-response,88,481539,0.0-13.0-2.14,15076,List2A,black,man,,,,null,,,,,,,,,
6051.9,,,survey-text,89,487593,0.0-13.0-3.14,15076,List2A,black,man,,,,,"{""Q0"":""jane is touching kate""}","<img src=""stim_listA/touch7.gif""style=""height:400px;""></stim_listA>",is touching,,,,,,
null,"<div style=""font-size:60px;"">+</div>",,html-keyboard-response,90,488095,0.0-13.0-0.15,15076,List2A,black,man,,,,null,,,,,,,,,
null,"<img src=""stim_listA/shout4.gif""style=""height:400px;""></stim_listA>",,html-keyboard-response,91,490098,0.0-13.0-1.15,15076,List2A,black,man,,,,null,,,,,,,,,
null,is being shouted at by,,html-keyboard-response,92,492101,0.0-13.0-2.15,15076,List2A,black,man,,,,null,,,,,,,,,
12628.6,,,survey-text,93,504731,0.0-13.0-3.15,15076,List2A,black,man,,,,,"{""Q0"":""kate is being shouted at by mike""}","<img src=""stim_listA/shout4.gif""style=""height:400px;""></stim_listA>",is being shouted at by,,,,,,
null,"<div style=""font-size:60px;"">+</div>",,html-keyboard-response,94,505233,0.0-13.0-0.16,15076,List2A,black,man,,,,null,,,,,,,,,
null,"<img src=""stim_listA/kiss6.gif""style=""height:400px;""></stim_listA>",,html-keyboard-response,95,507237,0.0-13.0-1.16,15076,List2A,black,man,,,,null,,,,,,,,,
null,is being kissed by,,html-keyboard-response,96,509238,0.0-13.0-2.16,15076,List2A,black,man,,,,null,,,,,,,,,
6392.8,,,survey-text,97,515633,0.0-13.0-3.16,15076,List2A,black,man,,,,,"{""Q0"":""mike is being kissed by dave""}","<img src=""stim_listA/kiss6.gif""style=""height:400px;""></stim_listA>",is being kissed by,,,,,,
null,"<div style=""font-size:60px;"">+</div>",,html-keyboard-response,98,516137,0.0-13.0-0.17,15076,List2A,black,man,,,,null,,,,,,,,,
null,"<img src=""stim_listA/seduce5.gif""style=""height:400px;""></stim_listA>",,html-keyboard-response,99,518142,0.0-13.0-1.17,15076,List2A,black,man,,,,null,,,,,,,,,
null,is seducing,,html-keyboard-response,100,520147,0.0-13.0-2.17,15076,List2A,black,man,,,,null,,,,,,,,,
5130.6,,,survey-text,101,525280,0.0-13.0-3.17,15076,List2A,black,man,,,,,"{""Q0"":""mike is seducing luke""}","<img src=""stim_listA/seduce5.gif""style=""height:400px;""></stim_listA>",is seducing,,,,,,
null,"<div style=""font-size:60px;"">+</div>",,html-keyboard-response,102,525781,0.0-13.0-0.18,15076,List2A,black,man,,,,null,,,,,,,,,
null,"<img src=""stim_listA/touch8.gif""style=""height:400px;""></stim_listA>",,html-keyboard-response,103,527784,0.0-13.0-1.18,15076,List2A,black,man,,,,null,,,,,,,,,
null,is being touched by,,html-keyboard-response,104,529788,0.0-13.0-2.18,15076,List2A,black,man,,,,null,,,,,,,,,
8576.1,,,survey-text,105,538366,0.0-13.0-3.18,15076,List2A,black,man,,,,,"{""Q0"":""kate is being touched by beth""}","<img src=""stim_listA/touch8.gif""style=""height:400px;""></stim_listA>",is being touched by,,,,,,
null,"<div style=""font-size:60px;"">+</div>",,html-keyboard-response,106,538867,0.0-13.0-0.19,15076,List2A,black,man,,,,null,,,,,,,,,
null,"<img src=""stim_listA/seduce6.gif""style=""height:400px;""></stim_listA>",,html-keyboard-response,107,540870,0.0-13.0-1.19,15076,List2A,black,man,,,,null,,,,,,,,,
null,is being seduced by,,html-keyboard-response,108,542871,0.0-13.0-2.19,15076,List2A,black,man,,,,null,,,,,,,,,
8566.3,,,survey-text,109,551440,0.0-13.0-3.19,15076,List2A,black,man,,,,,"{""Q0"":""fred is being seduced by dave""}","<img src=""stim_listA/seduce6.gif""style=""height:400px;""></stim_listA>",is being seduced by,,,,,,
30327.7,"<img src='img/portrait_matrix_list2.jpg' style='width:900px;height:500px;''></img><p>If you have memorised all the portraits and names and are ready to start, press Continue.</p><p><strong>Please note: Your memory of these faces will be tested 4 times during this experiment.</strong></p>",0,html-button-response,110,581769,0.0-14.0-0.0,15076,List2A,black,man,,,,,,,,,,,,,
3736.3,"<img src=""portrait/WW2.jpg""style=""height:400px;""></img>",3,html-button-response,111,586509,0.0-14.0-1.0,15076,List2A,black,man,,TRUE,3,,,,,,,,,,
null,CORRECT,,html-keyboard-response,112,588017,0.0-14.0-2.0-0.0,15076,List2A,black,man,,,,null,,,,,,,,,
2273.5,"<img src=""portrait/BW2.jpg""style=""height:400px;""></img>",2,html-button-response,113,590292,0.0-14.0-4.0,15076,List2A,black,man,,TRUE,2,,,,,,,,,,
null,CORRECT,,html-keyboard-response,114,591798,0.0-14.0-5.0-0.0,15076,List2A,black,man,,,,null,,,,,,,,,
2599.7,"<img src=""portrait/WW1.jpg""style=""height:400px;""></img>",1,html-button-response,115,594400,0.0-14.0-7.0,15076,List2A,black,man,,TRUE,1,,,,,,,,,,
null,CORRECT,,html-keyboard-response,116,595908,0.0-14.0-8.0-0.0,15076,List2A,black,man,,,,null,,,,,,,,,
2074.8,"<img src=""portrait/WM1.jpg""style=""height:400px;""></img>",6,html-button-response,117,597984,0.0-14.0-10.0,15076,List2A,black,man,,TRUE,6,,,,,,,,,,
null,CORRECT,,html-keyboard-response,118,599490,0.0-14.0-11.0-0.0,15076,List2A,black,man,,,,null,,,,,,,,,
1525.9,"<img src=""portrait/WM2.jpg""style=""height:400px;""></img>",7,html-button-response,119,601017,0.0-14.0-13.0,15076,List2A,black,man,,TRUE,7,,,,,,,,,,
null,CORRECT,,html-keyboard-response,120,602519,0.0-14.0-14.0-0.0,15076,List2A,black,man,,,,null,,,,,,,,,
1555.9,"<img src=""portrait/BW1.jpg""style=""height:400px;""></img>",0,html-button-response,121,604076,0.0-14.0-16.0,15076,List2A,black,man,,TRUE,0,,,,,,,,,,
null,CORRECT,,html-keyboard-response,122,605582,0.0-14.0-17.0-0.0,15076,List2A,black,man,,,,null,,,,,,,,,
2077.6,"<img src=""portrait/BM2.jpg""style=""height:400px;""></img>",5,html-button-response,123,607661,0.0-14.0-19.0,15076,List2A,black,man,,TRUE,5,,,,,,,,,,
null,CORRECT,,html-keyboard-response,124,609169,0.0-14.0-20.0-0.0,15076,List2A,black,man,,,,null,,,,,,,,,
1928.8,"<img src=""portrait/BM1.jpg""style=""height:400px;""></img>",4,html-button-response,125,611099,0.0-14.0-22.0,15076,List2A,black,man,,TRUE,4,,,,,,,,,,
null,CORRECT,,html-keyboard-response,126,612605,0.0-14.0-23.0-0.0,15076,List2A,black,man,,,,null,,,,,,,,,
5130.2,<p>You got 8 out of 8 right first time. Press Continue.</p>,0,html-button-response,127,617736,0.0-14.0-25.0,15076,List2A,black,man,,,,,,,,,,,,,
null,"<div style=""font-size:60px;"">+</div>",,html-keyboard-response,128,619242,0.0-15.0-0.0,15076,List2A,black,man,,,,null,,,,,,,,,
null,"<img src=""stim_listA/oppose4.gif""style=""height:400px;""></stim_listA>",,html-keyboard-response,129,621245,0.0-15.0-1.0,15076,List2A,black,man,,,,null,,,,,,,,,
null,is being opposed by,,html-keyboard-response,130,623250,0.0-15.0-2.0,15076,List2A,black,man,,,,null,,,,,,,,,
11496.2,,,survey-text,131,634750,0.0-15.0-3.0,15076,List2A,black,man,,,,,"{""Q0"":""fred is being opposed by beth""}","<img src=""stim_listA/oppose4.gif""style=""height:400px;""></stim_listA>",is being opposed by,,,,,,
null,"<div style=""font-size:60px;"">+</div>",,html-keyboard-response,132,635251,0.0-15.0-0.1,15076,List2A,black,man,,,,null,,,,,,,,,
null,"<img src=""stim_listA/look7.gif""style=""height:400px;""></stim_listA>",,html-keyboard-response,133,637256,0.0-15.0-1.1,15076,List2A,black,man,,,,null,,,,,,,,,
null,is looking at,,html-keyboard-response,134,639260,0.0-15.0-2.1,15076,List2A,black,man,,,,null,,,,,,,,,
6978.5,,,survey-text,135,646242,0.0-15.0-3.1,15076,List2A,black,man,,,,,"{""Q0"":""beth is looking at kate""}","<img src=""stim_listA/look7.gif""style=""height:400px;""></stim_listA>",is looking at,,,,,,
null,"<div style=""font-size:60px;"">+</div>",,html-keyboard-response,136,646745,0.0-15.0-0.2,15076,List2A,black,man,,,,null,,,,,,,,,
null,"<img src=""stim_listA/kiss2.gif""style=""height:400px;""></stim_listA>",,html-keyboard-response,137,648751,0.0-15.0-1.2,15076,List2A,black,man,,,,null,,,,,,,,,
null,is being kissed by,,html-keyboard-response,138,650753,0.0-15.0-2.2,15076,List2A,black,man,,,,null,,,,,,,,,
10799,,,survey-text,139,661555,0.0-15.0-3.2,15076,List2A,black,man,,,,,"{""Q0"":""dave is being kissed by jane""}","<img src=""stim_listA/kiss2.gif""style=""height:400px;""></stim_listA>",is being kissed by,,,,,,
null,"<div style=""font-size:60px;"">+</div>",,html-keyboard-response,140,662056,0.0-15.0-0.3,15076,List2A,black,man,,,,null,,,,,,,,,
null,"<img src=""stim_listA/look1.gif""style=""height:400px;""></stim_listA>",,html-keyboard-response,141,664062,0.0-15.0-1.3,15076,List2A,black,man,,,,null,,,,,,,,,
null,is looking at,,html-keyboard-response,142,666066,0.0-15.0-2.3,15076,List2A,black,man,,,,null,,,,,,,,,
10399.4,,,survey-text,143,676468,0.0-15.0-3.3,15076,List2A,black,man,,,,,"{""Q0"":""luke is looking at ruth""}","<img src=""stim_listA/look1.gif""style=""height:400px;""></stim_listA>",is looking at,,,,,,
null,"<div style=""font-size:60px;"">+</div>",,html-keyboard-response,144,676969,0.0-15.0-0.4,15076,List2A,black,man,,,,null,,,,,,,,,
null,"<img src=""stim_listA/look8.gif""style=""height:400px;""></stim_listA>",,html-keyboard-response,145,678974,0.0-15.0-1.4,15076,List2A,black,man,,,,null,,,,,,,,,
null,is being looked at by,,html-keyboard-response,146,680976,0.0-15.0-2.4,15076,List2A,black,man,,,,null,,,,,,,,,
11893.7,,,survey-text,147,692873,0.0-15.0-3.4,15076,List2A,black,man,,,,,"{""Q0"":""jane is being looked at by kate""}","<img src=""stim_listA/look8.gif""style=""height:400px;""></stim_listA>",is being looked at by,,,,,,
null,"<div style=""font-size:60px;"">+</div>",,html-keyboard-response,148,693374,0.0-15.0-0.5,15076,List2A,black,man,,,,null,,,,,,,,,
null,"<img src=""stim_listA/shout8.gif""style=""height:400px;""></stim_listA>",,html-keyboard-response,149,695376,0.0-15.0-1.5,15076,List2A,black,man,,,,null,,,,,,,,,
null,is being shouted at by,,html-keyboard-response,150,697380,0.0-15.0-2.5,15076,List2A,black,man,,,,null,,,,,,,,,
9238.8,,,survey-text,151,706622,0.0-15.0-3.5,15076,List2A,black,man,,,,,"{""Q0"":""jane is being shouted at by kate""}","<img src=""stim_listA/shout8.gif""style=""height:400px;""></stim_listA>",is being shouted at by,,,,,,
null,"<div style=""font-size:60px;"">+</div>",,html-keyboard-response,152,707125,0.0-15.0-0.6,15076,List2A,black,man,,,,null,,,,,,,,,
null,"<img src=""stim_listA/copy7.gif""style=""height:400px;""></stim_listA>",,html-keyboard-response,153,709129,0.0-15.0-1.6,15076,List2A,black,man,,,,null,,,,,,,,,
null,is copying,,html-keyboard-response,154,711134,0.0-15.0-2.6,15076,List2A,black,man,,,,null,,,,,,,,,
7623,,,survey-text,155,718760,0.0-15.0-3.6,15076,List2A,black,man,,,,,"{""Q0"":""beth is copying jane""}","<img src=""stim_listA/copy7.gif""style=""height:400px;""></stim_listA>",is copying,,,,,,
null,"<div style=""font-size:60px;"">+</div>",,html-keyboard-response,156,719261,0.0-15.0-0.7,15076,List2A,black,man,,,,null,,,,,,,,,
null,"<img src=""stim_listA/oppose3.gif""style=""height:400px;""></stim_listA>",,html-keyboard-response,157,721266,0.0-15.0-1.7,15076,List2A,black,man,,,,null,,,,,,,,,
null,is opposing,,html-keyboard-response,158,723268,0.0-15.0-2.7,15076,List2A,black,man,,,,null,,,,,,,,,
8122.7,,,survey-text,159,731393,0.0-15.0-3.7,15076,List2A,black,man,,,,,"{""Q0"":""mike is opposing kate""}","<img src=""stim_listA/oppose3.gif""style=""height:400px;""></stim_listA>",is opposing,,,,,,
null,"<div style=""font-size:60px;"">+</div>",,html-keyboard-response,160,731894,0.0-15.0-0.8,15076,List2A,black,man,,,,null,,,,,,,,,
null,"<img src=""stim_listA/shout3.gif""style=""height:400px;""></stim_listA>",,html-keyboard-response,161,733896,0.0-15.0-1.8,15076,List2A,black,man,,,,null,,,,,,,,,
null,is shouting at,,html-keyboard-response,162,735898,0.0-15.0-2.8,15076,List2A,black,man,,,,null,,,,,,,,,
9415.6,,,survey-text,163,745316,0.0-15.0-3.8,15076,List2A,black,man,,,,,"{""Q0"":""beth is shouting at fred""}","<img src=""stim_listA/shout3.gif""style=""height:400px;""></stim_listA>",is shouting at,,,,,,
null,"<div style=""font-size:60px;"">+</div>",,html-keyboard-response,164,745818,0.0-15.0-0.9,15076,List2A,black,man,,,,null,,,,,,,,,
null,"<img src=""stim_listA/hug4.gif""style=""height:400px;""></stim_listA>",,html-keyboard-response,165,747823,0.0-15.0-1.9,15076,List2A,black,man,,,,null,,,,,,,,,
null,is being hugged by,,html-keyboard-response,166,749828,0.0-15.0-2.9,15076,List2A,black,man,,,,null,,,,,,,,,
9008.8,,,survey-text,167,758840,0.0-15.0-3.9,15076,List2A,black,man,,,,,"{""Q0"":""mike is being hugged by kate""}","<img src=""stim_listA/hug4.gif""style=""height:400px;""></stim_listA>",is being hugged by,,,,,,
null,"<div style=""font-size:60px;"">+</div>",,html-keyboard-response,168,759343,0.0-15.0-0.10,15076,List2A,black,man,,,,null,,,,,,,,,
null,"<img src=""stim_listA/oppose5.gif""style=""height:400px;""></stim_listA>",,html-keyboard-response,169,761345,0.0-15.0-1.10,15076,List2A,black,man,,,,null,,,,,,,,,
null,is opposing,,html-keyboard-response,170,763348,0.0-15.0-2.10,15076,List2A,black,man,,,,null,,,,,,,,,
5406.4,,,survey-text,171,768757,0.0-15.0-3.10,15076,List2A,black,man,,,,,"{""Q0"":""mike is opposing dave""}","<img src=""stim_listA/oppose5.gif""style=""height:400px;""></stim_listA>",is opposing,,,,,,
null,"<div style=""font-size:60px;"">+</div>",,html-keyboard-response,172,769259,0.0-15.0-0.11,15076,List2A,black,man,,,,null,,,,,,,,,
null,"<img src=""stim_listA/greet2.gif""style=""height:400px;""></stim_listA>",,html-keyboard-response,173,771262,0.0-15.0-1.11,15076,List2A,black,man,,,,null,,,,,,,,,
null,is being greeted by,,html-keyboard-response,174,773268,0.0-15.0-2.11,15076,List2A,black,man,,,,null,,,,,,,,,
8298.1,,,survey-text,175,781569,0.0-15.0-3.11,15076,List2A,black,man,,,,,"{""Q0"":""luke is being greeted by jane""}","<img src=""stim_listA/greet2.gif""style=""height:400px;""></stim_listA>",is being greeted by,,,,,,
null,"<div style=""font-size:60px;"">+</div>",,html-keyboard-response,176,782070,0.0-15.0-0.12,15076,List2A,black,man,,,,null,,,,,,,,,
null,"<img src=""stim_listA/seduce2.gif""style=""height:400px;""></stim_listA>",,html-keyboard-response,177,784074,0.0-15.0-1.12,15076,List2A,black,man,,,,null,,,,,,,,,
null,is being seduced by,,html-keyboard-response,178,786076,0.0-15.0-2.12,15076,List2A,black,man,,,,null,,,,,,,,,
10132.7,,,survey-text,179,796212,0.0-15.0-3.12,15076,List2A,black,man,,,,,"{""Q0"":""dave is being seduced by ruth""}","<img src=""stim_listA/seduce2.gif""style=""height:400px;""></stim_listA>",is being seduced by,,,,,,
null,"<div style=""font-size:60px;"">+</div>",,html-keyboard-response,180,796713,0.0-15.0-0.13,15076,List2A,black,man,,,,null,,,,,,,,,
null,"<img src=""stim_listA/look5.gif""style=""height:400px;""></stim_listA>",,html-keyboard-response,181,798716,0.0-15.0-1.13,15076,List2A,black,man,,,,null,,,,,,,,,
null,is looking at,,html-keyboard-response,182,800719,0.0-15.0-2.13,15076,List2A,black,man,,,,null,,,,,,,,,
7291.6,,,survey-text,183,808013,0.0-15.0-3.13,15076,List2A,black,man,,,,,"{""Q0"":""luke is looking at fred""}","<img src=""stim_listA/look5.gif""style=""height:400px;""></stim_listA>",is looking at,,,,,,
null,"<div style=""font-size:60px;"">+</div>",,html-keyboard-response,184,808517,0.0-15.0-0.14,15076,List2A,black,man,,,,null,,,,,,,,,
null,"<img src=""stim_listA/shout2.gif""style=""height:400px;""></stim_listA>",,html-keyboard-response,185,810522,0.0-15.0-1.14,15076,List2A,black,man,,,,null,,,,,,,,,
null,is being shouted at by,,html-keyboard-response,186,812527,0.0-15.0-2.14,15076,List2A,black,man,,,,null,,,,,,,,,
9825.9,,,survey-text,187,822356,0.0-15.0-3.14,15076,List2A,black,man,,,,,"{""Q0"":""jane is being shouted at by dave""}","<img src=""stim_listA/shout2.gif""style=""height:400px;""></stim_listA>",is being shouted at by,,,,,,
null,"<div style=""font-size:60px;"">+</div>",,html-keyboard-response,188,822859,0.0-15.0-0.15,15076,List2A,black,man,,,,null,,,,,,,,,
null,"<img src=""stim_listA/touch6.gif""style=""height:400px;""></stim_listA>",,html-keyboard-response,189,824865,0.0-15.0-1.15,15076,List2A,black,man,,,,null,,,,,,,,,
null,is being touched by,,html-keyboard-response,190,826868,0.0-15.0-2.15,15076,List2A,black,man,,,,null,,,,,,,,,
9123.2,,,survey-text,191,835993,0.0-15.0-3.15,15076,List2A,black,man,,,,,"{""Q0"":""luke is being touched by fred""}","<img src=""stim_listA/touch6.gif""style=""height:400px;""></stim_listA>",is being touched by,,,,,,
null,"<div style=""font-size:60px;"">+</div>",,html-keyboard-response,192,836494,0.0-15.0-0.16,15076,List2A,black,man,,,,null,,,,,,,,,
null,"<img src=""stim_listA/copy1.gif""style=""height:400px;""></stim_listA>",,html-keyboard-response,193,838496,0.0-15.0-1.16,15076,List2A,black,man,,,,null,,,,,,,,,
null,is copying,,html-keyboard-response,194,840498,0.0-15.0-2.16,15076,List2A,black,man,,,,null,,,,,,,,,
5537.7,,,survey-text,195,846039,0.0-15.0-3.16,15076,List2A,black,man,,,,,"{""Q0"":""ruth is copying dave""}","<img src=""stim_listA/copy1.gif""style=""height:400px;""></stim_listA>",is copying,,,,,,
null,"<div style=""font-size:60px;"">+</div>",,html-keyboard-response,196,846551,0.0-15.0-0.17,15076,List2A,black,man,,,,null,,,,,,,,,
null,"<img src=""stim_listA/challenge1.gif""style=""height:400px;""></stim_listA>",,html-keyboard-response,197,848554,0.0-15.0-1.17,15076,List2A,black,man,,,,null,,,,,,,,,
null,is challenging,,html-keyboard-response,198,850557,0.0-15.0-2.17,15076,List2A,black,man,,,,null,,,,,,,,,
8544.5,,,survey-text,199,859104,0.0-15.0-3.17,15076,List2A,black,man,,,,,"{""Q0"":""ruth is challenging dave""}","<img src=""stim_listA/challenge1.gif""style=""height:400px;""></stim_listA>",is challenging,,,,,,
null,"<div style=""font-size:60px;"">+</div>",,html-keyboard-response,200,859605,0.0-15.0-0.18,15076,List2A,black,man,,,,null,,,,,,,,,
null,"<img src=""stim_listA/look6.gif""style=""height:400px;""></stim_listA>",,html-keyboard-response,201,861607,0.0-15.0-1.18,15076,List2A,black,man,,,,null,,,,,,,,,
null,is being looked at by,,html-keyboard-response,202,863612,0.0-15.0-2.18,15076,List2A,black,man,,,,null,,,,,,,,,
8278.5,,,survey-text,203,871893,0.0-15.0-3.18,15076,List2A,black,man,,,,,"{""Q0"":""mike is being looked at by dave""}","<img src=""stim_listA/look6.gif""style=""height:400px;""></stim_listA>",is being looked at by,,,,,,
null,"<div style=""font-size:60px;"">+</div>",,html-keyboard-response,204,872396,0.0-15.0-0.19,15076,List2A,black,man,,,,null,,,,,,,,,
null,"<img src=""stim_listA/hug7.gif""style=""height:400px;""></stim_listA>",,html-keyboard-response,205,874401,0.0-15.0-1.19,15076,List2A,black,man,,,,null,,,,,,,,,
null,is hugging,,html-keyboard-response,206,876407,0.0-15.0-2.19,15076,List2A,black,man,,,,null,,,,,,,,,
6365.2,,,survey-text,207,882775,0.0-15.0-3.19,15076,List2A,black,man,,,,,"{""Q0"":""beth is hugging ruth""}","<img src=""stim_listA/hug7.gif""style=""height:400px;""></stim_listA>",is hugging,,,,,,
113019.6,"<img src='img/portrait_matrix_list2.jpg' style='width:900px;height:500px;''></img><p>If you have memorised all the portraits and names and are ready to start, press Continue.</p><p><strong>Please note: Your memory of these faces will be tested 4 times during this experiment.</strong></p>",0,html-button-response,208,995798,0.0-16.0-0.0,15076,List2A,black,man,,,,,,,,,,,,,
2117.7,"<img src=""portrait/BM1.jpg""style=""height:400px;""></img>",4,html-button-response,209,998921,0.0-16.0-1.0,15076,List2A,black,man,,TRUE,4,,,,,,,,,,
null,CORRECT,,html-keyboard-response,210,1000425,0.0-16.0-2.0-0.0,15076,List2A,black,man,,,,null,,,,,,,,,
1697.1,"<img src=""portrait/WW1.jpg""style=""height:400px;""></img>",1,html-button-response,211,1002123,0.0-16.0-4.0,15076,List2A,black,man,,TRUE,1,,,,,,,,,,
null,CORRECT,,html-keyboard-response,212,1003631,0.0-16.0-5.0-0.0,15076,List2A,black,man,,,,null,,,,,,,,,
2167.5,"<img src=""portrait/BW1.jpg""style=""height:400px;""></img>",0,html-button-response,213,1005800,0.0-16.0-7.0,15076,List2A,black,man,,TRUE,0,,,,,,,,,,
null,CORRECT,,html-keyboard-response,214,1007305,0.0-16.0-8.0-0.0,15076,List2A,black,man,,,,null,,,,,,,,,
1833.8,"<img src=""portrait/WM1.jpg""style=""height:400px;""></img>",6,html-button-response,215,1009141,0.0-16.0-10.0,15076,List2A,black,man,,TRUE,6,,,,,,,,,,
null,CORRECT,,html-keyboard-response,216,1010647,0.0-16.0-11.0-0.0,15076,List2A,black,man,,,,null,,,,,,,,,
1493.9,"<img src=""portrait/BM2.jpg""style=""height:400px;""></img>",5,html-button-response,217,1012142,0.0-16.0-13.0,15076,List2A,black,man,,TRUE,5,,,,,,,,,,
null,CORRECT,,html-keyboard-response,218,1013652,0.0-16.0-14.0-0.0,15076,List2A,black,man,,,,null,,,,,,,,,
1339.3,"<img src=""portrait/WM2.jpg""style=""height:400px;""></img>",7,html-button-response,219,1014992,0.0-16.0-16.0,15076,List2A,black,man,,TRUE,7,,,,,,,,,,
null,CORRECT,,html-keyboard-response,220,1016495,0.0-16.0-17.0-0.0,15076,List2A,black,man,,,,null,,,,,,,,,
2328.4,"<img src=""portrait/BW2.jpg""style=""height:400px;""></img>",2,html-button-response,221,1018825,0.0-16.0-19.0,15076,List2A,black,man,,TRUE,2,,,,,,,,,,
null,CORRECT,,html-keyboard-response,222,1020329,0.0-16.0-20.0-0.0,15076,List2A,black,man,,,,null,,,,,,,,,
1241.2,"<img src=""portrait/WW2.jpg""style=""height:400px;""></img>",3,html-button-response,223,1021572,0.0-16.0-22.0,15076,List2A,black,man,,TRUE,3,,,,,,,,,,
null,CORRECT,,html-keyboard-response,224,1023077,0.0-16.0-23.0-0.0,15076,List2A,black,man,,,,null,,,,,,,,,
1233.8,<p>You got 8 out of 8 right first time. Press Continue.</p>,0,html-button-response,225,1024313,0.0-16.0-25.0,15076,List2A,black,man,,,,,,,,,,,,,
null,"<div style=""font-size:60px;"">+</div>",,html-keyboard-response,226,1025818,0.0-17.0-0.0,15076,List2A,black,man,,,,null,,,,,,,,,
null,"<img src=""stim_listA/hug1.gif""style=""height:400px;""></stim_listA>",,html-keyboard-response,227,1027823,0.0-17.0-1.0,15076,List2A,black,man,,,,null,,,,,,,,,
null,is hugging,,html-keyboard-response,228,1029829,0.0-17.0-2.0,15076,List2A,black,man,,,,null,,,,,,,,,
6712.8,,,survey-text,229,1036545,0.0-17.0-3.0,15076,List2A,black,man,,,,,"{""Q0"":""luke is hugging ruth""}","<img src=""stim_listA/hug1.gif""style=""height:400px;""></stim_listA>",is hugging,,,,,,
null,"<div style=""font-size:60px;"">+</div>",,html-keyboard-response,230,1037046,0.0-17.0-0.1,15076,List2A,black,man,,,,null,,,,,,,,,
null,"<img src=""stim_listA/greet4.gif""style=""height:400px;""></stim_listA>",,html-keyboard-response,231,1039049,0.0-17.0-1.1,15076,List2A,black,man,,,,null,,,,,,,,,
null,is being greeted by,,html-keyboard-response,232,1041051,0.0-17.0-2.1,15076,List2A,black,man,,,,null,,,,,,,,,
10882.5,,,survey-text,233,1051936,0.0-17.0-3.1,15076,List2A,black,man,,,,,"{""Q0"":""fred is being greeted by kate""}","<img src=""stim_listA/greet4.gif""style=""height:400px;""></stim_listA>",is being greeted by,,,,,,
null,"<div style=""font-size:60px;"">+</div>",,html-keyboard-response,234,1052438,0.0-17.0-0.2,15076,List2A,black,man,,,,null,,,,,,,,,
null,"<img src=""stim_listA/hug3.gif""style=""height:400px;""></stim_listA>",,html-keyboard-response,235,1054440,0.0-17.0-1.2,15076,List2A,black,man,,,,null,,,,,,,,,
null,is hugging,,html-keyboard-response,236,1056444,0.0-17.0-2.2,15076,List2A,black,man,,,,null,,,,,,,,,
12201.9,,,survey-text,237,1068649,0.0-17.0-3.2,15076,List2A,black,man,,,,,"{""Q0"":""fred is hugging beth""}","<img src=""stim_listA/hug3.gif""style=""height:400px;""></stim_listA>",is hugging,,,,,,
null,"<div style=""font-size:60px;"">+</div>",,html-keyboard-response,238,1069149,0.0-17.0-0.3,15076,List2A,black,man,,,,null,,,,,,,,,
null,"<img src=""stim_listA/greet7.gif""style=""height:400px;""></stim_listA>",,html-keyboard-response,239,1071153,0.0-17.0-1.3,15076,List2A,black,man,,,,null,,,,,,,,,
null,is greeting,,html-keyboard-response,240,1073155,0.0-17.0-2.3,15076,List2A,black,man,,,,null,,,,,,,,,
7769.1,,,survey-text,241,1080928,0.0-17.0-3.3,15076,List2A,black,man,,,,,"{""Q0"":""beth is greeting jane""}","<img src=""stim_listA/greet7.gif""style=""height:400px;""></stim_listA>",is greeting,,,,,,
null,"<div style=""font-size:60px;"">+</div>",,html-keyboard-response,242,1081429,0.0-17.0-0.4,15076,List2A,black,man,,,,null,,,,,,,,,
null,"<img src=""stim_listA/challenge2.gif""style=""height:400px;""></stim_listA>",,html-keyboard-response,243,1083435,0.0-17.0-1.4,15076,List2A,black,man,,,,null,,,,,,,,,
null,is being challenged by,,html-keyboard-response,244,1085440,0.0-17.0-2.4,15076,List2A,black,man,,,,null,,,,,,,,,
10391.2,,,survey-text,245,1095835,0.0-17.0-3.4,15076,List2A,black,man,,,,,"{""Q0"":""luke is being challenged by jane""}","<img src=""stim_listA/challenge2.gif""style=""height:400px;""></stim_listA>",is being challenged by,,,,,,
null,"<div style=""font-size:60px;"">+</div>",,html-keyboard-response,246,1096337,0.0-17.0-0.5,15076,List2A,black,man,,,,null,,,,,,,,,
null,"<img src=""stim_listA/look4.gif""style=""height:400px;""></stim_listA>",,html-keyboard-response,247,1098338,0.0-17.0-1.5,15076,List2A,black,man,,,,null,,,,,,,,,
null,is being looked at by,,html-keyboard-response,248,1100338,0.0-17.0-2.5,15076,List2A,black,man,,,,null,,,,,,,,,
15721.1,,,survey-text,249,1116062,0.0-17.0-3.5,15076,List2A,black,man,,,,,"{""Q0"":""fred is looking at by kate""}","<img src=""stim_listA/look4.gif""style=""height:400px;""></stim_listA>",is being looked at by,,,,,,
null,"<div style=""font-size:60px;"">+</div>",,html-keyboard-response,250,1116565,0.0-17.0-0.6,15076,List2A,black,man,,,,null,,,,,,,,,
null,"<img src=""stim_listA/copy8.gif""style=""height:400px;""></stim_listA>",,html-keyboard-response,251,1118569,0.0-17.0-1.6,15076,List2A,black,man,,,,null,,,,,,,,,
null,is being copied by,,html-keyboard-response,252,1120571,0.0-17.0-2.6,15076,List2A,black,man,,,,null,,,,,,,,,
14734.7,,,survey-text,253,1135308,0.0-17.0-3.6,15076,List2A,black,man,,,,,"{""Q0"":""kate is being copied by ruth""}","<img src=""stim_listA/copy8.gif""style=""height:400px;""></stim_listA>",is being copied by,,,,,,
null,"<div style=""font-size:60px;"">+</div>",,html-keyboard-response,254,1135809,0.0-17.0-0.7,15076,List2A,black,man,,,,null,,,,,,,,,
null,"<img src=""stim_listA/challenge5.gif""style=""height:400px;""></stim_listA>",,html-keyboard-response,255,1137811,0.0-17.0-1.7,15076,List2A,black,man,,,,null,,,,,,,,,
null,is challenging,,html-keyboard-response,256,1139814,0.0-17.0-2.7,15076,List2A,black,man,,,,null,,,,,,,,,
7715.5,,,survey-text,257,1147532,0.0-17.0-3.7,15076,List2A,black,man,,,,,"{""Q0"":""fred is challenging dave""}","<img src=""stim_listA/challenge5.gif""style=""height:400px;""></stim_listA>",is challenging,,,,,,
null,"<div style=""font-size:60px;"">+</div>",,html-keyboard-response,258,1148035,0.0-17.0-0.8,15076,List2A,black,man,,,,null,,,,,,,,,
null,"<img src=""stim_listA/hug5.gif""style=""height:400px;""></stim_listA>",,html-keyboard-response,259,1150039,0.0-17.0-1.8,15076,List2A,black,man,,,,null,,,,,,,,,
null,is hugging,,html-keyboard-response,260,1152040,0.0-17.0-2.8,15076,List2A,black,man,,,,null,,,,,,,,,
6533.4,,,survey-text,261,1158577,0.0-17.0-3.8,15076,List2A,black,man,,,,,"{""Q0"":""fred is hugging luke""}","<img src=""stim_listA/hug5.gif""style=""height:400px;""></stim_listA>",is hugging,,,,,,
null,"<div style=""font-size:60px;"">+</div>",,html-keyboard-response,262,1159078,0.0-17.0-0.9,15076,List2A,black,man,,,,null,,,,,,,,,
null,"<img src=""stim_listA/look2.gif""style=""height:400px;""></stim_listA>",,html-keyboard-response,263,1161084,0.0-17.0-1.9,15076,List2A,black,man,,,,null,,,,,,,,,
null,is being looked at by,,html-keyboard-response,264,1163089,0.0-17.0-2.9,15076,List2A,black,man,,,,null,,,,,,,,,
9877.4,,,survey-text,265,1172969,0.0-17.0-3.9,15076,List2A,black,man,,,,,"{""Q0"":""jane is being looked at by dave""}","<img src=""stim_listA/look2.gif""style=""height:400px;""></stim_listA>",is being looked at by,,,,,,
null,"<div style=""font-size:60px;"">+</div>",,html-keyboard-response,266,1173470,0.0-17.0-0.10,15076,List2A,black,man,,,,null,,,,,,,,,
null,"<img src=""stim_listA/kiss1.gif""style=""height:400px;""></stim_listA>",,html-keyboard-response,267,1175475,0.0-17.0-1.10,15076,List2A,black,man,,,,null,,,,,,,,,
null,is kissing,,html-keyboard-response,268,1177476,0.0-17.0-2.10,15076,List2A,black,man,,,,null,,,,,,,,,
6495.3,,,survey-text,269,1183974,0.0-17.0-3.10,15076,List2A,black,man,,,,,"{""Q0"":""luke is kissing ruth""}","<img src=""stim_listA/kiss1.gif""style=""height:400px;""></stim_listA>",is kissing,,,,,,
null,"<div style=""font-size:60px;"">+</div>",,html-keyboard-response,270,1184477,0.0-17.0-0.11,15076,List2A,black,man,,,,null,,,,,,,,,
null,"<img src=""stim_listA/shout1.gif""style=""height:400px;""></stim_listA>",,html-keyboard-response,271,1186481,0.0-17.0-1.11,15076,List2A,black,man,,,,null,,,,,,,,,
null,is shouting at,,html-keyboard-response,272,1188485,0.0-17.0-2.11,15076,List2A,black,man,,,,null,,,,,,,,,
11784.4,,,survey-text,273,1200273,0.0-17.0-3.11,15076,List2A,black,man,,,,,"{""Q0"":""ruth is shouting at luke""}","<img src=""stim_listA/shout1.gif""style=""height:400px;""></stim_listA>",is shouting at,,,,,,
null,"<div style=""font-size:60px;"">+</div>",,html-keyboard-response,274,1200775,0.0-17.0-0.12,15076,List2A,black,man,,,,null,,,,,,,,,
null,"<img src=""stim_listA/hug2.gif""style=""height:400px;""></stim_listA>",,html-keyboard-response,275,1202780,0.0-17.0-1.12,15076,List2A,black,man,,,,null,,,,,,,,,
null,is being hugged by,,html-keyboard-response,276,1204782,0.0-17.0-2.12,15076,List2A,black,man,,,,null,,,,,,,,,
10474.2,,,survey-text,277,1215259,0.0-17.0-3.12,15076,List2A,black,man,,,,,"{""Q0"":""dave is being hugged by jane""}","<img src=""stim_listA/hug2.gif""style=""height:400px;""></stim_listA>",is being hugged by,,,,,,
null,"<div style=""font-size:60px;"">+</div>",,html-keyboard-response,278,1215761,0.0-17.0-0.13,15076,List2A,black,man,,,,null,,,,,,,,,
null,"<img src=""stim_listA/oppose8.gif""style=""height:400px;""></stim_listA>",,html-keyboard-response,279,1217767,0.0-17.0-1.13,15076,List2A,black,man,,,,null,,,,,,,,,
null,is being opposed by,,html-keyboard-response,280,1219770,0.0-17.0-2.13,15076,List2A,black,man,,,,null,,,,,,,,,
8449.9,,,survey-text,281,1228222,0.0-17.0-3.13,15076,List2A,black,man,,,,,"{""Q0"":""ruth is being opposed by beth""}","<img src=""stim_listA/oppose8.gif""style=""height:400px;""></stim_listA>",is being opposed by,,,,,,
null,"<div style=""font-size:60px;"">+</div>",,html-keyboard-response,282,1228724,0.0-17.0-0.14,15076,List2A,black,man,,,,null,,,,,,,,,
null,"<img src=""stim_listA/greet5.gif""style=""height:400px;""></stim_listA>",,html-keyboard-response,283,1230729,0.0-17.0-1.14,15076,List2A,black,man,,,,null,,,,,,,,,
null,is greeting,,html-keyboard-response,284,1232733,0.0-17.0-2.14,15076,List2A,black,man,,,,null,,,,,,,,,
6586,,,survey-text,285,1239321,0.0-17.0-3.14,15076,List2A,black,man,,,,,"{""Q0"":""dave is greeting fred""}","<img src=""stim_listA/greet5.gif""style=""height:400px;""></stim_listA>",is greeting,,,,,,
null,"<div style=""font-size:60px;"">+</div>",,html-keyboard-response,286,1239824,0.0-17.0-0.15,15076,List2A,black,man,,,,null,,,,,,,,,
null,"<img src=""stim_listA/oppose1.gif""style=""height:400px;""></stim_listA>",,html-keyboard-response,287,1241828,0.0-17.0-1.15,15076,List2A,black,man,,,,null,,,,,,,,,
null,is opposing,,html-keyboard-response,288,1243833,0.0-17.0-2.15,15076,List2A,black,man,,,,null,,,,,,,,,
7877.1,,,survey-text,289,1251712,0.0-17.0-3.15,15076,List2A,black,man,,,,,"{""Q0"":""jane is opposing dave""}","<img src=""stim_listA/oppose1.gif""style=""height:400px;""></stim_listA>",is opposing,,,,,,
null,"<div style=""font-size:60px;"">+</div>",,html-keyboard-response,290,1252213,0.0-17.0-0.16,15076,List2A,black,man,,,,null,,,,,,,,,
null,"<img src=""stim_listA/seduce1.gif""style=""height:400px;""></stim_listA>",,html-keyboard-response,291,1254219,0.0-17.0-1.16,15076,List2A,black,man,,,,null,,,,,,,,,
null,is seducing,,html-keyboard-response,292,1256222,0.0-17.0-2.16,15076,List2A,black,man,,,,null,,,,,,,,,
6063.8,,,survey-text,293,1262289,0.0-17.0-3.16,15076,List2A,black,man,,,,,"{""Q0"":""luke is seducing jane""}","<img src=""stim_listA/seduce1.gif""style=""height:400px;""></stim_listA>",is seducing,,,,,,
null,"<div style=""font-size:60px;"">+</div>",,html-keyboard-response,294,1262790,0.0-17.0-0.17,15076,List2A,black,man,,,,null,,,,,,,,,
null,"<img src=""stim_listA/kiss3.gif""style=""height:400px;""></stim_listA>",,html-keyboard-response,295,1264794,0.0-17.0-1.17,15076,List2A,black,man,,,,null,,,,,,,,,
null,is kissing,,html-keyboard-response,296,1266800,0.0-17.0-2.17,15076,List2A,black,man,,,,null,,,,,,,,,
6049.1,,,survey-text,297,1272852,0.0-17.0-3.17,15076,List2A,black,man,,,,,"{""Q0"":""fred is kissing beth""}","<img src=""stim_listA/kiss3.gif""style=""height:400px;""></stim_listA>",is kissing,,,,,,
null,"<div style=""font-size:60px;"">+</div>",,html-keyboard-response,298,1273357,0.0-17.0-0.18,15076,List2A,black,man,,,,null,,,,,,,,,
null,"<img src=""stim_listA/greet8.gif""style=""height:400px;""></stim_listA>",,html-keyboard-response,299,1275363,0.0-17.0-1.18,15076,List2A,black,man,,,,null,,,,,,,,,
null,is being greeted by,,html-keyboard-response,300,1277369,0.0-17.0-2.18,15076,List2A,black,man,,,,null,,,,,,,,,
11943.4,,,survey-text,301,1289316,0.0-17.0-3.18,15076,List2A,black,man,,,,,"{""Q0"":""kate is being greeted by ruth""}","<img src=""stim_listA/greet8.gif""style=""height:400px;""></stim_listA>",is being greeted by,,,,,,
null,"<div style=""font-size:60px;"">+</div>",,html-keyboard-response,302,1289819,0.0-17.0-0.19,15076,List2A,black,man,,,,null,,,,,,,,,
null,"<img src=""stim_listA/hug6.gif""style=""height:400px;""></stim_listA>",,html-keyboard-response,303,1291825,0.0-17.0-1.19,15076,List2A,black,man,,,,null,,,,,,,,,
null,is being hugged by,,html-keyboard-response,304,1293828,0.0-17.0-2.19,15076,List2A,black,man,,,,null,,,,,,,,,
7371,,,survey-text,305,1301203,0.0-17.0-3.19,15076,List2A,black,man,,,,,"{""Q0"":""mike is being hugged by dave""}","<img src=""stim_listA/hug6.gif""style=""height:400px;""></stim_listA>",is being hugged by,,,,,,
6693.9,"<img src='img/portrait_matrix_list2.jpg' style='width:900px;height:500px;''></img><p>If you have memorised all the portraits and names and are ready to start, press Continue.</p><p><strong>Please note: Your memory of these faces will be tested 4 times during this experiment.</strong></p>",0,html-button-response,306,1307898,0.0-18.0-0.0,15076,List2A,black,man,,,,,,,,,,,,,
1764.5,"<img src=""portrait/BW1.jpg""style=""height:400px;""></img>",0,html-button-response,307,1310665,0.0-18.0-1.0,15076,List2A,black,man,,TRUE,0,,,,,,,,,,
null,CORRECT,,html-keyboard-response,308,1312172,0.0-18.0-2.0-0.0,15076,List2A,black,man,,,,null,,,,,,,,,
1533.3,"<img src=""portrait/BM2.jpg""style=""height:400px;""></img>",5,html-button-response,309,1313706,0.0-18.0-4.0,15076,List2A,black,man,,TRUE,5,,,,,,,,,,
null,CORRECT,,html-keyboard-response,310,1315212,0.0-18.0-5.0-0.0,15076,List2A,black,man,,,,null,,,,,,,,,
2435.5,"<img src=""portrait/BW2.jpg""style=""height:400px;""></img>",2,html-button-response,311,1317649,0.0-18.0-7.0,15076,List2A,black,man,,TRUE,2,,,,,,,,,,
null,CORRECT,,html-keyboard-response,312,1319152,0.0-18.0-8.0-0.0,15076,List2A,black,man,,,,null,,,,,,,,,
1254.8,"<img src=""portrait/WW1.jpg""style=""height:400px;""></img>",1,html-button-response,313,1320408,0.0-18.0-10.0,15076,List2A,black,man,,TRUE,1,,,,,,,,,,
null,CORRECT,,html-keyboard-response,314,1321910,0.0-18.0-11.0-0.0,15076,List2A,black,man,,,,null,,,,,,,,,
1595.6,"<img src=""portrait/WM2.jpg""style=""height:400px;""></img>",7,html-button-response,315,1323507,0.0-18.0-13.0,15076,List2A,black,man,,TRUE,7,,,,,,,,,,
null,CORRECT,,html-keyboard-response,316,1325012,0.0-18.0-14.0-0.0,15076,List2A,black,man,,,,null,,,,,,,,,
1427.1,"<img src=""portrait/WM1.jpg""style=""height:400px;""></img>",6,html-button-response,317,1326441,0.0-18.0-16.0,15076,List2A,black,man,,TRUE,6,,,,,,,,,,
null,CORRECT,,html-keyboard-response,318,1327946,0.0-18.0-17.0-0.0,15076,List2A,black,man,,,,null,,,,,,,,,
1509.9,"<img src=""portrait/BM1.jpg""style=""height:400px;""></img>",4,html-button-response,319,1329457,0.0-18.0-19.0,15076,List2A,black,man,,TRUE,4,,,,,,,,,,
null,CORRECT,,html-keyboard-response,320,1330965,0.0-18.0-20.0-0.0,15076,List2A,black,man,,,,null,,,,,,,,,
1098.7,"<img src=""portrait/WW2.jpg""style=""height:400px;""></img>",3,html-button-response,321,1332065,0.0-18.0-22.0,15076,List2A,black,man,,TRUE,3,,,,,,,,,,
null,CORRECT,,html-keyboard-response,322,1333572,0.0-18.0-23.0-0.0,15076,List2A,black,man,,,,null,,,,,,,,,
2612.5,<p>You got 8 out of 8 right first time. Press Continue.</p>,0,html-button-response,323,1336186,0.0-18.0-25.0,15076,List2A,black,man,,,,,,,,,,,,,
null,"<div style=""font-size:60px;"">+</div>",,html-keyboard-response,324,1337690,0.0-19.0-0.0,15076,List2A,black,man,,,,null,,,,,,,,,
null,"<img src=""stim_listA/copy2.gif""style=""height:400px;""></stim_listA>",,html-keyboard-response,325,1339691,0.0-19.0-1.0,15076,List2A,black,man,,,,null,,,,,,,,,
null,is being copied by,,html-keyboard-response,326,1341695,0.0-19.0-2.0,15076,List2A,black,man,,,,null,,,,,,,,,
7893.4,,,survey-text,327,1349591,0.0-19.0-3.0,15076,List2A,black,man,,,,,"{""Q0"":""jane is being copied by luke""}","<img src=""stim_listA/copy2.gif""style=""height:400px;""></stim_listA>",is being copied by,,,,,,
null,"<div style=""font-size:60px;"">+</div>",,html-keyboard-response,328,1350095,0.0-19.0-0.1,15076,List2A,black,man,,,,null,,,,,,,,,
null,"<img src=""stim_listA/copy3.gif""style=""height:400px;""></stim_listA>",,html-keyboard-response,329,1352096,0.0-19.0-1.1,15076,List2A,black,man,,,,null,,,,,,,,,
null,is copying,,html-keyboard-response,330,1354100,0.0-19.0-2.1,15076,List2A,black,man,,,,null,,,,,,,,,
5607.4,,,survey-text,331,1359710,0.0-19.0-3.1,15076,List2A,black,man,,,,,"{""Q0"":""beth is copying mike""}","<img src=""stim_listA/copy3.gif""style=""height:400px;""></stim_listA>",is copying,,,,,,
null,"<div style=""font-size:60px;"">+</div>",,html-keyboard-response,332,1360211,0.0-19.0-0.2,15076,List2A,black,man,,,,null,,,,,,,,,
null,"<img src=""stim_listA/shout6.gif""style=""height:400px;""></stim_listA>",,html-keyboard-response,333,1362213,0.0-19.0-1.2,15076,List2A,black,man,,,,null,,,,,,,,,
null,is being shouted at by,,html-keyboard-response,334,1364215,0.0-19.0-2.2,15076,List2A,black,man,,,,null,,,,,,,,,
10223.7,,,survey-text,335,1374442,0.0-19.0-3.2,15076,List2A,black,man,,,,,"{""Q0"":""mike is being shouted at by dave""}","<img src=""stim_listA/shout6.gif""style=""height:400px;""></stim_listA>",is being shouted at by,,,,,,
null,"<div style=""font-size:60px;"">+</div>",,html-keyboard-response,336,1374944,0.0-19.0-0.3,15076,List2A,black,man,,,,null,,,,,,,,,
null,"<img src=""stim_listA/seduce3.gif""style=""height:400px;""></stim_listA>",,html-keyboard-response,337,1376949,0.0-19.0-1.3,15076,List2A,black,man,,,,null,,,,,,,,,
null,is seducing,,html-keyboard-response,338,1378954,0.0-19.0-2.3,15076,List2A,black,man,,,,null,,,,,,,,,
7116.3,,,survey-text,339,1386072,0.0-19.0-3.3,15076,List2A,black,man,,,,,"{""Q0"":""kate is seducing fred""}","<img src=""stim_listA/seduce3.gif""style=""height:400px;""></stim_listA>",is seducing,,,,,,
null,"<div style=""font-size:60px;"">+</div>",,html-keyboard-response,340,1386573,0.0-19.0-0.4,15076,List2A,black,man,,,,null,,,,,,,,,
null,"<img src=""stim_listA/oppose7.gif""style=""height:400px;""></stim_listA>",,html-keyboard-response,341,1388579,0.0-19.0-1.4,15076,List2A,black,man,,,,null,,,,,,,,,
null,is opposing,,html-keyboard-response,342,1390581,0.0-19.0-2.4,15076,List2A,black,man,,,,null,,,,,,,,,
5357,,,survey-text,343,1395941,0.0-19.0-3.4,15076,List2A,black,man,,,,,"{""Q0"":""jane is opposing kate""}","<img src=""stim_listA/oppose7.gif""style=""height:400px;""></stim_listA>",is opposing,,,,,,
null,"<div style=""font-size:60px;"">+</div>",,html-keyboard-response,344,1396443,0.0-19.0-0.5,15076,List2A,black,man,,,,null,,,,,,,,,
null,"<img src=""stim_listA/greet6.gif""style=""height:400px;""></stim_listA>",,html-keyboard-response,345,1398444,0.0-19.0-1.5,15076,List2A,black,man,,,,null,,,,,,,,,
null,is being greeted by,,html-keyboard-response,346,1400449,0.0-19.0-2.5,15076,List2A,black,man,,,,null,,,,,,,,,
15608.8,,,survey-text,347,1416061,0.0-19.0-3.5,15076,List2A,black,man,,,,,"{""Q0"":""luke is being greeted at by mike""}","<img src=""stim_listA/greet6.gif""style=""height:400px;""></stim_listA>",is being greeted by,,,,,,
null,"<div style=""font-size:60px;"">+</div>",,html-keyboard-response,348,1416562,0.0-19.0-0.6,15076,List2A,black,man,,,,null,,,,,,,,,
null,"<img src=""stim_listA/touch1.gif""style=""height:400px;""></stim_listA>",,html-keyboard-response,349,1418565,0.0-19.0-1.6,15076,List2A,black,man,,,,null,,,,,,,,,
null,is touching,,html-keyboard-response,350,1420566,0.0-19.0-2.6,15076,List2A,black,man,,,,null,,,,,,,,,
5719.3,,,survey-text,351,1426287,0.0-19.0-3.6,15076,List2A,black,man,,,,,"{""Q0"":""dave is touching jane""}","<img src=""stim_listA/touch1.gif""style=""height:400px;""></stim_listA>",is touching,,,,,,
null,"<div style=""font-size:60px;"">+</div>",,html-keyboard-response,352,1426791,0.0-19.0-0.7,15076,List2A,black,man,,,,null,,,,,,,,,
null,"<img src=""stim_listA/oppose6.gif""style=""height:400px;""></stim_listA>",,html-keyboard-response,353,1428796,0.0-19.0-1.7,15076,List2A,black,man,,,,null,,,,,,,,,
null,is being opposed by,,html-keyboard-response,354,1430801,0.0-19.0-2.7,15076,List2A,black,man,,,,null,,,,,,,,,
8598.6,,,survey-text,355,1439402,0.0-19.0-3.7,15076,List2A,black,man,,,,,"{""Q0"":""fred is being opposed by luke""}","<img src=""stim_listA/oppose6.gif""style=""height:400px;""></stim_listA>",is being opposed by,,,,,,
null,"<div style=""font-size:60px;"">+</div>",,html-keyboard-response,356,1439903,0.0-19.0-0.8,15076,List2A,black,man,,,,null,,,,,,,,,
null,"<img src=""stim_listA/kiss5.gif""style=""height:400px;""></stim_listA>",,html-keyboard-response,357,1441905,0.0-19.0-1.8,15076,List2A,black,man,,,,null,,,,,,,,,
null,is kissing,,html-keyboard-response,358,1443907,0.0-19.0-2.8,15076,List2A,black,man,,,,null,,,,,,,,,
4803.5,,,survey-text,359,1448713,0.0-19.0-3.8,15076,List2A,black,man,,,,,"{""Q0"":""fred is kissing luke""}","<img src=""stim_listA/kiss5.gif""style=""height:400px;""></stim_listA>",is kissing,,,,,,
null,"<div style=""font-size:60px;"">+</div>",,html-keyboard-response,360,1449216,0.0-19.0-0.9,15076,List2A,black,man,,,,null,,,,,,,,,
null,"<img src=""stim_listA/challenge6.gif""style=""height:400px;""></stim_listA>",,html-keyboard-response,361,1451219,0.0-19.0-1.9,15076,List2A,black,man,,,,null,,,,,,,,,
null,is being challenged by,,html-keyboard-response,362,1453223,0.0-19.0-2.9,15076,List2A,black,man,,,,null,,,,,,,,,
12375.3,,,survey-text,363,1465601,0.0-19.0-3.9,15076,List2A,black,man,,,,,"{""Q0"":""mike is being challenged by luke""}","<img src=""stim_listA/challenge6.gif""style=""height:400px;""></stim_listA>",is being challenged by,,,,,,
null,"<div style=""font-size:60px;"">+</div>",,html-keyboard-response,364,1466102,0.0-19.0-0.10,15076,List2A,black,man,,,,null,,,,,,,,,
null,"<img src=""stim_listA/challenge3.gif""style=""height:400px;""></stim_listA>",,html-keyboard-response,365,1468104,0.0-19.0-1.10,15076,List2A,black,man,,,,null,,,,,,,,,
null,is challenging,,html-keyboard-response,366,1470105,0.0-19.0-2.10,15076,List2A,black,man,,,,null,,,,,,,,,
6225.1,,,survey-text,367,1476333,0.0-19.0-3.10,15076,List2A,black,man,,,,,"{""Q0"":""mike is challenging beth""}","<img src=""stim_listA/challenge3.gif""style=""height:400px;""></stim_listA>",is challenging,,,,,,
null,"<div style=""font-size:60px;"">+</div>",,html-keyboard-response,368,1476836,0.0-19.0-0.11,15076,List2A,black,man,,,,null,,,,,,,,,
null,"<img src=""stim_listA/seduce7.gif""style=""height:400px;""></stim_listA>",,html-keyboard-response,369,1478839,0.0-19.0-1.11,15076,List2A,black,man,,,,null,,,,,,,,,
null,is seducing,,html-keyboard-response,370,1480844,0.0-19.0-2.11,15076,List2A,black,man,,,,null,,,,,,,,,
9589,,,survey-text,371,1490436,0.0-19.0-3.11,15076,List2A,black,man,,,,,"{""Q0"":""kate is seducing ruth""}","<img src=""stim_listA/seduce7.gif""style=""height:400px;""></stim_listA>",is seducing,,,,,,
null,"<div style=""font-size:60px;"">+</div>",,html-keyboard-response,372,1490937,0.0-19.0-0.12,15076,List2A,black,man,,,,null,,,,,,,,,
null,"<img src=""stim_listA/oppose2.gif""style=""height:400px;""></stim_listA>",,html-keyboard-response,373,1492941,0.0-19.0-1.12,15076,List2A,black,man,,,,null,,,,,,,,,
null,is being opposed by,,html-keyboard-response,374,1494943,0.0-19.0-2.12,15076,List2A,black,man,,,,null,,,,,,,,,
9727.4,,,survey-text,375,1504674,0.0-19.0-3.12,15076,List2A,black,man,,,,,"{""Q0"":""ruth is being opposed by luke""}","<img src=""stim_listA/oppose2.gif""style=""height:400px;""></stim_listA>",is being opposed by,,,,,,
null,"<div style=""font-size:60px;"">+</div>",,html-keyboard-response,376,1505177,0.0-19.0-0.13,15076,List2A,black,man,,,,null,,,,,,,,,
null,"<img src=""stim_listA/challenge4.gif""style=""height:400px;""></stim_listA>",,html-keyboard-response,377,1507179,0.0-19.0-1.13,15076,List2A,black,man,,,,null,,,,,,,,,
null,is being challenged by,,html-keyboard-response,378,1509181,0.0-19.0-2.13,15076,List2A,black,man,,,,null,,,,,,,,,
9923.6,,,survey-text,379,1519108,0.0-19.0-3.13,15076,List2A,black,man,,,,,"{""Q0"":""fred is being challenged by kate""}","<img src=""stim_listA/challenge4.gif""style=""height:400px;""></stim_listA>",is being challenged by,,,,,,
null,"<div style=""font-size:60px;"">+</div>",,html-keyboard-response,380,1519609,0.0-19.0-0.14,15076,List2A,black,man,,,,null,,,,,,,,,
null,"<img src=""stim_listA/kiss4.gif""style=""height:400px;""></stim_listA>",,html-keyboard-response,381,1521613,0.0-19.0-1.14,15076,List2A,black,man,,,,null,,,,,,,,,
null,is being kissed by,,html-keyboard-response,382,1523615,0.0-19.0-2.14,15076,List2A,black,man,,,,null,,,,,,,,,
10371.1,,,survey-text,383,1533989,0.0-19.0-3.14,15076,List2A,black,man,,,,,"{""Q0"":""kate is being kissed by mike""}","<img src=""stim_listA/kiss4.gif""style=""height:400px;""></stim_listA>",is being kissed by,,,,,,
null,"<div style=""font-size:60px;"">+</div>",,html-keyboard-response,384,1534493,0.0-19.0-0.15,15076,List2A,black,man,,,,null,,,,,,,,,
null,"<img src=""stim_listA/challenge8.gif""style=""height:400px;""></stim_listA>",,html-keyboard-response,385,1536498,0.0-19.0-1.15,15076,List2A,black,man,,,,null,,,,,,,,,
null,is being challenged by,,html-keyboard-response,386,1538503,0.0-19.0-2.15,15076,List2A,black,man,,,,null,,,,,,,,,
13417.1,,,survey-text,387,1551924,0.0-19.0-3.15,15076,List2A,black,man,,,,,"{""Q0"":""kate is being challenged by ruth""}","<img src=""stim_listA/challenge8.gif""style=""height:400px;""></stim_listA>",is being challenged by,,,,,,
null,"<div style=""font-size:60px;"">+</div>",,html-keyboard-response,388,1552426,0.0-19.0-0.16,15076,List2A,black,man,,,,null,,,,,,,,,
null,"<img src=""stim_listA/challenge7.gif""style=""height:400px;""></stim_listA>",,html-keyboard-response,389,1554431,0.0-19.0-1.16,15076,List2A,black,man,,,,null,,,,,,,,,
null,is challenging,,html-keyboard-response,390,1556432,0.0-19.0-2.16,15076,List2A,black,man,,,,null,,,,,,,,,
7879.5,,,survey-text,391,1564315,0.0-19.0-3.16,15076,List2A,black,man,,,,,"{""Q0"":""jane is challenging beth""}","<img src=""stim_listA/challenge7.gif""style=""height:400px;""></stim_listA>",is challenging,,,,,,
null,"<div style=""font-size:60px;"">+</div>",,html-keyboard-response,392,1564819,0.0-19.0-0.17,15076,List2A,black,man,,,,null,,,,,,,,,
null,"<img src=""stim_listA/touch4.gif""style=""height:400px;""></stim_listA>",,html-keyboard-response,393,1566825,0.0-19.0-1.17,15076,List2A,black,man,,,,null,,,,,,,,,
null,is being touched by,,html-keyboard-response,394,1568830,0.0-19.0-2.17,15076,List2A,black,man,,,,null,,,,,,,,,
8035,,,survey-text,395,1576868,0.0-19.0-3.17,15076,List2A,black,man,,,,,"{""Q0"":""fred is being touched by beth""}","<img src=""stim_listA/touch4.gif""style=""height:400px;""></stim_listA>",is being touched by,,,,,,
null,"<div style=""font-size:60px;"">+</div>",,html-keyboard-response,396,1577370,0.0-19.0-0.18,15076,List2A,black,man,,,,null,,,,,,,,,
null,"<img src=""stim_listA/copy6.gif""style=""height:400px;""></stim_listA>",,html-keyboard-response,397,1579371,0.0-19.0-1.18,15076,List2A,black,man,,,,null,,,,,,,,,
null,is being copied by,,html-keyboard-response,398,1581374,0.0-19.0-2.18,15076,List2A,black,man,,,,null,,,,,,,,,
7322.9,,,survey-text,399,1588700,0.0-19.0-3.18,15076,List2A,black,man,,,,,"{""Q0"":""mike is being copied by luke""}","<img src=""stim_listA/copy6.gif""style=""height:400px;""></stim_listA>",is being copied by,,,,,,
null,"<div style=""font-size:60px;"">+</div>",,html-keyboard-response,400,1589202,0.0-19.0-0.19,15076,List2A,black,man,,,,null,,,,,,,,,
null,"<img src=""stim_listA/shout7.gif""style=""height:400px;""></stim_listA>",,html-keyboard-response,401,1591204,0.0-19.0-1.19,15076,List2A,black,man,,,,null,,,,,,,,,
null,is shouting at,,html-keyboard-response,402,1593205,0.0-19.0-2.19,15076,List2A,black,man,,,,null,,,,,,,,,
7801,,,survey-text,403,1601009,0.0-19.0-3.19,15076,List2A,black,man,,,,,"{""Q0"":""ruth is shouting at beth""}","<img src=""stim_listA/shout7.gif""style=""height:400px;""></stim_listA>",is shouting at,,,,,,
5981,<p>Thank you for completing that task.</p><p>The final part of this session is a questionnaire that will take about 4 minutes.</p><p>Press Continue.</p>,0,html-button-response,404,1606992,0.0-20.0,15076,List2A,black,man,,,,,,,,,,,,,
34128.2,,,survey-text,405,1642128,0.0-21.0,15076,List2A,black,man,,,,,"{""Q0"":""24"",""Q1"":""English"",""Q2"":""English"",""Q3"":""United States"",""Q4"":""American"",""Q5"":""Black/African-American"",""Q6"":""Male""}",,,demographics,,,,,
5100.3,<p>Have you lived in the USA for the last 5 years or more?</p>,0,html-button-response,406,1647230,0.0-22.0,15076,List2A,black,man,,,,,,,,fiveyears,,,,,
4660.6,<p>Move the slider to show the extent to which you agree with the following statements.</p>,0,html-button-response,407,1652895,0.0-23.0,15076,List2A,black,man,,,,,,,,,,,,,
4733.1,,,html-slider-response,408,1658633,0.0-24.0-0.0-0.0,15076,List2A,black,man,,,,,,,,survey_race,91,,,It is pleasant to be my race.,pleasant
4417.6,,,html-slider-response,409,1663052,0.0-24.0-0.0-0.1,15076,List2A,black,man,,,,,,,,survey_race,89,,,People of my race have a lot in common with each other.,common
7796.5,,,html-slider-response,410,1670850,0.0-24.0-0.0-0.2,15076,List2A,black,man,,,,,,,,survey_race,47,,,People my age have a lot in common with each other.,filler
4621.6,,,html-slider-response,411,1675474,0.0-24.0-0.0-0.3,15076,List2A,black,man,,,,,,,,survey_race,76,,,Being my age gives me a good feeling.,filler
2746.9,,,html-slider-response,412,1678223,0.0-24.0-0.0-0.4,15076,List2A,black,man,,,,,,,,survey_race,76,,,I am glad to be the age I am.,filler
2582,,,html-slider-response,413,1680807,0.0-24.0-0.0-0.5,15076,List2A,black,man,,,,,,,,survey_race,80,,,I am glad to be my age.,filler
3411.6,,,html-slider-response,414,1684219,0.0-24.0-0.0-0.6,15076,List2A,black,man,,,,,,,,survey_race,21,,,I consider myself an extrovert.,filler
4684.6,,,html-slider-response,415,1688905,0.0-24.0-0.0-0.7,15076,List2A,black,man,,,,,,,,survey_race,39,,,I am similar to the average person of my race.,similar
3203.2,,,html-slider-response,416,1692110,0.0-24.0-0.0-0.8,15076,List2A,black,man,,,,,,,,survey_race,29,,,I enjoy being in large groups.,filler
3666.6,,,html-slider-response,417,1695778,0.0-24.0-0.0-0.9,15076,List2A,black,man,,,,,,,,survey_race,28,,,Getting older does not worry me.,filler
2960.1,,,html-slider-response,418,1698739,0.0-24.0-0.0-0.10,15076,List2A,black,man,,,,,,,,survey_race,88,,,I am glad to be my race.,glad
4870.1,,,html-slider-response,419,1703611,0.0-24.0-0.0-0.11,15076,List2A,black,man,,,,,,,,survey_race,39,,,I feel solidarity with people the same age as me.,filler
3618.1,,,html-slider-response,420,1707231,0.0-24.0-0.0-0.12,15076,List2A,black,man,,,,,,,,survey_race,78,,,I feel a bond with my race.,bond
4691.9,,,html-slider-response,421,1711925,0.0-24.0-0.0-0.13,15076,List2A,black,man,,,,,,,,survey_race,83,,,The fact that I am my race is an important part of my identity.,identity
7299.2,,,html-slider-response,422,1719226,0.0-24.0-0.0-0.14,15076,List2A,black,man,,,,,,,,survey_race,72,,,Being my race is an important part of how I see myself.,important
4203,,,html-slider-response,423,1723430,0.0-24.0-0.0-0.15,15076,List2A,black,man,,,,,,,,survey_race,75,,,I think that my race has a lot to be proud of.,proud
3992.9,,,html-slider-response,424,1727425,0.0-24.0-0.0-0.16,15076,List2A,black,man,,,,,,,,survey_race,39,,,I have a lot in common with people of a similar age to me.,filler
6266.9,,,html-slider-response,425,1733694,0.0-24.0-0.0-0.17,15076,List2A,black,man,,,,,,,,survey_race,46,,,I often think about the fact that I am my race.,often
4797.9,,,html-slider-response,426,1738493,0.0-24.0-0.0-0.18,15076,List2A,black,man,,,,,,,,survey_race,66,,,People of my race are very similar to each other.,verysimilar
3310.1,,,html-slider-response,427,1741804,0.0-24.0-0.0-0.19,15076,List2A,black,man,,,,,,,,survey_race,75,,,I feel committed to my race.,committed
4067.2,,,html-slider-response,428,1745873,0.0-24.0-0.0-0.20,15076,List2A,black,man,,,,,,,,survey_race,77,,,I consider myself an introvert.,filler
4055.9,,,html-slider-response,429,1749930,0.0-24.0-0.0-0.21,15076,List2A,black,man,,,,,,,,survey_race,46,,,"The older I get, the wiser I feel.",filler
5584.3,,,html-slider-response,430,1755516,0.0-24.0-0.0-0.22,15076,List2A,black,man,,,,,,,,survey_race,48,,,I have a lot in common with the average person of my race.,average
5698.4,,,html-slider-response,431,1761216,0.0-24.0-0.0-0.23,15076,List2A,black,man,,,,,,,,survey_race,59,,,I often think about the fact that I am my age.,filler
4679.9,,,html-slider-response,432,1765898,0.0-24.0-0.0-0.24,15076,List2A,black,man,,,,,,,,survey_race,63,,,My age is not an important part of who I am.,filler
3258,,,html-slider-response,433,1769158,0.0-24.0-0.0-0.25,15076,List2A,black,man,,,,,,,,survey_race,43,,,I feel a bond with people the same age as me.,filler
2443.8,,,html-slider-response,434,1771603,0.0-24.0-0.0-0.26,15076,List2A,black,man,,,,,,,,survey_race,69,,,I feel solidarity with my race.,solidarity
2933.1,,,html-slider-response,435,1774537,0.0-24.0-0.0-0.27,15076,List2A,black,man,,,,,,,,survey_race,77,,,Being my race gives me a good feeling.,feeling
5034.2,,,html-slider-response,436,1779573,0.0-24.0-1.0-0.0,15076,List2A,black,man,,,,,,,,survey_gender,58,,,People of my gender are very similar to each other.,verysimilar
2574.8,,,html-slider-response,437,1782150,0.0-24.0-1.0-0.1,15076,List2A,black,man,,,,,,,,survey_gender,57,,,I feel solidarity with my gender.,solidarity
3813.3,,,html-slider-response,438,1785965,0.0-24.0-1.0-0.2,15076,List2A,black,man,,,,,,,,survey_gender,44,,,Routine is not important to me.,filler
6635.2,,,html-slider-response,439,1792601,0.0-24.0-1.0-0.3,15076,List2A,black,man,,,,,,,,survey_gender,96,,,I feel solidarity with my friends.,filler
3560.1,,,html-slider-response,440,1796163,0.0-24.0-1.0-0.4,15076,List2A,black,man,,,,,,,,survey_gender,99,,,I am glad to have the friends that I have.,filler
4835.6,,,html-slider-response,441,1801001,0.0-24.0-1.0-0.5,15076,List2A,black,man,,,,,,,,survey_gender,47,,,I am similar to the average person of my gender.,similar
3872.4,,,html-slider-response,442,1804875,0.0-24.0-1.0-0.6,15076,List2A,black,man,,,,,,,,survey_gender,40,,,People of my gender have a lot in common with each other.,common
11182.3,,,html-slider-response,443,1816059,0.0-24.0-1.0-0.7,15076,List2A,black,man,,,,,,,,survey_gender,43,,,I think that my gender has a lot to be proud of.,proud
6320.2,,,html-slider-response,444,1822380,0.0-24.0-1.0-0.8,15076,List2A,black,man,,,,,,,,survey_gender,66,,,It is not always easy for people to know what I am thinking.,filler
7616.9,,,html-slider-response,445,1829999,0.0-24.0-1.0-0.9,15076,List2A,black,man,,,,,,,,survey_gender,75,,,Most of the friends in my life are very similar to me.,filler
4653.2,,,html-slider-response,446,1834654,0.0-24.0-1.0-0.10,15076,List2A,black,man,,,,,,,,survey_gender,65,,,I feel committed to my gender.,committed
3771.7,,,html-slider-response,447,1838427,0.0-24.0-1.0-0.11,15076,List2A,black,man,,,,,,,,survey_gender,74,,,Being around my friends gives me a good feeling.,filler
5620.4,,,html-slider-response,448,1844049,0.0-24.0-1.0-0.12,15076,List2A,black,man,,,,,,,,survey_gender,71,,,I would say I am an animal person.,filler
4107.8,,,html-slider-response,449,1848159,0.0-24.0-1.0-0.13,15076,List2A,black,man,,,,,,,,survey_gender,58,,,I feel a bond with my gender.,bond
3388.1,,,html-slider-response,450,1851548,0.0-24.0-1.0-0.14,15076,List2A,black,man,,,,,,,,survey_gender,71,,,I consider myself a highly empathetic person.,filler
4090.1,,,html-slider-response,451,1855640,0.0-24.0-1.0-0.15,15076,List2A,black,man,,,,,,,,survey_gender,49,,,Being my gender gives me a good feeling.,feeling
4511.4,,,html-slider-response,452,1860153,0.0-24.0-1.0-0.16,15076,List2A,black,man,,,,,,,,survey_gender,55,,,I am glad to be my gender.,glad
3120.5,,,html-slider-response,453,1863275,0.0-24.0-1.0-0.17,15076,List2A,black,man,,,,,,,,survey_gender,86,,,I feel a bond with my friends.,filler
4351.6,,,html-slider-response,454,1867628,0.0-24.0-1.0-0.18,15076,List2A,black,man,,,,,,,,survey_gender,54,,,I often think about the fact that I am my gender.,often
2428.4,,,html-slider-response,455,1870058,0.0-24.0-1.0-0.19,15076,List2A,black,man,,,,,,,,survey_gender,60,,,It is pleasant to be my gender.,pleasant
4718.9,,,html-slider-response,456,1874778,0.0-24.0-1.0-0.20,15076,List2A,black,man,,,,,,,,survey_gender,75,,,I often think about my actions.,filler
2799.7,,,html-slider-response,457,1877579,0.0-24.0-1.0-0.21,15076,List2A,black,man,,,,,,,,survey_gender,74,,,I have a lot in common with my friends.,filler
3340.4,,,html-slider-response,458,1880921,0.0-24.0-1.0-0.22,15076,List2A,black,man,,,,,,,,survey_gender,44,,,I have a lot in common with the average person of my gender.,average
4638.3,,,html-slider-response,459,1885561,0.0-24.0-1.0-0.23,15076,List2A,black,man,,,,,,,,survey_gender,37,,,Family is not more important to me than friendship.,filler
3561.8,,,html-slider-response,460,1889125,0.0-24.0-1.0-0.24,15076,List2A,black,man,,,,,,,,survey_gender,43,,,The fact that I am my gender is an important part of my identity.,identity
3022.7,,,html-slider-response,461,1892149,0.0-24.0-1.0-0.25,15076,List2A,black,man,,,,,,,,survey_gender,75,,,My friends have a lot in common with each other.,filler
3086.6,,,html-slider-response,462,1895237,0.0-24.0-1.0-0.26,15076,List2A,black,man,,,,,,,,survey_gender,61,,,My friends understand me.,filler
6819.8,,,html-slider-response,463,1902058,0.0-24.0-1.0-0.27,15076,List2A,black,man,,,,,,,,survey_gender,59,,,Being my gender is an important part of how I see myself.,important
8799.8,,,survey-text,464,1910861,0.0-25.0,15076,List2A,black,man,,,,,"{""Q0"":""ccc""}",,,worker_id,,,,,
25598.8,,,external-html,465,1936956,0.0-26.0,15076,List2A,black,man,debrief.html,,,,,,,,,,,,
