"rt","stimulus","button_pressed","trial_type","trial_index","time_elapsed","internal_node_id","subject","list","ppt_race","ppt_gender","url","first_guess","correct","key_press","responses","image_type","phrase_type","test_part","response","stimulus1","stimulus2","question_type","survey_item"
"2793.9000000059605","Welcome to the experiment. Press Continue to begin.","0","html-button-response","0","2796","0.0-0.0","15145","List1B","black","man","","","","","","","","","","","","",""
"5192.9000000059605","","","external-html","1","9136","0.0-1.0","15145","List1B","black","man","consent.html","","","","","","","","","","","",""
"6908.699999988079","<p>On the next page, you will see portraits of 8 people and their names.</p><p>Your first task is to take a few minutes to memorise the names of these people.</p><p>You will have to recall their names during the rest of the experiment, so it is</p><p>essential that you try to memorise these people and their names as best as you can.</p><br><p><strong>You will then be tested on your memory of these names and portraits.</strong></p><br><p>The experiment will start after you have completed this memory test.</p><br><p>Ready?</p>","0","html-button-response","2","16045","0.0-2.0","15145","List1B","black","man","","","","","","","","","","","","",""
"39046.40000000596","<img src='img/portrait_matrix_list1.jpg' style='width:900px;height:500px;''></img><p>If you have memorised all the portraits and names and are ready to start, press Continue.</p><p><strong>Please note: Your memory of these faces will be tested 4 times during this experiment.</strong></p>","0","html-button-response","3","56093","0.0-3.0-0.0","15145","List1B","black","man","","","","","","","","","","","","",""
"2643.2000000178814","<img src=""portrait/WM1.jpg""style=""height:400px;""></img>","6","html-button-response","4","59738","0.0-3.0-1.0","15145","List1B","black","man","","true","6","","","","","","","","","",""
"null","CORRECT","","html-keyboard-response","5","61247","0.0-3.0-2.0-0.0","15145","List1B","black","man","","","","null","","","","","","","","",""
"3903.5","<img src=""portrait/WW2.jpg""style=""height:400px;""></img>","3","html-button-response","6","65152","0.0-3.0-4.0","15145","List1B","black","man","","true","3","","","","","","","","","",""
"null","CORRECT","","html-keyboard-response","7","66658","0.0-3.0-5.0-0.0","15145","List1B","black","man","","","","null","","","","","","","","",""
"4103","<img src=""portrait/BM1.jpg""style=""height:400px;""></img>","4","html-button-response","8","70761","0.0-3.0-7.0","15145","List1B","black","man","","true","4","","","","","","","","","",""
"null","CORRECT","","html-keyboard-response","9","72269","0.0-3.0-8.0-0.0","15145","List1B","black","man","","","","null","","","","","","","","",""
"7089.5999999940395","<img src=""portrait/BM2.jpg""style=""height:400px;""></img>","5","html-button-response","10","79360","0.0-3.0-10.0","15145","List1B","black","man","","true","5","","","","","","","","","",""
"null","CORRECT","","html-keyboard-response","11","80880","0.0-3.0-11.0-0.0","15145","List1B","black","man","","","","null","","","","","","","","",""
"2886.5999999940395","<img src=""portrait/WW1.jpg""style=""height:400px;""></img>","1","html-button-response","12","83768","0.0-3.0-13.0","15145","List1B","black","man","","true","1","","","","","","","","","",""
"null","CORRECT","","html-keyboard-response","13","85274","0.0-3.0-14.0-0.0","15145","List1B","black","man","","","","null","","","","","","","","",""
"5854.4000000059605","<img src=""portrait/WM2.jpg""style=""height:400px;""></img>","7","html-button-response","14","91130","0.0-3.0-16.0","15145","List1B","black","man","","true","7","","","","","","","","","",""
"null","CORRECT","","html-keyboard-response","15","92640","0.0-3.0-17.0-0.0","15145","List1B","black","man","","","","null","","","","","","","","",""
"1854.800000011921","<img src=""portrait/BW2.jpg""style=""height:400px;""></img>","2","html-button-response","16","94495","0.0-3.0-19.0","15145","List1B","black","man","","true","2","","","","","","","","","",""
"null","CORRECT","","html-keyboard-response","17","96015","0.0-3.0-20.0-0.0","15145","List1B","black","man","","","","null","","","","","","","","",""
"5969.299999982119","<img src=""portrait/BW1.jpg""style=""height:400px;""></img>","0","html-button-response","18","101985","0.0-3.0-22.0","15145","List1B","black","man","","true","0","","","","","","","","","",""
"null","CORRECT","","html-keyboard-response","19","103500","0.0-3.0-23.0-0.0","15145","List1B","black","man","","","","null","","","","","","","","",""
"1061.0999999940395","<p>You got 8 out of 8 right first time. Press Continue.</p>","0","html-button-response","20","104561","0.0-3.0-25.0","15145","List1B","black","man","","","","","","","","","","","","",""
"13761.300000011921","<p>In this experiment, you will view photographs of the people from the memory game interacting.</p><p>By using the <strong>exact</strong> phrase given <i>after</i> the photograph appears and recalling the correct names of the people in the photographs, form a sentence describing the interaction. You do not need to capitalise names.</p><p>Type your answer in the space provided. Please complete every sentence before moving onto the next trial.</p><p>You will only have a few seconds to memorise each given photograph and phrase before you can respond, so try your best to focus.</p><p>An example is given below. Press 'Continue' when you are ready.</p><img src='img/speaking_example.jpg' style='width:800px;height:460px;''></img>","0","html-button-response","21","119333","0.0-4.0","15145","List1B","black","man","","","","","","","","","","","","",""
"2454.0999999940395","<p>Before the experiment starts, you will watch two example trials. Press 'Continue'.</p>","0","html-button-response","22","122796","0.0-5.0","15145","List1B","black","man","","","","","","","","","","","","",""
"null","<img src='img/play_eg.gif' style='height:400px;''></img>","","html-keyboard-response","23","125817","0.0-6.0","15145","List1B","black","man","","","","null","","","","","","","","",""
"null","<p>is playing with</p>","","html-keyboard-response","24","127828","0.0-7.0","15145","List1B","black","man","","","","null","","","","","","","","",""
"3357.300000011921","<p><b>Answer:</b> kate is playing with beth</p>","0","html-button-response","25","131186","0.0-8.0","15145","List1B","black","man","","","","","","","","","","","","",""
"null","<img src='img/dance_eg.gif' style='height:400px;''></img>","","html-keyboard-response","26","134207","0.0-9.0","15145","List1B","black","man","","","","null","","","","","","","","",""
"null","<p>is being entertained by</p>","","html-keyboard-response","27","136217","0.0-10.0","15145","List1B","black","man","","","","null","","","","","","","","",""
"2445.699999988079","<p><b>Answer:</b> luke is being entertained by dave</p>","0","html-button-response","28","138664","0.0-11.0","15145","List1B","black","man","","","","","","","","","","","","",""
"6068","<p>Ready to start the experiment?</p><br><p><strong>Remember to describe the picture using a full sentence,</strong></p><p><strong>that combines the names of the people with the <i>exact</i> phrase given.</strong></p><p><strong>To receive full payment you must do this correctly.</strong></p><p><strong> You do not need to capitalise names or use punctuation.</strong></p><br><p>Press 'Continue' to begin.</p>","0","html-button-response","29","145733","0.0-12.0","15145","List1B","black","man","","","","","","","","","","","","",""
"null","<div style=""font-size:60px;"">+</div>","","html-keyboard-response","30","147234","0.0-13.0-0.0","15145","List1B","black","man","","","","null","","","","","","","","",""
"null","<img src=""stim_listB/seduce5.gif""style=""height:400px;""></stim_listB>","","html-keyboard-response","31","149237","0.0-13.0-1.0","15145","List1B","black","man","","","","null","","","","","","","","",""
"null","is seducing","","html-keyboard-response","32","151238","0.0-13.0-2.0","15145","List1B","black","man","","","","null","","","","","","","","",""
"7812.300000011921","","","survey-text","33","159052","0.0-13.0-3.0","15145","List1B","black","man","","","","","{""Q0"":""fred is seducing dave""}","<img src=""stim_listB/seduce5.gif""style=""height:400px;""></stim_listB>","is seducing","","","","","",""
"null","<div style=""font-size:60px;"">+</div>","","html-keyboard-response","34","159567","0.0-13.0-0.1","15145","List1B","black","man","","","","null","","","","","","","","",""
"null","<img src=""stim_listB/oppose7.gif""style=""height:400px;""></stim_listB>","","html-keyboard-response","35","161575","0.0-13.0-1.1","15145","List1B","black","man","","","","null","","","","","","","","",""
"null","is opposing","","html-keyboard-response","36","163580","0.0-13.0-2.1","15145","List1B","black","man","","","","null","","","","","","","","",""
"4254.300000011921","","","survey-text","37","167835","0.0-13.0-3.1","15145","List1B","black","man","","","","","{""Q0"":""kate is opposing jane""}","<img src=""stim_listB/oppose7.gif""style=""height:400px;""></stim_listB>","is opposing","","","","","",""
"null","<div style=""font-size:60px;"">+</div>","","html-keyboard-response","38","168341","0.0-13.0-0.2","15145","List1B","black","man","","","","null","","","","","","","","",""
"null","<img src=""stim_listB/greet1.gif""style=""height:400px;""></stim_listB>","","html-keyboard-response","39","170350","0.0-13.0-1.2","15145","List1B","black","man","","","","null","","","","","","","","",""
"null","is greeting","","html-keyboard-response","40","172356","0.0-13.0-2.2","15145","List1B","black","man","","","","null","","","","","","","","",""
"4115.699999988079","","","survey-text","41","176473","0.0-13.0-3.2","15145","List1B","black","man","","","","","{""Q0"":""mike is greeting beth""}","<img src=""stim_listB/greet1.gif""style=""height:400px;""></stim_listB>","is greeting","","","","","",""
"null","<div style=""font-size:60px;"">+</div>","","html-keyboard-response","42","176974","0.0-13.0-0.3","15145","List1B","black","man","","","","null","","","","","","","","",""
"null","<img src=""stim_listB/challenge5.gif""style=""height:400px;""></stim_listB>","","html-keyboard-response","43","178987","0.0-13.0-1.3","15145","List1B","black","man","","","","null","","","","","","","","",""
"null","is challenging","","html-keyboard-response","44","181002","0.0-13.0-2.3","15145","List1B","black","man","","","","null","","","","","","","","",""
"4251.899999976158","","","survey-text","45","185255","0.0-13.0-3.3","15145","List1B","black","man","","","","","{""Q0"":""mike is challenging luke""}","<img src=""stim_listB/challenge5.gif""style=""height:400px;""></stim_listB>","is challenging","","","","","",""
"null","<div style=""font-size:60px;"">+</div>","","html-keyboard-response","46","185761","0.0-13.0-0.4","15145","List1B","black","man","","","","null","","","","","","","","",""
"null","<img src=""stim_listB/greet8.gif""style=""height:400px;""></stim_listB>","","html-keyboard-response","47","187769","0.0-13.0-1.4","15145","List1B","black","man","","","","null","","","","","","","","",""
"null","is being greeted by","","html-keyboard-response","48","189772","0.0-13.0-2.4","15145","List1B","black","man","","","","null","","","","","","","","",""
"4083.300000011921","","","survey-text","49","193857","0.0-13.0-3.4","15145","List1B","black","man","","","","","{""Q0"":""jane is greeted by beth""}","<img src=""stim_listB/greet8.gif""style=""height:400px;""></stim_listB>","is being greeted by","","","","","",""
"null","<div style=""font-size:60px;"">+</div>","","html-keyboard-response","50","194358","0.0-13.0-0.5","15145","List1B","black","man","","","","null","","","","","","","","",""
"null","<img src=""stim_listB/hug5.gif""style=""height:400px;""></stim_listB>","","html-keyboard-response","51","196359","0.0-13.0-1.5","15145","List1B","black","man","","","","null","","","","","","","","",""
"null","is hugging","","html-keyboard-response","52","198361","0.0-13.0-2.5","15145","List1B","black","man","","","","null","","","","","","","","",""
"6177.4000000059605","","","survey-text","53","204539","0.0-13.0-3.5","15145","List1B","black","man","","","","","{""Q0"":""fred is hugging luke""}","<img src=""stim_listB/hug5.gif""style=""height:400px;""></stim_listB>","is hugging","","","","","",""
"null","<div style=""font-size:60px;"">+</div>","","html-keyboard-response","54","205040","0.0-13.0-0.6","15145","List1B","black","man","","","","null","","","","","","","","",""
"null","<img src=""stim_listB/copy7.gif""style=""height:400px;""></stim_listB>","","html-keyboard-response","55","207050","0.0-13.0-1.6","15145","List1B","black","man","","","","null","","","","","","","","",""
"null","is copying","","html-keyboard-response","56","209058","0.0-13.0-2.6","15145","List1B","black","man","","","","null","","","","","","","","",""
"4323.199999988079","","","survey-text","57","213383","0.0-13.0-3.6","15145","List1B","black","man","","","","","{""Q0"":""kate is copying jane""}","<img src=""stim_listB/copy7.gif""style=""height:400px;""></stim_listB>","is copying","","","","","",""
"null","<div style=""font-size:60px;"">+</div>","","html-keyboard-response","58","213894","0.0-13.0-0.7","15145","List1B","black","man","","","","null","","","","","","","","",""
"null","<img src=""stim_listB/copy2.gif""style=""height:400px;""></stim_listB>","","html-keyboard-response","59","215895","0.0-13.0-1.7","15145","List1B","black","man","","","","null","","","","","","","","",""
"null","is being copied by","","html-keyboard-response","60","217898","0.0-13.0-2.7","15145","List1B","black","man","","","","null","","","","","","","","",""
"4861.800000011921","","","survey-text","61","222761","0.0-13.0-3.7","15145","List1B","black","man","","","","","{""Q0"":""kate is being copied by fred""}","<img src=""stim_listB/copy2.gif""style=""height:400px;""></stim_listB>","is being copied by","","","","","",""
"null","<div style=""font-size:60px;"">+</div>","","html-keyboard-response","62","223262","0.0-13.0-0.8","15145","List1B","black","man","","","","null","","","","","","","","",""
"null","<img src=""stim_listB/look3.gif""style=""height:400px;""></stim_listB>","","html-keyboard-response","63","225267","0.0-13.0-1.8","15145","List1B","black","man","","","","null","","","","","","","","",""
"null","is looking at","","html-keyboard-response","64","227275","0.0-13.0-2.8","15145","List1B","black","man","","","","null","","","","","","","","",""
"10716.699999988079","","","survey-text","65","237994","0.0-13.0-3.8","15145","List1B","black","man","","","","","{""Q0"":""luke is looking at ruth""}","<img src=""stim_listB/look3.gif""style=""height:400px;""></stim_listB>","is looking at","","","","","",""
"null","<div style=""font-size:60px;"">+</div>","","html-keyboard-response","66","238504","0.0-13.0-0.9","15145","List1B","black","man","","","","null","","","","","","","","",""
"null","<img src=""stim_listB/look5.gif""style=""height:400px;""></stim_listB>","","html-keyboard-response","67","240512","0.0-13.0-1.9","15145","List1B","black","man","","","","null","","","","","","","","",""
"null","is looking at","","html-keyboard-response","68","242520","0.0-13.0-2.9","15145","List1B","black","man","","","","null","","","","","","","","",""
"3809.800000011921","","","survey-text","69","246331","0.0-13.0-3.9","15145","List1B","black","man","","","","","{""Q0"":""fred is looking at luke""}","<img src=""stim_listB/look5.gif""style=""height:400px;""></stim_listB>","is looking at","","","","","",""
"null","<div style=""font-size:60px;"">+</div>","","html-keyboard-response","70","246848","0.0-13.0-0.10","15145","List1B","black","man","","","","null","","","","","","","","",""
"null","<img src=""stim_listB/shout8.gif""style=""height:400px;""></stim_listB>","","html-keyboard-response","71","248853","0.0-13.0-1.10","15145","List1B","black","man","","","","null","","","","","","","","",""
"null","is being shouted at by","","html-keyboard-response","72","250865","0.0-13.0-2.10","15145","List1B","black","man","","","","null","","","","","","","","",""
"9436.90000000596","","","survey-text","73","260303","0.0-13.0-3.10","15145","List1B","black","man","","","","","{""Q0"":""jane is being shouted at by kate""}","<img src=""stim_listB/shout8.gif""style=""height:400px;""></stim_listB>","is being shouted at by","","","","","",""
"null","<div style=""font-size:60px;"">+</div>","","html-keyboard-response","74","260816","0.0-13.0-0.11","15145","List1B","black","man","","","","null","","","","","","","","",""
"null","<img src=""stim_listB/look2.gif""style=""height:400px;""></stim_listB>","","html-keyboard-response","75","262818","0.0-13.0-1.11","15145","List1B","black","man","","","","null","","","","","","","","",""
"null","is being looked at by","","html-keyboard-response","76","264819","0.0-13.0-2.11","15145","List1B","black","man","","","","null","","","","","","","","",""
"5305.5","","","survey-text","77","270125","0.0-13.0-3.11","15145","List1B","black","man","","","","","{""Q0"":""kate is being looked at by mike""}","<img src=""stim_listB/look2.gif""style=""height:400px;""></stim_listB>","is being looked at by","","","","","",""
"null","<div style=""font-size:60px;"">+</div>","","html-keyboard-response","78","270641","0.0-13.0-0.12","15145","List1B","black","man","","","","null","","","","","","","","",""
"null","<img src=""stim_listB/hug8.gif""style=""height:400px;""></stim_listB>","","html-keyboard-response","79","272643","0.0-13.0-1.12","15145","List1B","black","man","","","","null","","","","","","","","",""
"null","is being hugged by","","html-keyboard-response","80","274659","0.0-13.0-2.12","15145","List1B","black","man","","","","null","","","","","","","","",""
"3846.0999999940395","","","survey-text","81","278506","0.0-13.0-3.12","15145","List1B","black","man","","","","","{""Q0"":""jane is being hugged by kate""}","<img src=""stim_listB/hug8.gif""style=""height:400px;""></stim_listB>","is being hugged by","","","","","",""
"null","<div style=""font-size:60px;"">+</div>","","html-keyboard-response","82","279011","0.0-13.0-0.13","15145","List1B","black","man","","","","null","","","","","","","","",""
"null","<img src=""stim_listB/seduce1.gif""style=""height:400px;""></stim_listB>","","html-keyboard-response","83","281020","0.0-13.0-1.13","15145","List1B","black","man","","","","null","","","","","","","","",""
"null","is seducing","","html-keyboard-response","84","283021","0.0-13.0-2.13","15145","List1B","black","man","","","","null","","","","","","","","",""
"5202.300000011921","","","survey-text","85","288224","0.0-13.0-3.13","15145","List1B","black","man","","","","","{""Q0"":""fred is seducing kate""}","<img src=""stim_listB/seduce1.gif""style=""height:400px;""></stim_listB>","is seducing","","","","","",""
"null","<div style=""font-size:60px;"">+</div>","","html-keyboard-response","86","288735","0.0-13.0-0.14","15145","List1B","black","man","","","","null","","","","","","","","",""
"null","<img src=""stim_listB/shout3.gif""style=""height:400px;""></stim_listB>","","html-keyboard-response","87","290741","0.0-13.0-1.14","15145","List1B","black","man","","","","null","","","","","","","","",""
"null","is shouting at","","html-keyboard-response","88","292758","0.0-13.0-2.14","15145","List1B","black","man","","","","null","","","","","","","","",""
"7382.399999976158","","","survey-text","89","300141","0.0-13.0-3.14","15145","List1B","black","man","","","","","{""Q0"":""luke is shouting at ruth""}","<img src=""stim_listB/shout3.gif""style=""height:400px;""></stim_listB>","is shouting at","","","","","",""
"null","<div style=""font-size:60px;"">+</div>","","html-keyboard-response","90","300651","0.0-13.0-0.15","15145","List1B","black","man","","","","null","","","","","","","","",""
"null","<img src=""stim_listB/touch6.gif""style=""height:400px;""></stim_listB>","","html-keyboard-response","91","302653","0.0-13.0-1.15","15145","List1B","black","man","","","","null","","","","","","","","",""
"null","is being touched by","","html-keyboard-response","92","304654","0.0-13.0-2.15","15145","List1B","black","man","","","","null","","","","","","","","",""
"4321.699999988079","","","survey-text","93","308976","0.0-13.0-3.15","15145","List1B","black","man","","","","","{""Q0"":""luke is being touched by fred""}","<img src=""stim_listB/touch6.gif""style=""height:400px;""></stim_listB>","is being touched by","","","","","",""
"null","<div style=""font-size:60px;"">+</div>","","html-keyboard-response","94","309480","0.0-13.0-0.16","15145","List1B","black","man","","","","null","","","","","","","","",""
"null","<img src=""stim_listB/challenge4.gif""style=""height:400px;""></stim_listB>","","html-keyboard-response","95","311482","0.0-13.0-1.16","15145","List1B","black","man","","","","null","","","","","","","","",""
"null","is being challenged by","","html-keyboard-response","96","313489","0.0-13.0-2.16","15145","List1B","black","man","","","","null","","","","","","","","",""
"4030.100000023842","","","survey-text","97","317520","0.0-13.0-3.16","15145","List1B","black","man","","","","","{""Q0"":""jane is being challenged by luke""}","<img src=""stim_listB/challenge4.gif""style=""height:400px;""></stim_listB>","is being challenged by","","","","","",""
"null","<div style=""font-size:60px;"">+</div>","","html-keyboard-response","98","318034","0.0-13.0-0.17","15145","List1B","black","man","","","","null","","","","","","","","",""
"null","<img src=""stim_listB/oppose1.gif""style=""height:400px;""></stim_listB>","","html-keyboard-response","99","320049","0.0-13.0-1.17","15145","List1B","black","man","","","","null","","","","","","","","",""
"null","is opposing","","html-keyboard-response","100","322051","0.0-13.0-2.17","15145","List1B","black","man","","","","null","","","","","","","","",""
"3157.699999988079","","","survey-text","101","325210","0.0-13.0-3.17","15145","List1B","black","man","","","","","{""Q0"":""mike is opposing kate""}","<img src=""stim_listB/oppose1.gif""style=""height:400px;""></stim_listB>","is opposing","","","","","",""
"null","<div style=""font-size:60px;"">+</div>","","html-keyboard-response","102","325723","0.0-13.0-0.18","15145","List1B","black","man","","","","null","","","","","","","","",""
"null","<img src=""stim_listB/hug2.gif""style=""height:400px;""></stim_listB>","","html-keyboard-response","103","327726","0.0-13.0-1.18","15145","List1B","black","man","","","","null","","","","","","","","",""
"null","is being hugged by","","html-keyboard-response","104","329736","0.0-13.0-2.18","15145","List1B","black","man","","","","null","","","","","","","","",""
"3831.9000000059605","","","survey-text","105","333570","0.0-13.0-3.18","15145","List1B","black","man","","","","","{""Q0"":""kate is being hugged by mike""}","<img src=""stim_listB/hug2.gif""style=""height:400px;""></stim_listB>","is being hugged by","","","","","",""
"null","<div style=""font-size:60px;"">+</div>","","html-keyboard-response","106","334073","0.0-13.0-0.19","15145","List1B","black","man","","","","null","","","","","","","","",""
"null","<img src=""stim_listB/greet4.gif""style=""height:400px;""></stim_listB>","","html-keyboard-response","107","336081","0.0-13.0-1.19","15145","List1B","black","man","","","","null","","","","","","","","",""
"null","is being greeted by","","html-keyboard-response","108","338082","0.0-13.0-2.19","15145","List1B","black","man","","","","null","","","","","","","","",""
"3614.9000000059605","","","survey-text","109","341698","0.0-13.0-3.19","15145","List1B","black","man","","","","","{""Q0"":""jane is being greeted by luke""}","<img src=""stim_listB/greet4.gif""style=""height:400px;""></stim_listB>","is being greeted by","","","","","",""
"3673.5999999940395","<img src='img/portrait_matrix_list1.jpg' style='width:900px;height:500px;''></img><p>If you have memorised all the portraits and names and are ready to start, press Continue.</p><p><strong>Please note: Your memory of these faces will be tested 4 times during this experiment.</strong></p>","0","html-button-response","110","345373","0.0-14.0-0.0","15145","List1B","black","man","","","","","","","","","","","","",""
"2936","<img src=""portrait/WW1.jpg""style=""height:400px;""></img>","1","html-button-response","111","349311","0.0-14.0-1.0","15145","List1B","black","man","","true","1","","","","","","","","","",""
"null","CORRECT","","html-keyboard-response","112","350821","0.0-14.0-2.0-0.0","15145","List1B","black","man","","","","null","","","","","","","","",""
"2457","<img src=""portrait/WM1.jpg""style=""height:400px;""></img>","6","html-button-response","113","353279","0.0-14.0-4.0","15145","List1B","black","man","","true","6","","","","","","","","","",""
"null","CORRECT","","html-keyboard-response","114","354797","0.0-14.0-5.0-0.0","15145","List1B","black","man","","","","null","","","","","","","","",""
"3755","<img src=""portrait/WM2.jpg""style=""height:400px;""></img>","7","html-button-response","115","358553","0.0-14.0-7.0","15145","List1B","black","man","","true","7","","","","","","","","","",""
"null","CORRECT","","html-keyboard-response","116","360056","0.0-14.0-8.0-0.0","15145","List1B","black","man","","","","null","","","","","","","","",""
"2107.5999999940395","<img src=""portrait/BM2.jpg""style=""height:400px;""></img>","5","html-button-response","117","362165","0.0-14.0-10.0","15145","List1B","black","man","","true","5","","","","","","","","","",""
"null","CORRECT","","html-keyboard-response","118","363674","0.0-14.0-11.0-0.0","15145","List1B","black","man","","","","null","","","","","","","","",""
"2243.5","<img src=""portrait/BW1.jpg""style=""height:400px;""></img>","0","html-button-response","119","365919","0.0-14.0-13.0","15145","List1B","black","man","","true","0","","","","","","","","","",""
"null","CORRECT","","html-keyboard-response","120","367427","0.0-14.0-14.0-0.0","15145","List1B","black","man","","","","null","","","","","","","","",""
"1527.4000000059605","<img src=""portrait/BW2.jpg""style=""height:400px;""></img>","2","html-button-response","121","368955","0.0-14.0-16.0","15145","List1B","black","man","","true","2","","","","","","","","","",""
"null","CORRECT","","html-keyboard-response","122","370463","0.0-14.0-17.0-0.0","15145","List1B","black","man","","","","null","","","","","","","","",""
"1973.4000000059605","<img src=""portrait/BM1.jpg""style=""height:400px;""></img>","4","html-button-response","123","372437","0.0-14.0-19.0","15145","List1B","black","man","","true","4","","","","","","","","","",""
"null","CORRECT","","html-keyboard-response","124","373939","0.0-14.0-20.0-0.0","15145","List1B","black","man","","","","null","","","","","","","","",""
"1213.199999988079","<img src=""portrait/WW2.jpg""style=""height:400px;""></img>","3","html-button-response","125","375153","0.0-14.0-22.0","15145","List1B","black","man","","true","3","","","","","","","","","",""
"null","CORRECT","","html-keyboard-response","126","376657","0.0-14.0-23.0-0.0","15145","List1B","black","man","","","","null","","","","","","","","",""
"971","<p>You got 8 out of 8 right first time. Press Continue.</p>","0","html-button-response","127","377629","0.0-14.0-25.0","15145","List1B","black","man","","","","","","","","","","","","",""
"null","<div style=""font-size:60px;"">+</div>","","html-keyboard-response","128","379140","0.0-15.0-0.0","15145","List1B","black","man","","","","null","","","","","","","","",""
"null","<img src=""stim_listB/kiss6.gif""style=""height:400px;""></stim_listB>","","html-keyboard-response","129","381141","0.0-15.0-1.0","15145","List1B","black","man","","","","null","","","","","","","","",""
"null","is being kissed by","","html-keyboard-response","130","383148","0.0-15.0-2.0","15145","List1B","black","man","","","","null","","","","","","","","",""
"13438.5","","","survey-text","131","396587","0.0-15.0-3.0","15145","List1B","black","man","","","","","{""Q0"":""dave is being kissed by mike""}","<img src=""stim_listB/kiss6.gif""style=""height:400px;""></stim_listB>","is being kissed by","","","","","",""
"null","<div style=""font-size:60px;"">+</div>","","html-keyboard-response","132","397094","0.0-15.0-0.1","15145","List1B","black","man","","","","null","","","","","","","","",""
"null","<img src=""stim_listB/seduce4.gif""style=""height:400px;""></stim_listB>","","html-keyboard-response","133","399094","0.0-15.0-1.1","15145","List1B","black","man","","","","null","","","","","","","","",""
"null","is being seduced by","","html-keyboard-response","134","401104","0.0-15.0-2.1","15145","List1B","black","man","","","","null","","","","","","","","",""
"4138.300000011921","","","survey-text","135","405243","0.0-15.0-3.1","15145","List1B","black","man","","","","","{""Q0"":""ruth is being seduced by dave""}","<img src=""stim_listB/seduce4.gif""style=""height:400px;""></stim_listB>","is being seduced by","","","","","",""
"null","<div style=""font-size:60px;"">+</div>","","html-keyboard-response","136","405752","0.0-15.0-0.2","15145","List1B","black","man","","","","null","","","","","","","","",""
"null","<img src=""stim_listB/hug3.gif""style=""height:400px;""></stim_listB>","","html-keyboard-response","137","407757","0.0-15.0-1.2","15145","List1B","black","man","","","","null","","","","","","","","",""
"null","is hugging","","html-keyboard-response","138","409764","0.0-15.0-2.2","15145","List1B","black","man","","","","null","","","","","","","","",""
"2585","","","survey-text","139","412350","0.0-15.0-3.2","15145","List1B","black","man","","","","","{""Q0"":""luke is hugging ruth""}","<img src=""stim_listB/hug3.gif""style=""height:400px;""></stim_listB>","is hugging","","","","","",""
"null","<div style=""font-size:60px;"">+</div>","","html-keyboard-response","140","412859","0.0-15.0-0.3","15145","List1B","black","man","","","","null","","","","","","","","",""
"null","<img src=""stim_listB/shout2.gif""style=""height:400px;""></stim_listB>","","html-keyboard-response","141","414874","0.0-15.0-1.3","15145","List1B","black","man","","","","null","","","","","","","","",""
"null","is being shouted at by","","html-keyboard-response","142","416877","0.0-15.0-2.3","15145","List1B","black","man","","","","null","","","","","","","","",""
"4301","","","survey-text","143","421179","0.0-15.0-3.3","15145","List1B","black","man","","","","","{""Q0"":""kate is being shouted out by mike""}","<img src=""stim_listB/shout2.gif""style=""height:400px;""></stim_listB>","is being shouted at by","","","","","",""
"null","<div style=""font-size:60px;"">+</div>","","html-keyboard-response","144","421682","0.0-15.0-0.4","15145","List1B","black","man","","","","null","","","","","","","","",""
"null","<img src=""stim_listB/look6.gif""style=""height:400px;""></stim_listB>","","html-keyboard-response","145","423690","0.0-15.0-1.4","15145","List1B","black","man","","","","null","","","","","","","","",""
"null","is being looked at by","","html-keyboard-response","146","425693","0.0-15.0-2.4","15145","List1B","black","man","","","","null","","","","","","","","",""
"4477.5","","","survey-text","147","430172","0.0-15.0-3.4","15145","List1B","black","man","","","","","{""Q0"":""Dave is looking at beth""}","<img src=""stim_listB/look6.gif""style=""height:400px;""></stim_listB>","is being looked at by","","","","","",""
"null","<div style=""font-size:60px;"">+</div>","","html-keyboard-response","148","430683","0.0-15.0-0.5","15145","List1B","black","man","","","","null","","","","","","","","",""
"null","<img src=""stim_listB/oppose6.gif""style=""height:400px;""></stim_listB>","","html-keyboard-response","149","432687","0.0-15.0-1.5","15145","List1B","black","man","","","","null","","","","","","","","",""
"null","is being opposed by","","html-keyboard-response","150","434694","0.0-15.0-2.5","15145","List1B","black","man","","","","null","","","","","","","","",""
"4644.9000000059605","","","survey-text","151","439340","0.0-15.0-3.5","15145","List1B","black","man","","","","","{""Q0"":""luke is being opposed by fred""}","<img src=""stim_listB/oppose6.gif""style=""height:400px;""></stim_listB>","is being opposed by","","","","","",""
"null","<div style=""font-size:60px;"">+</div>","","html-keyboard-response","152","439847","0.0-15.0-0.6","15145","List1B","black","man","","","","null","","","","","","","","",""
"null","<img src=""stim_listB/kiss5.gif""style=""height:400px;""></stim_listB>","","html-keyboard-response","153","441849","0.0-15.0-1.6","15145","List1B","black","man","","","","null","","","","","","","","",""
"null","is kissing","","html-keyboard-response","154","443856","0.0-15.0-2.6","15145","List1B","black","man","","","","null","","","","","","","","",""
"2994.300000011921","","","survey-text","155","446851","0.0-15.0-3.6","15145","List1B","black","man","","","","","{""Q0"":""fred is kissing luke""}","<img src=""stim_listB/kiss5.gif""style=""height:400px;""></stim_listB>","is kissing","","","","","",""
"null","<div style=""font-size:60px;"">+</div>","","html-keyboard-response","156","447360","0.0-15.0-0.7","15145","List1B","black","man","","","","null","","","","","","","","",""
"null","<img src=""stim_listB/touch1.gif""style=""height:400px;""></stim_listB>","","html-keyboard-response","157","449373","0.0-15.0-1.7","15145","List1B","black","man","","","","null","","","","","","","","",""
"null","is touching","","html-keyboard-response","158","451375","0.0-15.0-2.7","15145","List1B","black","man","","","","null","","","","","","","","",""
"2618.2000000178814","","","survey-text","159","453995","0.0-15.0-3.7","15145","List1B","black","man","","","","","{""Q0"":""mike is touching kate""}","<img src=""stim_listB/touch1.gif""style=""height:400px;""></stim_listB>","is touching","","","","","",""
"null","<div style=""font-size:60px;"">+</div>","","html-keyboard-response","160","454502","0.0-15.0-0.8","15145","List1B","black","man","","","","null","","","","","","","","",""
"null","<img src=""stim_listB/greet2.gif""style=""height:400px;""></stim_listB>","","html-keyboard-response","161","456506","0.0-15.0-1.8","15145","List1B","black","man","","","","null","","","","","","","","",""
"null","is being greeted by","","html-keyboard-response","162","458513","0.0-15.0-2.8","15145","List1B","black","man","","","","null","","","","","","","","",""
"5411.4000000059605","","","survey-text","163","463926","0.0-15.0-3.8","15145","List1B","black","man","","","","","{""Q0"":""kate is being greeted by fred""}","<img src=""stim_listB/greet2.gif""style=""height:400px;""></stim_listB>","is being greeted by","","","","","",""
"null","<div style=""font-size:60px;"">+</div>","","html-keyboard-response","164","464441","0.0-15.0-0.9","15145","List1B","black","man","","","","null","","","","","","","","",""
"null","<img src=""stim_listB/challenge1.gif""style=""height:400px;""></stim_listB>","","html-keyboard-response","165","466442","0.0-15.0-1.9","15145","List1B","black","man","","","","null","","","","","","","","",""
"null","is challenging","","html-keyboard-response","166","468450","0.0-15.0-2.9","15145","List1B","black","man","","","","null","","","","","","","","",""
"3358.800000011921","","","survey-text","167","471810","0.0-15.0-3.9","15145","List1B","black","man","","","","","{""Q0"":""mike is challenging beth""}","<img src=""stim_listB/challenge1.gif""style=""height:400px;""></stim_listB>","is challenging","","","","","",""
"null","<div style=""font-size:60px;"">+</div>","","html-keyboard-response","168","472313","0.0-15.0-0.10","15145","List1B","black","man","","","","null","","","","","","","","",""
"null","<img src=""stim_listB/look1.gif""style=""height:400px;""></stim_listB>","","html-keyboard-response","169","474314","0.0-15.0-1.10","15145","List1B","black","man","","","","null","","","","","","","","",""
"null","is looking at","","html-keyboard-response","170","476326","0.0-15.0-2.10","15145","List1B","black","man","","","","null","","","","","","","","",""
"2625.699999988079","","","survey-text","171","478953","0.0-15.0-3.10","15145","List1B","black","man","","","","","{""Q0"":""fred is looking at beth""}","<img src=""stim_listB/look1.gif""style=""height:400px;""></stim_listB>","is looking at","","","","","",""
"null","<div style=""font-size:60px;"">+</div>","","html-keyboard-response","172","479465","0.0-15.0-0.11","15145","List1B","black","man","","","","null","","","","","","","","",""
"null","<img src=""stim_listB/hug6.gif""style=""height:400px;""></stim_listB>","","html-keyboard-response","173","481469","0.0-15.0-1.11","15145","List1B","black","man","","","","null","","","","","","","","",""
"null","is being hugged by","","html-keyboard-response","174","483473","0.0-15.0-2.11","15145","List1B","black","man","","","","null","","","","","","","","",""
"3274.0999999940395","","","survey-text","175","486748","0.0-15.0-3.11","15145","List1B","black","man","","","","","{""Q0"":""dave is being hugged by mike""}","<img src=""stim_listB/hug6.gif""style=""height:400px;""></stim_listB>","is being hugged by","","","","","",""
"null","<div style=""font-size:60px;"">+</div>","","html-keyboard-response","176","487254","0.0-15.0-0.12","15145","List1B","black","man","","","","null","","","","","","","","",""
"null","<img src=""stim_listB/oppose5.gif""style=""height:400px;""></stim_listB>","","html-keyboard-response","177","489257","0.0-15.0-1.12","15145","List1B","black","man","","","","null","","","","","","","","",""
"null","is opposing","","html-keyboard-response","178","491261","0.0-15.0-2.12","15145","List1B","black","man","","","","null","","","","","","","","",""
"3252.2999999821186","","","survey-text","179","494514","0.0-15.0-3.12","15145","List1B","black","man","","","","","{""Q0"":""mike is opposing dave""}","<img src=""stim_listB/oppose5.gif""style=""height:400px;""></stim_listB>","is opposing","","","","","",""
"null","<div style=""font-size:60px;"">+</div>","","html-keyboard-response","180","495025","0.0-15.0-0.13","15145","List1B","black","man","","","","null","","","","","","","","",""
"null","<img src=""stim_listB/kiss1.gif""style=""height:400px;""></stim_listB>","","html-keyboard-response","181","497031","0.0-15.0-1.13","15145","List1B","black","man","","","","null","","","","","","","","",""
"null","is kissing","","html-keyboard-response","182","499034","0.0-15.0-2.13","15145","List1B","black","man","","","","null","","","","","","","","",""
"3446.100000023842","","","survey-text","183","502481","0.0-15.0-3.13","15145","List1B","black","man","","","","","{""Q0"":""fred is kissing beth""}","<img src=""stim_listB/kiss1.gif""style=""height:400px;""></stim_listB>","is kissing","","","","","",""
"null","<div style=""font-size:60px;"">+</div>","","html-keyboard-response","184","502987","0.0-15.0-0.14","15145","List1B","black","man","","","","null","","","","","","","","",""
"null","<img src=""stim_listB/greet7.gif""style=""height:400px;""></stim_listB>","","html-keyboard-response","185","504991","0.0-15.0-1.14","15145","List1B","black","man","","","","null","","","","","","","","",""
"null","is greeting","","html-keyboard-response","186","506996","0.0-15.0-2.14","15145","List1B","black","man","","","","null","","","","","","","","",""
"3701.5","","","survey-text","187","510699","0.0-15.0-3.14","15145","List1B","black","man","","","","","{""Q0"":""kate is being greeted by ruth""}","<img src=""stim_listB/greet7.gif""style=""height:400px;""></stim_listB>","is greeting","","","","","",""
"null","<div style=""font-size:60px;"">+</div>","","html-keyboard-response","188","511203","0.0-15.0-0.15","15145","List1B","black","man","","","","null","","","","","","","","",""
"null","<img src=""stim_listB/copy6.gif""style=""height:400px;""></stim_listB>","","html-keyboard-response","189","513210","0.0-15.0-1.15","15145","List1B","black","man","","","","null","","","","","","","","",""
"null","is being copied by","","html-keyboard-response","190","515216","0.0-15.0-2.15","15145","List1B","black","man","","","","null","","","","","","","","",""
"3395.0999999940395","","","survey-text","191","518612","0.0-15.0-3.15","15145","List1B","black","man","","","","","{""Q0"":""dave is being copied by fred""}","<img src=""stim_listB/copy6.gif""style=""height:400px;""></stim_listB>","is being copied by","","","","","",""
"null","<div style=""font-size:60px;"">+</div>","","html-keyboard-response","192","519120","0.0-15.0-0.16","15145","List1B","black","man","","","","null","","","","","","","","",""
"null","<img src=""stim_listB/copy3.gif""style=""height:400px;""></stim_listB>","","html-keyboard-response","193","521127","0.0-15.0-1.16","15145","List1B","black","man","","","","null","","","","","","","","",""
"null","is copying","","html-keyboard-response","194","523137","0.0-15.0-2.16","15145","List1B","black","man","","","","null","","","","","","","","",""
"2504.7000000178814","","","survey-text","195","525643","0.0-15.0-3.16","15145","List1B","black","man","","","","","{""Q0"":""dave is copying ruth""}","<img src=""stim_listB/copy3.gif""style=""height:400px;""></stim_listB>","is copying","","","","","",""
"null","<div style=""font-size:60px;"">+</div>","","html-keyboard-response","196","526153","0.0-15.0-0.17","15145","List1B","black","man","","","","null","","","","","","","","",""
"null","<img src=""stim_listB/touch2.gif""style=""height:400px;""></stim_listB>","","html-keyboard-response","197","528154","0.0-15.0-1.17","15145","List1B","black","man","","","","null","","","","","","","","",""
"null","is being touched by","","html-keyboard-response","198","530162","0.0-15.0-2.17","15145","List1B","black","man","","","","null","","","","","","","","",""
"4045.5","","","survey-text","199","534209","0.0-15.0-3.17","15145","List1B","black","man","","","","","{""Q0"":""beth is being touched by fred""}","<img src=""stim_listB/touch2.gif""style=""height:400px;""></stim_listB>","is being touched by","","","","","",""
"null","<div style=""font-size:60px;"">+</div>","","html-keyboard-response","200","534713","0.0-15.0-0.18","15145","List1B","black","man","","","","null","","","","","","","","",""
"null","<img src=""stim_listB/shout1.gif""style=""height:400px;""></stim_listB>","","html-keyboard-response","201","536718","0.0-15.0-1.18","15145","List1B","black","man","","","","null","","","","","","","","",""
"null","is shouting at","","html-keyboard-response","202","538723","0.0-15.0-2.18","15145","List1B","black","man","","","","null","","","","","","","","",""
"2824.600000023842","","","survey-text","203","541549","0.0-15.0-3.18","15145","List1B","black","man","","","","","{""Q0"":""fred is shouting at beth""}","<img src=""stim_listB/shout1.gif""style=""height:400px;""></stim_listB>","is shouting at","","","","","",""
"null","<div style=""font-size:60px;"">+</div>","","html-keyboard-response","204","542059","0.0-15.0-0.19","15145","List1B","black","man","","","","null","","","","","","","","",""
"null","<img src=""stim_listB/greet3.gif""style=""height:400px;""></stim_listB>","","html-keyboard-response","205","544063","0.0-15.0-1.19","15145","List1B","black","man","","","","null","","","","","","","","",""
"null","is greeting","","html-keyboard-response","206","546067","0.0-15.0-2.19","15145","List1B","black","man","","","","null","","","","","","","","",""
"2964.2999999821186","","","survey-text","207","549032","0.0-15.0-3.19","15145","List1B","black","man","","","","","{""Q0"":""dave is greeting ruth""}","<img src=""stim_listB/greet3.gif""style=""height:400px;""></stim_listB>","is greeting","","","","","",""
"2652.7999999821186","<img src='img/portrait_matrix_list1.jpg' style='width:900px;height:500px;''></img><p>If you have memorised all the portraits and names and are ready to start, press Continue.</p><p><strong>Please note: Your memory of these faces will be tested 4 times during this experiment.</strong></p>","0","html-button-response","208","551686","0.0-16.0-0.0","15145","List1B","black","man","","","","","","","","","","","","",""
"2213","<img src=""portrait/WM1.jpg""style=""height:400px;""></img>","6","html-button-response","209","554901","0.0-16.0-1.0","15145","List1B","black","man","","true","6","","","","","","","","","",""
"null","CORRECT","","html-keyboard-response","210","556403","0.0-16.0-2.0-0.0","15145","List1B","black","man","","","","null","","","","","","","","",""
"2233.2000000178814","<img src=""portrait/BM1.jpg""style=""height:400px;""></img>","4","html-button-response","211","558637","0.0-16.0-4.0","15145","List1B","black","man","","true","4","","","","","","","","","",""
"null","CORRECT","","html-keyboard-response","212","560146","0.0-16.0-5.0-0.0","15145","List1B","black","man","","","","null","","","","","","","","",""
"2331.7999999821186","<img src=""portrait/BW1.jpg""style=""height:400px;""></img>","0","html-button-response","213","562479","0.0-16.0-7.0","15145","List1B","black","man","","true","0","","","","","","","","","",""
"null","CORRECT","","html-keyboard-response","214","563980","0.0-16.0-8.0-0.0","15145","List1B","black","man","","","","null","","","","","","","","",""
"1838","<img src=""portrait/BM2.jpg""style=""height:400px;""></img>","5","html-button-response","215","565819","0.0-16.0-10.0","15145","List1B","black","man","","true","5","","","","","","","","","",""
"null","CORRECT","","html-keyboard-response","216","567321","0.0-16.0-11.0-0.0","15145","List1B","black","man","","","","null","","","","","","","","",""
"1459","<img src=""portrait/WW1.jpg""style=""height:400px;""></img>","1","html-button-response","217","568781","0.0-16.0-13.0","15145","List1B","black","man","","true","1","","","","","","","","","",""
"null","CORRECT","","html-keyboard-response","218","570295","0.0-16.0-14.0-0.0","15145","List1B","black","man","","","","null","","","","","","","","",""
"2313.5","<img src=""portrait/WM2.jpg""style=""height:400px;""></img>","7","html-button-response","219","572609","0.0-16.0-16.0","15145","List1B","black","man","","true","7","","","","","","","","","",""
"null","CORRECT","","html-keyboard-response","220","574117","0.0-16.0-17.0-0.0","15145","List1B","black","man","","","","null","","","","","","","","",""
"1853.2000000178814","<img src=""portrait/BW2.jpg""style=""height:400px;""></img>","2","html-button-response","221","575971","0.0-16.0-19.0","15145","List1B","black","man","","true","2","","","","","","","","","",""
"null","CORRECT","","html-keyboard-response","222","577489","0.0-16.0-20.0-0.0","15145","List1B","black","man","","","","null","","","","","","","","",""
"1781.1000000238419","<img src=""portrait/WW2.jpg""style=""height:400px;""></img>","3","html-button-response","223","579271","0.0-16.0-22.0","15145","List1B","black","man","","true","3","","","","","","","","","",""
"null","CORRECT","","html-keyboard-response","224","580783","0.0-16.0-23.0-0.0","15145","List1B","black","man","","","","null","","","","","","","","",""
"2541.4000000059605","<p>You got 8 out of 8 right first time. Press Continue.</p>","0","html-button-response","225","583325","0.0-16.0-25.0","15145","List1B","black","man","","","","","","","","","","","","",""
"null","<div style=""font-size:60px;"">+</div>","","html-keyboard-response","226","584838","0.0-17.0-0.0","15145","List1B","black","man","","","","null","","","","","","","","",""
"null","<img src=""stim_listB/greet5.gif""style=""height:400px;""></stim_listB>","","html-keyboard-response","227","586845","0.0-17.0-1.0","15145","List1B","black","man","","","","null","","","","","","","","",""
"null","is greeting","","html-keyboard-response","228","588857","0.0-17.0-2.0","15145","List1B","black","man","","","","null","","","","","","","","",""
"6440.5999999940395","","","survey-text","229","595299","0.0-17.0-3.0","15145","List1B","black","man","","","","","{""Q0"":""mike is greeting luke""}","<img src=""stim_listB/greet5.gif""style=""height:400px;""></stim_listB>","is greeting","","","","","",""
"null","<div style=""font-size:60px;"">+</div>","","html-keyboard-response","230","595800","0.0-17.0-0.1","15145","List1B","black","man","","","","null","","","","","","","","",""
"null","<img src=""stim_listB/oppose2.gif""style=""height:400px;""></stim_listB>","","html-keyboard-response","231","597806","0.0-17.0-1.1","15145","List1B","black","man","","","","null","","","","","","","","",""
"null","is being opposed by","","html-keyboard-response","232","599814","0.0-17.0-2.1","15145","List1B","black","man","","","","null","","","","","","","","",""
"7495.0999999940395","","","survey-text","233","607310","0.0-17.0-3.1","15145","List1B","black","man","","","","","{""Q0"":""beth is being opposed by fred""}","<img src=""stim_listB/oppose2.gif""style=""height:400px;""></stim_listB>","is being opposed by","","","","","",""
"null","<div style=""font-size:60px;"">+</div>","","html-keyboard-response","234","607821","0.0-17.0-0.2","15145","List1B","black","man","","","","null","","","","","","","","",""
"null","<img src=""stim_listB/touch8.gif""style=""height:400px;""></stim_listB>","","html-keyboard-response","235","609834","0.0-17.0-1.2","15145","List1B","black","man","","","","null","","","","","","","","",""
"null","is being touched by","","html-keyboard-response","236","611846","0.0-17.0-2.2","15145","List1B","black","man","","","","null","","","","","","","","",""
"4827.699999988079","","","survey-text","237","616675","0.0-17.0-3.2","15145","List1B","black","man","","","","","{""Q0"":""ruth is being touched by beth""}","<img src=""stim_listB/touch8.gif""style=""height:400px;""></stim_listB>","is being touched by","","","","","",""
"null","<div style=""font-size:60px;"">+</div>","","html-keyboard-response","238","617184","0.0-17.0-0.3","15145","List1B","black","man","","","","null","","","","","","","","",""
"null","<img src=""stim_listB/touch5.gif""style=""height:400px;""></stim_listB>","","html-keyboard-response","239","619197","0.0-17.0-1.3","15145","List1B","black","man","","","","null","","","","","","","","",""
"null","is touching","","html-keyboard-response","240","621208","0.0-17.0-2.3","15145","List1B","black","man","","","","null","","","","","","","","",""
"3597.699999988079","","","survey-text","241","624807","0.0-17.0-3.3","15145","List1B","black","man","","","","","{""Q0"":""mike is touching dave""}","<img src=""stim_listB/touch5.gif""style=""height:400px;""></stim_listB>","is touching","","","","","",""
"null","<div style=""font-size:60px;"">+</div>","","html-keyboard-response","242","625321","0.0-17.0-0.4","15145","List1B","black","man","","","","null","","","","","","","","",""
"null","<img src=""stim_listB/copy8.gif""style=""height:400px;""></stim_listB>","","html-keyboard-response","243","627332","0.0-17.0-1.4","15145","List1B","black","man","","","","null","","","","","","","","",""
"null","is being copied by","","html-keyboard-response","244","629344","0.0-17.0-2.4","15145","List1B","black","man","","","","null","","","","","","","","",""
"4997.5","","","survey-text","245","634343","0.0-17.0-3.4","15145","List1B","black","man","","","","","{""Q0"":""jane is being copied by beth""}","<img src=""stim_listB/copy8.gif""style=""height:400px;""></stim_listB>","is being copied by","","","","","",""
"null","<div style=""font-size:60px;"">+</div>","","html-keyboard-response","246","634852","0.0-17.0-0.5","15145","List1B","black","man","","","","null","","","","","","","","",""
"null","<img src=""stim_listB/shout7.gif""style=""height:400px;""></stim_listB>","","html-keyboard-response","247","636863","0.0-17.0-1.5","15145","List1B","black","man","","","","null","","","","","","","","",""
"null","is shouting at","","html-keyboard-response","248","638874","0.0-17.0-2.5","15145","List1B","black","man","","","","null","","","","","","","","",""
"3510.5","","","survey-text","249","642385","0.0-17.0-3.5","15145","List1B","black","man","","","","","{""Q0"":""beth is shouting at ruth""}","<img src=""stim_listB/shout7.gif""style=""height:400px;""></stim_listB>","is shouting at","","","","","",""
"null","<div style=""font-size:60px;"">+</div>","","html-keyboard-response","250","642894","0.0-17.0-0.6","15145","List1B","black","man","","","","null","","","","","","","","",""
"null","<img src=""stim_listB/challenge7.gif""style=""height:400px;""></stim_listB>","","html-keyboard-response","251","644903","0.0-17.0-1.6","15145","List1B","black","man","","","","null","","","","","","","","",""
"null","is challenging","","html-keyboard-response","252","646912","0.0-17.0-2.6","15145","List1B","black","man","","","","null","","","","","","","","",""
"2602.800000011921","","","survey-text","253","649516","0.0-17.0-3.6","15145","List1B","black","man","","","","","{""Q0"":""kate is challenging ruth""}","<img src=""stim_listB/challenge7.gif""style=""height:400px;""></stim_listB>","is challenging","","","","","",""
"null","<div style=""font-size:60px;"">+</div>","","html-keyboard-response","254","650029","0.0-17.0-0.7","15145","List1B","black","man","","","","null","","","","","","","","",""
"null","<img src=""stim_listB/seduce8.gif""style=""height:400px;""></stim_listB>","","html-keyboard-response","255","652039","0.0-17.0-1.7","15145","List1B","black","man","","","","null","","","","","","","","",""
"null","is being seduced by","","html-keyboard-response","256","654049","0.0-17.0-2.7","15145","List1B","black","man","","","","null","","","","","","","","",""
"3580.100000023842","","","survey-text","257","657630","0.0-17.0-3.7","15145","List1B","black","man","","","","","{""Q0"":""ruth is being seduced by ruth""}","<img src=""stim_listB/seduce8.gif""style=""height:400px;""></stim_listB>","is being seduced by","","","","","",""
"null","<div style=""font-size:60px;"">+</div>","","html-keyboard-response","258","658132","0.0-17.0-0.8","15145","List1B","black","man","","","","null","","","","","","","","",""
"null","<img src=""stim_listB/hug4.gif""style=""height:400px;""></stim_listB>","","html-keyboard-response","259","660144","0.0-17.0-1.8","15145","List1B","black","man","","","","null","","","","","","","","",""
"null","is being hugged by","","html-keyboard-response","260","662154","0.0-17.0-2.8","15145","List1B","black","man","","","","null","","","","","","","","",""
"4858.5","","","survey-text","261","667014","0.0-17.0-3.8","15145","List1B","black","man","","","","","{""Q0"":""jane is being hugged by dave""}","<img src=""stim_listB/hug4.gif""style=""height:400px;""></stim_listB>","is being hugged by","","","","","",""
"null","<div style=""font-size:60px;"">+</div>","","html-keyboard-response","262","667528","0.0-17.0-0.9","15145","List1B","black","man","","","","null","","","","","","","","",""
"null","<img src=""stim_listB/seduce2.gif""style=""height:400px;""></stim_listB>","","html-keyboard-response","263","669540","0.0-17.0-1.9","15145","List1B","black","man","","","","null","","","","","","","","",""
"null","is being seduced by","","html-keyboard-response","264","671549","0.0-17.0-2.9","15145","List1B","black","man","","","","null","","","","","","","","",""
"4408.800000011921","","","survey-text","265","675959","0.0-17.0-3.9","15145","List1B","black","man","","","","","{""Q0"":""beth is being seduced by mike""}","<img src=""stim_listB/seduce2.gif""style=""height:400px;""></stim_listB>","is being seduced by","","","","","",""
"null","<div style=""font-size:60px;"">+</div>","","html-keyboard-response","266","676472","0.0-17.0-0.10","15145","List1B","black","man","","","","null","","","","","","","","",""
"null","<img src=""stim_listB/copy1.gif""style=""height:400px;""></stim_listB>","","html-keyboard-response","267","678473","0.0-17.0-1.10","15145","List1B","black","man","","","","null","","","","","","","","",""
"null","is copying","","html-keyboard-response","268","680480","0.0-17.0-2.10","15145","List1B","black","man","","","","null","","","","","","","","",""
"2735.5","","","survey-text","269","683217","0.0-17.0-3.10","15145","List1B","black","man","","","","","{""Q0"":""mike is copying beth""}","<img src=""stim_listB/copy1.gif""style=""height:400px;""></stim_listB>","is copying","","","","","",""
"null","<div style=""font-size:60px;"">+</div>","","html-keyboard-response","270","683731","0.0-17.0-0.11","15145","List1B","black","man","","","","null","","","","","","","","",""
"null","<img src=""stim_listB/challenge3.gif""style=""height:400px;""></stim_listB>","","html-keyboard-response","271","685743","0.0-17.0-1.11","15145","List1B","black","man","","","","null","","","","","","","","",""
"null","is challenging","","html-keyboard-response","272","687752","0.0-17.0-2.11","15145","List1B","black","man","","","","null","","","","","","","","",""
"3567.5999999940395","","","survey-text","273","691321","0.0-17.0-3.11","15145","List1B","black","man","","","","","{""Q0"":""dave is challenging ruth""}","<img src=""stim_listB/challenge3.gif""style=""height:400px;""></stim_listB>","is challenging","","","","","",""
"null","<div style=""font-size:60px;"">+</div>","","html-keyboard-response","274","691837","0.0-17.0-0.12","15145","List1B","black","man","","","","null","","","","","","","","",""
"null","<img src=""stim_listB/kiss7.gif""style=""height:400px;""></stim_listB>","","html-keyboard-response","275","693847","0.0-17.0-1.12","15145","List1B","black","man","","","","null","","","","","","","","",""
"null","is kissing","","html-keyboard-response","276","695857","0.0-17.0-2.12","15145","List1B","black","man","","","","null","","","","","","","","",""
"3582.800000011921","","","survey-text","277","699441","0.0-17.0-3.12","15145","List1B","black","man","","","","","{""Q0"":""beth is kissing ruth""}","<img src=""stim_listB/kiss7.gif""style=""height:400px;""></stim_listB>","is kissing","","","","","",""
"null","<div style=""font-size:60px;"">+</div>","","html-keyboard-response","278","699956","0.0-17.0-0.13","15145","List1B","black","man","","","","null","","","","","","","","",""
"null","<img src=""stim_listB/seduce3.gif""style=""height:400px;""></stim_listB>","","html-keyboard-response","279","701967","0.0-17.0-1.13","15145","List1B","black","man","","","","null","","","","","","","","",""
"null","is seducing","","html-keyboard-response","280","703977","0.0-17.0-2.13","15145","List1B","black","man","","","","null","","","","","","","","",""
"2722.199999988079","","","survey-text","281","706700","0.0-17.0-3.13","15145","List1B","black","man","","","","","{""Q0"":""luke is seducing jane""}","<img src=""stim_listB/seduce3.gif""style=""height:400px;""></stim_listB>","is seducing","","","","","",""
"null","<div style=""font-size:60px;"">+</div>","","html-keyboard-response","282","707216","0.0-17.0-0.14","15145","List1B","black","man","","","","null","","","","","","","","",""
"null","<img src=""stim_listB/challenge2.gif""style=""height:400px;""></stim_listB>","","html-keyboard-response","283","709227","0.0-17.0-1.14","15145","List1B","black","man","","","","null","","","","","","","","",""
"null","is being challenged by","","html-keyboard-response","284","711238","0.0-17.0-2.14","15145","List1B","black","man","","","","null","","","","","","","","",""
"3526.4000000059605","","","survey-text","285","714766","0.0-17.0-3.14","15145","List1B","black","man","","","","","{""Q0"":""kate is being challenged by fred""}","<img src=""stim_listB/challenge2.gif""style=""height:400px;""></stim_listB>","is being challenged by","","","","","",""
"null","<div style=""font-size:60px;"">+</div>","","html-keyboard-response","286","715272","0.0-17.0-0.15","15145","List1B","black","man","","","","null","","","","","","","","",""
"null","<img src=""stim_listB/touch4.gif""style=""height:400px;""></stim_listB>","","html-keyboard-response","287","717273","0.0-17.0-1.15","15145","List1B","black","man","","","","null","","","","","","","","",""
"null","is being touched by","","html-keyboard-response","288","719277","0.0-17.0-2.15","15145","List1B","black","man","","","","null","","","","","","","","",""
"3533.800000011921","","","survey-text","289","722812","0.0-17.0-3.15","15145","List1B","black","man","","","","","{""Q0"":""ruth is being touched by luke""}","<img src=""stim_listB/touch4.gif""style=""height:400px;""></stim_listB>","is being touched by","","","","","",""
"null","<div style=""font-size:60px;"">+</div>","","html-keyboard-response","290","723312","0.0-17.0-0.16","15145","List1B","black","man","","","","null","","","","","","","","",""
"null","<img src=""stim_listB/kiss3.gif""style=""height:400px;""></stim_listB>","","html-keyboard-response","291","725321","0.0-17.0-1.16","15145","List1B","black","man","","","","null","","","","","","","","",""
"null","is kissing","","html-keyboard-response","292","727331","0.0-17.0-2.16","15145","List1B","black","man","","","","null","","","","","","","","",""
"2509.699999988079","","","survey-text","293","729842","0.0-17.0-3.16","15145","List1B","black","man","","","","","{""Q0"":""luke is kissing ruth""}","<img src=""stim_listB/kiss3.gif""style=""height:400px;""></stim_listB>","is kissing","","","","","",""
"null","<div style=""font-size:60px;"">+</div>","","html-keyboard-response","294","730355","0.0-17.0-0.17","15145","List1B","black","man","","","","null","","","","","","","","",""
"null","<img src=""stim_listB/kiss4.gif""style=""height:400px;""></stim_listB>","","html-keyboard-response","295","732356","0.0-17.0-1.17","15145","List1B","black","man","","","","null","","","","","","","","",""
"null","is being kissed by","","html-keyboard-response","296","734360","0.0-17.0-2.17","15145","List1B","black","man","","","","null","","","","","","","","",""
"4014","","","survey-text","297","738376","0.0-17.0-3.17","15145","List1B","black","man","","","","","{""Q0"":""jane is being kissed by dave""}","<img src=""stim_listB/kiss4.gif""style=""height:400px;""></stim_listB>","is being kissed by","","","","","",""
"null","<div style=""font-size:60px;"">+</div>","","html-keyboard-response","298","738891","0.0-17.0-0.18","15145","List1B","black","man","","","","null","","","","","","","","",""
"null","<img src=""stim_listB/hug1.gif""style=""height:400px;""></stim_listB>","","html-keyboard-response","299","740901","0.0-17.0-1.18","15145","List1B","black","man","","","","null","","","","","","","","",""
"null","is hugging","","html-keyboard-response","300","742909","0.0-17.0-2.18","15145","List1B","black","man","","","","null","","","","","","","","",""
"2695.7999999821186","","","survey-text","301","745606","0.0-17.0-3.18","15145","List1B","black","man","","","","","{""Q0"":""fred is hugging beth""}","<img src=""stim_listB/hug1.gif""style=""height:400px;""></stim_listB>","is hugging","","","","","",""
"null","<div style=""font-size:60px;"">+</div>","","html-keyboard-response","302","746118","0.0-17.0-0.19","15145","List1B","black","man","","","","null","","","","","","","","",""
"null","<img src=""stim_listB/greet6.gif""style=""height:400px;""></stim_listB>","","html-keyboard-response","303","748130","0.0-17.0-1.19","15145","List1B","black","man","","","","null","","","","","","","","",""
"null","is being greeted by","","html-keyboard-response","304","750141","0.0-17.0-2.19","15145","List1B","black","man","","","","null","","","","","","","","",""
"4053.699999988079","","","survey-text","305","754196","0.0-17.0-3.19","15145","List1B","black","man","","","","","{""Q0"":""dave is being greeted by fred""}","<img src=""stim_listB/greet6.gif""style=""height:400px;""></stim_listB>","is being greeted by","","","","","",""
"2157.4000000059605","<img src='img/portrait_matrix_list1.jpg' style='width:900px;height:500px;''></img><p>If you have memorised all the portraits and names and are ready to start, press Continue.</p><p><strong>Please note: Your memory of these faces will be tested 4 times during this experiment.</strong></p>","0","html-button-response","306","756354","0.0-18.0-0.0","15145","List1B","black","man","","","","","","","","","","","","",""
"1414.5999999940395","<img src=""portrait/WM2.jpg""style=""height:400px;""></img>","7","html-button-response","307","758770","0.0-18.0-1.0","15145","List1B","black","man","","true","7","","","","","","","","","",""
"null","CORRECT","","html-keyboard-response","308","760272","0.0-18.0-2.0-0.0","15145","List1B","black","man","","","","null","","","","","","","","",""
"1870.0999999940395","<img src=""portrait/WM1.jpg""style=""height:400px;""></img>","6","html-button-response","309","762143","0.0-18.0-4.0","15145","List1B","black","man","","true","6","","","","","","","","","",""
"null","CORRECT","","html-keyboard-response","310","763649","0.0-18.0-5.0-0.0","15145","List1B","black","man","","","","null","","","","","","","","",""
"1454.5","<img src=""portrait/BW2.jpg""style=""height:400px;""></img>","2","html-button-response","311","765104","0.0-18.0-7.0","15145","List1B","black","man","","true","2","","","","","","","","","",""
"null","CORRECT","","html-keyboard-response","312","766607","0.0-18.0-8.0-0.0","15145","List1B","black","man","","","","null","","","","","","","","",""
"1168.699999988079","<img src=""portrait/BW1.jpg""style=""height:400px;""></img>","0","html-button-response","313","767776","0.0-18.0-10.0","15145","List1B","black","man","","true","0","","","","","","","","","",""
"null","CORRECT","","html-keyboard-response","314","769280","0.0-18.0-11.0-0.0","15145","List1B","black","man","","","","null","","","","","","","","",""
"1746.0999999940395","<img src=""portrait/BM1.jpg""style=""height:400px;""></img>","4","html-button-response","315","771026","0.0-18.0-13.0","15145","List1B","black","man","","true","4","","","","","","","","","",""
"null","CORRECT","","html-keyboard-response","316","772538","0.0-18.0-14.0-0.0","15145","List1B","black","man","","","","null","","","","","","","","",""
"1643.800000011921","<img src=""portrait/WW1.jpg""style=""height:400px;""></img>","1","html-button-response","317","774182","0.0-18.0-16.0","15145","List1B","black","man","","true","1","","","","","","","","","",""
"null","CORRECT","","html-keyboard-response","318","775702","0.0-18.0-17.0-0.0","15145","List1B","black","man","","","","null","","","","","","","","",""
"1099.4000000059605","<img src=""portrait/WW2.jpg""style=""height:400px;""></img>","3","html-button-response","319","776802","0.0-18.0-19.0","15145","List1B","black","man","","true","3","","","","","","","","","",""
"null","CORRECT","","html-keyboard-response","320","778313","0.0-18.0-20.0-0.0","15145","List1B","black","man","","","","null","","","","","","","","",""
"2114.199999988079","<img src=""portrait/BM2.jpg""style=""height:400px;""></img>","5","html-button-response","321","780428","0.0-18.0-22.0","15145","List1B","black","man","","true","5","","","","","","","","","",""
"null","CORRECT","","html-keyboard-response","322","781938","0.0-18.0-23.0-0.0","15145","List1B","black","man","","","","null","","","","","","","","",""
"841.4000000059605","<p>You got 8 out of 8 right first time. Press Continue.</p>","0","html-button-response","323","782780","0.0-18.0-25.0","15145","List1B","black","man","","","","","","","","","","","","",""
"null","<div style=""font-size:60px;"">+</div>","","html-keyboard-response","324","784282","0.0-19.0-0.0","15145","List1B","black","man","","","","null","","","","","","","","",""
"null","<img src=""stim_listB/look4.gif""style=""height:400px;""></stim_listB>","","html-keyboard-response","325","786297","0.0-19.0-1.0","15145","List1B","black","man","","","","null","","","","","","","","",""
"null","is being looked at by","","html-keyboard-response","326","788308","0.0-19.0-2.0","15145","List1B","black","man","","","","null","","","","","","","","",""
"4746.699999988079","","","survey-text","327","793056","0.0-19.0-3.0","15145","List1B","black","man","","","","","{""Q0"":""jane is being looked at by dave""}","<img src=""stim_listB/look4.gif""style=""height:400px;""></stim_listB>","is being looked at by","","","","","",""
"null","<div style=""font-size:60px;"">+</div>","","html-keyboard-response","328","793560","0.0-19.0-0.1","15145","List1B","black","man","","","","null","","","","","","","","",""
"null","<img src=""stim_listB/look8.gif""style=""height:400px;""></stim_listB>","","html-keyboard-response","329","795569","0.0-19.0-1.1","15145","List1B","black","man","","","","null","","","","","","","","",""
"null","is being looked at by","","html-keyboard-response","330","797579","0.0-19.0-2.1","15145","List1B","black","man","","","","null","","","","","","","","",""
"6265.399999976158","","","survey-text","331","803847","0.0-19.0-3.1","15145","List1B","black","man","","","","","{""Q0"":""jane is being looked at by kate""}","<img src=""stim_listB/look8.gif""style=""height:400px;""></stim_listB>","is being looked at by","","","","","",""
"null","<div style=""font-size:60px;"">+</div>","","html-keyboard-response","332","804348","0.0-19.0-0.2","15145","List1B","black","man","","","","null","","","","","","","","",""
"null","<img src=""stim_listB/shout5.gif""style=""height:400px;""></stim_listB>","","html-keyboard-response","333","806359","0.0-19.0-1.2","15145","List1B","black","man","","","","null","","","","","","","","",""
"null","is shouting at","","html-keyboard-response","334","808374","0.0-19.0-2.2","15145","List1B","black","man","","","","null","","","","","","","","",""
"5095.799999982119","","","survey-text","335","813471","0.0-19.0-3.2","15145","List1B","black","man","","","","","{""Q0"":""fred is shouting at luke""}","<img src=""stim_listB/shout5.gif""style=""height:400px;""></stim_listB>","is shouting at","","","","","",""
"null","<div style=""font-size:60px;"">+</div>","","html-keyboard-response","336","813975","0.0-19.0-0.3","15145","List1B","black","man","","","","null","","","","","","","","",""
"null","<img src=""stim_listB/oppose8.gif""style=""height:400px;""></stim_listB>","","html-keyboard-response","337","815984","0.0-19.0-1.3","15145","List1B","black","man","","","","null","","","","","","","","",""
"null","is being opposed by","","html-keyboard-response","338","817994","0.0-19.0-2.3","15145","List1B","black","man","","","","null","","","","","","","","",""
"5183.199999988079","","","survey-text","339","823179","0.0-19.0-3.3","15145","List1B","black","man","","","","","{""Q0"":""ruth is being opposed by beth""}","<img src=""stim_listB/oppose8.gif""style=""height:400px;""></stim_listB>","is being opposed by","","","","","",""
"null","<div style=""font-size:60px;"">+</div>","","html-keyboard-response","340","823694","0.0-19.0-0.4","15145","List1B","black","man","","","","null","","","","","","","","",""
"null","<img src=""stim_listB/shout4.gif""style=""height:400px;""></stim_listB>","","html-keyboard-response","341","825702","0.0-19.0-1.4","15145","List1B","black","man","","","","null","","","","","","","","",""
"null","is being shouted at by","","html-keyboard-response","342","827713","0.0-19.0-2.4","15145","List1B","black","man","","","","null","","","","","","","","",""
"6502.0999999940395","","","survey-text","343","834217","0.0-19.0-3.4","15145","List1B","black","man","","","","","{""Q0"":""jane is being shouted at by dave""}","<img src=""stim_listB/shout4.gif""style=""height:400px;""></stim_listB>","is being shouted at by","","","","","",""
"null","<div style=""font-size:60px;"">+</div>","","html-keyboard-response","344","834718","0.0-19.0-0.5","15145","List1B","black","man","","","","null","","","","","","","","",""
"null","<img src=""stim_listB/copy4.gif""style=""height:400px;""></stim_listB>","","html-keyboard-response","345","836720","0.0-19.0-1.5","15145","List1B","black","man","","","","null","","","","","","","","",""
"null","is being copied by","","html-keyboard-response","346","838725","0.0-19.0-2.5","15145","List1B","black","man","","","","null","","","","","","","","",""
"3705.100000023842","","","survey-text","347","842432","0.0-19.0-3.5","15145","List1B","black","man","","","","","{""Q0"":""jane is being copied by luke""}","<img src=""stim_listB/copy4.gif""style=""height:400px;""></stim_listB>","is being copied by","","","","","",""
"null","<div style=""font-size:60px;"">+</div>","","html-keyboard-response","348","842945","0.0-19.0-0.6","15145","List1B","black","man","","","","null","","","","","","","","",""
"null","<img src=""stim_listB/kiss8.gif""style=""height:400px;""></stim_listB>","","html-keyboard-response","349","844954","0.0-19.0-1.6","15145","List1B","black","man","","","","null","","","","","","","","",""
"null","is being kissed by","","html-keyboard-response","350","846955","0.0-19.0-2.6","15145","List1B","black","man","","","","null","","","","","","","","",""
"3518.5999999940395","","","survey-text","351","850475","0.0-19.0-3.6","15145","List1B","black","man","","","","","{""Q0"":""jane is being kissed by kate""}","<img src=""stim_listB/kiss8.gif""style=""height:400px;""></stim_listB>","is being kissed by","","","","","",""
"null","<div style=""font-size:60px;"">+</div>","","html-keyboard-response","352","850981","0.0-19.0-0.7","15145","List1B","black","man","","","","null","","","","","","","","",""
"null","<img src=""stim_listB/seduce6.gif""style=""height:400px;""></stim_listB>","","html-keyboard-response","353","852992","0.0-19.0-1.7","15145","List1B","black","man","","","","null","","","","","","","","",""
"null","is being seduced by","","html-keyboard-response","354","855004","0.0-19.0-2.7","15145","List1B","black","man","","","","null","","","","","","","","",""
"3486.199999988079","","","survey-text","355","858491","0.0-19.0-3.7","15145","List1B","black","man","","","","","{""Q0"":""luke is being seduced by mike""}","<img src=""stim_listB/seduce6.gif""style=""height:400px;""></stim_listB>","is being seduced by","","","","","",""
"null","<div style=""font-size:60px;"">+</div>","","html-keyboard-response","356","858995","0.0-19.0-0.8","15145","List1B","black","man","","","","null","","","","","","","","",""
"null","<img src=""stim_listB/seduce7.gif""style=""height:400px;""></stim_listB>","","html-keyboard-response","357","861004","0.0-19.0-1.8","15145","List1B","black","man","","","","null","","","","","","","","",""
"null","is seducing","","html-keyboard-response","358","863014","0.0-19.0-2.8","15145","List1B","black","man","","","","null","","","","","","","","",""
"2978.699999988079","","","survey-text","359","865994","0.0-19.0-3.8","15145","List1B","black","man","","","","","{""Q0"":""beth is seducing jane""}","<img src=""stim_listB/seduce7.gif""style=""height:400px;""></stim_listB>","is seducing","","","","","",""
"null","<div style=""font-size:60px;"">+</div>","","html-keyboard-response","360","866495","0.0-19.0-0.9","15145","List1B","black","man","","","","null","","","","","","","","",""
"null","<img src=""stim_listB/oppose3.gif""style=""height:400px;""></stim_listB>","","html-keyboard-response","361","868506","0.0-19.0-1.9","15145","List1B","black","man","","","","null","","","","","","","","",""
"null","is opposing","","html-keyboard-response","362","870515","0.0-19.0-2.9","15145","List1B","black","man","","","","null","","","","","","","","",""
"3209.2000000178814","","","survey-text","363","873726","0.0-19.0-3.9","15145","List1B","black","man","","","","","{""Q0"":""dave is opposing jane""}","<img src=""stim_listB/oppose3.gif""style=""height:400px;""></stim_listB>","is opposing","","","","","",""
"null","<div style=""font-size:60px;"">+</div>","","html-keyboard-response","364","874240","0.0-19.0-0.10","15145","List1B","black","man","","","","null","","","","","","","","",""
"null","<img src=""stim_listB/hug7.gif""style=""height:400px;""></stim_listB>","","html-keyboard-response","365","876251","0.0-19.0-1.10","15145","List1B","black","man","","","","null","","","","","","","","",""
"null","is hugging","","html-keyboard-response","366","878262","0.0-19.0-2.10","15145","List1B","black","man","","","","null","","","","","","","","",""
"3298.5","","","survey-text","367","881562","0.0-19.0-3.10","15145","List1B","black","man","","","","","{""Q0"":""beth is hugging ruth""}","<img src=""stim_listB/hug7.gif""style=""height:400px;""></stim_listB>","is hugging","","","","","",""
"null","<div style=""font-size:60px;"">+</div>","","html-keyboard-response","368","882067","0.0-19.0-0.11","15145","List1B","black","man","","","","null","","","","","","","","",""
"null","<img src=""stim_listB/copy5.gif""style=""height:400px;""></stim_listB>","","html-keyboard-response","369","884077","0.0-19.0-1.11","15145","List1B","black","man","","","","null","","","","","","","","",""
"null","is copying","","html-keyboard-response","370","886087","0.0-19.0-2.11","15145","List1B","black","man","","","","null","","","","","","","","",""
"3449","","","survey-text","371","889537","0.0-19.0-3.11","15145","List1B","black","man","","","","","{""Q0"":""mike is copying luke""}","<img src=""stim_listB/copy5.gif""style=""height:400px;""></stim_listB>","is copying","","","","","",""
"null","<div style=""font-size:60px;"">+</div>","","html-keyboard-response","372","890045","0.0-19.0-0.12","15145","List1B","black","man","","","","null","","","","","","","","",""
"null","<img src=""stim_listB/touch7.gif""style=""height:400px;""></stim_listB>","","html-keyboard-response","373","892055","0.0-19.0-1.12","15145","List1B","black","man","","","","null","","","","","","","","",""
"null","is touching","","html-keyboard-response","374","894064","0.0-19.0-2.12","15145","List1B","black","man","","","","null","","","","","","","","",""
"3133.300000011921","","","survey-text","375","897198","0.0-19.0-3.12","15145","List1B","black","man","","","","","{""Q0"":""kate is touching ruth""}","<img src=""stim_listB/touch7.gif""style=""height:400px;""></stim_listB>","is touching","","","","","",""
"null","<div style=""font-size:60px;"">+</div>","","html-keyboard-response","376","897701","0.0-19.0-0.13","15145","List1B","black","man","","","","null","","","","","","","","",""
"null","<img src=""stim_listB/touch3.gif""style=""height:400px;""></stim_listB>","","html-keyboard-response","377","899702","0.0-19.0-1.13","15145","List1B","black","man","","","","null","","","","","","","","",""
"null","is touching","","html-keyboard-response","378","901707","0.0-19.0-2.13","15145","List1B","black","man","","","","null","","","","","","","","",""
"4123.5999999940395","","","survey-text","379","905832","0.0-19.0-3.13","15145","List1B","black","man","","","","","{""Q0"":""dave is touching jane""}","<img src=""stim_listB/touch3.gif""style=""height:400px;""></stim_listB>","is touching","","","","","",""
"null","<div style=""font-size:60px;"">+</div>","","html-keyboard-response","380","906341","0.0-19.0-0.14","15145","List1B","black","man","","","","null","","","","","","","","",""
"null","<img src=""stim_listB/kiss2.gif""style=""height:400px;""></stim_listB>","","html-keyboard-response","381","908343","0.0-19.0-1.14","15145","List1B","black","man","","","","null","","","","","","","","",""
"null","is being kissed by","","html-keyboard-response","382","910346","0.0-19.0-2.14","15145","List1B","black","man","","","","null","","","","","","","","",""
"3822","","","survey-text","383","914169","0.0-19.0-3.14","15145","List1B","black","man","","","","","{""Q0"":""kate is being kissed by mike""}","<img src=""stim_listB/kiss2.gif""style=""height:400px;""></stim_listB>","is being kissed by","","","","","",""
"null","<div style=""font-size:60px;"">+</div>","","html-keyboard-response","384","914672","0.0-19.0-0.15","15145","List1B","black","man","","","","null","","","","","","","","",""
"null","<img src=""stim_listB/shout6.gif""style=""height:400px;""></stim_listB>","","html-keyboard-response","385","916683","0.0-19.0-1.15","15145","List1B","black","man","","","","null","","","","","","","","",""
"null","is being shouted at by","","html-keyboard-response","386","918695","0.0-19.0-2.15","15145","List1B","black","man","","","","null","","","","","","","","",""
"5169.0999999940395","","","survey-text","387","923865","0.0-19.0-3.15","15145","List1B","black","man","","","","","{""Q0"":""dave is being shouted at by mike""}","<img src=""stim_listB/shout6.gif""style=""height:400px;""></stim_listB>","is being shouted at by","","","","","",""
"null","<div style=""font-size:60px;"">+</div>","","html-keyboard-response","388","924366","0.0-19.0-0.16","15145","List1B","black","man","","","","null","","","","","","","","",""
"null","<img src=""stim_listB/challenge6.gif""style=""height:400px;""></stim_listB>","","html-keyboard-response","389","926368","0.0-19.0-1.16","15145","List1B","black","man","","","","null","","","","","","","","",""
"null","is being challenged by","","html-keyboard-response","390","928371","0.0-19.0-2.16","15145","List1B","black","man","","","","null","","","","","","","","",""
"4358.5999999940395","","","survey-text","391","932732","0.0-19.0-3.16","15145","List1B","black","man","","","","","{""Q0"":""dave is being challenged by fred""}","<img src=""stim_listB/challenge6.gif""style=""height:400px;""></stim_listB>","is being challenged by","","","","","",""
"null","<div style=""font-size:60px;"">+</div>","","html-keyboard-response","392","933244","0.0-19.0-0.17","15145","List1B","black","man","","","","null","","","","","","","","",""
"null","<img src=""stim_listB/oppose4.gif""style=""height:400px;""></stim_listB>","","html-keyboard-response","393","935255","0.0-19.0-1.17","15145","List1B","black","man","","","","null","","","","","","","","",""
"null","is being opposed by","","html-keyboard-response","394","937264","0.0-19.0-2.17","15145","List1B","black","man","","","","null","","","","","","","","",""
"5588.200000017881","","","survey-text","395","942853","0.0-19.0-3.17","15145","List1B","black","man","","","","","{""Q0"":""ruth is being opposed by luke""}","<img src=""stim_listB/oppose4.gif""style=""height:400px;""></stim_listB>","is being opposed by","","","","","",""
"null","<div style=""font-size:60px;"">+</div>","","html-keyboard-response","396","943357","0.0-19.0-0.18","15145","List1B","black","man","","","","null","","","","","","","","",""
"null","<img src=""stim_listB/challenge8.gif""style=""height:400px;""></stim_listB>","","html-keyboard-response","397","945367","0.0-19.0-1.18","15145","List1B","black","man","","","","null","","","","","","","","",""
"null","is being challenged by","","html-keyboard-response","398","947378","0.0-19.0-2.18","15145","List1B","black","man","","","","null","","","","","","","","",""
"4596","","","survey-text","399","951975","0.0-19.0-3.18","15145","List1B","black","man","","","","","{""Q0"":""jane is being challenged by beth""}","<img src=""stim_listB/challenge8.gif""style=""height:400px;""></stim_listB>","is being challenged by","","","","","",""
"null","<div style=""font-size:60px;"">+</div>","","html-keyboard-response","400","952487","0.0-19.0-0.19","15145","List1B","black","man","","","","null","","","","","","","","",""
"null","<img src=""stim_listB/look7.gif""style=""height:400px;""></stim_listB>","","html-keyboard-response","401","954495","0.0-19.0-1.19","15145","List1B","black","man","","","","null","","","","","","","","",""
"null","is looking at","","html-keyboard-response","402","956508","0.0-19.0-2.19","15145","List1B","black","man","","","","null","","","","","","","","",""
"2989.0999999940395","","","survey-text","403","959498","0.0-19.0-3.19","15145","List1B","black","man","","","","","{""Q0"":""beth is looking at ruth""}","<img src=""stim_listB/look7.gif""style=""height:400px;""></stim_listB>","is looking at","","","","","",""
"2789.5","<p>Thank you for completing that task.</p><p>The final part of this session is a questionnaire that will take about 4 minutes.</p><p>Press Continue.</p>","0","html-button-response","404","962288","0.0-20.0","15145","List1B","black","man","","","","","","","","","","","","",""
"33103.19999998808","","","survey-text","405","996394","0.0-21.0","15145","List1B","black","man","","","","","{""Q0"":""24"",""Q1"":""English"",""Q2"":""English"",""Q3"":""USA"",""Q4"":""American"",""Q5"":""Hispanic/Latino"",""Q6"":""Male""}","","","demographics","","","","",""
"1318.5","<p>Have you lived in the USA for the last 5 years or more?</p>","0","html-button-response","406","997714","0.0-22.0","15145","List1B","black","man","","","","","","","","fiveyears","","","","",""
"1286.199999988079","<p>Move the slider to show the extent to which you agree with the following statements.</p>","0","html-button-response","407","1000002","0.0-23.0","15145","List1B","black","man","","","","","","","","","","","","",""
"3540.0999999940395","","","html-slider-response","408","1004544","0.0-24.0-0.0-0.0","15145","List1B","black","man","","","","","","","","survey_gender","71","","","I think that my gender has a lot to be proud of.","proud"
"2415.0999999940395","","","html-slider-response","409","1006960","0.0-24.0-0.0-0.1","15145","List1B","black","man","","","","","","","","survey_gender","17","","","Being my gender is an important part of how I see myself.","important"
"2131.199999988079","","","html-slider-response","410","1009092","0.0-24.0-0.0-0.2","15145","List1B","black","man","","","","","","","","survey_gender","78","","","It is pleasant to be my gender.","pleasant"
"2075.4000000059605","","","html-slider-response","411","1011168","0.0-24.0-0.0-0.3","15145","List1B","black","man","","","","","","","","survey_gender","67","","","I feel solidarity with my friends.","filler"
"2568.7999999821186","","","html-slider-response","412","1013739","0.0-24.0-0.0-0.4","15145","List1B","black","man","","","","","","","","survey_gender","66","","","I am similar to the average person of my gender.","similar"
"2294.5999999940395","","","html-slider-response","413","1016034","0.0-24.0-0.0-0.5","15145","List1B","black","man","","","","","","","","survey_gender","78","","","I am glad to be my gender.","glad"
"2467","","","html-slider-response","414","1018502","0.0-24.0-0.0-0.6","15145","List1B","black","man","","","","","","","","survey_gender","33","","","People of my gender are very similar to each other.","verysimilar"
"2485.4000000059605","","","html-slider-response","415","1020988","0.0-24.0-0.0-0.7","15145","List1B","black","man","","","","","","","","survey_gender","24","","","The fact that I am my gender is an important part of my identity.","identity"
"2562.5","","","html-slider-response","416","1023552","0.0-24.0-0.0-0.8","15145","List1B","black","man","","","","","","","","survey_gender","77","","","I would say I am an animal person.","filler"
"2507.2000000178814","","","html-slider-response","417","1026060","0.0-24.0-0.0-0.9","15145","List1B","black","man","","","","","","","","survey_gender","75","","","Most of the friends in my life are very similar to me.","filler"
"1681.4000000059605","","","html-slider-response","418","1027742","0.0-24.0-0.0-0.10","15145","List1B","black","man","","","","","","","","survey_gender","81","","","I feel solidarity with my gender.","solidarity"
"3299.2999999821186","","","html-slider-response","419","1031042","0.0-24.0-0.0-0.11","15145","List1B","black","man","","","","","","","","survey_gender","100","","","It is not always easy for people to know what I am thinking.","filler"
"2410.5999999940395","","","html-slider-response","420","1033454","0.0-24.0-0.0-0.12","15145","List1B","black","man","","","","","","","","survey_gender","59","","","My friends understand me.","filler"
"2165.0999999940395","","","html-slider-response","421","1035620","0.0-24.0-0.0-0.13","15145","List1B","black","man","","","","","","","","survey_gender","41","","","People of my gender have a lot in common with each other.","common"
"2623.300000011921","","","html-slider-response","422","1038244","0.0-24.0-0.0-0.14","15145","List1B","black","man","","","","","","","","survey_gender","30","","","Routine is not important to me.","filler"
"2275.100000023842","","","html-slider-response","423","1040520","0.0-24.0-0.0-0.15","15145","List1B","black","man","","","","","","","","survey_gender","45","","","I feel a bond with my gender.","bond"
"1625.0999999940395","","","html-slider-response","424","1042146","0.0-24.0-0.0-0.16","15145","List1B","black","man","","","","","","","","survey_gender","80","","","I feel a bond with my friends.","filler"
"3654.600000023842","","","html-slider-response","425","1045802","0.0-24.0-0.0-0.17","15145","List1B","black","man","","","","","","","","survey_gender","87","","","I often think about my actions.","filler"
"2583.199999988079","","","html-slider-response","426","1048386","0.0-24.0-0.0-0.18","15145","List1B","black","man","","","","","","","","survey_gender","78","","","I consider myself a highly empathetic person.","filler"
"3209.7000000178814","","","html-slider-response","427","1051596","0.0-24.0-0.0-0.19","15145","List1B","black","man","","","","","","","","survey_gender","91","","","My friends have a lot in common with each other.","filler"
"1977.5999999940395","","","html-slider-response","428","1053576","0.0-24.0-0.0-0.20","15145","List1B","black","man","","","","","","","","survey_gender","93","","","Being around my friends gives me a good feeling.","filler"
"2303.5","","","html-slider-response","429","1055880","0.0-24.0-0.0-0.21","15145","List1B","black","man","","","","","","","","survey_gender","21","","","Family is not more important to me than friendship.","filler"
"2196.699999988079","","","html-slider-response","430","1058078","0.0-24.0-0.0-0.22","15145","List1B","black","man","","","","","","","","survey_gender","22","","","I feel committed to my gender.","committed"
"1759.9000000059605","","","html-slider-response","431","1059839","0.0-24.0-0.0-0.23","15145","List1B","black","man","","","","","","","","survey_gender","90","","","I am glad to have the friends that I have.","filler"
"2146.699999988079","","","html-slider-response","432","1061986","0.0-24.0-0.0-0.24","15145","List1B","black","man","","","","","","","","survey_gender","24","","","I often think about the fact that I am my gender.","often"
"1945.2999999821186","","","html-slider-response","433","1063932","0.0-24.0-0.0-0.25","15145","List1B","black","man","","","","","","","","survey_gender","90","","","I have a lot in common with my friends.","filler"
"2371","","","html-slider-response","434","1066304","0.0-24.0-0.0-0.26","15145","List1B","black","man","","","","","","","","survey_gender","57","","","I have a lot in common with the average person of my gender.","average"
"1822.800000011921","","","html-slider-response","435","1068128","0.0-24.0-0.0-0.27","15145","List1B","black","man","","","","","","","","survey_gender","43","","","Being my gender gives me a good feeling.","feeling"
"1711.5","","","html-slider-response","436","1069840","0.0-24.0-1.0-0.0","15145","List1B","black","man","","","","","","","","survey_race","87","","","I am glad to be the age I am.","filler"
"1841","","","html-slider-response","437","1071682","0.0-24.0-1.0-0.1","15145","List1B","black","man","","","","","","","","survey_race","91","","","I think that my race has a lot to be proud of.","proud"
"1607.7000000178814","","","html-slider-response","438","1073290","0.0-24.0-1.0-0.2","15145","List1B","black","man","","","","","","","","survey_race","100","","","I am glad to be my age.","filler"
"3322.699999988079","","","html-slider-response","439","1076614","0.0-24.0-1.0-0.3","15145","List1B","black","man","","","","","","","","survey_race","37","","","I feel solidarity with people the same age as me.","filler"
"1790","","","html-slider-response","440","1078406","0.0-24.0-1.0-0.4","15145","List1B","black","man","","","","","","","","survey_race","36","","","Being my race is an important part of how I see myself.","important"
"1901","","","html-slider-response","441","1080308","0.0-24.0-1.0-0.5","15145","List1B","black","man","","","","","","","","survey_race","69","","","I often think about the fact that I am my race.","often"
"2563.800000011921","","","html-slider-response","442","1082872","0.0-24.0-1.0-0.6","15145","List1B","black","man","","","","","","","","survey_race","67","","","The older I get, the wiser I feel.","filler"
"1842.699999988079","","","html-slider-response","443","1084716","0.0-24.0-1.0-0.7","15145","List1B","black","man","","","","","","","","survey_race","37","","","People of my race are very similar to each other.","verysimilar"
"1796.4000000059605","","","html-slider-response","444","1086514","0.0-24.0-1.0-0.8","15145","List1B","black","man","","","","","","","","survey_race","74","","","I have a lot in common with people of a similar age to me.","filler"
"2215.2000000178814","","","html-slider-response","445","1088730","0.0-24.0-1.0-0.9","15145","List1B","black","man","","","","","","","","survey_race","37","","","My age is not an important part of who I am.","filler"
"2374.4000000059605","","","html-slider-response","446","1091106","0.0-24.0-1.0-0.10","15145","List1B","black","man","","","","","","","","survey_race","40","","","I feel a bond with people the same age as me.","filler"
"1851.199999988079","","","html-slider-response","447","1092958","0.0-24.0-1.0-0.11","15145","List1B","black","man","","","","","","","","survey_race","73","","","I feel a bond with my race.","bond"
"2209.0999999940395","","","html-slider-response","448","1095168","0.0-24.0-1.0-0.12","15145","List1B","black","man","","","","","","","","survey_race","38","","","I feel solidarity with my race.","solidarity"
"2331.2999999821186","","","html-slider-response","449","1097500","0.0-24.0-1.0-0.13","15145","List1B","black","man","","","","","","","","survey_race","15","","","I consider myself an extrovert.","filler"
"1654.2999999821186","","","html-slider-response","450","1099156","0.0-24.0-1.0-0.14","15145","List1B","black","man","","","","","","","","survey_race","30","","","I feel committed to my race.","committed"
"1834.5","","","html-slider-response","451","1100992","0.0-24.0-1.0-0.15","15145","List1B","black","man","","","","","","","","survey_race","18","","","I enjoy being in large groups.","filler"
"1881.0999999940395","","","html-slider-response","452","1102874","0.0-24.0-1.0-0.16","15145","List1B","black","man","","","","","","","","survey_race","54","","","Being my race gives me a good feeling.","feeling"
"1535.300000011921","","","html-slider-response","453","1104410","0.0-24.0-1.0-0.17","15145","List1B","black","man","","","","","","","","survey_race","56","","","It is pleasant to be my race.","pleasant"
"1807.2000000178814","","","html-slider-response","454","1106218","0.0-24.0-1.0-0.18","15145","List1B","black","man","","","","","","","","survey_race","78","","","I often think about the fact that I am my age.","filler"
"3169.5","","","html-slider-response","455","1109388","0.0-24.0-1.0-0.19","15145","List1B","black","man","","","","","","","","survey_race","37","","","I have a lot in common with the average person of my race.","average"
"3075.2999999821186","","","html-slider-response","456","1112464","0.0-24.0-1.0-0.20","15145","List1B","black","man","","","","","","","","survey_race","55","","","People of my race have a lot in common with each other.","common"
"2583.0999999940395","","","html-slider-response","457","1115048","0.0-24.0-1.0-0.21","15145","List1B","black","man","","","","","","","","survey_race","42","","","The fact that I am my race is an important part of my identity.","identity"
"2216.5","","","html-slider-response","458","1117266","0.0-24.0-1.0-0.22","15145","List1B","black","man","","","","","","","","survey_race","88","","","I consider myself an introvert.","filler"
"2011.7999999821186","","","html-slider-response","459","1119278","0.0-24.0-1.0-0.23","15145","List1B","black","man","","","","","","","","survey_race","63","","","I am similar to the average person of my race.","similar"
"1994.8999999761581","","","html-slider-response","460","1121274","0.0-24.0-1.0-0.24","15145","List1B","black","man","","","","","","","","survey_race","70","","","People my age have a lot in common with each other.","filler"
"2945.4000000059605","","","html-slider-response","461","1124220","0.0-24.0-1.0-0.25","15145","List1B","black","man","","","","","","","","survey_race","30","","","Getting older does not worry me.","filler"
"1671.4000000059605","","","html-slider-response","462","1125892","0.0-24.0-1.0-0.26","15145","List1B","black","man","","","","","","","","survey_race","55","","","I am glad to be my race.","glad"
"1547.2999999821186","","","html-slider-response","463","1127440","0.0-24.0-1.0-0.27","15145","List1B","black","man","","","","","","","","survey_race","84","","","Being my age gives me a good feeling.","filler"
"3102.2999999821186","","","survey-text","464","1130544","0.0-25.0","15145","List1B","black","man","","","","","{""Q0"":""6048622d518a190008dfbe38""}","","","worker_id","","","","",""
"4526.5","","","external-html","465","1135466","0.0-26.0","15145","List1B","black","man","debrief.html","","","","","","","","","","","",""
