"rt","stimulus","button_pressed","trial_type","trial_index","time_elapsed","internal_node_id","subject","list","ppt_race","ppt_gender","url","first_guess","correct","key_press","responses","image_type","phrase_type","test_part","response","stimulus1","stimulus2","question_type","survey_item"
"13540.600000023842","Welcome to the experiment. Press Continue to begin.","0","html-button-response","0","13556","0.0-0.0","15639","List2B","black","woman","","","","","","","","","","","","",""
"11315.399999976158","","","external-html","1","26995","0.0-1.0","15639","List2B","black","woman","consent.html","","","","","","","","","","","",""
"22653.100000023842","<p>On the next page, you will see portraits of 8 people and their names.</p><p>Your first task is to take a few minutes to memorise the names of these people.</p><p>You will have to recall their names during the rest of the experiment, so it is</p><p>essential that you try to memorise these people and their names as best as you can.</p><br><p><strong>You will then be tested on your memory of these names and portraits.</strong></p><br><p>The experiment will start after you have completed this memory test.</p><br><p>Ready?</p>","0","html-button-response","2","49650","0.0-2.0","15639","List2B","black","woman","","","","","","","","","","","","",""
"64948.699999928474","<img src='img/portrait_matrix_list2.jpg' style='width:900px;height:500px;''></img><p>If you have memorised all the portraits and names and are ready to start, press Continue.</p><p><strong>Please note: Your memory of these faces will be tested 4 times during this experiment.</strong></p>","0","html-button-response","3","115601","0.0-3.0-0.0","15639","List2B","black","woman","","","","","","","","","","","","",""
"9832.200000047684","<img src=""portrait/BM1.jpg""style=""height:400px;""></img>","4","html-button-response","4","126450","0.0-3.0-1.0","15639","List2B","black","woman","","true","4","","","","","","","","","",""
"null","CORRECT","","html-keyboard-response","5","127954","0.0-3.0-2.0-0.0","15639","List2B","black","woman","","","","null","","","","","","","","",""
"5901.5","<img src=""portrait/WW1.jpg""style=""height:400px;""></img>","6","html-button-response","6","133857","0.0-3.0-4.0","15639","List2B","black","woman","","true","1","","","","","","","","","",""
"5660.899999976158","<img src=""portrait/WW1.jpg""style=""height:400px;""></img>","1","html-button-response","7","140521","0.0-3.0-6.0-0.0","15639","List2B","black","woman","","false","1","","","","","","","","","",""
"null","CORRECT","","html-keyboard-response","8","142025","0.0-3.0-6.0-1.0-0.0","15639","List2B","black","woman","","","","null","","","","","","","","",""
"5942.799999952316","<img src=""portrait/WM2.jpg""style=""height:400px;""></img>","7","html-button-response","9","147969","0.0-3.0-7.0","15639","List2B","black","woman","","true","7","","","","","","","","","",""
"null","CORRECT","","html-keyboard-response","10","149477","0.0-3.0-8.0-0.0","15639","List2B","black","woman","","","","null","","","","","","","","",""
"6154.699999928474","<img src=""portrait/BM2.jpg""style=""height:400px;""></img>","5","html-button-response","11","155633","0.0-3.0-10.0","15639","List2B","black","woman","","true","5","","","","","","","","","",""
"null","CORRECT","","html-keyboard-response","12","157150","0.0-3.0-11.0-0.0","15639","List2B","black","woman","","","","null","","","","","","","","",""
"5481.599999904633","<img src=""portrait/WW2.jpg""style=""height:400px;""></img>","3","html-button-response","13","162633","0.0-3.0-13.0","15639","List2B","black","woman","","true","3","","","","","","","","","",""
"null","CORRECT","","html-keyboard-response","14","164145","0.0-3.0-14.0-0.0","15639","List2B","black","woman","","","","null","","","","","","","","",""
"4246.200000047684","<img src=""portrait/WM1.jpg""style=""height:400px;""></img>","6","html-button-response","15","168393","0.0-3.0-16.0","15639","List2B","black","woman","","true","6","","","","","","","","","",""
"null","CORRECT","","html-keyboard-response","16","169896","0.0-3.0-17.0-0.0","15639","List2B","black","woman","","","","null","","","","","","","","",""
"5407.700000047684","<img src=""portrait/BW1.jpg""style=""height:400px;""></img>","0","html-button-response","17","175305","0.0-3.0-19.0","15639","List2B","black","woman","","true","0","","","","","","","","","",""
"null","CORRECT","","html-keyboard-response","18","176808","0.0-3.0-20.0-0.0","15639","List2B","black","woman","","","","null","","","","","","","","",""
"10191.799999952316","<img src=""portrait/BW2.jpg""style=""height:400px;""></img>","2","html-button-response","19","187001","0.0-3.0-22.0","15639","List2B","black","woman","","true","2","","","","","","","","","",""
"null","CORRECT","","html-keyboard-response","20","188511","0.0-3.0-23.0-0.0","15639","List2B","black","woman","","","","null","","","","","","","","",""
"5983.399999976158","<p>You got 7 out of 8 right first time. Press Continue.</p>","0","html-button-response","21","194496","0.0-3.0-25.0","15639","List2B","black","woman","","","","","","","","","","","","",""
"5680.299999952316","As you did not score 100%, the memory game will repeat. Press Continue.","0","html-button-response","22","201184","0.0-3.0-26.0-0.0","15639","List2B","black","woman","","","","","","","","","","","","",""
"5764.299999952316","<img src='img/portrait_matrix_list2.jpg' style='width:900px;height:500px;''></img><p>If you have memorised all the portraits and names and are ready to start, press Continue.</p><p><strong>Please note: Your memory of these faces will be tested 4 times during this experiment.</strong></p>","0","html-button-response","23","207952","0.0-3.1-0.1","15639","List2B","black","woman","","","","","","","","","","","","",""
"4149.900000095367","<img src=""portrait/BM1.jpg""style=""height:400px;""></img>","4","html-button-response","24","213104","0.0-3.1-1.1","15639","List2B","black","woman","","true","4","","","","","","","","","",""
"null","CORRECT","","html-keyboard-response","25","214608","0.0-3.1-2.1-0.1","15639","List2B","black","woman","","","","null","","","","","","","","",""
"3207.4000000953674","<img src=""portrait/WW1.jpg""style=""height:400px;""></img>","1","html-button-response","26","217816","0.0-3.1-4.1","15639","List2B","black","woman","","true","1","","","","","","","","","",""
"null","CORRECT","","html-keyboard-response","27","219334","0.0-3.1-5.1-0.1","15639","List2B","black","woman","","","","null","","","","","","","","",""
"3177.0999999046326","<img src=""portrait/WM2.jpg""style=""height:400px;""></img>","7","html-button-response","28","222513","0.0-3.1-7.1","15639","List2B","black","woman","","true","7","","","","","","","","","",""
"null","CORRECT","","html-keyboard-response","29","224024","0.0-3.1-8.1-0.1","15639","List2B","black","woman","","","","null","","","","","","","","",""
"4926.399999976158","<img src=""portrait/BM2.jpg""style=""height:400px;""></img>","6","html-button-response","30","228952","0.0-3.1-10.1","15639","List2B","black","woman","","true","5","","","","","","","","","",""
"5748.699999928474","<img src=""portrait/BM2.jpg""style=""height:400px;""></img>","5","html-button-response","31","235704","0.0-3.1-12.1-0.1","15639","List2B","black","woman","","false","5","","","","","","","","","",""
"null","CORRECT","","html-keyboard-response","32","237210","0.0-3.1-12.1-1.1-0.1","15639","List2B","black","woman","","","","null","","","","","","","","",""
"3035.899999976158","<img src=""portrait/WW2.jpg""style=""height:400px;""></img>","3","html-button-response","33","240248","0.0-3.1-13.1","15639","List2B","black","woman","","true","3","","","","","","","","","",""
"null","CORRECT","","html-keyboard-response","34","241751","0.0-3.1-14.1-0.1","15639","List2B","black","woman","","","","null","","","","","","","","",""
"7062.900000095367","<img src=""portrait/WM1.jpg""style=""height:400px;""></img>","6","html-button-response","35","248816","0.0-3.1-16.1","15639","List2B","black","woman","","true","6","","","","","","","","","",""
"null","CORRECT","","html-keyboard-response","36","250320","0.0-3.1-17.1-0.1","15639","List2B","black","woman","","","","null","","","","","","","","",""
"3710.899999976158","<img src=""portrait/BW1.jpg""style=""height:400px;""></img>","0","html-button-response","37","254032","0.0-3.1-19.1","15639","List2B","black","woman","","true","0","","","","","","","","","",""
"null","CORRECT","","html-keyboard-response","38","255536","0.0-3.1-20.1-0.1","15639","List2B","black","woman","","","","null","","","","","","","","",""
"9310.600000023842","<img src=""portrait/BW2.jpg""style=""height:400px;""></img>","2","html-button-response","39","264848","0.0-3.1-22.1","15639","List2B","black","woman","","true","2","","","","","","","","","",""
"null","CORRECT","","html-keyboard-response","40","266351","0.0-3.1-23.1-0.1","15639","List2B","black","woman","","","","null","","","","","","","","",""
"1719.1000000238419","<p>You got 7 out of 8 right first time. Press Continue.</p>","0","html-button-response","41","268072","0.0-3.1-25.1","15639","List2B","black","woman","","","","","","","","","","","","",""
"1701.3999999761581","As you did not score 100%, the memory game will repeat. Press Continue.","0","html-button-response","42","270776","0.0-3.1-26.1-0.1","15639","List2B","black","woman","","","","","","","","","","","","",""
"3808.7000000476837","<img src='img/portrait_matrix_list2.jpg' style='width:900px;height:500px;''></img><p>If you have memorised all the portraits and names and are ready to start, press Continue.</p><p><strong>Please note: Your memory of these faces will be tested 4 times during this experiment.</strong></p>","0","html-button-response","43","275592","0.0-3.2-0.2","15639","List2B","black","woman","","","","","","","","","","","","",""
"2997.100000023842","<img src=""portrait/BM1.jpg""style=""height:400px;""></img>","4","html-button-response","44","279592","0.0-3.2-1.2","15639","List2B","black","woman","","true","4","","","","","","","","","",""
"null","CORRECT","","html-keyboard-response","45","281103","0.0-3.2-2.2-0.2","15639","List2B","black","woman","","","","null","","","","","","","","",""
"3239.5","<img src=""portrait/WW1.jpg""style=""height:400px;""></img>","1","html-button-response","46","284345","0.0-3.2-4.2","15639","List2B","black","woman","","true","1","","","","","","","","","",""
"null","CORRECT","","html-keyboard-response","47","285847","0.0-3.2-5.2-0.2","15639","List2B","black","woman","","","","null","","","","","","","","",""
"3630.899999976158","<img src=""portrait/WM2.jpg""style=""height:400px;""></img>","7","html-button-response","48","289479","0.0-3.2-7.2","15639","List2B","black","woman","","true","7","","","","","","","","","",""
"null","CORRECT","","html-keyboard-response","49","290984","0.0-3.2-8.2-0.2","15639","List2B","black","woman","","","","null","","","","","","","","",""
"3662","<img src=""portrait/BM2.jpg""style=""height:400px;""></img>","5","html-button-response","50","294648","0.0-3.2-10.2","15639","List2B","black","woman","","true","5","","","","","","","","","",""
"null","CORRECT","","html-keyboard-response","51","296161","0.0-3.2-11.2-0.2","15639","List2B","black","woman","","","","null","","","","","","","","",""
"2572.4000000953674","<img src=""portrait/WW2.jpg""style=""height:400px;""></img>","3","html-button-response","52","298735","0.0-3.2-13.2","15639","List2B","black","woman","","true","3","","","","","","","","","",""
"null","CORRECT","","html-keyboard-response","53","300264","0.0-3.2-14.2-0.2","15639","List2B","black","woman","","","","null","","","","","","","","",""
"2557.399999976158","<img src=""portrait/WM1.jpg""style=""height:400px;""></img>","6","html-button-response","54","302823","0.0-3.2-16.2","15639","List2B","black","woman","","true","6","","","","","","","","","",""
"null","CORRECT","","html-keyboard-response","55","304348","0.0-3.2-17.2-0.2","15639","List2B","black","woman","","","","null","","","","","","","","",""
"3104.399999976158","<img src=""portrait/BW1.jpg""style=""height:400px;""></img>","0","html-button-response","56","307455","0.0-3.2-19.2","15639","List2B","black","woman","","true","0","","","","","","","","","",""
"null","CORRECT","","html-keyboard-response","57","308967","0.0-3.2-20.2-0.2","15639","List2B","black","woman","","","","null","","","","","","","","",""
"3438.600000023842","<img src=""portrait/BW2.jpg""style=""height:400px;""></img>","0","html-button-response","58","312407","0.0-3.2-22.2","15639","List2B","black","woman","","true","2","","","","","","","","","",""
"7215.100000023842","<img src=""portrait/BW2.jpg""style=""height:400px;""></img>","2","html-button-response","59","320639","0.0-3.2-24.2-0.2","15639","List2B","black","woman","","false","2","","","","","","","","","",""
"null","CORRECT","","html-keyboard-response","60","322142","0.0-3.2-24.2-1.2-0.2","15639","List2B","black","woman","","","","null","","","","","","","","",""
"1263.6000000238419","<p>You got 7 out of 8 right first time. Press Continue.</p>","0","html-button-response","61","323407","0.0-3.2-25.2","15639","List2B","black","woman","","","","","","","","","","","","",""
"1325.8000000715256","As you did not score 100%, the memory game will repeat. Press Continue.","0","html-button-response","62","325735","0.0-3.2-26.2-0.2","15639","List2B","black","woman","","","","","","","","","","","","",""
"2453.5","<img src='img/portrait_matrix_list2.jpg' style='width:900px;height:500px;''></img><p>If you have memorised all the portraits and names and are ready to start, press Continue.</p><p><strong>Please note: Your memory of these faces will be tested 4 times during this experiment.</strong></p>","0","html-button-response","63","329191","0.0-3.3-0.3","15639","List2B","black","woman","","","","","","","","","","","","",""
"2517.5","<img src=""portrait/BM1.jpg""style=""height:400px;""></img>","4","html-button-response","64","332711","0.0-3.3-1.3","15639","List2B","black","woman","","true","4","","","","","","","","","",""
"null","CORRECT","","html-keyboard-response","65","334219","0.0-3.3-2.3-0.3","15639","List2B","black","woman","","","","null","","","","","","","","",""
"2858.899999976158","<img src=""portrait/WW1.jpg""style=""height:400px;""></img>","1","html-button-response","66","337079","0.0-3.3-4.3","15639","List2B","black","woman","","true","1","","","","","","","","","",""
"null","CORRECT","","html-keyboard-response","67","338598","0.0-3.3-5.3-0.3","15639","List2B","black","woman","","","","null","","","","","","","","",""
"3823.7999999523163","<img src=""portrait/WM2.jpg""style=""height:400px;""></img>","7","html-button-response","68","342423","0.0-3.3-7.3","15639","List2B","black","woman","","true","7","","","","","","","","","",""
"null","CORRECT","","html-keyboard-response","69","343928","0.0-3.3-8.3-0.3","15639","List2B","black","woman","","","","null","","","","","","","","",""
"2221.2999999523163","<img src=""portrait/BM2.jpg""style=""height:400px;""></img>","5","html-button-response","70","346151","0.0-3.3-10.3","15639","List2B","black","woman","","true","5","","","","","","","","","",""
"null","CORRECT","","html-keyboard-response","71","347661","0.0-3.3-11.3-0.3","15639","List2B","black","woman","","","","null","","","","","","","","",""
"2273.100000023842","<img src=""portrait/WW2.jpg""style=""height:400px;""></img>","3","html-button-response","72","349935","0.0-3.3-13.3","15639","List2B","black","woman","","true","3","","","","","","","","","",""
"null","CORRECT","","html-keyboard-response","73","351448","0.0-3.3-14.3-0.3","15639","List2B","black","woman","","","","null","","","","","","","","",""
"3597.100000023842","<img src=""portrait/WM1.jpg""style=""height:400px;""></img>","6","html-button-response","74","355047","0.0-3.3-16.3","15639","List2B","black","woman","","true","6","","","","","","","","","",""
"null","CORRECT","","html-keyboard-response","75","356565","0.0-3.3-17.3-0.3","15639","List2B","black","woman","","","","null","","","","","","","","",""
"3640","<img src=""portrait/BW1.jpg""style=""height:400px;""></img>","0","html-button-response","76","360207","0.0-3.3-19.3","15639","List2B","black","woman","","true","0","","","","","","","","","",""
"null","CORRECT","","html-keyboard-response","77","361723","0.0-3.3-20.3-0.3","15639","List2B","black","woman","","","","null","","","","","","","","",""
"3738.899999976158","<img src=""portrait/BW2.jpg""style=""height:400px;""></img>","2","html-button-response","78","365463","0.0-3.3-22.3","15639","List2B","black","woman","","true","2","","","","","","","","","",""
"null","CORRECT","","html-keyboard-response","79","366977","0.0-3.3-23.3-0.3","15639","List2B","black","woman","","","","null","","","","","","","","",""
"1308.1000000238419","<p>You got 8 out of 8 right first time. Press Continue.</p>","0","html-button-response","80","368286","0.0-3.3-25.3","15639","List2B","black","woman","","","","","","","","","","","","",""
"82588.70000004768","<p>In this experiment, you will view photographs of the people from the memory game interacting.</p><p>By using the <strong>exact</strong> phrase given <i>after</i> the photograph appears and recalling the correct names of the people in the photographs, form a sentence describing the interaction. You do not need to capitalise names.</p><p>Type your answer in the space provided. Please complete every sentence before moving onto the next trial.</p><p>You will only have a few seconds to memorise each given photograph and phrase before you can respond, so try your best to focus.</p><p>An example is given below. Press 'Continue' when you are ready.</p><img src='img/speaking_example.jpg' style='width:800px;height:460px;''></img>","0","html-button-response","81","451877","0.0-4.0","15639","List2B","black","woman","","","","","","","","","","","","",""
"3155.1999999284744","<p>Before the experiment starts, you will watch two example trials. Press 'Continue'.</p>","0","html-button-response","82","456037","0.0-5.0","15639","List2B","black","woman","","","","","","","","","","","","",""
"null","<img src='img/play_eg.gif' style='height:400px;''></img>","","html-keyboard-response","83","459040","0.0-6.0","15639","List2B","black","woman","","","","null","","","","","","","","",""
"null","<p>is playing with</p>","","html-keyboard-response","84","461043","0.0-7.0","15639","List2B","black","woman","","","","null","","","","","","","","",""
"13432.5","<p><b>Answer:</b> jane is playing with ruth</p>","0","html-button-response","85","474477","0.0-8.0","15639","List2B","black","woman","","","","","","","","","","","","",""
"null","<img src='img/dance_eg.gif' style='height:400px;''></img>","","html-keyboard-response","86","477485","0.0-9.0","15639","List2B","black","woman","","","","null","","","","","","","","",""
"null","<p>is being entertained by</p>","","html-keyboard-response","87","479486","0.0-10.0","15639","List2B","black","woman","","","","null","","","","","","","","",""
"6613.900000095367","<p><b>Answer:</b> fred is being entertained by mike</p>","0","html-button-response","88","486101","0.0-11.0","15639","List2B","black","woman","","","","","","","","","","","","",""
"10199.899999976158","<p>Ready to start the experiment?</p><br><p><strong>Remember to describe the picture using a full sentence,</strong></p><p><strong>that combines the names of the people with the <i>exact</i> phrase given.</strong></p><p><strong>To receive full payment you must do this correctly.</strong></p><p><strong> You do not need to capitalise names or use punctuation.</strong></p><br><p>Press 'Continue' to begin.</p>","0","html-button-response","89","497317","0.0-12.0","15639","List2B","black","woman","","","","","","","","","","","","",""
"null","<div style=""font-size:60px;"">+</div>","","html-keyboard-response","90","498835","0.0-13.0-0.0","15639","List2B","black","woman","","","","null","","","","","","","","",""
"null","<img src=""stim_listB/shout6.gif""style=""height:400px;""></stim_listB>","","html-keyboard-response","91","500848","0.0-13.0-1.0","15639","List2B","black","woman","","","","null","","","","","","","","",""
"null","is being shouted at by","","html-keyboard-response","92","502850","0.0-13.0-2.0","15639","List2B","black","woman","","","","null","","","","","","","","",""
"35192.200000047684","","","survey-text","93","538045","0.0-13.0-3.0","15639","List2B","black","woman","","","","","{""Q0"":""mike shouting at Dave""}","<img src=""stim_listB/shout6.gif""style=""height:400px;""></stim_listB>","is being shouted at by","","","","","",""
"null","<div style=""font-size:60px;"">+</div>","","html-keyboard-response","94","538548","0.0-13.0-0.1","15639","List2B","black","woman","","","","null","","","","","","","","",""
"null","<img src=""stim_listB/challenge1.gif""style=""height:400px;""></stim_listB>","","html-keyboard-response","95","540555","0.0-13.0-1.1","15639","List2B","black","woman","","","","null","","","","","","","","",""
"null","is challenging","","html-keyboard-response","96","542559","0.0-13.0-2.1","15639","List2B","black","woman","","","","null","","","","","","","","",""
"30122.299999952316","","","survey-text","97","572684","0.0-13.0-3.1","15639","List2B","black","woman","","","","","{""Q0"":""luke was challenging ruth""}","<img src=""stim_listB/challenge1.gif""style=""height:400px;""></stim_listB>","is challenging","","","","","",""
"null","<div style=""font-size:60px;"">+</div>","","html-keyboard-response","98","573187","0.0-13.0-0.2","15639","List2B","black","woman","","","","null","","","","","","","","",""
"null","<img src=""stim_listB/greet5.gif""style=""height:400px;""></stim_listB>","","html-keyboard-response","99","575188","0.0-13.0-1.2","15639","List2B","black","woman","","","","null","","","","","","","","",""
"null","is greeting","","html-keyboard-response","100","577191","0.0-13.0-2.2","15639","List2B","black","woman","","","","null","","","","","","","","",""
"19170","","","survey-text","101","596364","0.0-13.0-3.2","15639","List2B","black","woman","","","","","{""Q0"":""fred is greeting dave""}","<img src=""stim_listB/greet5.gif""style=""height:400px;""></stim_listB>","is greeting","","","","","",""
"null","<div style=""font-size:60px;"">+</div>","","html-keyboard-response","102","596872","0.0-13.0-0.3","15639","List2B","black","woman","","","","null","","","","","","","","",""
"null","<img src=""stim_listB/touch8.gif""style=""height:400px;""></stim_listB>","","html-keyboard-response","103","598874","0.0-13.0-1.3","15639","List2B","black","woman","","","","null","","","","","","","","",""
"null","is being touched by","","html-keyboard-response","104","600886","0.0-13.0-2.3","15639","List2B","black","woman","","","","null","","","","","","","","",""
"28091.5","","","survey-text","105","628979","0.0-13.0-3.3","15639","List2B","black","woman","","","","","{""Q0"":""beth is being touched by ruth""}","<img src=""stim_listB/touch8.gif""style=""height:400px;""></stim_listB>","is being touched by","","","","","",""
"null","<div style=""font-size:60px;"">+</div>","","html-keyboard-response","106","629488","0.0-13.0-0.4","15639","List2B","black","woman","","","","null","","","","","","","","",""
"null","<img src=""stim_listB/look1.gif""style=""height:400px;""></stim_listB>","","html-keyboard-response","107","631491","0.0-13.0-1.4","15639","List2B","black","woman","","","","null","","","","","","","","",""
"null","is looking at","","html-keyboard-response","108","633492","0.0-13.0-2.4","15639","List2B","black","woman","","","","null","","","","","","","","",""
"13541.100000023842","","","survey-text","109","647035","0.0-13.0-3.4","15639","List2B","black","woman","","","","","{""Q0"":""luke is looking at ruth""}","<img src=""stim_listB/look1.gif""style=""height:400px;""></stim_listB>","is looking at","","","","","",""
"null","<div style=""font-size:60px;"">+</div>","","html-keyboard-response","110","647545","0.0-13.0-0.5","15639","List2B","black","woman","","","","null","","","","","","","","",""
"null","<img src=""stim_listB/oppose8.gif""style=""height:400px;""></stim_listB>","","html-keyboard-response","111","649560","0.0-13.0-1.5","15639","List2B","black","woman","","","","null","","","","","","","","",""
"null","is being opposed by","","html-keyboard-response","112","651572","0.0-13.0-2.5","15639","List2B","black","woman","","","","null","","","","","","","","",""
"22108.899999976158","","","survey-text","113","673683","0.0-13.0-3.5","15639","List2B","black","woman","","","","","{""Q0"":""beth is being opposed by ruth""}","<img src=""stim_listB/oppose8.gif""style=""height:400px;""></stim_listB>","is being opposed by","","","","","",""
"null","<div style=""font-size:60px;"">+</div>","","html-keyboard-response","114","674190","0.0-13.0-0.6","15639","List2B","black","woman","","","","null","","","","","","","","",""
"null","<img src=""stim_listB/greet4.gif""style=""height:400px;""></stim_listB>","","html-keyboard-response","115","676192","0.0-13.0-1.6","15639","List2B","black","woman","","","","null","","","","","","","","",""
"null","is being greeted by","","html-keyboard-response","116","678193","0.0-13.0-2.6","15639","List2B","black","woman","","","","null","","","","","","","","",""
"17774.899999976158","","","survey-text","117","695971","0.0-13.0-3.6","15639","List2B","black","woman","","","","","{""Q0"":"" beth is greeting fred""}","<img src=""stim_listB/greet4.gif""style=""height:400px;""></stim_listB>","is being greeted by","","","","","",""
"null","<div style=""font-size:60px;"">+</div>","","html-keyboard-response","118","696474","0.0-13.0-0.7","15639","List2B","black","woman","","","","null","","","","","","","","",""
"null","<img src=""stim_listB/touch2.gif""style=""height:400px;""></stim_listB>","","html-keyboard-response","119","698490","0.0-13.0-1.7","15639","List2B","black","woman","","","","null","","","","","","","","",""
"null","is being touched by","","html-keyboard-response","120","700491","0.0-13.0-2.7","15639","List2B","black","woman","","","","null","","","","","","","","",""
"29765.600000023842","","","survey-text","121","730258","0.0-13.0-3.7","15639","List2B","black","woman","","","","","{""Q0"":""luke is being touched by ruth""}","<img src=""stim_listB/touch2.gif""style=""height:400px;""></stim_listB>","is being touched by","","","","","",""
"null","<div style=""font-size:60px;"">+</div>","","html-keyboard-response","122","730762","0.0-13.0-0.8","15639","List2B","black","woman","","","","null","","","","","","","","",""
"null","<img src=""stim_listB/shout8.gif""style=""height:400px;""></stim_listB>","","html-keyboard-response","123","732775","0.0-13.0-1.8","15639","List2B","black","woman","","","","null","","","","","","","","",""
"null","is being shouted at by","","html-keyboard-response","124","734783","0.0-13.0-2.8","15639","List2B","black","woman","","","","null","","","","","","","","",""
"36696.5","","","survey-text","125","771482","0.0-13.0-3.8","15639","List2B","black","woman","","","","","{""Q0"":""beth is shouting at kate""}","<img src=""stim_listB/shout8.gif""style=""height:400px;""></stim_listB>","is being shouted at by","","","","","",""
"null","<div style=""font-size:60px;"">+</div>","","html-keyboard-response","126","771986","0.0-13.0-0.9","15639","List2B","black","woman","","","","null","","","","","","","","",""
"null","<img src=""stim_listB/look7.gif""style=""height:400px;""></stim_listB>","","html-keyboard-response","127","773993","0.0-13.0-1.9","15639","List2B","black","woman","","","","null","","","","","","","","",""
"null","is looking at","","html-keyboard-response","128","776009","0.0-13.0-2.9","15639","List2B","black","woman","","","","null","","","","","","","","",""
"13446","","","survey-text","129","789458","0.0-13.0-3.9","15639","List2B","black","woman","","","","","{""Q0"":""beth is looking at jane""}","<img src=""stim_listB/look7.gif""style=""height:400px;""></stim_listB>","is looking at","","","","","",""
"null","<div style=""font-size:60px;"">+</div>","","html-keyboard-response","130","789960","0.0-13.0-0.10","15639","List2B","black","woman","","","","null","","","","","","","","",""
"null","<img src=""stim_listB/look5.gif""style=""height:400px;""></stim_listB>","","html-keyboard-response","131","791962","0.0-13.0-1.10","15639","List2B","black","woman","","","","null","","","","","","","","",""
"null","is looking at","","html-keyboard-response","132","793976","0.0-13.0-2.10","15639","List2B","black","woman","","","","null","","","","","","","","",""
"29662.700000047684","","","survey-text","133","823641","0.0-13.0-3.10","15639","List2B","black","woman","","","","","{""Q0"":""luke is looking at fred""}","<img src=""stim_listB/look5.gif""style=""height:400px;""></stim_listB>","is looking at","","","","","",""
"null","<div style=""font-size:60px;"">+</div>","","html-keyboard-response","134","824148","0.0-13.0-0.11","15639","List2B","black","woman","","","","null","","","","","","","","",""
"null","<img src=""stim_listB/shout7.gif""style=""height:400px;""></stim_listB>","","html-keyboard-response","135","826158","0.0-13.0-1.11","15639","List2B","black","woman","","","","null","","","","","","","","",""
"null","is shouting at","","html-keyboard-response","136","828172","0.0-13.0-2.11","15639","List2B","black","woman","","","","null","","","","","","","","",""
"25762.799999952316","","","survey-text","137","853937","0.0-13.0-3.11","15639","List2B","black","woman","","","","","{""Q0"":""beth is shouting at jane""}","<img src=""stim_listB/shout7.gif""style=""height:400px;""></stim_listB>","is shouting at","","","","","",""
"null","<div style=""font-size:60px;"">+</div>","","html-keyboard-response","138","854444","0.0-13.0-0.12","15639","List2B","black","woman","","","","null","","","","","","","","",""
"null","<img src=""stim_listB/greet1.gif""style=""height:400px;""></stim_listB>","","html-keyboard-response","139","856449","0.0-13.0-1.12","15639","List2B","black","woman","","","","null","","","","","","","","",""
"null","is greeting","","html-keyboard-response","140","858454","0.0-13.0-2.12","15639","List2B","black","woman","","","","null","","","","","","","","",""
"16129.599999904633","","","survey-text","141","874585","0.0-13.0-3.12","15639","List2B","black","woman","","","","","{""Q0"":""dave is greeting ruth""}","<img src=""stim_listB/greet1.gif""style=""height:400px;""></stim_listB>","is greeting","","","","","",""
"null","<div style=""font-size:60px;"">+</div>","","html-keyboard-response","142","875086","0.0-13.0-0.13","15639","List2B","black","woman","","","","null","","","","","","","","",""
"null","<img src=""stim_listB/copy3.gif""style=""height:400px;""></stim_listB>","","html-keyboard-response","143","877088","0.0-13.0-1.13","15639","List2B","black","woman","","","","null","","","","","","","","",""
"null","is copying","","html-keyboard-response","144","879098","0.0-13.0-2.13","15639","List2B","black","woman","","","","null","","","","","","","","",""
"21028.600000023842","","","survey-text","145","900128","0.0-13.0-3.13","15639","List2B","black","woman","","","","","{""Q0"":""ruth is looking at beth""}","<img src=""stim_listB/copy3.gif""style=""height:400px;""></stim_listB>","is copying","","","","","",""
"null","<div style=""font-size:60px;"">+</div>","","html-keyboard-response","146","900631","0.0-13.0-0.14","15639","List2B","black","woman","","","","null","","","","","","","","",""
"null","<img src=""stim_listB/touch1.gif""style=""height:400px;""></stim_listB>","","html-keyboard-response","147","902643","0.0-13.0-1.14","15639","List2B","black","woman","","","","null","","","","","","","","",""
"null","is touching","","html-keyboard-response","148","904644","0.0-13.0-2.14","15639","List2B","black","woman","","","","null","","","","","","","","",""
"11769.799999952316","","","survey-text","149","916416","0.0-13.0-3.14","15639","List2B","black","woman","","","","","{""Q0"":""dave is touching jane""}","<img src=""stim_listB/touch1.gif""style=""height:400px;""></stim_listB>","is touching","","","","","",""
"null","<div style=""font-size:60px;"">+</div>","","html-keyboard-response","150","916918","0.0-13.0-0.15","15639","List2B","black","woman","","","","null","","","","","","","","",""
"null","<img src=""stim_listB/look2.gif""style=""height:400px;""></stim_listB>","","html-keyboard-response","151","918923","0.0-13.0-1.15","15639","List2B","black","woman","","","","null","","","","","","","","",""
"null","is being looked at by","","html-keyboard-response","152","920938","0.0-13.0-2.15","15639","List2B","black","woman","","","","null","","","","","","","","",""
"14484","","","survey-text","153","935424","0.0-13.0-3.15","15639","List2B","black","woman","","","","","{""Q0"":""jane is looked by dave""}","<img src=""stim_listB/look2.gif""style=""height:400px;""></stim_listB>","is being looked at by","","","","","",""
"null","<div style=""font-size:60px;"">+</div>","","html-keyboard-response","154","935927","0.0-13.0-0.16","15639","List2B","black","woman","","","","null","","","","","","","","",""
"null","<img src=""stim_listB/kiss4.gif""style=""height:400px;""></stim_listB>","","html-keyboard-response","155","937929","0.0-13.0-1.16","15639","List2B","black","woman","","","","null","","","","","","","","",""
"null","is being kissed by","","html-keyboard-response","156","939932","0.0-13.0-2.16","15639","List2B","black","woman","","","","null","","","","","","","","",""
"34729.700000047684","","","survey-text","157","974664","0.0-13.0-3.16","15639","List2B","black","woman","","","","","{""Q0"":""dave kissed kate ""}","<img src=""stim_listB/kiss4.gif""style=""height:400px;""></stim_listB>","is being kissed by","","","","","",""
"null","<div style=""font-size:60px;"">+</div>","","html-keyboard-response","158","975167","0.0-13.0-0.17","15639","List2B","black","woman","","","","null","","","","","","","","",""
"null","<img src=""stim_listB/kiss8.gif""style=""height:400px;""></stim_listB>","","html-keyboard-response","159","977180","0.0-13.0-1.17","15639","List2B","black","woman","","","","null","","","","","","","","",""
"null","is being kissed by","","html-keyboard-response","160","979191","0.0-13.0-2.17","15639","List2B","black","woman","","","","null","","","","","","","","",""
"24774.5","","","survey-text","161","1003967","0.0-13.0-3.17","15639","List2B","black","woman","","","","","{""Q0"":""jane is being kissed by kate""}","<img src=""stim_listB/kiss8.gif""style=""height:400px;""></stim_listB>","is being kissed by","","","","","",""
"null","<div style=""font-size:60px;"">+</div>","","html-keyboard-response","162","1004476","0.0-13.0-0.18","15639","List2B","black","woman","","","","null","","","","","","","","",""
"null","<img src=""stim_listB/hug5.gif""style=""height:400px;""></stim_listB>","","html-keyboard-response","163","1006478","0.0-13.0-1.18","15639","List2B","black","woman","","","","null","","","","","","","","",""
"null","is hugging","","html-keyboard-response","164","1008489","0.0-13.0-2.18","15639","List2B","black","woman","","","","null","","","","","","","","",""
"16900.100000023842","","","survey-text","165","1025391","0.0-13.0-3.18","15639","List2B","black","woman","","","","","{""Q0"":""fred hug dave""}","<img src=""stim_listB/hug5.gif""style=""height:400px;""></stim_listB>","is hugging","","","","","",""
"null","<div style=""font-size:60px;"">+</div>","","html-keyboard-response","166","1025895","0.0-13.0-0.19","15639","List2B","black","woman","","","","null","","","","","","","","",""
"null","<img src=""stim_listB/copy4.gif""style=""height:400px;""></stim_listB>","","html-keyboard-response","167","1027903","0.0-13.0-1.19","15639","List2B","black","woman","","","","null","","","","","","","","",""
"null","is being copied by","","html-keyboard-response","168","1029916","0.0-13.0-2.19","15639","List2B","black","woman","","","","null","","","","","","","","",""
"19825.300000071526","","","survey-text","169","1049743","0.0-13.0-3.19","15639","List2B","black","woman","","","","","{""Q0"":""fred is coping kate""}","<img src=""stim_listB/copy4.gif""style=""height:400px;""></stim_listB>","is being copied by","","","","","",""
"20974.100000023842","<img src='img/portrait_matrix_list2.jpg' style='width:900px;height:500px;''></img><p>If you have memorised all the portraits and names and are ready to start, press Continue.</p><p><strong>Please note: Your memory of these faces will be tested 4 times during this experiment.</strong></p>","0","html-button-response","170","1070718","0.0-14.0-0.0","15639","List2B","black","woman","","","","","","","","","","","","",""
"7628.899999976158","<img src=""portrait/WM2.jpg""style=""height:400px;""></img>","7","html-button-response","171","1079358","0.0-14.0-1.0","15639","List2B","black","woman","","true","7","","","","","","","","","",""
"null","CORRECT","","html-keyboard-response","172","1080862","0.0-14.0-2.0-0.0","15639","List2B","black","woman","","","","null","","","","","","","","",""
"2991.100000023842","<img src=""portrait/BW1.jpg""style=""height:400px;""></img>","0","html-button-response","173","1083854","0.0-14.0-4.0","15639","List2B","black","woman","","true","0","","","","","","","","","",""
"null","CORRECT","","html-keyboard-response","174","1085358","0.0-14.0-5.0-0.0","15639","List2B","black","woman","","","","null","","","","","","","","",""
"3575.0999999046326","<img src=""portrait/BM1.jpg""style=""height:400px;""></img>","4","html-button-response","175","1088934","0.0-14.0-7.0","15639","List2B","black","woman","","true","4","","","","","","","","","",""
"null","CORRECT","","html-keyboard-response","176","1090460","0.0-14.0-8.0-0.0","15639","List2B","black","woman","","","","null","","","","","","","","",""
"2745.1999999284744","<img src=""portrait/WW1.jpg""style=""height:400px;""></img>","1","html-button-response","177","1093206","0.0-14.0-10.0","15639","List2B","black","woman","","true","1","","","","","","","","","",""
"null","CORRECT","","html-keyboard-response","178","1094715","0.0-14.0-11.0-0.0","15639","List2B","black","woman","","","","null","","","","","","","","",""
"3097.399999976158","<img src=""portrait/WM1.jpg""style=""height:400px;""></img>","6","html-button-response","179","1097814","0.0-14.0-13.0","15639","List2B","black","woman","","true","6","","","","","","","","","",""
"null","CORRECT","","html-keyboard-response","180","1099331","0.0-14.0-14.0-0.0","15639","List2B","black","woman","","","","null","","","","","","","","",""
"3377.5","<img src=""portrait/BM2.jpg""style=""height:400px;""></img>","5","html-button-response","181","1102710","0.0-14.0-16.0","15639","List2B","black","woman","","true","5","","","","","","","","","",""
"null","CORRECT","","html-keyboard-response","182","1104217","0.0-14.0-17.0-0.0","15639","List2B","black","woman","","","","null","","","","","","","","",""
"3570.899999976158","<img src=""portrait/BW2.jpg""style=""height:400px;""></img>","2","html-button-response","183","1107790","0.0-14.0-19.0","15639","List2B","black","woman","","true","2","","","","","","","","","",""
"null","CORRECT","","html-keyboard-response","184","1109293","0.0-14.0-20.0-0.0","15639","List2B","black","woman","","","","null","","","","","","","","",""
"3839.1999999284744","<img src=""portrait/WW2.jpg""style=""height:400px;""></img>","3","html-button-response","185","1113134","0.0-14.0-22.0","15639","List2B","black","woman","","true","3","","","","","","","","","",""
"null","CORRECT","","html-keyboard-response","186","1114649","0.0-14.0-23.0-0.0","15639","List2B","black","woman","","","","null","","","","","","","","",""
"1755.3000000715256","<p>You got 8 out of 8 right first time. Press Continue.</p>","0","html-button-response","187","1116406","0.0-14.0-25.0","15639","List2B","black","woman","","","","","","","","","","","","",""
"null","<div style=""font-size:60px;"">+</div>","","html-keyboard-response","188","1117908","0.0-15.0-0.0","15639","List2B","black","woman","","","","null","","","","","","","","",""
"null","<img src=""stim_listB/copy7.gif""style=""height:400px;""></stim_listB>","","html-keyboard-response","189","1119911","0.0-15.0-1.0","15639","List2B","black","woman","","","","null","","","","","","","","",""
"null","is copying","","html-keyboard-response","190","1121914","0.0-15.0-2.0","15639","List2B","black","woman","","","","null","","","","","","","","",""
"12321.599999904633","","","survey-text","191","1134238","0.0-15.0-3.0","15639","List2B","black","woman","","","","","{""Q0"":""beth is coping jane""}","<img src=""stim_listB/copy7.gif""style=""height:400px;""></stim_listB>","is copying","","","","","",""
"null","<div style=""font-size:60px;"">+</div>","","html-keyboard-response","192","1134740","0.0-15.0-0.1","15639","List2B","black","woman","","","","null","","","","","","","","",""
"null","<img src=""stim_listB/challenge2.gif""style=""height:400px;""></stim_listB>","","html-keyboard-response","193","1136742","0.0-15.0-1.1","15639","List2B","black","woman","","","","null","","","","","","","","",""
"null","is being challenged by","","html-keyboard-response","194","1138743","0.0-15.0-2.1","15639","List2B","black","woman","","","","null","","","","","","","","",""
"23692","","","survey-text","195","1162438","0.0-15.0-3.1","15639","List2B","black","woman","","","","","{""Q0"":""jane is challenging luke""}","<img src=""stim_listB/challenge2.gif""style=""height:400px;""></stim_listB>","is being challenged by","","","","","",""
"null","<div style=""font-size:60px;"">+</div>","","html-keyboard-response","196","1162950","0.0-15.0-0.2","15639","List2B","black","woman","","","","null","","","","","","","","",""
"null","<img src=""stim_listB/challenge6.gif""style=""height:400px;""></stim_listB>","","html-keyboard-response","197","1164963","0.0-15.0-1.2","15639","List2B","black","woman","","","","null","","","","","","","","",""
"null","is being challenged by","","html-keyboard-response","198","1166967","0.0-15.0-2.2","15639","List2B","black","woman","","","","null","","","","","","","","",""
"19836.900000095367","","","survey-text","199","1186806","0.0-15.0-3.2","15639","List2B","black","woman","","","","","{""Q0"":""luke is being challenged by mike""}","<img src=""stim_listB/challenge6.gif""style=""height:400px;""></stim_listB>","is being challenged by","","","","","",""
"null","<div style=""font-size:60px;"">+</div>","","html-keyboard-response","200","1187308","0.0-15.0-0.3","15639","List2B","black","woman","","","","null","","","","","","","","",""
"null","<img src=""stim_listB/copy2.gif""style=""height:400px;""></stim_listB>","","html-keyboard-response","201","1189312","0.0-15.0-1.3","15639","List2B","black","woman","","","","null","","","","","","","","",""
"null","is being copied by","","html-keyboard-response","202","1191314","0.0-15.0-2.3","15639","List2B","black","woman","","","","null","","","","","","","","",""
"26617","","","survey-text","203","1217933","0.0-15.0-3.3","15639","List2B","black","woman","","","","","{""Q0"":""beth is coping ruth""}","<img src=""stim_listB/copy2.gif""style=""height:400px;""></stim_listB>","is being copied by","","","","","",""
"null","<div style=""font-size:60px;"">+</div>","","html-keyboard-response","204","1218448","0.0-15.0-0.4","15639","List2B","black","woman","","","","null","","","","","","","","",""
"null","<img src=""stim_listB/hug7.gif""style=""height:400px;""></stim_listB>","","html-keyboard-response","205","1220450","0.0-15.0-1.4","15639","List2B","black","woman","","","","null","","","","","","","","",""
"null","is hugging","","html-keyboard-response","206","1222461","0.0-15.0-2.4","15639","List2B","black","woman","","","","null","","","","","","","","",""
"10669.799999952316","","","survey-text","207","1233133","0.0-15.0-3.4","15639","List2B","black","woman","","","","","{""Q0"":""beth is hugging ruth""}","<img src=""stim_listB/hug7.gif""style=""height:400px;""></stim_listB>","is hugging","","","","","",""
"null","<div style=""font-size:60px;"">+</div>","","html-keyboard-response","208","1233634","0.0-15.0-0.5","15639","List2B","black","woman","","","","null","","","","","","","","",""
"null","<img src=""stim_listB/seduce6.gif""style=""height:400px;""></stim_listB>","","html-keyboard-response","209","1235642","0.0-15.0-1.5","15639","List2B","black","woman","","","","null","","","","","","","","",""
"null","is being seduced by","","html-keyboard-response","210","1237654","0.0-15.0-2.5","15639","List2B","black","woman","","","","null","","","","","","","","",""
"20644.899999976158","","","survey-text","211","1258301","0.0-15.0-3.5","15639","List2B","black","woman","","","","","{""Q0"":""fred is being seduced by dave""}","<img src=""stim_listB/seduce6.gif""style=""height:400px;""></stim_listB>","is being seduced by","","","","","",""
"null","<div style=""font-size:60px;"">+</div>","","html-keyboard-response","212","1258802","0.0-15.0-0.6","15639","List2B","black","woman","","","","null","","","","","","","","",""
"null","<img src=""stim_listB/look3.gif""style=""height:400px;""></stim_listB>","","html-keyboard-response","213","1260813","0.0-15.0-1.6","15639","List2B","black","woman","","","","null","","","","","","","","",""
"null","is looking at","","html-keyboard-response","214","1262824","0.0-15.0-2.6","15639","List2B","black","woman","","","","null","","","","","","","","",""
"20794.400000095367","","","survey-text","215","1283620","0.0-15.0-3.6","15639","List2B","black","woman","","","","","{""Q0"":""mike is looking at dave""}","<img src=""stim_listB/look3.gif""style=""height:400px;""></stim_listB>","is looking at","","","","","",""
"null","<div style=""font-size:60px;"">+</div>","","html-keyboard-response","216","1284122","0.0-15.0-0.7","15639","List2B","black","woman","","","","null","","","","","","","","",""
"null","<img src=""stim_listB/hug8.gif""style=""height:400px;""></stim_listB>","","html-keyboard-response","217","1286124","0.0-15.0-1.7","15639","List2B","black","woman","","","","null","","","","","","","","",""
"null","is being hugged by","","html-keyboard-response","218","1288126","0.0-15.0-2.7","15639","List2B","black","woman","","","","null","","","","","","","","",""
"13331.899999976158","","","survey-text","219","1301460","0.0-15.0-3.7","15639","List2B","black","woman","","","","","{""Q0"":""jane is being hugged by kate""}","<img src=""stim_listB/hug8.gif""style=""height:400px;""></stim_listB>","is being hugged by","","","","","",""
"null","<div style=""font-size:60px;"">+</div>","","html-keyboard-response","220","1301963","0.0-15.0-0.8","15639","List2B","black","woman","","","","null","","","","","","","","",""
"null","<img src=""stim_listB/kiss1.gif""style=""height:400px;""></stim_listB>","","html-keyboard-response","221","1303965","0.0-15.0-1.8","15639","List2B","black","woman","","","","null","","","","","","","","",""
"null","is kissing","","html-keyboard-response","222","1305975","0.0-15.0-2.8","15639","List2B","black","woman","","","","null","","","","","","","","",""
"11730.5","","","survey-text","223","1317708","0.0-15.0-3.8","15639","List2B","black","woman","","","","","{""Q0"":""luke is kissing ruth""}","<img src=""stim_listB/kiss1.gif""style=""height:400px;""></stim_listB>","is kissing","","","","","",""
"null","<div style=""font-size:60px;"">+</div>","","html-keyboard-response","224","1318224","0.0-15.0-0.9","15639","List2B","black","woman","","","","null","","","","","","","","",""
"null","<img src=""stim_listB/hug1.gif""style=""height:400px;""></stim_listB>","","html-keyboard-response","225","1320233","0.0-15.0-1.9","15639","List2B","black","woman","","","","null","","","","","","","","",""
"null","is hugging","","html-keyboard-response","226","1322250","0.0-15.0-2.9","15639","List2B","black","woman","","","","null","","","","","","","","",""
"11727.800000071526","","","survey-text","227","1333980","0.0-15.0-3.9","15639","List2B","black","woman","","","","","{""Q0"":""luke is hugging ruth""}","<img src=""stim_listB/hug1.gif""style=""height:400px;""></stim_listB>","is hugging","","","","","",""
"null","<div style=""font-size:60px;"">+</div>","","html-keyboard-response","228","1334491","0.0-15.0-0.10","15639","List2B","black","woman","","","","null","","","","","","","","",""
"null","<img src=""stim_listB/shout1.gif""style=""height:400px;""></stim_listB>","","html-keyboard-response","229","1336507","0.0-15.0-1.10","15639","List2B","black","woman","","","","null","","","","","","","","",""
"null","is shouting at","","html-keyboard-response","230","1338522","0.0-15.0-2.10","15639","List2B","black","woman","","","","null","","","","","","","","",""
"43134.799999952316","","","survey-text","231","1381659","0.0-15.0-3.10","15639","List2B","black","woman","","","","","{""Q0"":""ruth is shouting at luke""}","<img src=""stim_listB/shout1.gif""style=""height:400px;""></stim_listB>","is shouting at","","","","","",""
"null","<div style=""font-size:60px;"">+</div>","","html-keyboard-response","232","1382173","0.0-15.0-0.11","15639","List2B","black","woman","","","","null","","","","","","","","",""
"null","<img src=""stim_listB/shout4.gif""style=""height:400px;""></stim_listB>","","html-keyboard-response","233","1384175","0.0-15.0-1.11","15639","List2B","black","woman","","","","null","","","","","","","","",""
"null","is being shouted at by","","html-keyboard-response","234","1386181","0.0-15.0-2.11","15639","List2B","black","woman","","","","null","","","","","","","","",""
"19644.399999976158","","","survey-text","235","1405828","0.0-15.0-3.11","15639","List2B","black","woman","","","","","{""Q0"":""kate is being shouted at by luke""}","<img src=""stim_listB/shout4.gif""style=""height:400px;""></stim_listB>","is being shouted at by","","","","","",""
"null","<div style=""font-size:60px;"">+</div>","","html-keyboard-response","236","1406338","0.0-15.0-0.12","15639","List2B","black","woman","","","","null","","","","","","","","",""
"null","<img src=""stim_listB/seduce5.gif""style=""height:400px;""></stim_listB>","","html-keyboard-response","237","1408349","0.0-15.0-1.12","15639","List2B","black","woman","","","","null","","","","","","","","",""
"null","is seducing","","html-keyboard-response","238","1410350","0.0-15.0-2.12","15639","List2B","black","woman","","","","null","","","","","","","","",""
"28106.700000047684","","","survey-text","239","1438459","0.0-15.0-3.12","15639","List2B","black","woman","","","","","{""Q0"":""luke is seducing ruth""}","<img src=""stim_listB/seduce5.gif""style=""height:400px;""></stim_listB>","is seducing","","","","","",""
"null","<div style=""font-size:60px;"">+</div>","","html-keyboard-response","240","1438971","0.0-15.0-0.13","15639","List2B","black","woman","","","","null","","","","","","","","",""
"null","<img src=""stim_listB/oppose4.gif""style=""height:400px;""></stim_listB>","","html-keyboard-response","241","1440985","0.0-15.0-1.13","15639","List2B","black","woman","","","","null","","","","","","","","",""
"null","is being opposed by","","html-keyboard-response","242","1442986","0.0-15.0-2.13","15639","List2B","black","woman","","","","null","","","","","","","","",""
"20094.200000047684","","","survey-text","243","1463083","0.0-15.0-3.13","15639","List2B","black","woman","","","","","{""Q0"":""beth is opposing fred ""}","<img src=""stim_listB/oppose4.gif""style=""height:400px;""></stim_listB>","is being opposed by","","","","","",""
"null","<div style=""font-size:60px;"">+</div>","","html-keyboard-response","244","1463584","0.0-15.0-0.14","15639","List2B","black","woman","","","","null","","","","","","","","",""
"null","<img src=""stim_listB/kiss2.gif""style=""height:400px;""></stim_listB>","","html-keyboard-response","245","1465586","0.0-15.0-1.14","15639","List2B","black","woman","","","","null","","","","","","","","",""
"null","is being kissed by","","html-keyboard-response","246","1467599","0.0-15.0-2.14","15639","List2B","black","woman","","","","null","","","","","","","","",""
"17337.899999976158","","","survey-text","247","1484939","0.0-15.0-3.14","15639","List2B","black","woman","","","","","{""Q0"":""jane is being kissed by dave""}","<img src=""stim_listB/kiss2.gif""style=""height:400px;""></stim_listB>","is being kissed by","","","","","",""
"null","<div style=""font-size:60px;"">+</div>","","html-keyboard-response","248","1485449","0.0-15.0-0.15","15639","List2B","black","woman","","","","null","","","","","","","","",""
"null","<img src=""stim_listB/touch6.gif""style=""height:400px;""></stim_listB>","","html-keyboard-response","249","1487451","0.0-15.0-1.15","15639","List2B","black","woman","","","","null","","","","","","","","",""
"null","is being touched by","","html-keyboard-response","250","1489462","0.0-15.0-2.15","15639","List2B","black","woman","","","","null","","","","","","","","",""
"21922.199999928474","","","survey-text","251","1511386","0.0-15.0-3.15","15639","List2B","black","woman","","","","","{""Q0"":""dave is being touched by jane""}","<img src=""stim_listB/touch6.gif""style=""height:400px;""></stim_listB>","is being touched by","","","","","",""
"null","<div style=""font-size:60px;"">+</div>","","html-keyboard-response","252","1511889","0.0-15.0-0.16","15639","List2B","black","woman","","","","null","","","","","","","","",""
"null","<img src=""stim_listB/copy5.gif""style=""height:400px;""></stim_listB>","","html-keyboard-response","253","1513899","0.0-15.0-1.16","15639","List2B","black","woman","","","","null","","","","","","","","",""
"null","is copying","","html-keyboard-response","254","1515909","0.0-15.0-2.16","15639","List2B","black","woman","","","","null","","","","","","","","",""
"13727.300000071526","","","survey-text","255","1529642","0.0-15.0-3.16","15639","List2B","black","woman","","","","","{""Q0"":""fred is coping dave""}","<img src=""stim_listB/copy5.gif""style=""height:400px;""></stim_listB>","is copying","","","","","",""
"null","<div style=""font-size:60px;"">+</div>","","html-keyboard-response","256","1530152","0.0-15.0-0.17","15639","List2B","black","woman","","","","null","","","","","","","","",""
"null","<img src=""stim_listB/touch5.gif""style=""height:400px;""></stim_listB>","","html-keyboard-response","257","1532161","0.0-15.0-1.17","15639","List2B","black","woman","","","","null","","","","","","","","",""
"null","is touching","","html-keyboard-response","258","1534167","0.0-15.0-2.17","15639","List2B","black","woman","","","","null","","","","","","","","",""
"16912.200000047684","","","survey-text","259","1551081","0.0-15.0-3.17","15639","List2B","black","woman","","","","","{""Q0"":""dave is touching luke""}","<img src=""stim_listB/touch5.gif""style=""height:400px;""></stim_listB>","is touching","","","","","",""
"null","<div style=""font-size:60px;"">+</div>","","html-keyboard-response","260","1551595","0.0-15.0-0.18","15639","List2B","black","woman","","","","null","","","","","","","","",""
"null","<img src=""stim_listB/hug6.gif""style=""height:400px;""></stim_listB>","","html-keyboard-response","261","1553611","0.0-15.0-1.18","15639","List2B","black","woman","","","","null","","","","","","","","",""
"null","is being hugged by","","html-keyboard-response","262","1555612","0.0-15.0-2.18","15639","List2B","black","woman","","","","null","","","","","","","","",""
"19674.399999976158","","","survey-text","263","1575289","0.0-15.0-3.18","15639","List2B","black","woman","","","","","{""Q0"":""luke is being touched by dave""}","<img src=""stim_listB/hug6.gif""style=""height:400px;""></stim_listB>","is being hugged by","","","","","",""
"null","<div style=""font-size:60px;"">+</div>","","html-keyboard-response","264","1575791","0.0-15.0-0.19","15639","List2B","black","woman","","","","null","","","","","","","","",""
"null","<img src=""stim_listB/oppose1.gif""style=""height:400px;""></stim_listB>","","html-keyboard-response","265","1577794","0.0-15.0-1.19","15639","List2B","black","woman","","","","null","","","","","","","","",""
"null","is opposing","","html-keyboard-response","266","1579797","0.0-15.0-2.19","15639","List2B","black","woman","","","","null","","","","","","","","",""
"18336.800000071526","","","survey-text","267","1598137","0.0-15.0-3.19","15639","List2B","black","woman","","","","","{""Q0"":""dave is hugging kate""}","<img src=""stim_listB/oppose1.gif""style=""height:400px;""></stim_listB>","is opposing","","","","","",""
"2502.100000023842","<img src='img/portrait_matrix_list2.jpg' style='width:900px;height:500px;''></img><p>If you have memorised all the portraits and names and are ready to start, press Continue.</p><p><strong>Please note: Your memory of these faces will be tested 4 times during this experiment.</strong></p>","0","html-button-response","268","1600640","0.0-16.0-0.0","15639","List2B","black","woman","","","","","","","","","","","","",""
"3429.899999976158","<img src=""portrait/WW2.jpg""style=""height:400px;""></img>","3","html-button-response","269","1605073","0.0-16.0-1.0","15639","List2B","black","woman","","true","3","","","","","","","","","",""
"null","CORRECT","","html-keyboard-response","270","1606588","0.0-16.0-2.0-0.0","15639","List2B","black","woman","","","","null","","","","","","","","",""
"3243.399999976158","<img src=""portrait/BW1.jpg""style=""height:400px;""></img>","0","html-button-response","271","1609832","0.0-16.0-4.0","15639","List2B","black","woman","","true","0","","","","","","","","","",""
"null","CORRECT","","html-keyboard-response","272","1611352","0.0-16.0-5.0-0.0","15639","List2B","black","woman","","","","null","","","","","","","","",""
"2830.899999976158","<img src=""portrait/BW2.jpg""style=""height:400px;""></img>","2","html-button-response","273","1614184","0.0-16.0-7.0","15639","List2B","black","woman","","true","2","","","","","","","","","",""
"null","CORRECT","","html-keyboard-response","274","1615703","0.0-16.0-8.0-0.0","15639","List2B","black","woman","","","","null","","","","","","","","",""
"3191.5999999046326","<img src=""portrait/WM2.jpg""style=""height:400px;""></img>","7","html-button-response","275","1618896","0.0-16.0-10.0","15639","List2B","black","woman","","true","7","","","","","","","","","",""
"null","CORRECT","","html-keyboard-response","276","1620409","0.0-16.0-11.0-0.0","15639","List2B","black","woman","","","","null","","","","","","","","",""
"3110.2000000476837","<img src=""portrait/WM1.jpg""style=""height:400px;""></img>","6","html-button-response","277","1623520","0.0-16.0-13.0","15639","List2B","black","woman","","true","6","","","","","","","","","",""
"null","CORRECT","","html-keyboard-response","278","1625035","0.0-16.0-14.0-0.0","15639","List2B","black","woman","","","","null","","","","","","","","",""
"2955.2999999523163","<img src=""portrait/BM1.jpg""style=""height:400px;""></img>","4","html-button-response","279","1627992","0.0-16.0-16.0","15639","List2B","black","woman","","true","4","","","","","","","","","",""
"null","CORRECT","","html-keyboard-response","280","1629509","0.0-16.0-17.0-0.0","15639","List2B","black","woman","","","","null","","","","","","","","",""
"2489.9000000953674","<img src=""portrait/BM2.jpg""style=""height:400px;""></img>","5","html-button-response","281","1632000","0.0-16.0-19.0","15639","List2B","black","woman","","true","5","","","","","","","","","",""
"null","CORRECT","","html-keyboard-response","282","1633525","0.0-16.0-20.0-0.0","15639","List2B","black","woman","","","","null","","","","","","","","",""
"3161.100000023842","<img src=""portrait/WW1.jpg""style=""height:400px;""></img>","1","html-button-response","283","1636688","0.0-16.0-22.0","15639","List2B","black","woman","","true","1","","","","","","","","","",""
"null","CORRECT","","html-keyboard-response","284","1638190","0.0-16.0-23.0-0.0","15639","List2B","black","woman","","","","null","","","","","","","","",""
"1791.8999999761581","<p>You got 8 out of 8 right first time. Press Continue.</p>","0","html-button-response","285","1639984","0.0-16.0-25.0","15639","List2B","black","woman","","","","","","","","","","","","",""
"null","<div style=""font-size:60px;"">+</div>","","html-keyboard-response","286","1641487","0.0-17.0-0.0","15639","List2B","black","woman","","","","null","","","","","","","","",""
"null","<img src=""stim_listB/seduce4.gif""style=""height:400px;""></stim_listB>","","html-keyboard-response","287","1643489","0.0-17.0-1.0","15639","List2B","black","woman","","","","null","","","","","","","","",""
"null","is being seduced by","","html-keyboard-response","288","1645495","0.0-17.0-2.0","15639","List2B","black","woman","","","","null","","","","","","","","",""
"21902.199999928474","","","survey-text","289","1667400","0.0-17.0-3.0","15639","List2B","black","woman","","","","","{""Q0"":""fred is being seduced by beth""}","<img src=""stim_listB/seduce4.gif""style=""height:400px;""></stim_listB>","is being seduced by","","","","","",""
"null","<div style=""font-size:60px;"">+</div>","","html-keyboard-response","290","1667912","0.0-17.0-0.1","15639","List2B","black","woman","","","","null","","","","","","","","",""
"null","<img src=""stim_listB/look8.gif""style=""height:400px;""></stim_listB>","","html-keyboard-response","291","1669922","0.0-17.0-1.1","15639","List2B","black","woman","","","","null","","","","","","","","",""
"null","is being looked at by","","html-keyboard-response","292","1671934","0.0-17.0-2.1","15639","List2B","black","woman","","","","null","","","","","","","","",""
"23799.600000023842","","","survey-text","293","1695736","0.0-17.0-3.1","15639","List2B","black","woman","","","","","{""Q0"":""kate is being looked by jane""}","<img src=""stim_listB/look8.gif""style=""height:400px;""></stim_listB>","is being looked at by","","","","","",""
"null","<div style=""font-size:60px;"">+</div>","","html-keyboard-response","294","1696240","0.0-17.0-0.2","15639","List2B","black","woman","","","","null","","","","","","","","",""
"null","<img src=""stim_listB/seduce2.gif""style=""height:400px;""></stim_listB>","","html-keyboard-response","295","1698254","0.0-17.0-1.2","15639","List2B","black","woman","","","","null","","","","","","","","",""
"null","is being seduced by","","html-keyboard-response","296","1700267","0.0-17.0-2.2","15639","List2B","black","woman","","","","null","","","","","","","","",""
"16666.699999928474","","","survey-text","297","1716935","0.0-17.0-3.2","15639","List2B","black","woman","","","","","{""Q0"":""ruth is being seduced by dave""}","<img src=""stim_listB/seduce2.gif""style=""height:400px;""></stim_listB>","is being seduced by","","","","","",""
"null","<div style=""font-size:60px;"">+</div>","","html-keyboard-response","298","1717436","0.0-17.0-0.3","15639","List2B","black","woman","","","","null","","","","","","","","",""
"null","<img src=""stim_listB/shout5.gif""style=""height:400px;""></stim_listB>","","html-keyboard-response","299","1719452","0.0-17.0-1.3","15639","List2B","black","woman","","","","null","","","","","","","","",""
"null","is shouting at","","html-keyboard-response","300","1721452","0.0-17.0-2.3","15639","List2B","black","woman","","","","null","","","","","","","","",""
"11529","","","survey-text","301","1732984","0.0-17.0-3.3","15639","List2B","black","woman","","","","","{""Q0"":""fred is shouting at luke""}","<img src=""stim_listB/shout5.gif""style=""height:400px;""></stim_listB>","is shouting at","","","","","",""
"null","<div style=""font-size:60px;"">+</div>","","html-keyboard-response","302","1733485","0.0-17.0-0.4","15639","List2B","black","woman","","","","null","","","","","","","","",""
"null","<img src=""stim_listB/shout2.gif""style=""height:400px;""></stim_listB>","","html-keyboard-response","303","1735487","0.0-17.0-1.4","15639","List2B","black","woman","","","","null","","","","","","","","",""
"null","is being shouted at by","","html-keyboard-response","304","1737489","0.0-17.0-2.4","15639","List2B","black","woman","","","","null","","","","","","","","",""
"23916.699999928474","","","survey-text","305","1761407","0.0-17.0-3.4","15639","List2B","black","woman","","","","","{""Q0"":""dave is being shouted at by kate""}","<img src=""stim_listB/shout2.gif""style=""height:400px;""></stim_listB>","is being shouted at by","","","","","",""
"null","<div style=""font-size:60px;"">+</div>","","html-keyboard-response","306","1761910","0.0-17.0-0.5","15639","List2B","black","woman","","","","null","","","","","","","","",""
"null","<img src=""stim_listB/kiss6.gif""style=""height:400px;""></stim_listB>","","html-keyboard-response","307","1763922","0.0-17.0-1.5","15639","List2B","black","woman","","","","null","","","","","","","","",""
"null","is being kissed by","","html-keyboard-response","308","1765924","0.0-17.0-2.5","15639","List2B","black","woman","","","","null","","","","","","","","",""
"20841.399999976158","","","survey-text","309","1786767","0.0-17.0-3.5","15639","List2B","black","woman","","","","","{""Q0"":""dave is being looked by luke""}","<img src=""stim_listB/kiss6.gif""style=""height:400px;""></stim_listB>","is being kissed by","","","","","",""
"null","<div style=""font-size:60px;"">+</div>","","html-keyboard-response","310","1787279","0.0-17.0-0.6","15639","List2B","black","woman","","","","null","","","","","","","","",""
"null","<img src=""stim_listB/oppose2.gif""style=""height:400px;""></stim_listB>","","html-keyboard-response","311","1789288","0.0-17.0-1.6","15639","List2B","black","woman","","","","null","","","","","","","","",""
"null","is being opposed by","","html-keyboard-response","312","1791293","0.0-17.0-2.6","15639","List2B","black","woman","","","","null","","","","","","","","",""
"37743.39999997616","","","survey-text","313","1829039","0.0-17.0-3.6","15639","List2B","black","woman","","","","","{""Q0"":""ruth is being accused by luke""}","<img src=""stim_listB/oppose2.gif""style=""height:400px;""></stim_listB>","is being opposed by","","","","","",""
"null","<div style=""font-size:60px;"">+</div>","","html-keyboard-response","314","1829546","0.0-17.0-0.7","15639","List2B","black","woman","","","","null","","","","","","","","",""
"null","<img src=""stim_listB/copy1.gif""style=""height:400px;""></stim_listB>","","html-keyboard-response","315","1831562","0.0-17.0-1.7","15639","List2B","black","woman","","","","null","","","","","","","","",""
"null","is copying","","html-keyboard-response","316","1833565","0.0-17.0-2.7","15639","List2B","black","woman","","","","null","","","","","","","","",""
"20535.199999928474","","","survey-text","317","1854102","0.0-17.0-3.7","15639","List2B","black","woman","","","","","{""Q0"":""ruth is coping copying luke""}","<img src=""stim_listB/copy1.gif""style=""height:400px;""></stim_listB>","is copying","","","","","",""
"null","<div style=""font-size:60px;"">+</div>","","html-keyboard-response","318","1854605","0.0-17.0-0.8","15639","List2B","black","woman","","","","null","","","","","","","","",""
"null","<img src=""stim_listB/greet2.gif""style=""height:400px;""></stim_listB>","","html-keyboard-response","319","1856607","0.0-17.0-1.8","15639","List2B","black","woman","","","","null","","","","","","","","",""
"null","is being greeted by","","html-keyboard-response","320","1858613","0.0-17.0-2.8","15639","List2B","black","woman","","","","null","","","","","","","","",""
"24094.200000047684","","","survey-text","321","1882710","0.0-17.0-3.8","15639","List2B","black","woman","","","","","{""Q0"":""luke is being looked at by ruth""}","<img src=""stim_listB/greet2.gif""style=""height:400px;""></stim_listB>","is being greeted by","","","","","",""
"null","<div style=""font-size:60px;"">+</div>","","html-keyboard-response","322","1883213","0.0-17.0-0.9","15639","List2B","black","woman","","","","null","","","","","","","","",""
"null","<img src=""stim_listB/seduce8.gif""style=""height:400px;""></stim_listB>","","html-keyboard-response","323","1885228","0.0-17.0-1.9","15639","List2B","black","woman","","","","null","","","","","","","","",""
"null","is being seduced by","","html-keyboard-response","324","1887245","0.0-17.0-2.9","15639","List2B","black","woman","","","","null","","","","","","","","",""
"20686.600000023842","","","survey-text","325","1907933","0.0-17.0-3.9","15639","List2B","black","woman","","","","","{""Q0"":""beth is being seduced by jane""}","<img src=""stim_listB/seduce8.gif""style=""height:400px;""></stim_listB>","is being seduced by","","","","","",""
"null","<div style=""font-size:60px;"">+</div>","","html-keyboard-response","326","1908437","0.0-17.0-0.10","15639","List2B","black","woman","","","","null","","","","","","","","",""
"null","<img src=""stim_listB/seduce1.gif""style=""height:400px;""></stim_listB>","","html-keyboard-response","327","1910446","0.0-17.0-1.10","15639","List2B","black","woman","","","","null","","","","","","","","",""
"null","is seducing","","html-keyboard-response","328","1912460","0.0-17.0-2.10","15639","List2B","black","woman","","","","null","","","","","","","","",""
"17406.800000071526","","","survey-text","329","1929869","0.0-17.0-3.10","15639","List2B","black","woman","","","","","{""Q0"":""luke is seducing jane""}","<img src=""stim_listB/seduce1.gif""style=""height:400px;""></stim_listB>","is seducing","","","","","",""
"null","<div style=""font-size:60px;"">+</div>","","html-keyboard-response","330","1930377","0.0-17.0-0.11","15639","List2B","black","woman","","","","null","","","","","","","","",""
"null","<img src=""stim_listB/oppose5.gif""style=""height:400px;""></stim_listB>","","html-keyboard-response","331","1932381","0.0-17.0-1.11","15639","List2B","black","woman","","","","null","","","","","","","","",""
"null","is opposing","","html-keyboard-response","332","1934394","0.0-17.0-2.11","15639","List2B","black","woman","","","","null","","","","","","","","",""
"22969.100000023842","","","survey-text","333","1957365","0.0-17.0-3.11","15639","List2B","black","woman","","","","","{""Q0"":""mike is copying dave""}","<img src=""stim_listB/oppose5.gif""style=""height:400px;""></stim_listB>","is opposing","","","","","",""
"null","<div style=""font-size:60px;"">+</div>","","html-keyboard-response","334","1957872","0.0-17.0-0.12","15639","List2B","black","woman","","","","null","","","","","","","","",""
"null","<img src=""stim_listB/copy6.gif""style=""height:400px;""></stim_listB>","","html-keyboard-response","335","1959874","0.0-17.0-1.12","15639","List2B","black","woman","","","","null","","","","","","","","",""
"null","is being copied by","","html-keyboard-response","336","1961874","0.0-17.0-2.12","15639","List2B","black","woman","","","","null","","","","","","","","",""
"24344.200000047684","","","survey-text","337","1986221","0.0-17.0-3.12","15639","List2B","black","woman","","","","","{""Q0"":""luke is being copied by fred""}","<img src=""stim_listB/copy6.gif""style=""height:400px;""></stim_listB>","is being copied by","","","","","",""
"null","<div style=""font-size:60px;"">+</div>","","html-keyboard-response","338","1986724","0.0-17.0-0.13","15639","List2B","black","woman","","","","null","","","","","","","","",""
"null","<img src=""stim_listB/kiss3.gif""style=""height:400px;""></stim_listB>","","html-keyboard-response","339","1988737","0.0-17.0-1.13","15639","List2B","black","woman","","","","null","","","","","","","","",""
"null","is kissing","","html-keyboard-response","340","1990746","0.0-17.0-2.13","15639","List2B","black","woman","","","","null","","","","","","","","",""
"8856.799999952316","","","survey-text","341","1999604","0.0-17.0-3.13","15639","List2B","black","woman","","","","","{""Q0"":""fred is kissing beth""}","<img src=""stim_listB/kiss3.gif""style=""height:400px;""></stim_listB>","is kissing","","","","","",""
"null","<div style=""font-size:60px;"">+</div>","","html-keyboard-response","342","2000112","0.0-17.0-0.14","15639","List2B","black","woman","","","","null","","","","","","","","",""
"null","<img src=""stim_listB/oppose6.gif""style=""height:400px;""></stim_listB>","","html-keyboard-response","343","2002125","0.0-17.0-1.14","15639","List2B","black","woman","","","","null","","","","","","","","",""
"null","is being opposed by","","html-keyboard-response","344","2004126","0.0-17.0-2.14","15639","List2B","black","woman","","","","null","","","","","","","","",""
"22132","","","survey-text","345","2026260","0.0-17.0-3.14","15639","List2B","black","woman","","","","","{""Q0"":""luke is opposed by fred""}","<img src=""stim_listB/oppose6.gif""style=""height:400px;""></stim_listB>","is being opposed by","","","","","",""
"null","<div style=""font-size:60px;"">+</div>","","html-keyboard-response","346","2026775","0.0-17.0-0.15","15639","List2B","black","woman","","","","null","","","","","","","","",""
"null","<img src=""stim_listB/hug4.gif""style=""height:400px;""></stim_listB>","","html-keyboard-response","347","2028778","0.0-17.0-1.15","15639","List2B","black","woman","","","","null","","","","","","","","",""
"null","is being hugged by","","html-keyboard-response","348","2030790","0.0-17.0-2.15","15639","List2B","black","woman","","","","null","","","","","","","","",""
"14396.399999976158","","","survey-text","349","2045188","0.0-17.0-3.15","15639","List2B","black","woman","","","","","{""Q0"":""kate is being hugged by mike""}","<img src=""stim_listB/hug4.gif""style=""height:400px;""></stim_listB>","is being hugged by","","","","","",""
"null","<div style=""font-size:60px;"">+</div>","","html-keyboard-response","350","2045697","0.0-17.0-0.16","15639","List2B","black","woman","","","","null","","","","","","","","",""
"null","<img src=""stim_listB/greet8.gif""style=""height:400px;""></stim_listB>","","html-keyboard-response","351","2047707","0.0-17.0-1.16","15639","List2B","black","woman","","","","null","","","","","","","","",""
"null","is being greeted by","","html-keyboard-response","352","2049708","0.0-17.0-2.16","15639","List2B","black","woman","","","","null","","","","","","","","",""
"18805.200000047684","","","survey-text","353","2068516","0.0-17.0-3.16","15639","List2B","black","woman","","","","","{""Q0"":""ruth is being greeted by kate""}","<img src=""stim_listB/greet8.gif""style=""height:400px;""></stim_listB>","is being greeted by","","","","","",""
"null","<div style=""font-size:60px;"">+</div>","","html-keyboard-response","354","2069032","0.0-17.0-0.17","15639","List2B","black","woman","","","","null","","","","","","","","",""
"null","<img src=""stim_listB/shout3.gif""style=""height:400px;""></stim_listB>","","html-keyboard-response","355","2071047","0.0-17.0-1.17","15639","List2B","black","woman","","","","null","","","","","","","","",""
"null","is shouting at","","html-keyboard-response","356","2073049","0.0-17.0-2.17","15639","List2B","black","woman","","","","null","","","","","","","","",""
"12663.899999976158","","","survey-text","357","2085715","0.0-17.0-3.17","15639","List2B","black","woman","","","","","{""Q0"":""fred is shouting at beth""}","<img src=""stim_listB/shout3.gif""style=""height:400px;""></stim_listB>","is shouting at","","","","","",""
"null","<div style=""font-size:60px;"">+</div>","","html-keyboard-response","358","2086230","0.0-17.0-0.18","15639","List2B","black","woman","","","","null","","","","","","","","",""
"null","<img src=""stim_listB/greet3.gif""style=""height:400px;""></stim_listB>","","html-keyboard-response","359","2088235","0.0-17.0-1.18","15639","List2B","black","woman","","","","null","","","","","","","","",""
"null","is greeting","","html-keyboard-response","360","2090238","0.0-17.0-2.18","15639","List2B","black","woman","","","","null","","","","","","","","",""
"11067.100000023842","","","survey-text","361","2101307","0.0-17.0-3.18","15639","List2B","black","woman","","","","","{""Q0"":""mike is greeting kate""}","<img src=""stim_listB/greet3.gif""style=""height:400px;""></stim_listB>","is greeting","","","","","",""
"null","<div style=""font-size:60px;"">+</div>","","html-keyboard-response","362","2101819","0.0-17.0-0.19","15639","List2B","black","woman","","","","null","","","","","","","","",""
"null","<img src=""stim_listB/oppose3.gif""style=""height:400px;""></stim_listB>","","html-keyboard-response","363","2103821","0.0-17.0-1.19","15639","List2B","black","woman","","","","null","","","","","","","","",""
"null","is opposing","","html-keyboard-response","364","2105827","0.0-17.0-2.19","15639","List2B","black","woman","","","","null","","","","","","","","",""
"12845.700000047684","","","survey-text","365","2118675","0.0-17.0-3.19","15639","List2B","black","woman","","","","","{""Q0"":""mike is opposing kate""}","<img src=""stim_listB/oppose3.gif""style=""height:400px;""></stim_listB>","is opposing","","","","","",""
"13725.5","<img src='img/portrait_matrix_list2.jpg' style='width:900px;height:500px;''></img><p>If you have memorised all the portraits and names and are ready to start, press Continue.</p><p><strong>Please note: Your memory of these faces will be tested 4 times during this experiment.</strong></p>","0","html-button-response","366","2132403","0.0-18.0-0.0","15639","List2B","black","woman","","","","","","","","","","","","",""
"2603","<img src=""portrait/BM1.jpg""style=""height:400px;""></img>","4","html-button-response","367","2136011","0.0-18.0-1.0","15639","List2B","black","woman","","true","4","","","","","","","","","",""
"null","CORRECT","","html-keyboard-response","368","2137518","0.0-18.0-2.0-0.0","15639","List2B","black","woman","","","","null","","","","","","","","",""
"2779.2000000476837","<img src=""portrait/BM2.jpg""style=""height:400px;""></img>","5","html-button-response","369","2140299","0.0-18.0-4.0","15639","List2B","black","woman","","true","5","","","","","","","","","",""
"null","CORRECT","","html-keyboard-response","370","2141816","0.0-18.0-5.0-0.0","15639","List2B","black","woman","","","","null","","","","","","","","",""
"2233.2999999523163","<img src=""portrait/WW2.jpg""style=""height:400px;""></img>","3","html-button-response","371","2144051","0.0-18.0-7.0","15639","List2B","black","woman","","true","3","","","","","","","","","",""
"null","CORRECT","","html-keyboard-response","372","2145560","0.0-18.0-8.0-0.0","15639","List2B","black","woman","","","","null","","","","","","","","",""
"2713.7999999523163","<img src=""portrait/WW1.jpg""style=""height:400px;""></img>","1","html-button-response","373","2148274","0.0-18.0-10.0","15639","List2B","black","woman","","true","1","","","","","","","","","",""
"null","CORRECT","","html-keyboard-response","374","2149788","0.0-18.0-11.0-0.0","15639","List2B","black","woman","","","","null","","","","","","","","",""
"3277.100000023842","<img src=""portrait/WM1.jpg""style=""height:400px;""></img>","6","html-button-response","375","2153067","0.0-18.0-13.0","15639","List2B","black","woman","","true","6","","","","","","","","","",""
"null","CORRECT","","html-keyboard-response","376","2154572","0.0-18.0-14.0-0.0","15639","List2B","black","woman","","","","null","","","","","","","","",""
"2301.1999999284744","<img src=""portrait/WM2.jpg""style=""height:400px;""></img>","7","html-button-response","377","2156875","0.0-18.0-16.0","15639","List2B","black","woman","","true","7","","","","","","","","","",""
"null","CORRECT","","html-keyboard-response","378","2158386","0.0-18.0-17.0-0.0","15639","List2B","black","woman","","","","null","","","","","","","","",""
"2919.1999999284744","<img src=""portrait/BW2.jpg""style=""height:400px;""></img>","2","html-button-response","379","2161307","0.0-18.0-19.0","15639","List2B","black","woman","","true","2","","","","","","","","","",""
"null","CORRECT","","html-keyboard-response","380","2162828","0.0-18.0-20.0-0.0","15639","List2B","black","woman","","","","null","","","","","","","","",""
"5131.699999928474","<img src=""portrait/BW1.jpg""style=""height:400px;""></img>","0","html-button-response","381","2167963","0.0-18.0-22.0","15639","List2B","black","woman","","true","0","","","","","","","","","",""
"null","CORRECT","","html-keyboard-response","382","2169483","0.0-18.0-23.0-0.0","15639","List2B","black","woman","","","","null","","","","","","","","",""
"1437.7999999523163","<p>You got 8 out of 8 right first time. Press Continue.</p>","0","html-button-response","383","2170922","0.0-18.0-25.0","15639","List2B","black","woman","","","","","","","","","","","","",""
"null","<div style=""font-size:60px;"">+</div>","","html-keyboard-response","384","2172436","0.0-19.0-0.0","15639","List2B","black","woman","","","","null","","","","","","","","",""
"null","<img src=""stim_listB/oppose7.gif""style=""height:400px;""></stim_listB>","","html-keyboard-response","385","2174440","0.0-19.0-1.0","15639","List2B","black","woman","","","","null","","","","","","","","",""
"null","is opposing","","html-keyboard-response","386","2176441","0.0-19.0-2.0","15639","List2B","black","woman","","","","null","","","","","","","","",""
"13206.899999976158","","","survey-text","387","2189650","0.0-19.0-3.0","15639","List2B","black","woman","","","","","{""Q0"":""kate is opposing jane""}","<img src=""stim_listB/oppose7.gif""style=""height:400px;""></stim_listB>","is opposing","","","","","",""
"null","<div style=""font-size:60px;"">+</div>","","html-keyboard-response","388","2190153","0.0-19.0-0.1","15639","List2B","black","woman","","","","null","","","","","","","","",""
"null","<img src=""stim_listB/touch7.gif""style=""height:400px;""></stim_listB>","","html-keyboard-response","389","2192163","0.0-19.0-1.1","15639","List2B","black","woman","","","","null","","","","","","","","",""
"null","is touching","","html-keyboard-response","390","2194171","0.0-19.0-2.1","15639","List2B","black","woman","","","","null","","","","","","","","",""
"9804.600000023842","","","survey-text","391","2203978","0.0-19.0-3.1","15639","List2B","black","woman","","","","","{""Q0"":""kate is touching jane""}","<img src=""stim_listB/touch7.gif""style=""height:400px;""></stim_listB>","is touching","","","","","",""
"null","<div style=""font-size:60px;"">+</div>","","html-keyboard-response","392","2204482","0.0-19.0-0.2","15639","List2B","black","woman","","","","null","","","","","","","","",""
"null","<img src=""stim_listB/seduce3.gif""style=""height:400px;""></stim_listB>","","html-keyboard-response","393","2206495","0.0-19.0-1.2","15639","List2B","black","woman","","","","null","","","","","","","","",""
"null","is seducing","","html-keyboard-response","394","2208504","0.0-19.0-2.2","15639","List2B","black","woman","","","","null","","","","","","","","",""
"13248.5","","","survey-text","395","2221754","0.0-19.0-3.2","15639","List2B","black","woman","","","","","{""Q0"":""fred is seducing kate""}","<img src=""stim_listB/seduce3.gif""style=""height:400px;""></stim_listB>","is seducing","","","","","",""
"null","<div style=""font-size:60px;"">+</div>","","html-keyboard-response","396","2222255","0.0-19.0-0.3","15639","List2B","black","woman","","","","null","","","","","","","","",""
"null","<img src=""stim_listB/seduce7.gif""style=""height:400px;""></stim_listB>","","html-keyboard-response","397","2224257","0.0-19.0-1.3","15639","List2B","black","woman","","","","null","","","","","","","","",""
"null","is seducing","","html-keyboard-response","398","2226262","0.0-19.0-2.3","15639","List2B","black","woman","","","","null","","","","","","","","",""
"12513.700000047684","","","survey-text","399","2238778","0.0-19.0-3.3","15639","List2B","black","woman","","","","","{""Q0"":""ruth is seducing kate""}","<img src=""stim_listB/seduce7.gif""style=""height:400px;""></stim_listB>","is seducing","","","","","",""
"null","<div style=""font-size:60px;"">+</div>","","html-keyboard-response","400","2239280","0.0-19.0-0.4","15639","List2B","black","woman","","","","null","","","","","","","","",""
"null","<img src=""stim_listB/kiss7.gif""style=""height:400px;""></stim_listB>","","html-keyboard-response","401","2241283","0.0-19.0-1.4","15639","List2B","black","woman","","","","null","","","","","","","","",""
"null","is kissing","","html-keyboard-response","402","2243286","0.0-19.0-2.4","15639","List2B","black","woman","","","","null","","","","","","","","",""
"10217.899999976158","","","survey-text","403","2253506","0.0-19.0-3.4","15639","List2B","black","woman","","","","","{""Q0"":""ruth is kissing beth""}","<img src=""stim_listB/kiss7.gif""style=""height:400px;""></stim_listB>","is kissing","","","","","",""
"null","<div style=""font-size:60px;"">+</div>","","html-keyboard-response","404","2254022","0.0-19.0-0.5","15639","List2B","black","woman","","","","null","","","","","","","","",""
"null","<img src=""stim_listB/kiss5.gif""style=""height:400px;""></stim_listB>","","html-keyboard-response","405","2256024","0.0-19.0-1.5","15639","List2B","black","woman","","","","null","","","","","","","","",""
"null","is kissing","","html-keyboard-response","406","2258026","0.0-19.0-2.5","15639","List2B","black","woman","","","","null","","","","","","","","",""
"12669.600000023842","","","survey-text","407","2270698","0.0-19.0-3.5","15639","List2B","black","woman","","","","","{""Q0"":""luke is kissing fred""}","<img src=""stim_listB/kiss5.gif""style=""height:400px;""></stim_listB>","is kissing","","","","","",""
"null","<div style=""font-size:60px;"">+</div>","","html-keyboard-response","408","2271199","0.0-19.0-0.6","15639","List2B","black","woman","","","","null","","","","","","","","",""
"null","<img src=""stim_listB/look4.gif""style=""height:400px;""></stim_listB>","","html-keyboard-response","409","2273204","0.0-19.0-1.6","15639","List2B","black","woman","","","","null","","","","","","","","",""
"null","is being looked at by","","html-keyboard-response","410","2275207","0.0-19.0-2.6","15639","List2B","black","woman","","","","null","","","","","","","","",""
"19312.200000047684","","","survey-text","411","2294521","0.0-19.0-3.6","15639","List2B","black","woman","","","","","{""Q0"":""kate is being looked by mike""}","<img src=""stim_listB/look4.gif""style=""height:400px;""></stim_listB>","is being looked at by","","","","","",""
"null","<div style=""font-size:60px;"">+</div>","","html-keyboard-response","412","2295026","0.0-19.0-0.7","15639","List2B","black","woman","","","","null","","","","","","","","",""
"null","<img src=""stim_listB/look6.gif""style=""height:400px;""></stim_listB>","","html-keyboard-response","413","2297028","0.0-19.0-1.7","15639","List2B","black","woman","","","","null","","","","","","","","",""
"null","is being looked at by","","html-keyboard-response","414","2299029","0.0-19.0-2.7","15639","List2B","black","woman","","","","null","","","","","","","","",""
"13905.799999952316","","","survey-text","415","2312937","0.0-19.0-3.7","15639","List2B","black","woman","","","","","{""Q0"":""mike is being looked by dave""}","<img src=""stim_listB/look6.gif""style=""height:400px;""></stim_listB>","is being looked at by","","","","","",""
"null","<div style=""font-size:60px;"">+</div>","","html-keyboard-response","416","2313440","0.0-19.0-0.8","15639","List2B","black","woman","","","","null","","","","","","","","",""
"null","<img src=""stim_listB/challenge5.gif""style=""height:400px;""></stim_listB>","","html-keyboard-response","417","2315442","0.0-19.0-1.8","15639","List2B","black","woman","","","","null","","","","","","","","",""
"null","is challenging","","html-keyboard-response","418","2317445","0.0-19.0-2.8","15639","List2B","black","woman","","","","null","","","","","","","","",""
"12785.600000023842","","","survey-text","419","2330233","0.0-19.0-3.8","15639","List2B","black","woman","","","","","{""Q0"":""dave is challenging fred""}","<img src=""stim_listB/challenge5.gif""style=""height:400px;""></stim_listB>","is challenging","","","","","",""
"null","<div style=""font-size:60px;"">+</div>","","html-keyboard-response","420","2330735","0.0-19.0-0.9","15639","List2B","black","woman","","","","null","","","","","","","","",""
"null","<img src=""stim_listB/challenge7.gif""style=""height:400px;""></stim_listB>","","html-keyboard-response","421","2332750","0.0-19.0-1.9","15639","List2B","black","woman","","","","null","","","","","","","","",""
"null","is challenging","","html-keyboard-response","422","2334751","0.0-19.0-2.9","15639","List2B","black","woman","","","","null","","","","","","","","",""
"10566.899999976158","","","survey-text","423","2345320","0.0-19.0-3.9","15639","List2B","black","woman","","","","","{""Q0"":""beth is challenging jane""}","<img src=""stim_listB/challenge7.gif""style=""height:400px;""></stim_listB>","is challenging","","","","","",""
"null","<div style=""font-size:60px;"">+</div>","","html-keyboard-response","424","2345830","0.0-19.0-0.10","15639","List2B","black","woman","","","","null","","","","","","","","",""
"null","<img src=""stim_listB/hug3.gif""style=""height:400px;""></stim_listB>","","html-keyboard-response","425","2347844","0.0-19.0-1.10","15639","List2B","black","woman","","","","null","","","","","","","","",""
"null","is hugging","","html-keyboard-response","426","2349845","0.0-19.0-2.10","15639","List2B","black","woman","","","","null","","","","","","","","",""
"14385","","","survey-text","427","2364232","0.0-19.0-3.10","15639","List2B","black","woman","","","","","{""Q0"":""beth is challenging fred""}","<img src=""stim_listB/hug3.gif""style=""height:400px;""></stim_listB>","is hugging","","","","","",""
"null","<div style=""font-size:60px;"">+</div>","","html-keyboard-response","428","2364747","0.0-19.0-0.11","15639","List2B","black","woman","","","","null","","","","","","","","",""
"null","<img src=""stim_listB/challenge8.gif""style=""height:400px;""></stim_listB>","","html-keyboard-response","429","2366751","0.0-19.0-1.11","15639","List2B","black","woman","","","","null","","","","","","","","",""
"null","is being challenged by","","html-keyboard-response","430","2368766","0.0-19.0-2.11","15639","List2B","black","woman","","","","null","","","","","","","","",""
"18240.300000071526","","","survey-text","431","2387008","0.0-19.0-3.11","15639","List2B","black","woman","","","","","{""Q0"":""kate is challenged by ruth""}","<img src=""stim_listB/challenge8.gif""style=""height:400px;""></stim_listB>","is being challenged by","","","","","",""
"null","<div style=""font-size:60px;"">+</div>","","html-keyboard-response","432","2387510","0.0-19.0-0.12","15639","List2B","black","woman","","","","null","","","","","","","","",""
"null","<img src=""stim_listB/touch4.gif""style=""height:400px;""></stim_listB>","","html-keyboard-response","433","2389512","0.0-19.0-1.12","15639","List2B","black","woman","","","","null","","","","","","","","",""
"null","is being touched by","","html-keyboard-response","434","2391514","0.0-19.0-2.12","15639","List2B","black","woman","","","","null","","","","","","","","",""
"11219.699999928474","","","survey-text","435","2402736","0.0-19.0-3.12","15639","List2B","black","woman","","","","","{""Q0"":""beth is being touched by fred""}","<img src=""stim_listB/touch4.gif""style=""height:400px;""></stim_listB>","is being touched by","","","","","",""
"null","<div style=""font-size:60px;"">+</div>","","html-keyboard-response","436","2403252","0.0-19.0-0.13","15639","List2B","black","woman","","","","null","","","","","","","","",""
"null","<img src=""stim_listB/greet7.gif""style=""height:400px;""></stim_listB>","","html-keyboard-response","437","2405255","0.0-19.0-1.13","15639","List2B","black","woman","","","","null","","","","","","","","",""
"null","is greeting","","html-keyboard-response","438","2407268","0.0-19.0-2.13","15639","List2B","black","woman","","","","null","","","","","","","","",""
"13513","","","survey-text","439","2420784","0.0-19.0-3.13","15639","List2B","black","woman","","","","","{""Q0"":""jane is greeting beth""}","<img src=""stim_listB/greet7.gif""style=""height:400px;""></stim_listB>","is greeting","","","","","",""
"null","<div style=""font-size:60px;"">+</div>","","html-keyboard-response","440","2421299","0.0-19.0-0.14","15639","List2B","black","woman","","","","null","","","","","","","","",""
"null","<img src=""stim_listB/challenge4.gif""style=""height:400px;""></stim_listB>","","html-keyboard-response","441","2423302","0.0-19.0-1.14","15639","List2B","black","woman","","","","null","","","","","","","","",""
"null","is being challenged by","","html-keyboard-response","442","2425313","0.0-19.0-2.14","15639","List2B","black","woman","","","","null","","","","","","","","",""
"12140.300000071526","","","survey-text","443","2437456","0.0-19.0-3.14","15639","List2B","black","woman","","","","","{""Q0"":""kate is challenging fred""}","<img src=""stim_listB/challenge4.gif""style=""height:400px;""></stim_listB>","is being challenged by","","","","","",""
"null","<div style=""font-size:60px;"">+</div>","","html-keyboard-response","444","2437972","0.0-19.0-0.15","15639","List2B","black","woman","","","","null","","","","","","","","",""
"null","<img src=""stim_listB/greet6.gif""style=""height:400px;""></stim_listB>","","html-keyboard-response","445","2439973","0.0-19.0-1.15","15639","List2B","black","woman","","","","null","","","","","","","","",""
"null","is being greeted by","","html-keyboard-response","446","2441974","0.0-19.0-2.15","15639","List2B","black","woman","","","","null","","","","","","","","",""
"16015","","","survey-text","447","2457992","0.0-19.0-3.15","15639","List2B","black","woman","","","","","{""Q0"":""luke is being greeted by mike""}","<img src=""stim_listB/greet6.gif""style=""height:400px;""></stim_listB>","is being greeted by","","","","","",""
"null","<div style=""font-size:60px;"">+</div>","","html-keyboard-response","448","2458501","0.0-19.0-0.16","15639","List2B","black","woman","","","","null","","","","","","","","",""
"null","<img src=""stim_listB/touch3.gif""style=""height:400px;""></stim_listB>","","html-keyboard-response","449","2460504","0.0-19.0-1.16","15639","List2B","black","woman","","","","null","","","","","","","","",""
"null","is touching","","html-keyboard-response","450","2462518","0.0-19.0-2.16","15639","List2B","black","woman","","","","null","","","","","","","","",""
"18806.600000023842","","","survey-text","451","2481328","0.0-19.0-3.16","15639","List2B","black","woman","","","","","{""Q0"":""mike is touching jane""}","<img src=""stim_listB/touch3.gif""style=""height:400px;""></stim_listB>","is touching","","","","","",""
"null","<div style=""font-size:60px;"">+</div>","","html-keyboard-response","452","2481833","0.0-19.0-0.17","15639","List2B","black","woman","","","","null","","","","","","","","",""
"null","<img src=""stim_listB/copy8.gif""style=""height:400px;""></stim_listB>","","html-keyboard-response","453","2483844","0.0-19.0-1.17","15639","List2B","black","woman","","","","null","","","","","","","","",""
"null","is being copied by","","html-keyboard-response","454","2485850","0.0-19.0-2.17","15639","List2B","black","woman","","","","null","","","","","","","","",""
"24034.900000095367","","","survey-text","455","2509887","0.0-19.0-3.17","15639","List2B","black","woman","","","","","{""Q0"":""ruth is being touched kate""}","<img src=""stim_listB/copy8.gif""style=""height:400px;""></stim_listB>","is being copied by","","","","","",""
"null","<div style=""font-size:60px;"">+</div>","","html-keyboard-response","456","2510390","0.0-19.0-0.18","15639","List2B","black","woman","","","","null","","","","","","","","",""
"null","<img src=""stim_listB/hug2.gif""style=""height:400px;""></stim_listB>","","html-keyboard-response","457","2512407","0.0-19.0-1.18","15639","List2B","black","woman","","","","null","","","","","","","","",""
"null","is being hugged by","","html-keyboard-response","458","2514418","0.0-19.0-2.18","15639","List2B","black","woman","","","","null","","","","","","","","",""
"25890.600000023842","","","survey-text","459","2540311","0.0-19.0-3.18","15639","List2B","black","woman","","","","","{""Q0"":""jane  is being hugged by dave""}","<img src=""stim_listB/hug2.gif""style=""height:400px;""></stim_listB>","is being hugged by","","","","","",""
"null","<div style=""font-size:60px;"">+</div>","","html-keyboard-response","460","2540813","0.0-19.0-0.19","15639","List2B","black","woman","","","","null","","","","","","","","",""
"null","<img src=""stim_listB/challenge3.gif""style=""height:400px;""></stim_listB>","","html-keyboard-response","461","2542816","0.0-19.0-1.19","15639","List2B","black","woman","","","","null","","","","","","","","",""
"null","is challenging","","html-keyboard-response","462","2544829","0.0-19.0-2.19","15639","List2B","black","woman","","","","null","","","","","","","","",""
"12631.200000047684","","","survey-text","463","2557463","0.0-19.0-3.19","15639","List2B","black","woman","","","","","{""Q0"":""beth is challenging luke""}","<img src=""stim_listB/challenge3.gif""style=""height:400px;""></stim_listB>","is challenging","","","","","",""
"4358.399999976158","<p>Thank you for completing that task.</p><p>The final part of this session is a questionnaire that will take about 4 minutes.</p><p>Press Continue.</p>","0","html-button-response","464","2561823","0.0-20.0","15639","List2B","black","woman","","","","","","","","","","","","",""
"38988.5","","","survey-text","465","2601822","0.0-21.0","15639","List2B","black","woman","","","","","{""Q0"":""32"",""Q1"":""english"",""Q2"":""english"",""Q3"":""USA"",""Q4"":""Black American"",""Q5"":""Black"",""Q6"":""Female""}","","","demographics","","","","",""
"3198.6999999284744","<p>Have you lived in the USA for the last 5 years or more?</p>","0","html-button-response","466","2605023","0.0-22.0","15639","List2B","black","woman","","","","","","","","fiveyears","","","","",""
"3049.5999999046326","<p>Move the slider to show the extent to which you agree with the following statements.</p>","0","html-button-response","467","2609093","0.0-23.0","15639","List2B","black","woman","","","","","","","","","","","","",""
"6654.600000023842","","","html-slider-response","468","2616758","0.0-24.0-0.0-0.0","15639","List2B","black","woman","","","","","","","","survey_gender","0","","","I would say I am an animal person.","filler"
"8908.700000047684","","","html-slider-response","469","2625669","0.0-24.0-0.0-0.1","15639","List2B","black","woman","","","","","","","","survey_gender","60","","","My friends have a lot in common with each other.","filler"
"3765.9000000953674","","","html-slider-response","470","2629437","0.0-24.0-0.0-0.2","15639","List2B","black","woman","","","","","","","","survey_gender","82","","","My friends understand me.","filler"
"4718.200000047684","","","html-slider-response","471","2634157","0.0-24.0-0.0-0.3","15639","List2B","black","woman","","","","","","","","survey_gender","8","","","Routine is not important to me.","filler"
"3733.7999999523163","","","html-slider-response","472","2637893","0.0-24.0-0.0-0.4","15639","List2B","black","woman","","","","","","","","survey_gender","99","","","Being my gender is an important part of how I see myself.","important"
"3685.8000000715256","","","html-slider-response","473","2641581","0.0-24.0-0.0-0.5","15639","List2B","black","woman","","","","","","","","survey_gender","75","","","I think that my gender has a lot to be proud of.","proud"
"3990.100000023842","","","html-slider-response","474","2645573","0.0-24.0-0.0-0.6","15639","List2B","black","woman","","","","","","","","survey_gender","91","","","I consider myself a highly empathetic person.","filler"
"2854.100000023842","","","html-slider-response","475","2648429","0.0-24.0-0.0-0.7","15639","List2B","black","woman","","","","","","","","survey_gender","80","","","People of my gender are very similar to each other.","verysimilar"
"2277.899999976158","","","html-slider-response","476","2650709","0.0-24.0-0.0-0.8","15639","List2B","black","woman","","","","","","","","survey_gender","79","","","I feel a bond with my friends.","filler"
"2622.7000000476837","","","html-slider-response","477","2653333","0.0-24.0-0.0-0.9","15639","List2B","black","woman","","","","","","","","survey_gender","75","","","Being around my friends gives me a good feeling.","filler"
