rt,stimulus,button_pressed,trial_type,trial_index,time_elapsed,internal_node_id,subject,list,ppt_race,ppt_gender,url,first_guess,correct,key_press,responses,image_type,phrase_type,test_part,response,stimulus1,stimulus2,question_type,survey_item
5533.2,Welcome to the experiment. Press Continue to begin.,0,html-button-response,0,5547,0.0-0.0,1578,List2B,black,woman,,,,,,,,,,,,,
20674.7,,,external-html,1,27278,0.0-1.0,1578,List2B,black,woman,consent.html,,,,,,,,,,,,
1527.2,"<p>On the next page, you will see portraits of 8 people and their names.</p><p>Your first task is to take a few minutes to memorise the names of these people.</p><p>You will have to recall their names during the rest of the experiment, so it is</p><p>essential that you try to memorise these people and their names as best as you can.</p><br><p><strong>You will then be tested on your memory of these names and portraits.</strong></p><br><p>The experiment will start after you have completed this memory test.</p><br><p>Ready?</p>",0,html-button-response,2,28814,0.0-2.0,1578,List2B,black,woman,,,,,,,,,,,,,
5870.1,"<img src='img/portrait_matrix_list2.jpg' style='width:900px;height:500px;''></img><p>If you have memorised all the portraits and names and are ready to start, press Continue.</p><p><strong>Please note: Your memory of these faces will be tested 4 times during this experiment.</strong></p>",0,html-button-response,3,35697,0.0-3.0-0.0,1578,List2B,black,woman,,,,,,,,,,,,,
5668.5,"<img src=""portrait/BW1.jpg""style=""height:400px;""></img>",0,html-button-response,4,42379,0.0-3.0-1.0,1578,List2B,black,woman,,TRUE,0,,,,,,,,,,
null,CORRECT,,html-keyboard-response,5,43917,0.0-3.0-2.0-0.0,1578,List2B,black,woman,,,,null,,,,,,,,,
2866.6,"<img src=""portrait/WM1.jpg""style=""height:400px;""></img>",6,html-button-response,6,46800,0.0-3.0-4.0,1578,List2B,black,woman,,TRUE,6,,,,,,,,,,
null,CORRECT,,html-keyboard-response,7,48314,0.0-3.0-5.0-0.0,1578,List2B,black,woman,,,,null,,,,,,,,,
3440.9,"<img src=""portrait/BW2.jpg""style=""height:400px;""></img>",2,html-button-response,8,51766,0.0-3.0-7.0,1578,List2B,black,woman,,TRUE,2,,,,,,,,,,
null,CORRECT,,html-keyboard-response,9,53277,0.0-3.0-8.0-0.0,1578,List2B,black,woman,,,,null,,,,,,,,,
3008,"<img src=""portrait/BM2.jpg""style=""height:400px;""></img>",5,html-button-response,10,56301,0.0-3.0-10.0,1578,List2B,black,woman,,TRUE,5,,,,,,,,,,
null,CORRECT,,html-keyboard-response,11,57809,0.0-3.0-11.0-0.0,1578,List2B,black,woman,,,,null,,,,,,,,,
3128.9,"<img src=""portrait/BM1.jpg""style=""height:400px;""></img>",4,html-button-response,12,60949,0.0-3.0-13.0,1578,List2B,black,woman,,TRUE,4,,,,,,,,,,
null,CORRECT,,html-keyboard-response,13,62454,0.0-3.0-14.0-0.0,1578,List2B,black,woman,,,,null,,,,,,,,,
3857.2,"<img src=""portrait/WW1.jpg""style=""height:400px;""></img>",3,html-button-response,14,66319,0.0-3.0-16.0,1578,List2B,black,woman,,TRUE,1,,,,,,,,,,
2718,"<img src=""portrait/WW1.jpg""style=""height:400px;""></img>",0,html-button-response,15,70049,0.0-3.0-18.0-0.0,1578,List2B,black,woman,,FALSE,1,,,,,,,,,,
null,INCORRECT,,html-keyboard-response,16,71563,0.0-3.0-18.0-2.0-0.0,1578,List2B,black,woman,,,,null,,,,,,,,,
3610.6,"<img src=""portrait/WW2.jpg""style=""height:400px;""></img>",3,html-button-response,17,75183,0.0-3.0-19.0,1578,List2B,black,woman,,TRUE,3,,,,,,,,,,
null,CORRECT,,html-keyboard-response,18,76692,0.0-3.0-20.0-0.0,1578,List2B,black,woman,,,,null,,,,,,,,,
4311,"<img src=""portrait/WM2.jpg""style=""height:400px;""></img>",7,html-button-response,19,81017,0.0-3.0-22.0,1578,List2B,black,woman,,TRUE,7,,,,,,,,,,
null,CORRECT,,html-keyboard-response,20,82527,0.0-3.0-23.0-0.0,1578,List2B,black,woman,,,,null,,,,,,,,,
2443.8,<p>You got 7 out of 8 right first time. Press Continue.</p>,0,html-button-response,21,84982,0.0-3.0-25.0,1578,List2B,black,woman,,,,,,,,,,,,,
2073.5,"As you did not score 100%, the memory game will repeat. Press Continue.",0,html-button-response,22,88065,0.0-3.0-26.0-0.0,1578,List2B,black,woman,,,,,,,,,,,,,
1984.2,"<img src='img/portrait_matrix_list2.jpg' style='width:900px;height:500px;''></img><p>If you have memorised all the portraits and names and are ready to start, press Continue.</p><p><strong>Please note: Your memory of these faces will be tested 4 times during this experiment.</strong></p>",0,html-button-response,23,91064,0.0-3.1-0.1,1578,List2B,black,woman,,,,,,,,,,,,,
6445.7,"<img src=""portrait/BW1.jpg""style=""height:400px;""></img>",0,html-button-response,24,98523,0.0-3.1-1.1,1578,List2B,black,woman,,TRUE,0,,,,,,,,,,
null,CORRECT,,html-keyboard-response,25,100032,0.0-3.1-2.1-0.1,1578,List2B,black,woman,,,,null,,,,,,,,,
5257.3,"<img src=""portrait/WM1.jpg""style=""height:400px;""></img>",6,html-button-response,26,105303,0.0-3.1-4.1,1578,List2B,black,woman,,TRUE,6,,,,,,,,,,
null,CORRECT,,html-keyboard-response,27,106815,0.0-3.1-5.1-0.1,1578,List2B,black,woman,,,,null,,,,,,,,,
3904,"<img src=""portrait/BW2.jpg""style=""height:400px;""></img>",2,html-button-response,28,110733,0.0-3.1-7.1,1578,List2B,black,woman,,TRUE,2,,,,,,,,,,
null,CORRECT,,html-keyboard-response,29,112242,0.0-3.1-8.1-0.1,1578,List2B,black,woman,,,,null,,,,,,,,,
2778,"<img src=""portrait/BM2.jpg""style=""height:400px;""></img>",5,html-button-response,30,115035,0.0-3.1-10.1,1578,List2B,black,woman,,TRUE,5,,,,,,,,,,
null,CORRECT,,html-keyboard-response,31,116544,0.0-3.1-11.1-0.1,1578,List2B,black,woman,,,,null,,,,,,,,,
2028.8,"<img src=""portrait/BM1.jpg""style=""height:400px;""></img>",4,html-button-response,32,118585,0.0-3.1-13.1,1578,List2B,black,woman,,TRUE,4,,,,,,,,,,
null,CORRECT,,html-keyboard-response,33,120095,0.0-3.1-14.1-0.1,1578,List2B,black,woman,,,,null,,,,,,,,,
5860.1,"<img src=""portrait/WW1.jpg""style=""height:400px;""></img>",1,html-button-response,34,125967,0.0-3.1-16.1,1578,List2B,black,woman,,TRUE,1,,,,,,,,,,
null,CORRECT,,html-keyboard-response,35,127478,0.0-3.1-17.1-0.1,1578,List2B,black,woman,,,,null,,,,,,,,,
6094.6,"<img src=""portrait/WW2.jpg""style=""height:400px;""></img>",3,html-button-response,36,133585,0.0-3.1-19.1,1578,List2B,black,woman,,TRUE,3,,,,,,,,,,
null,CORRECT,,html-keyboard-response,37,135092,0.0-3.1-20.1-0.1,1578,List2B,black,woman,,,,null,,,,,,,,,
3014,"<img src=""portrait/WM2.jpg""style=""height:400px;""></img>",7,html-button-response,38,138120,0.0-3.1-22.1,1578,List2B,black,woman,,TRUE,7,,,,,,,,,,
null,CORRECT,,html-keyboard-response,39,139629,0.0-3.1-23.1-0.1,1578,List2B,black,woman,,,,null,,,,,,,,,
1812.2,<p>You got 8 out of 8 right first time. Press Continue.</p>,0,html-button-response,40,141452,0.0-3.1-25.1,1578,List2B,black,woman,,,,,,,,,,,,,
2628.4,"<p>In this experiment, you will view photographs of the people from the memory game interacting.</p><p>By using the <strong>exact</strong> phrase given <i>after</i> the photograph appears and recalling the correct names of the people in the photographs, form a sentence describing the interaction. You do not need to capitalise names.</p><p>Type your answer in the space provided. Please complete every sentence before moving onto the next trial.</p><p>You will only have a few seconds to memorise each given photograph and phrase before you can respond, so try your best to focus.</p><p>An example is given below. Press 'Continue' when you are ready.</p><img src='img/speaking_example.jpg' style='width:800px;height:460px;''></img>",0,html-button-response,41,145098,0.0-4.0,1578,List2B,black,woman,,,,,,,,,,,,,
2512.9,"<p>Before the experiment starts, you will watch two example trials. Press 'Continue'.</p>",0,html-button-response,42,148619,0.0-5.0,1578,List2B,black,woman,,,,,,,,,,,,,
null,<img src='img/play_eg.gif' style='height:400px;''></img>,,html-keyboard-response,43,151634,0.0-6.0,1578,List2B,black,woman,,,,null,,,,,,,,,
null,<p>is playing with</p>,,html-keyboard-response,44,153643,0.0-7.0,1578,List2B,black,woman,,,,null,,,,,,,,,
4018.9,<p><b>Answer:</b> jane is playing with ruth</p>,0,html-button-response,45,157669,0.0-8.0,1578,List2B,black,woman,,,,,,,,,,,,,
null,<img src='img/dance_eg.gif' style='height:400px;''></img>,,html-keyboard-response,46,160682,0.0-9.0,1578,List2B,black,woman,,,,null,,,,,,,,,
null,<p>is being entertained by</p>,,html-keyboard-response,47,162687,0.0-10.0,1578,List2B,black,woman,,,,null,,,,,,,,,
2560.5,<p><b>Answer:</b> fred is being entertained by mike</p>,0,html-button-response,48,165255,0.0-11.0,1578,List2B,black,woman,,,,,,,,,,,,,
2405.4,"<p>Ready to start the experiment?</p><br><p><strong>Remember to describe the picture using a full sentence,</strong></p><p><strong>that combines the names of the people with the <i>exact</i> phrase given.</strong></p><p><strong>To receive full payment you must do this correctly.</strong></p><p><strong> You do not need to capitalise names or use punctuation.</strong></p><br><p>Press 'Continue' to begin.</p>",0,html-button-response,49,168671,0.0-12.0,1578,List2B,black,woman,,,,,,,,,,,,,
null,"<div style=""font-size:60px;"">+</div>",,html-keyboard-response,50,170181,0.0-13.0-0.0,1578,List2B,black,woman,,,,null,,,,,,,,,
null,"<img src=""stim_listB/oppose8.gif""style=""height:400px;""></stim_listB>",,html-keyboard-response,51,172196,0.0-13.0-1.0,1578,List2B,black,woman,,,,null,,,,,,,,,
null,is being opposed by,,html-keyboard-response,52,174204,0.0-13.0-2.0,1578,List2B,black,woman,,,,null,,,,,,,,,
22463.2,,,survey-text,53,196710,0.0-13.0-3.0,1578,List2B,black,woman,,,,,"{""Q0"":""Ruth is been opposed by Beth""}","<img src=""stim_listB/oppose8.gif""style=""height:400px;""></stim_listB>",is being opposed by,,,,,,
null,"<div style=""font-size:60px;"">+</div>",,html-keyboard-response,54,197217,0.0-13.0-0.1,1578,List2B,black,woman,,,,null,,,,,,,,,
null,"<img src=""stim_listB/copy7.gif""style=""height:400px;""></stim_listB>",,html-keyboard-response,55,199224,0.0-13.0-1.1,1578,List2B,black,woman,,,,null,,,,,,,,,
null,is copying,,html-keyboard-response,56,201231,0.0-13.0-2.1,1578,List2B,black,woman,,,,null,,,,,,,,,
26994.7,,,survey-text,57,228246,0.0-13.0-3.1,1578,List2B,black,woman,,,,,"{""Q0"":""Beth is copying Ruth""}","<img src=""stim_listB/copy7.gif""style=""height:400px;""></stim_listB>",is copying,,,,,,
null,"<div style=""font-size:60px;"">+</div>",,html-keyboard-response,58,228753,0.0-13.0-0.2,1578,List2B,black,woman,,,,null,,,,,,,,,
null,"<img src=""stim_listB/challenge5.gif""style=""height:400px;""></stim_listB>",,html-keyboard-response,59,230763,0.0-13.0-1.2,1578,List2B,black,woman,,,,null,,,,,,,,,
null,is challenging,,html-keyboard-response,60,232774,0.0-13.0-2.2,1578,List2B,black,woman,,,,null,,,,,,,,,
16700.1,,,survey-text,61,249551,0.0-13.0-3.2,1578,List2B,black,woman,,,,,"{""Q0"":""Fred is challenging Dave""}","<img src=""stim_listB/challenge5.gif""style=""height:400px;""></stim_listB>",is challenging,,,,,,
null,"<div style=""font-size:60px;"">+</div>",,html-keyboard-response,62,250057,0.0-13.0-0.3,1578,List2B,black,woman,,,,null,,,,,,,,,
null,"<img src=""stim_listB/hug4.gif""style=""height:400px;""></stim_listB>",,html-keyboard-response,63,252065,0.0-13.0-1.3,1578,List2B,black,woman,,,,null,,,,,,,,,
null,is being hugged by,,html-keyboard-response,64,254076,0.0-13.0-2.3,1578,List2B,black,woman,,,,null,,,,,,,,,
16357.1,,,survey-text,65,270459,0.0-13.0-3.3,1578,List2B,black,woman,,,,,"{""Q0"":""Mike is been hugged by kate""}","<img src=""stim_listB/hug4.gif""style=""height:400px;""></stim_listB>",is being hugged by,,,,,,
null,"<div style=""font-size:60px;"">+</div>",,html-keyboard-response,66,270966,0.0-13.0-0.4,1578,List2B,black,woman,,,,null,,,,,,,,,
null,"<img src=""stim_listB/challenge1.gif""style=""height:400px;""></stim_listB>",,html-keyboard-response,67,272980,0.0-13.0-1.4,1578,List2B,black,woman,,,,null,,,,,,,,,
null,is challenging,,html-keyboard-response,68,274989,0.0-13.0-2.4,1578,List2B,black,woman,,,,null,,,,,,,,,
22098.6,,,survey-text,69,297111,0.0-13.0-3.4,1578,List2B,black,woman,,,,,"{""Q0"":""Dave is been challenged by jane""}","<img src=""stim_listB/challenge1.gif""style=""height:400px;""></stim_listB>",is challenging,,,,,,
null,"<div style=""font-size:60px;"">+</div>",,html-keyboard-response,70,297618,0.0-13.0-0.5,1578,List2B,black,woman,,,,null,,,,,,,,,
null,"<img src=""stim_listB/touch5.gif""style=""height:400px;""></stim_listB>",,html-keyboard-response,71,299625,0.0-13.0-1.5,1578,List2B,black,woman,,,,null,,,,,,,,,
null,is touching,,html-keyboard-response,72,301632,0.0-13.0-2.5,1578,List2B,black,woman,,,,null,,,,,,,,,
17192.8,,,survey-text,73,318843,0.0-13.0-3.5,1578,List2B,black,woman,,,,,"{""Q0"":""Dave is touching Mike""}","<img src=""stim_listB/touch5.gif""style=""height:400px;""></stim_listB>",is touching,,,,,,
null,"<div style=""font-size:60px;"">+</div>",,html-keyboard-response,74,319351,0.0-13.0-0.6,1578,List2B,black,woman,,,,null,,,,,,,,,
null,"<img src=""stim_listB/challenge4.gif""style=""height:400px;""></stim_listB>",,html-keyboard-response,75,321360,0.0-13.0-1.6,1578,List2B,black,woman,,,,null,,,,,,,,,
null,is being challenged by,,html-keyboard-response,76,323370,0.0-13.0-2.6,1578,List2B,black,woman,,,,null,,,,,,,,,
17173.8,,,survey-text,77,340584,0.0-13.0-3.6,1578,List2B,black,woman,,,,,"{""Q0"":""Fred is been challenged by kate""}","<img src=""stim_listB/challenge4.gif""style=""height:400px;""></stim_listB>",is being challenged by,,,,,,
null,"<div style=""font-size:60px;"">+</div>",,html-keyboard-response,78,341090,0.0-13.0-0.7,1578,List2B,black,woman,,,,null,,,,,,,,,
null,"<img src=""stim_listB/seduce7.gif""style=""height:400px;""></stim_listB>",,html-keyboard-response,79,343098,0.0-13.0-1.7,1578,List2B,black,woman,,,,null,,,,,,,,,
null,is seducing,,html-keyboard-response,80,345108,0.0-13.0-2.7,1578,List2B,black,woman,,,,null,,,,,,,,,
22284.3,,,survey-text,81,367434,0.0-13.0-3.7,1578,List2B,black,woman,,,,,"{""Q0"":""Kate is seducing Ruth""}","<img src=""stim_listB/seduce7.gif""style=""height:400px;""></stim_listB>",is seducing,,,,,,
null,"<div style=""font-size:60px;"">+</div>",,html-keyboard-response,82,367943,0.0-13.0-0.8,1578,List2B,black,woman,,,,null,,,,,,,,,
null,"<img src=""stim_listB/oppose2.gif""style=""height:400px;""></stim_listB>",,html-keyboard-response,83,369958,0.0-13.0-1.8,1578,List2B,black,woman,,,,null,,,,,,,,,
null,is being opposed by,,html-keyboard-response,84,371968,0.0-13.0-2.8,1578,List2B,black,woman,,,,null,,,,,,,,,
24663.1,,,survey-text,85,396665,0.0-13.0-3.8,1578,List2B,black,woman,,,,,"{""Q0"":""Ruth is been opposed by Luke""}","<img src=""stim_listB/oppose2.gif""style=""height:400px;""></stim_listB>",is being opposed by,,,,,,
null,"<div style=""font-size:60px;"">+</div>",,html-keyboard-response,86,397171,0.0-13.0-0.9,1578,List2B,black,woman,,,,null,,,,,,,,,
null,"<img src=""stim_listB/shout1.gif""style=""height:400px;""></stim_listB>",,html-keyboard-response,87,399187,0.0-13.0-1.9,1578,List2B,black,woman,,,,null,,,,,,,,,
null,is shouting at,,html-keyboard-response,88,401196,0.0-13.0-2.9,1578,List2B,black,woman,,,,null,,,,,,,,,
20896,,,survey-text,89,422117,0.0-13.0-3.9,1578,List2B,black,woman,,,,,"{""Q0"":""Luke is shouting at Ruth""}","<img src=""stim_listB/shout1.gif""style=""height:400px;""></stim_listB>",is shouting at,,,,,,
null,"<div style=""font-size:60px;"">+</div>",,html-keyboard-response,90,422623,0.0-13.0-0.10,1578,List2B,black,woman,,,,null,,,,,,,,,
null,"<img src=""stim_listB/hug3.gif""style=""height:400px;""></stim_listB>",,html-keyboard-response,91,424632,0.0-13.0-1.10,1578,List2B,black,woman,,,,null,,,,,,,,,
null,is hugging,,html-keyboard-response,92,426638,0.0-13.0-2.10,1578,List2B,black,woman,,,,null,,,,,,,,,
9956.6,,,survey-text,93,436619,0.0-13.0-3.10,1578,List2B,black,woman,,,,,"{""Q0"":""Fred is hugging beth""}","<img src=""stim_listB/hug3.gif""style=""height:400px;""></stim_listB>",is hugging,,,,,,
null,"<div style=""font-size:60px;"">+</div>",,html-keyboard-response,94,437125,0.0-13.0-0.11,1578,List2B,black,woman,,,,null,,,,,,,,,
null,"<img src=""stim_listB/shout8.gif""style=""height:400px;""></stim_listB>",,html-keyboard-response,95,439134,0.0-13.0-1.11,1578,List2B,black,woman,,,,null,,,,,,,,,
null,is being shouted at by,,html-keyboard-response,96,441142,0.0-13.0-2.11,1578,List2B,black,woman,,,,null,,,,,,,,,
15823.7,,,survey-text,97,456988,0.0-13.0-3.11,1578,List2B,black,woman,,,,,"{""Q0"":""Jane is being shouted at by kate""}","<img src=""stim_listB/shout8.gif""style=""height:400px;""></stim_listB>",is being shouted at by,,,,,,
null,"<div style=""font-size:60px;"">+</div>",,html-keyboard-response,98,457496,0.0-13.0-0.12,1578,List2B,black,woman,,,,null,,,,,,,,,
null,"<img src=""stim_listB/shout2.gif""style=""height:400px;""></stim_listB>",,html-keyboard-response,99,459508,0.0-13.0-1.12,1578,List2B,black,woman,,,,null,,,,,,,,,
null,is being shouted at by,,html-keyboard-response,100,461513,0.0-13.0-2.12,1578,List2B,black,woman,,,,null,,,,,,,,,
13624.6,,,survey-text,101,475154,0.0-13.0-3.12,1578,List2B,black,woman,,,,,"{""Q0"":""Jane is being shouted at by Dave""}","<img src=""stim_listB/shout2.gif""style=""height:400px;""></stim_listB>",is being shouted at by,,,,,,
null,"<div style=""font-size:60px;"">+</div>",,html-keyboard-response,102,475662,0.0-13.0-0.13,1578,List2B,black,woman,,,,null,,,,,,,,,
null,"<img src=""stim_listB/seduce3.gif""style=""height:400px;""></stim_listB>",,html-keyboard-response,103,477675,0.0-13.0-1.13,1578,List2B,black,woman,,,,null,,,,,,,,,
null,is seducing,,html-keyboard-response,104,479685,0.0-13.0-2.13,1578,List2B,black,woman,,,,null,,,,,,,,,
9281.9,,,survey-text,105,489005,0.0-13.0-3.13,1578,List2B,black,woman,,,,,"{""Q0"":""Fred is seducing Kate""}","<img src=""stim_listB/seduce3.gif""style=""height:400px;""></stim_listB>",is seducing,,,,,,
null,"<div style=""font-size:60px;"">+</div>",,html-keyboard-response,106,489511,0.0-13.0-0.14,1578,List2B,black,woman,,,,null,,,,,,,,,
null,"<img src=""stim_listB/hug8.gif""style=""height:400px;""></stim_listB>",,html-keyboard-response,107,491519,0.0-13.0-1.14,1578,List2B,black,woman,,,,null,,,,,,,,,
null,is being hugged by,,html-keyboard-response,108,493529,0.0-13.0-2.14,1578,List2B,black,woman,,,,null,,,,,,,,,
16857.5,,,survey-text,109,510409,0.0-13.0-3.14,1578,List2B,black,woman,,,,,"{""Q0"":""Kate is being hugged by jane""}","<img src=""stim_listB/hug8.gif""style=""height:400px;""></stim_listB>",is being hugged by,,,,,,
null,"<div style=""font-size:60px;"">+</div>",,html-keyboard-response,110,510914,0.0-13.0-0.15,1578,List2B,black,woman,,,,null,,,,,,,,,
null,"<img src=""stim_listB/copy4.gif""style=""height:400px;""></stim_listB>",,html-keyboard-response,111,512922,0.0-13.0-1.15,1578,List2B,black,woman,,,,null,,,,,,,,,
null,is being copied by,,html-keyboard-response,112,514931,0.0-13.0-2.15,1578,List2B,black,woman,,,,null,,,,,,,,,
24614.4,,,survey-text,113,539577,0.0-13.0-3.15,1578,List2B,black,woman,,,,,"{""Q0"":""Fred is being copied by kate""}","<img src=""stim_listB/copy4.gif""style=""height:400px;""></stim_listB>",is being copied by,,,,,,
null,"<div style=""font-size:60px;"">+</div>",,html-keyboard-response,114,540085,0.0-13.0-0.16,1578,List2B,black,woman,,,,null,,,,,,,,,
null,"<img src=""stim_listB/greet8.gif""style=""height:400px;""></stim_listB>",,html-keyboard-response,115,542094,0.0-13.0-1.16,1578,List2B,black,woman,,,,null,,,,,,,,,
null,is being greeted by,,html-keyboard-response,116,544101,0.0-13.0-2.16,1578,List2B,black,woman,,,,null,,,,,,,,,
15637.6,,,survey-text,117,559762,0.0-13.0-3.16,1578,List2B,black,woman,,,,,"{""Q0"":""Jane is been greeted by Kate""}","<img src=""stim_listB/greet8.gif""style=""height:400px;""></stim_listB>",is being greeted by,,,,,,
null,"<div style=""font-size:60px;"">+</div>",,html-keyboard-response,118,560269,0.0-13.0-0.17,1578,List2B,black,woman,,,,null,,,,,,,,,
null,"<img src=""stim_listB/copy8.gif""style=""height:400px;""></stim_listB>",,html-keyboard-response,119,562281,0.0-13.0-1.17,1578,List2B,black,woman,,,,null,,,,,,,,,
null,is being copied by,,html-keyboard-response,120,564291,0.0-13.0-2.17,1578,List2B,black,woman,,,,null,,,,,,,,,
19290.1,,,survey-text,121,583614,0.0-13.0-3.17,1578,List2B,black,woman,,,,,"{""Q0"":""Ruth is being copied by kate""}","<img src=""stim_listB/copy8.gif""style=""height:400px;""></stim_listB>",is being copied by,,,,,,
null,"<div style=""font-size:60px;"">+</div>",,html-keyboard-response,122,584120,0.0-13.0-0.18,1578,List2B,black,woman,,,,null,,,,,,,,,
null,"<img src=""stim_listB/touch2.gif""style=""height:400px;""></stim_listB>",,html-keyboard-response,123,586129,0.0-13.0-1.18,1578,List2B,black,woman,,,,null,,,,,,,,,
null,is being touched by,,html-keyboard-response,124,588139,0.0-13.0-2.18,1578,List2B,black,woman,,,,null,,,,,,,,,
14358.3,,,survey-text,125,602533,0.0-13.0-3.18,1578,List2B,black,woman,,,,,"{""Q0"":""Ruth is being touched by luke""}","<img src=""stim_listB/touch2.gif""style=""height:400px;""></stim_listB>",is being touched by,,,,,,
null,"<div style=""font-size:60px;"">+</div>",,html-keyboard-response,126,603039,0.0-13.0-0.19,1578,List2B,black,woman,,,,null,,,,,,,,,
null,"<img src=""stim_listB/copy2.gif""style=""height:400px;""></stim_listB>",,html-keyboard-response,127,605048,0.0-13.0-1.19,1578,List2B,black,woman,,,,null,,,,,,,,,
null,is being copied by,,html-keyboard-response,128,607054,0.0-13.0-2.19,1578,List2B,black,woman,,,,null,,,,,,,,,
14025.2,,,survey-text,129,621094,0.0-13.0-3.19,1578,List2B,black,woman,,,,,"{""Q0"":""Luke is being copied by jane""}","<img src=""stim_listB/copy2.gif""style=""height:400px;""></stim_listB>",is being copied by,,,,,,
26791.6,"<img src='img/portrait_matrix_list2.jpg' style='width:900px;height:500px;''></img><p>If you have memorised all the portraits and names and are ready to start, press Continue.</p><p><strong>Please note: Your memory of these faces will be tested 4 times during this experiment.</strong></p>",0,html-button-response,130,647902,0.0-14.0-0.0,1578,List2B,black,woman,,,,,,,,,,,,,
9024.4,"<img src=""portrait/BM2.jpg""style=""height:400px;""></img>",5,html-button-response,131,657953,0.0-14.0-1.0,1578,List2B,black,woman,,TRUE,5,,,,,,,,,,
null,CORRECT,,html-keyboard-response,132,659475,0.0-14.0-2.0-0.0,1578,List2B,black,woman,,,,null,,,,,,,,,
2576.8,"<img src=""portrait/BW1.jpg""style=""height:400px;""></img>",0,html-button-response,133,662066,0.0-14.0-4.0,1578,List2B,black,woman,,TRUE,0,,,,,,,,,,
null,CORRECT,,html-keyboard-response,134,663576,0.0-14.0-5.0-0.0,1578,List2B,black,woman,,,,null,,,,,,,,,
4945.2,"<img src=""portrait/BW2.jpg""style=""height:400px;""></img>",3,html-button-response,135,668533,0.0-14.0-7.0,1578,List2B,black,woman,,TRUE,2,,,,,,,,,,
5117,"<img src=""portrait/BW2.jpg""style=""height:400px;""></img>",2,html-button-response,136,674669,0.0-14.0-9.0-0.0,1578,List2B,black,woman,,FALSE,2,,,,,,,,,,
null,CORRECT,,html-keyboard-response,137,676186,0.0-14.0-9.0-1.0-0.0,1578,List2B,black,woman,,,,null,,,,,,,,,
3201.7,"<img src=""portrait/WM1.jpg""style=""height:400px;""></img>",6,html-button-response,138,679404,0.0-14.0-10.0,1578,List2B,black,woman,,TRUE,6,,,,,,,,,,
null,CORRECT,,html-keyboard-response,139,680916,0.0-14.0-11.0-0.0,1578,List2B,black,woman,,,,null,,,,,,,,,
2507.9,"<img src=""portrait/BM1.jpg""style=""height:400px;""></img>",4,html-button-response,140,683445,0.0-14.0-13.0,1578,List2B,black,woman,,TRUE,4,,,,,,,,,,
null,CORRECT,,html-keyboard-response,141,684955,0.0-14.0-14.0-0.0,1578,List2B,black,woman,,,,null,,,,,,,,,
4668.1,"<img src=""portrait/WW1.jpg""style=""height:400px;""></img>",1,html-button-response,142,689632,0.0-14.0-16.0,1578,List2B,black,woman,,TRUE,1,,,,,,,,,,
null,CORRECT,,html-keyboard-response,143,691139,0.0-14.0-17.0-0.0,1578,List2B,black,woman,,,,null,,,,,,,,,
2035,"<img src=""portrait/WW2.jpg""style=""height:400px;""></img>",3,html-button-response,144,693182,0.0-14.0-19.0,1578,List2B,black,woman,,TRUE,3,,,,,,,,,,
null,CORRECT,,html-keyboard-response,145,694691,0.0-14.0-20.0-0.0,1578,List2B,black,woman,,,,null,,,,,,,,,
2275.5,"<img src=""portrait/WM2.jpg""style=""height:400px;""></img>",7,html-button-response,146,696981,0.0-14.0-22.0,1578,List2B,black,woman,,TRUE,7,,,,,,,,,,
null,CORRECT,,html-keyboard-response,147,698492,0.0-14.0-23.0-0.0,1578,List2B,black,woman,,,,null,,,,,,,,,
2261.6,<p>You got 7 out of 8 right first time. Press Continue.</p>,0,html-button-response,148,700763,0.0-14.0-25.0,1578,List2B,black,woman,,,,,,,,,,,,,
2023.7,"As you did not score 100%, the memory game will repeat. Press Continue.",0,html-button-response,149,703799,0.0-14.0-26.0-0.0,1578,List2B,black,woman,,,,,,,,,,,,,
1811.1,"<img src='img/portrait_matrix_list2.jpg' style='width:900px;height:500px;''></img><p>If you have memorised all the portraits and names and are ready to start, press Continue.</p><p><strong>Please note: Your memory of these faces will be tested 4 times during this experiment.</strong></p>",0,html-button-response,150,706630,0.0-14.1-0.1,1578,List2B,black,woman,,,,,,,,,,,,,
2186.9,"<img src=""portrait/BM2.jpg""style=""height:400px;""></img>",5,html-button-response,151,709833,0.0-14.1-1.1,1578,List2B,black,woman,,TRUE,5,,,,,,,,,,
null,CORRECT,,html-keyboard-response,152,711341,0.0-14.1-2.1-0.1,1578,List2B,black,woman,,,,null,,,,,,,,,
2114,"<img src=""portrait/BW1.jpg""style=""height:400px;""></img>",0,html-button-response,153,713464,0.0-14.1-4.1,1578,List2B,black,woman,,TRUE,0,,,,,,,,,,
null,CORRECT,,html-keyboard-response,154,714973,0.0-14.1-5.1-0.1,1578,List2B,black,woman,,,,null,,,,,,,,,
2000.8,"<img src=""portrait/BW2.jpg""style=""height:400px;""></img>",2,html-button-response,155,716988,0.0-14.1-7.1,1578,List2B,black,woman,,TRUE,2,,,,,,,,,,
null,CORRECT,,html-keyboard-response,156,718498,0.0-14.1-8.1-0.1,1578,List2B,black,woman,,,,null,,,,,,,,,
6256.6,"<img src=""portrait/WM1.jpg""style=""height:400px;""></img>",6,html-button-response,157,724767,0.0-14.1-10.1,1578,List2B,black,woman,,TRUE,6,,,,,,,,,,
null,CORRECT,,html-keyboard-response,158,726278,0.0-14.1-11.1-0.1,1578,List2B,black,woman,,,,null,,,,,,,,,
1839.2,"<img src=""portrait/BM1.jpg""style=""height:400px;""></img>",4,html-button-response,159,728136,0.0-14.1-13.1,1578,List2B,black,woman,,TRUE,4,,,,,,,,,,
null,CORRECT,,html-keyboard-response,160,729647,0.0-14.1-14.1-0.1,1578,List2B,black,woman,,,,null,,,,,,,,,
4307.2,"<img src=""portrait/WW1.jpg""style=""height:400px;""></img>",1,html-button-response,161,733968,0.0-14.1-16.1,1578,List2B,black,woman,,TRUE,1,,,,,,,,,,
null,CORRECT,,html-keyboard-response,162,735477,0.0-14.1-17.1-0.1,1578,List2B,black,woman,,,,null,,,,,,,,,
1913.9,"<img src=""portrait/WW2.jpg""style=""height:400px;""></img>",3,html-button-response,163,737403,0.0-14.1-19.1,1578,List2B,black,woman,,TRUE,3,,,,,,,,,,
null,CORRECT,,html-keyboard-response,164,738915,0.0-14.1-20.1-0.1,1578,List2B,black,woman,,,,null,,,,,,,,,
1320.9,"<img src=""portrait/WM2.jpg""style=""height:400px;""></img>",7,html-button-response,165,740253,0.0-14.1-22.1,1578,List2B,black,woman,,TRUE,7,,,,,,,,,,
null,CORRECT,,html-keyboard-response,166,741765,0.0-14.1-23.1-0.1,1578,List2B,black,woman,,,,null,,,,,,,,,
1395.7,<p>You got 8 out of 8 right first time. Press Continue.</p>,0,html-button-response,167,743172,0.0-14.1-25.1,1578,List2B,black,woman,,,,,,,,,,,,,
null,"<div style=""font-size:60px;"">+</div>",,html-keyboard-response,168,744682,0.0-15.0-0.0,1578,List2B,black,woman,,,,null,,,,,,,,,
null,"<img src=""stim_listB/touch8.gif""style=""height:400px;""></stim_listB>",,html-keyboard-response,169,746692,0.0-15.0-1.0,1578,List2B,black,woman,,,,null,,,,,,,,,
null,is being touched by,,html-keyboard-response,170,748698,0.0-15.0-2.0,1578,List2B,black,woman,,,,null,,,,,,,,,
18323.8,,,survey-text,171,767053,0.0-15.0-3.0,1578,List2B,black,woman,,,,,"{""Q0"":""Beth is being touched by Ruth""}","<img src=""stim_listB/touch8.gif""style=""height:400px;""></stim_listB>",is being touched by,,,,,,
null,"<div style=""font-size:60px;"">+</div>",,html-keyboard-response,172,767558,0.0-15.0-0.1,1578,List2B,black,woman,,,,null,,,,,,,,,
null,"<img src=""stim_listB/seduce5.gif""style=""height:400px;""></stim_listB>",,html-keyboard-response,173,769566,0.0-15.0-1.1,1578,List2B,black,woman,,,,null,,,,,,,,,
null,is seducing,,html-keyboard-response,174,771576,0.0-15.0-2.1,1578,List2B,black,woman,,,,null,,,,,,,,,
9888.5,,,survey-text,175,781490,0.0-15.0-3.1,1578,List2B,black,woman,,,,,"{""Q0"":""Mike is seducing luke""}","<img src=""stim_listB/seduce5.gif""style=""height:400px;""></stim_listB>",is seducing,,,,,,
null,"<div style=""font-size:60px;"">+</div>",,html-keyboard-response,176,781995,0.0-15.0-0.2,1578,List2B,black,woman,,,,null,,,,,,,,,
null,"<img src=""stim_listB/oppose7.gif""style=""height:400px;""></stim_listB>",,html-keyboard-response,177,784004,0.0-15.0-1.2,1578,List2B,black,woman,,,,null,,,,,,,,,
null,is opposing,,html-keyboard-response,178,786008,0.0-15.0-2.2,1578,List2B,black,woman,,,,null,,,,,,,,,
20989.2,,,survey-text,179,807012,0.0-15.0-3.2,1578,List2B,black,woman,,,,,"{""Q0"":""Jane is opposing kate""}","<img src=""stim_listB/oppose7.gif""style=""height:400px;""></stim_listB>",is opposing,,,,,,
null,"<div style=""font-size:60px;"">+</div>",,html-keyboard-response,180,807519,0.0-15.0-0.3,1578,List2B,black,woman,,,,null,,,,,,,,,
null,"<img src=""stim_listB/oppose6.gif""style=""height:400px;""></stim_listB>",,html-keyboard-response,181,809527,0.0-15.0-1.3,1578,List2B,black,woman,,,,null,,,,,,,,,
null,is being opposed by,,html-keyboard-response,182,811537,0.0-15.0-2.3,1578,List2B,black,woman,,,,null,,,,,,,,,
12756,,,survey-text,183,824326,0.0-15.0-3.3,1578,List2B,black,woman,,,,,"{""Q0"":""Fred is being opposed by luke""}","<img src=""stim_listB/oppose6.gif""style=""height:400px;""></stim_listB>",is being opposed by,,,,,,
null,"<div style=""font-size:60px;"">+</div>",,html-keyboard-response,184,824833,0.0-15.0-0.4,1578,List2B,black,woman,,,,null,,,,,,,,,
null,"<img src=""stim_listB/seduce4.gif""style=""height:400px;""></stim_listB>",,html-keyboard-response,185,826847,0.0-15.0-1.4,1578,List2B,black,woman,,,,null,,,,,,,,,
null,is being seduced by,,html-keyboard-response,186,828856,0.0-15.0-2.4,1578,List2B,black,woman,,,,null,,,,,,,,,
25569.7,,,survey-text,187,854462,0.0-15.0-3.4,1578,List2B,black,woman,,,,,"{""Q0"":""Mike is being seduced by beth""}","<img src=""stim_listB/seduce4.gif""style=""height:400px;""></stim_listB>",is being seduced by,,,,,,
null,"<div style=""font-size:60px;"">+</div>",,html-keyboard-response,188,854968,0.0-15.0-0.5,1578,List2B,black,woman,,,,null,,,,,,,,,
null,"<img src=""stim_listB/kiss1.gif""style=""height:400px;""></stim_listB>",,html-keyboard-response,189,856981,0.0-15.0-1.5,1578,List2B,black,woman,,,,null,,,,,,,,,
null,is kissing,,html-keyboard-response,190,858991,0.0-15.0-2.5,1578,List2B,black,woman,,,,null,,,,,,,,,
11154.4,,,survey-text,191,870178,0.0-15.0-3.5,1578,List2B,black,woman,,,,,"{""Q0"":""Ruth is kissing luke""}","<img src=""stim_listB/kiss1.gif""style=""height:400px;""></stim_listB>",is kissing,,,,,,
null,"<div style=""font-size:60px;"">+</div>",,html-keyboard-response,192,870685,0.0-15.0-0.6,1578,List2B,black,woman,,,,null,,,,,,,,,
null,"<img src=""stim_listB/kiss7.gif""style=""height:400px;""></stim_listB>",,html-keyboard-response,193,872696,0.0-15.0-1.6,1578,List2B,black,woman,,,,null,,,,,,,,,
null,is kissing,,html-keyboard-response,194,874708,0.0-15.0-2.6,1578,List2B,black,woman,,,,null,,,,,,,,,
13264.3,,,survey-text,195,888007,0.0-15.0-3.6,1578,List2B,black,woman,,,,,"{""Q0"":""Beth is kissing Ruth""}","<img src=""stim_listB/kiss7.gif""style=""height:400px;""></stim_listB>",is kissing,,,,,,
null,"<div style=""font-size:60px;"">+</div>",,html-keyboard-response,196,888513,0.0-15.0-0.7,1578,List2B,black,woman,,,,null,,,,,,,,,
null,"<img src=""stim_listB/challenge7.gif""style=""height:400px;""></stim_listB>",,html-keyboard-response,197,890523,0.0-15.0-1.7,1578,List2B,black,woman,,,,null,,,,,,,,,
null,is challenging,,html-keyboard-response,198,892535,0.0-15.0-2.7,1578,List2B,black,woman,,,,null,,,,,,,,,
14520.1,,,survey-text,199,907097,0.0-15.0-3.7,1578,List2B,black,woman,,,,,"{""Q0"":""Kate is challenging jane""}","<img src=""stim_listB/challenge7.gif""style=""height:400px;""></stim_listB>",is challenging,,,,,,
null,"<div style=""font-size:60px;"">+</div>",,html-keyboard-response,200,907604,0.0-15.0-0.8,1578,List2B,black,woman,,,,null,,,,,,,,,
null,"<img src=""stim_listB/copy6.gif""style=""height:400px;""></stim_listB>",,html-keyboard-response,201,909616,0.0-15.0-1.8,1578,List2B,black,woman,,,,null,,,,,,,,,
null,is being copied by,,html-keyboard-response,202,911626,0.0-15.0-2.8,1578,List2B,black,woman,,,,null,,,,,,,,,
10837.1,,,survey-text,203,922498,0.0-15.0-3.8,1578,List2B,black,woman,,,,,"{""Q0"":""Luke is being copied by fred""}","<img src=""stim_listB/copy6.gif""style=""height:400px;""></stim_listB>",is being copied by,,,,,,
null,"<div style=""font-size:60px;"">+</div>",,html-keyboard-response,204,923007,0.0-15.0-0.9,1578,List2B,black,woman,,,,null,,,,,,,,,
null,"<img src=""stim_listB/look7.gif""style=""height:400px;""></stim_listB>",,html-keyboard-response,205,925019,0.0-15.0-1.9,1578,List2B,black,woman,,,,null,,,,,,,,,
null,is looking at,,html-keyboard-response,206,927080,0.0-15.0-2.9,1578,List2B,black,woman,,,,null,,,,,,,,,
34321.8,,,survey-text,207,961433,0.0-15.0-3.9,1578,List2B,black,woman,,,,,"{""Q0"":""Beth is looking at ruth""}","<img src=""stim_listB/look7.gif""style=""height:400px;""></stim_listB>",is looking at,,,,,,
null,"<div style=""font-size:60px;"">+</div>",,html-keyboard-response,208,961939,0.0-15.0-0.10,1578,List2B,black,woman,,,,null,,,,,,,,,
null,"<img src=""stim_listB/touch6.gif""style=""height:400px;""></stim_listB>",,html-keyboard-response,209,963949,0.0-15.0-1.10,1578,List2B,black,woman,,,,null,,,,,,,,,
null,is being touched by,,html-keyboard-response,210,965956,0.0-15.0-2.10,1578,List2B,black,woman,,,,null,,,,,,,,,
12268.1,,,survey-text,211,978245,0.0-15.0-3.10,1578,List2B,black,woman,,,,,"{""Q0"":""Fred is being touched by luke""}","<img src=""stim_listB/touch6.gif""style=""height:400px;""></stim_listB>",is being touched by,,,,,,
null,"<div style=""font-size:60px;"">+</div>",,html-keyboard-response,212,978751,0.0-15.0-0.11,1578,List2B,black,woman,,,,null,,,,,,,,,
null,"<img src=""stim_listB/shout5.gif""style=""height:400px;""></stim_listB>",,html-keyboard-response,213,980763,0.0-15.0-1.11,1578,List2B,black,woman,,,,null,,,,,,,,,
null,is shouting at,,html-keyboard-response,214,982842,0.0-15.0-2.11,1578,List2B,black,woman,,,,null,,,,,,,,,
9538.6,,,survey-text,215,992416,0.0-15.0-3.11,1578,List2B,black,woman,,,,,"{""Q0"":""Luke is shouting at fred""}","<img src=""stim_listB/shout5.gif""style=""height:400px;""></stim_listB>",is shouting at,,,,,,
null,"<div style=""font-size:60px;"">+</div>",,html-keyboard-response,216,992922,0.0-15.0-0.12,1578,List2B,black,woman,,,,null,,,,,,,,,
null,"<img src=""stim_listB/look6.gif""style=""height:400px;""></stim_listB>",,html-keyboard-response,217,994933,0.0-15.0-1.12,1578,List2B,black,woman,,,,null,,,,,,,,,
null,is being looked at by,,html-keyboard-response,218,996943,0.0-15.0-2.12,1578,List2B,black,woman,,,,null,,,,,,,,,
18748.3,,,survey-text,219,1015720,0.0-15.0-3.12,1578,List2B,black,woman,,,,,"{""Q0"":""Mike is being looked at by dave""}","<img src=""stim_listB/look6.gif""style=""height:400px;""></stim_listB>",is being looked at by,,,,,,
null,"<div style=""font-size:60px;"">+</div>",,html-keyboard-response,220,1016225,0.0-15.0-0.13,1578,List2B,black,woman,,,,null,,,,,,,,,
null,"<img src=""stim_listB/touch3.gif""style=""height:400px;""></stim_listB>",,html-keyboard-response,221,1018233,0.0-15.0-1.13,1578,List2B,black,woman,,,,null,,,,,,,,,
null,is touching,,html-keyboard-response,222,1020243,0.0-15.0-2.13,1578,List2B,black,woman,,,,null,,,,,,,,,
10908.7,,,survey-text,223,1031188,0.0-15.0-3.13,1578,List2B,black,woman,,,,,"{""Q0"":""Mike is touching kate""}","<img src=""stim_listB/touch3.gif""style=""height:400px;""></stim_listB>",is touching,,,,,,
null,"<div style=""font-size:60px;"">+</div>",,html-keyboard-response,224,1031695,0.0-15.0-0.14,1578,List2B,black,woman,,,,null,,,,,,,,,
null,"<img src=""stim_listB/shout3.gif""style=""height:400px;""></stim_listB>",,html-keyboard-response,225,1033703,0.0-15.0-1.14,1578,List2B,black,woman,,,,null,,,,,,,,,
null,is shouting at,,html-keyboard-response,226,1035712,0.0-15.0-2.14,1578,List2B,black,woman,,,,null,,,,,,,,,
12232.4,,,survey-text,227,1047974,0.0-15.0-3.14,1578,List2B,black,woman,,,,,"{""Q0"":""Fred is shouting at beth""}","<img src=""stim_listB/shout3.gif""style=""height:400px;""></stim_listB>",is shouting at,,,,,,
null,"<div style=""font-size:60px;"">+</div>",,html-keyboard-response,228,1048481,0.0-15.0-0.15,1578,List2B,black,woman,,,,null,,,,,,,,,
null,"<img src=""stim_listB/seduce1.gif""style=""height:400px;""></stim_listB>",,html-keyboard-response,229,1050490,0.0-15.0-1.15,1578,List2B,black,woman,,,,null,,,,,,,,,
null,is seducing,,html-keyboard-response,230,1052503,0.0-15.0-2.15,1578,List2B,black,woman,,,,null,,,,,,,,,
15077.8,,,survey-text,231,1067616,0.0-15.0-3.15,1578,List2B,black,woman,,,,,"{""Q0"":""Jane is seducing luke""}","<img src=""stim_listB/seduce1.gif""style=""height:400px;""></stim_listB>",is seducing,,,,,,
null,"<div style=""font-size:60px;"">+</div>",,html-keyboard-response,232,1068122,0.0-15.0-0.16,1578,List2B,black,woman,,,,null,,,,,,,,,
null,"<img src=""stim_listB/hug1.gif""style=""height:400px;""></stim_listB>",,html-keyboard-response,233,1070134,0.0-15.0-1.16,1578,List2B,black,woman,,,,null,,,,,,,,,
null,is hugging,,html-keyboard-response,234,1072141,0.0-15.0-2.16,1578,List2B,black,woman,,,,null,,,,,,,,,
10555.3,,,survey-text,235,1082717,0.0-15.0-3.16,1578,List2B,black,woman,,,,,"{""Q0"":""Ruth is hugging luke""}","<img src=""stim_listB/hug1.gif""style=""height:400px;""></stim_listB>",is hugging,,,,,,
null,"<div style=""font-size:60px;"">+</div>",,html-keyboard-response,236,1083224,0.0-15.0-0.17,1578,List2B,black,woman,,,,null,,,,,,,,,
null,"<img src=""stim_listB/challenge8.gif""style=""height:400px;""></stim_listB>",,html-keyboard-response,237,1085232,0.0-15.0-1.17,1578,List2B,black,woman,,,,null,,,,,,,,,
null,is being challenged by,,html-keyboard-response,238,1087239,0.0-15.0-2.17,1578,List2B,black,woman,,,,null,,,,,,,,,
12267.1,,,survey-text,239,1099521,0.0-15.0-3.17,1578,List2B,black,woman,,,,,"{""Q0"":""Ruth is being challenged by kate""}","<img src=""stim_listB/challenge8.gif""style=""height:400px;""></stim_listB>",is being challenged by,,,,,,
null,"<div style=""font-size:60px;"">+</div>",,html-keyboard-response,240,1100028,0.0-15.0-0.18,1578,List2B,black,woman,,,,null,,,,,,,,,
null,"<img src=""stim_listB/seduce2.gif""style=""height:400px;""></stim_listB>",,html-keyboard-response,241,1102038,0.0-15.0-1.18,1578,List2B,black,woman,,,,null,,,,,,,,,
null,is being seduced by,,html-keyboard-response,242,1104047,0.0-15.0-2.18,1578,List2B,black,woman,,,,null,,,,,,,,,
25794.3,,,survey-text,243,1129871,0.0-15.0-3.18,1578,List2B,black,woman,,,,,"{""Q0"":""Dave is seducing ruth""}","<img src=""stim_listB/seduce2.gif""style=""height:400px;""></stim_listB>",is being seduced by,,,,,,
null,"<div style=""font-size:60px;"">+</div>",,html-keyboard-response,244,1130376,0.0-15.0-0.19,1578,List2B,black,woman,,,,null,,,,,,,,,
null,"<img src=""stim_listB/look4.gif""style=""height:400px;""></stim_listB>",,html-keyboard-response,245,1132382,0.0-15.0-1.19,1578,List2B,black,woman,,,,null,,,,,,,,,
null,is being looked at by,,html-keyboard-response,246,1134387,0.0-15.0-2.19,1578,List2B,black,woman,,,,null,,,,,,,,,
13153.1,,,survey-text,247,1147555,0.0-15.0-3.19,1578,List2B,black,woman,,,,,"{""Q0"":""Mike is being looked at by kate""}","<img src=""stim_listB/look4.gif""style=""height:400px;""></stim_listB>",is being looked at by,,,,,,
9183.8,"<img src='img/portrait_matrix_list2.jpg' style='width:900px;height:500px;''></img><p>If you have memorised all the portraits and names and are ready to start, press Continue.</p><p><strong>Please note: Your memory of these faces will be tested 4 times during this experiment.</strong></p>",0,html-button-response,248,1156761,0.0-16.0-0.0,1578,List2B,black,woman,,,,,,,,,,,,,
5367.2,"<img src=""portrait/WW1.jpg""style=""height:400px;""></img>",1,html-button-response,249,1163139,0.0-16.0-1.0,1578,List2B,black,woman,,TRUE,1,,,,,,,,,,
null,CORRECT,,html-keyboard-response,250,1164657,0.0-16.0-2.0-0.0,1578,List2B,black,woman,,,,null,,,,,,,,,
3472.2,"<img src=""portrait/BW1.jpg""style=""height:400px;""></img>",0,html-button-response,251,1168145,0.0-16.0-4.0,1578,List2B,black,woman,,TRUE,0,,,,,,,,,,
null,CORRECT,,html-keyboard-response,252,1169655,0.0-16.0-5.0-0.0,1578,List2B,black,woman,,,,null,,,,,,,,,
2252.8,"<img src=""portrait/BM1.jpg""style=""height:400px;""></img>",4,html-button-response,253,1171926,0.0-16.0-7.0,1578,List2B,black,woman,,TRUE,4,,,,,,,,,,
null,CORRECT,,html-keyboard-response,254,1173437,0.0-16.0-8.0-0.0,1578,List2B,black,woman,,,,null,,,,,,,,,
3006.6,"<img src=""portrait/WW2.jpg""style=""height:400px;""></img>",3,html-button-response,255,1176462,0.0-16.0-10.0,1578,List2B,black,woman,,TRUE,3,,,,,,,,,,
null,CORRECT,,html-keyboard-response,256,1177974,0.0-16.0-11.0-0.0,1578,List2B,black,woman,,,,null,,,,,,,,,
2402.1,"<img src=""portrait/BW2.jpg""style=""height:400px;""></img>",2,html-button-response,257,1180392,0.0-16.0-13.0,1578,List2B,black,woman,,TRUE,2,,,,,,,,,,
null,CORRECT,,html-keyboard-response,258,1181903,0.0-16.0-14.0-0.0,1578,List2B,black,woman,,,,null,,,,,,,,,
1846.8,"<img src=""portrait/WM2.jpg""style=""height:400px;""></img>",7,html-button-response,259,1183760,0.0-16.0-16.0,1578,List2B,black,woman,,TRUE,7,,,,,,,,,,
null,CORRECT,,html-keyboard-response,260,1185272,0.0-16.0-17.0-0.0,1578,List2B,black,woman,,,,null,,,,,,,,,
1586.5,"<img src=""portrait/WM1.jpg""style=""height:400px;""></img>",6,html-button-response,261,1186870,0.0-16.0-19.0,1578,List2B,black,woman,,TRUE,6,,,,,,,,,,
null,CORRECT,,html-keyboard-response,262,1188381,0.0-16.0-20.0-0.0,1578,List2B,black,woman,,,,null,,,,,,,,,
2327.9,"<img src=""portrait/BM2.jpg""style=""height:400px;""></img>",5,html-button-response,263,1190724,0.0-16.0-22.0,1578,List2B,black,woman,,TRUE,5,,,,,,,,,,
null,CORRECT,,html-keyboard-response,264,1192234,0.0-16.0-23.0-0.0,1578,List2B,black,woman,,,,null,,,,,,,,,
1504.9,<p>You got 8 out of 8 right first time. Press Continue.</p>,0,html-button-response,265,1193752,0.0-16.0-25.0,1578,List2B,black,woman,,,,,,,,,,,,,
null,"<div style=""font-size:60px;"">+</div>",,html-keyboard-response,266,1195261,0.0-17.0-0.0,1578,List2B,black,woman,,,,null,,,,,,,,,
null,"<img src=""stim_listB/greet3.gif""style=""height:400px;""></stim_listB>",,html-keyboard-response,267,1197269,0.0-17.0-1.0,1578,List2B,black,woman,,,,null,,,,,,,,,
null,is greeting,,html-keyboard-response,268,1199276,0.0-17.0-2.0,1578,List2B,black,woman,,,,null,,,,,,,,,
12550.3,,,survey-text,269,1211857,0.0-17.0-3.0,1578,List2B,black,woman,,,,,"{""Q0"":""Beth is greeting Mike""}","<img src=""stim_listB/greet3.gif""style=""height:400px;""></stim_listB>",is greeting,,,,,,
null,"<div style=""font-size:60px;"">+</div>",,html-keyboard-response,270,1212363,0.0-17.0-0.1,1578,List2B,black,woman,,,,null,,,,,,,,,
null,"<img src=""stim_listB/oppose3.gif""style=""height:400px;""></stim_listB>",,html-keyboard-response,271,1214371,0.0-17.0-1.1,1578,List2B,black,woman,,,,null,,,,,,,,,
null,is opposing,,html-keyboard-response,272,1216380,0.0-17.0-2.1,1578,List2B,black,woman,,,,null,,,,,,,,,
9129.6,,,survey-text,273,1225529,0.0-17.0-3.1,1578,List2B,black,woman,,,,,"{""Q0"":""Mike is opposing kate""}","<img src=""stim_listB/oppose3.gif""style=""height:400px;""></stim_listB>",is opposing,,,,,,
null,"<div style=""font-size:60px;"">+</div>",,html-keyboard-response,274,1226036,0.0-17.0-0.2,1578,List2B,black,woman,,,,null,,,,,,,,,
null,"<img src=""stim_listB/greet2.gif""style=""height:400px;""></stim_listB>",,html-keyboard-response,275,1228048,0.0-17.0-1.2,1578,List2B,black,woman,,,,null,,,,,,,,,
null,is being greeted by,,html-keyboard-response,276,1230058,0.0-17.0-2.2,1578,List2B,black,woman,,,,null,,,,,,,,,
12432.9,,,survey-text,277,1242529,0.0-17.0-3.2,1578,List2B,black,woman,,,,,"{""Q0"":""Luke is touching jane""}","<img src=""stim_listB/greet2.gif""style=""height:400px;""></stim_listB>",is being greeted by,,,,,,
null,"<div style=""font-size:60px;"">+</div>",,html-keyboard-response,278,1243036,0.0-17.0-0.3,1578,List2B,black,woman,,,,null,,,,,,,,,
null,"<img src=""stim_listB/kiss6.gif""style=""height:400px;""></stim_listB>",,html-keyboard-response,279,1245044,0.0-17.0-1.3,1578,List2B,black,woman,,,,null,,,,,,,,,
null,is being kissed by,,html-keyboard-response,280,1247055,0.0-17.0-2.3,1578,List2B,black,woman,,,,null,,,,,,,,,
16974.5,,,survey-text,281,1264051,0.0-17.0-3.3,1578,List2B,black,woman,,,,,"{""Q0"":""Mike is being kissed by dave""}","<img src=""stim_listB/kiss6.gif""style=""height:400px;""></stim_listB>",is being kissed by,,,,,,
null,"<div style=""font-size:60px;"">+</div>",,html-keyboard-response,282,1264558,0.0-17.0-0.4,1578,List2B,black,woman,,,,null,,,,,,,,,
null,"<img src=""stim_listB/oppose4.gif""style=""height:400px;""></stim_listB>",,html-keyboard-response,283,1266568,0.0-17.0-1.4,1578,List2B,black,woman,,,,null,,,,,,,,,
null,is being opposed by,,html-keyboard-response,284,1268580,0.0-17.0-2.4,1578,List2B,black,woman,,,,null,,,,,,,,,
12566.7,,,survey-text,285,1281178,0.0-17.0-3.4,1578,List2B,black,woman,,,,,"{""Q0"":""Beth is being opposed by fred""}","<img src=""stim_listB/oppose4.gif""style=""height:400px;""></stim_listB>",is being opposed by,,,,,,
null,"<div style=""font-size:60px;"">+</div>",,html-keyboard-response,286,1281684,0.0-17.0-0.5,1578,List2B,black,woman,,,,null,,,,,,,,,
null,"<img src=""stim_listB/touch4.gif""style=""height:400px;""></stim_listB>",,html-keyboard-response,287,1283697,0.0-17.0-1.5,1578,List2B,black,woman,,,,null,,,,,,,,,
null,is being touched by,,html-keyboard-response,288,1285707,0.0-17.0-2.5,1578,List2B,black,woman,,,,null,,,,,,,,,
11777.1,,,survey-text,289,1297512,0.0-17.0-3.5,1578,List2B,black,woman,,,,,"{""Q0"":""Beth is being touched by fred""}","<img src=""stim_listB/touch4.gif""style=""height:400px;""></stim_listB>",is being touched by,,,,,,
null,"<div style=""font-size:60px;"">+</div>",,html-keyboard-response,290,1298019,0.0-17.0-0.6,1578,List2B,black,woman,,,,null,,,,,,,,,
null,"<img src=""stim_listB/shout6.gif""style=""height:400px;""></stim_listB>",,html-keyboard-response,291,1300031,0.0-17.0-1.6,1578,List2B,black,woman,,,,null,,,,,,,,,
null,is being shouted at by,,html-keyboard-response,292,1302038,0.0-17.0-2.6,1578,List2B,black,woman,,,,null,,,,,,,,,
20155.2,,,survey-text,293,1322218,0.0-17.0-3.6,1578,List2B,black,woman,,,,,"{""Q0"":""Dave is being shouted at by dave""}","<img src=""stim_listB/shout6.gif""style=""height:400px;""></stim_listB>",is being shouted at by,,,,,,
null,"<div style=""font-size:60px;"">+</div>",,html-keyboard-response,294,1322724,0.0-17.0-0.7,1578,List2B,black,woman,,,,null,,,,,,,,,
null,"<img src=""stim_listB/look2.gif""style=""height:400px;""></stim_listB>",,html-keyboard-response,295,1324733,0.0-17.0-1.7,1578,List2B,black,woman,,,,null,,,,,,,,,
null,is being looked at by,,html-keyboard-response,296,1326742,0.0-17.0-2.7,1578,List2B,black,woman,,,,null,,,,,,,,,
13234.9,,,survey-text,297,1340005,0.0-17.0-3.7,1578,List2B,black,woman,,,,,"{""Q0"":""Jane is being looked at by dave""}","<img src=""stim_listB/look2.gif""style=""height:400px;""></stim_listB>",is being looked at by,,,,,,
null,"<div style=""font-size:60px;"">+</div>",,html-keyboard-response,298,1340511,0.0-17.0-0.8,1578,List2B,black,woman,,,,null,,,,,,,,,
null,"<img src=""stim_listB/kiss2.gif""style=""height:400px;""></stim_listB>",,html-keyboard-response,299,1342521,0.0-17.0-1.8,1578,List2B,black,woman,,,,null,,,,,,,,,
null,is being kissed by,,html-keyboard-response,300,1344530,0.0-17.0-2.8,1578,List2B,black,woman,,,,null,,,,,,,,,
12168,,,survey-text,301,1356724,0.0-17.0-3.8,1578,List2B,black,woman,,,,,"{""Q0"":""Jane is being kissed by dave""}","<img src=""stim_listB/kiss2.gif""style=""height:400px;""></stim_listB>",is being kissed by,,,,,,
null,"<div style=""font-size:60px;"">+</div>",,html-keyboard-response,302,1357231,0.0-17.0-0.9,1578,List2B,black,woman,,,,null,,,,,,,,,
null,"<img src=""stim_listB/touch1.gif""style=""height:400px;""></stim_listB>",,html-keyboard-response,303,1359245,0.0-17.0-1.9,1578,List2B,black,woman,,,,null,,,,,,,,,
null,is touching,,html-keyboard-response,304,1361255,0.0-17.0-2.9,1578,List2B,black,woman,,,,null,,,,,,,,,
15279.5,,,survey-text,305,1376549,0.0-17.0-3.9,1578,List2B,black,woman,,,,,"{""Q0"":""Jane is touching dave""}","<img src=""stim_listB/touch1.gif""style=""height:400px;""></stim_listB>",is touching,,,,,,
null,"<div style=""font-size:60px;"">+</div>",,html-keyboard-response,306,1377055,0.0-17.0-0.10,1578,List2B,black,woman,,,,null,,,,,,,,,
null,"<img src=""stim_listB/look1.gif""style=""height:400px;""></stim_listB>",,html-keyboard-response,307,1379064,0.0-17.0-1.10,1578,List2B,black,woman,,,,null,,,,,,,,,
null,is looking at,,html-keyboard-response,308,1381072,0.0-17.0-2.10,1578,List2B,black,woman,,,,null,,,,,,,,,
8627.6,,,survey-text,309,1389722,0.0-17.0-3.10,1578,List2B,black,woman,,,,,"{""Q0"":""Ruth is looking luke""}","<img src=""stim_listB/look1.gif""style=""height:400px;""></stim_listB>",is looking at,,,,,,
null,"<div style=""font-size:60px;"">+</div>",,html-keyboard-response,310,1390229,0.0-17.0-0.11,1578,List2B,black,woman,,,,null,,,,,,,,,
null,"<img src=""stim_listB/challenge3.gif""style=""height:400px;""></stim_listB>",,html-keyboard-response,311,1392240,0.0-17.0-1.11,1578,List2B,black,woman,,,,null,,,,,,,,,
null,is challenging,,html-keyboard-response,312,1394253,0.0-17.0-2.11,1578,List2B,black,woman,,,,null,,,,,,,,,
9721.7,,,survey-text,313,1404006,0.0-17.0-3.11,1578,List2B,black,woman,,,,,"{""Q0"":""Mike is challenging beth""}","<img src=""stim_listB/challenge3.gif""style=""height:400px;""></stim_listB>",is challenging,,,,,,
null,"<div style=""font-size:60px;"">+</div>",,html-keyboard-response,314,1404512,0.0-17.0-0.12,1578,List2B,black,woman,,,,null,,,,,,,,,
null,"<img src=""stim_listB/seduce6.gif""style=""height:400px;""></stim_listB>",,html-keyboard-response,315,1406523,0.0-17.0-1.12,1578,List2B,black,woman,,,,null,,,,,,,,,
null,is being seduced by,,html-keyboard-response,316,1408533,0.0-17.0-2.12,1578,List2B,black,woman,,,,null,,,,,,,,,
21098.2,,,survey-text,317,1429668,0.0-17.0-3.12,1578,List2B,black,woman,,,,,"{""Q0"":""Fred is being seduced by luke""}","<img src=""stim_listB/seduce6.gif""style=""height:400px;""></stim_listB>",is being seduced by,,,,,,
null,"<div style=""font-size:60px;"">+</div>",,html-keyboard-response,318,1430174,0.0-17.0-0.13,1578,List2B,black,woman,,,,null,,,,,,,,,
null,"<img src=""stim_listB/challenge6.gif""style=""height:400px;""></stim_listB>",,html-keyboard-response,319,1432182,0.0-17.0-1.13,1578,List2B,black,woman,,,,null,,,,,,,,,
null,is being challenged by,,html-keyboard-response,320,1434192,0.0-17.0-2.13,1578,List2B,black,woman,,,,null,,,,,,,,,
21441.4,,,survey-text,321,1455669,0.0-17.0-3.13,1578,List2B,black,woman,,,,,"{""Q0"":""Luke is being challenged by Mike""}","<img src=""stim_listB/challenge6.gif""style=""height:400px;""></stim_listB>",is being challenged by,,,,,,
null,"<div style=""font-size:60px;"">+</div>",,html-keyboard-response,322,1456176,0.0-17.0-0.14,1578,List2B,black,woman,,,,null,,,,,,,,,
null,"<img src=""stim_listB/seduce8.gif""style=""height:400px;""></stim_listB>",,html-keyboard-response,323,1458191,0.0-17.0-1.14,1578,List2B,black,woman,,,,null,,,,,,,,,
null,is being seduced by,,html-keyboard-response,324,1460200,0.0-17.0-2.14,1578,List2B,black,woman,,,,null,,,,,,,,,
18309.5,,,survey-text,325,1478537,0.0-17.0-3.14,1578,List2B,black,woman,,,,,"{""Q0"":""Jane is being seduced by beth""}","<img src=""stim_listB/seduce8.gif""style=""height:400px;""></stim_listB>",is being seduced by,,,,,,
null,"<div style=""font-size:60px;"">+</div>",,html-keyboard-response,326,1479043,0.0-17.0-0.15,1578,List2B,black,woman,,,,null,,,,,,,,,
null,"<img src=""stim_listB/kiss4.gif""style=""height:400px;""></stim_listB>",,html-keyboard-response,327,1481052,0.0-17.0-1.15,1578,List2B,black,woman,,,,null,,,,,,,,,
null,is being kissed by,,html-keyboard-response,328,1483058,0.0-17.0-2.15,1578,List2B,black,woman,,,,null,,,,,,,,,
16065.3,,,survey-text,329,1499142,0.0-17.0-3.15,1578,List2B,black,woman,,,,,"{""Q0"":""Mike is being kissed by kate""}","<img src=""stim_listB/kiss4.gif""style=""height:400px;""></stim_listB>",is being kissed by,,,,,,
null,"<div style=""font-size:60px;"">+</div>",,html-keyboard-response,330,1499648,0.0-17.0-0.16,1578,List2B,black,woman,,,,null,,,,,,,,,
null,"<img src=""stim_listB/look3.gif""style=""height:400px;""></stim_listB>",,html-keyboard-response,331,1501659,0.0-17.0-1.16,1578,List2B,black,woman,,,,null,,,,,,,,,
null,is looking at,,html-keyboard-response,332,1503668,0.0-17.0-2.16,1578,List2B,black,woman,,,,null,,,,,,,,,
9896.5,,,survey-text,333,1513592,0.0-17.0-3.16,1578,List2B,black,woman,,,,,"{""Q0"":""Fred is looking at beth""}","<img src=""stim_listB/look3.gif""style=""height:400px;""></stim_listB>",is looking at,,,,,,
null,"<div style=""font-size:60px;"">+</div>",,html-keyboard-response,334,1514100,0.0-17.0-0.17,1578,List2B,black,woman,,,,null,,,,,,,,,
null,"<img src=""stim_listB/greet6.gif""style=""height:400px;""></stim_listB>",,html-keyboard-response,335,1516118,0.0-17.0-1.17,1578,List2B,black,woman,,,,null,,,,,,,,,
null,is being greeted by,,html-keyboard-response,336,1518125,0.0-17.0-2.17,1578,List2B,black,woman,,,,null,,,,,,,,,
14990.3,,,survey-text,337,1533132,0.0-17.0-3.17,1578,List2B,black,woman,,,,,"{""Q0"":""Fred is being greeted by luke""}","<img src=""stim_listB/greet6.gif""style=""height:400px;""></stim_listB>",is being greeted by,,,,,,
null,"<div style=""font-size:60px;"">+</div>",,html-keyboard-response,338,1533638,0.0-17.0-0.18,1578,List2B,black,woman,,,,null,,,,,,,,,
null,"<img src=""stim_listB/kiss5.gif""style=""height:400px;""></stim_listB>",,html-keyboard-response,339,1535656,0.0-17.0-1.18,1578,List2B,black,woman,,,,null,,,,,,,,,
null,is kissing,,html-keyboard-response,340,1537665,0.0-17.0-2.18,1578,List2B,black,woman,,,,null,,,,,,,,,
9764.8,,,survey-text,341,1547447,0.0-17.0-3.18,1578,List2B,black,woman,,,,,"{""Q0"":""Fred is kissing luke""}","<img src=""stim_listB/kiss5.gif""style=""height:400px;""></stim_listB>",is kissing,,,,,,
null,"<div style=""font-size:60px;"">+</div>",,html-keyboard-response,342,1547953,0.0-17.0-0.19,1578,List2B,black,woman,,,,null,,,,,,,,,
null,"<img src=""stim_listB/copy5.gif""style=""height:400px;""></stim_listB>",,html-keyboard-response,343,1549969,0.0-17.0-1.19,1578,List2B,black,woman,,,,null,,,,,,,,,
null,is copying,,html-keyboard-response,344,1551981,0.0-17.0-2.19,1578,List2B,black,woman,,,,null,,,,,,,,,
12794.6,,,survey-text,345,1564798,0.0-17.0-3.19,1578,List2B,black,woman,,,,,"{""Q0"":""Dave is copying fred""}","<img src=""stim_listB/copy5.gif""style=""height:400px;""></stim_listB>",is copying,,,,,,
23577.7,"<img src='img/portrait_matrix_list2.jpg' style='width:900px;height:500px;''></img><p>If you have memorised all the portraits and names and are ready to start, press Continue.</p><p><strong>Please note: Your memory of these faces will be tested 4 times during this experiment.</strong></p>",0,html-button-response,346,1588402,0.0-18.0-0.0,1578,List2B,black,woman,,,,,,,,,,,,,
2778,"<img src=""portrait/WW2.jpg""style=""height:400px;""></img>",3,html-button-response,347,1592194,0.0-18.0-1.0,1578,List2B,black,woman,,TRUE,3,,,,,,,,,,
null,CORRECT,,html-keyboard-response,348,1593712,0.0-18.0-2.0-0.0,1578,List2B,black,woman,,,,null,,,,,,,,,
1883.8,"<img src=""portrait/BW1.jpg""style=""height:400px;""></img>",0,html-button-response,349,1595611,0.0-18.0-4.0,1578,List2B,black,woman,,TRUE,0,,,,,,,,,,
null,CORRECT,,html-keyboard-response,350,1597120,0.0-18.0-5.0-0.0,1578,List2B,black,woman,,,,null,,,,,,,,,
2448,"<img src=""portrait/WW1.jpg""style=""height:400px;""></img>",1,html-button-response,351,1599579,0.0-18.0-7.0,1578,List2B,black,woman,,TRUE,1,,,,,,,,,,
null,CORRECT,,html-keyboard-response,352,1601087,0.0-18.0-8.0-0.0,1578,List2B,black,woman,,,,null,,,,,,,,,
4032.2,"<img src=""portrait/WM1.jpg""style=""height:400px;""></img>",6,html-button-response,353,1605131,0.0-18.0-10.0,1578,List2B,black,woman,,TRUE,6,,,,,,,,,,
null,CORRECT,,html-keyboard-response,354,1606654,0.0-18.0-11.0-0.0,1578,List2B,black,woman,,,,null,,,,,,,,,
1935.3,"<img src=""portrait/BM2.jpg""style=""height:400px;""></img>",5,html-button-response,355,1608603,0.0-18.0-13.0,1578,List2B,black,woman,,TRUE,5,,,,,,,,,,
null,CORRECT,,html-keyboard-response,356,1610118,0.0-18.0-14.0-0.0,1578,List2B,black,woman,,,,null,,,,,,,,,
1799.2,"<img src=""portrait/WM2.jpg""style=""height:400px;""></img>",7,html-button-response,357,1611931,0.0-18.0-16.0,1578,List2B,black,woman,,TRUE,7,,,,,,,,,,
null,CORRECT,,html-keyboard-response,358,1613443,0.0-18.0-17.0-0.0,1578,List2B,black,woman,,,,null,,,,,,,,,
2621.8,"<img src=""portrait/BW2.jpg""style=""height:400px;""></img>",2,html-button-response,359,1616081,0.0-18.0-19.0,1578,List2B,black,woman,,TRUE,2,,,,,,,,,,
null,CORRECT,,html-keyboard-response,360,1617593,0.0-18.0-20.0-0.0,1578,List2B,black,woman,,,,null,,,,,,,,,
2038.3,"<img src=""portrait/BM1.jpg""style=""height:400px;""></img>",4,html-button-response,361,1619647,0.0-18.0-22.0,1578,List2B,black,woman,,TRUE,4,,,,,,,,,,
null,CORRECT,,html-keyboard-response,362,1621157,0.0-18.0-23.0-0.0,1578,List2B,black,woman,,,,null,,,,,,,,,
1435.4,<p>You got 8 out of 8 right first time. Press Continue.</p>,0,html-button-response,363,1622608,0.0-18.0-25.0,1578,List2B,black,woman,,,,,,,,,,,,,
null,"<div style=""font-size:60px;"">+</div>",,html-keyboard-response,364,1624125,0.0-19.0-0.0,1578,List2B,black,woman,,,,null,,,,,,,,,
null,"<img src=""stim_listB/hug5.gif""style=""height:400px;""></stim_listB>",,html-keyboard-response,365,1626136,0.0-19.0-1.0,1578,List2B,black,woman,,,,null,,,,,,,,,
null,is hugging,,html-keyboard-response,366,1628145,0.0-19.0-2.0,1578,List2B,black,woman,,,,null,,,,,,,,,
12391.8,,,survey-text,367,1640562,0.0-19.0-3.0,1578,List2B,black,woman,,,,,"{""Q0"":""Fred is hugging luke""}","<img src=""stim_listB/hug5.gif""style=""height:400px;""></stim_listB>",is hugging,,,,,,
null,"<div style=""font-size:60px;"">+</div>",,html-keyboard-response,368,1641068,0.0-19.0-0.1,1578,List2B,black,woman,,,,null,,,,,,,,,
null,"<img src=""stim_listB/hug7.gif""style=""height:400px;""></stim_listB>",,html-keyboard-response,369,1643076,0.0-19.0-1.1,1578,List2B,black,woman,,,,null,,,,,,,,,
null,is hugging,,html-keyboard-response,370,1645086,0.0-19.0-2.1,1578,List2B,black,woman,,,,null,,,,,,,,,
11767.1,,,survey-text,371,1656879,0.0-19.0-3.1,1578,List2B,black,woman,,,,,"{""Q0"":""Ruth is hugging beth""}","<img src=""stim_listB/hug7.gif""style=""height:400px;""></stim_listB>",is hugging,,,,,,
null,"<div style=""font-size:60px;"">+</div>",,html-keyboard-response,372,1657386,0.0-19.0-0.2,1578,List2B,black,woman,,,,null,,,,,,,,,
null,"<img src=""stim_listB/copy3.gif""style=""height:400px;""></stim_listB>",,html-keyboard-response,373,1659400,0.0-19.0-1.2,1578,List2B,black,woman,,,,null,,,,,,,,,
null,is copying,,html-keyboard-response,374,1661412,0.0-19.0-2.2,1578,List2B,black,woman,,,,null,,,,,,,,,
25870.6,,,survey-text,375,1687314,0.0-19.0-3.2,1578,List2B,black,woman,,,,,"{""Q0"":""Mike is copying beth""}","<img src=""stim_listB/copy3.gif""style=""height:400px;""></stim_listB>",is copying,,,,,,
null,"<div style=""font-size:60px;"">+</div>",,html-keyboard-response,376,1687820,0.0-19.0-0.3,1578,List2B,black,woman,,,,null,,,,,,,,,
null,"<img src=""stim_listB/kiss8.gif""style=""height:400px;""></stim_listB>",,html-keyboard-response,377,1689831,0.0-19.0-1.3,1578,List2B,black,woman,,,,null,,,,,,,,,
null,is being kissed by,,html-keyboard-response,378,1691836,0.0-19.0-2.3,1578,List2B,black,woman,,,,null,,,,,,,,,
13667.4,,,survey-text,379,1705552,0.0-19.0-3.3,1578,List2B,black,woman,,,,,"{""Q0"":""Kate is being kissed by jane""}","<img src=""stim_listB/kiss8.gif""style=""height:400px;""></stim_listB>",is being kissed by,,,,,,
null,"<div style=""font-size:60px;"">+</div>",,html-keyboard-response,380,1706060,0.0-19.0-0.4,1578,List2B,black,woman,,,,null,,,,,,,,,
null,"<img src=""stim_listB/oppose5.gif""style=""height:400px;""></stim_listB>",,html-keyboard-response,381,1708073,0.0-19.0-1.4,1578,List2B,black,woman,,,,null,,,,,,,,,
null,is opposing,,html-keyboard-response,382,1710081,0.0-19.0-2.4,1578,List2B,black,woman,,,,null,,,,,,,,,
14013.2,,,survey-text,383,1724120,0.0-19.0-3.4,1578,List2B,black,woman,,,,,"{""Q0"":""Dave is opposing mike""}","<img src=""stim_listB/oppose5.gif""style=""height:400px;""></stim_listB>",is opposing,,,,,,
null,"<div style=""font-size:60px;"">+</div>",,html-keyboard-response,384,1724627,0.0-19.0-0.5,1578,List2B,black,woman,,,,null,,,,,,,,,
null,"<img src=""stim_listB/oppose1.gif""style=""height:400px;""></stim_listB>",,html-keyboard-response,385,1726638,0.0-19.0-1.5,1578,List2B,black,woman,,,,null,,,,,,,,,
null,is opposing,,html-keyboard-response,386,1728649,0.0-19.0-2.5,1578,List2B,black,woman,,,,null,,,,,,,,,
12550.6,,,survey-text,387,1741225,0.0-19.0-3.5,1578,List2B,black,woman,,,,,"{""Q0"":""Dave is opposing jane""}","<img src=""stim_listB/oppose1.gif""style=""height:400px;""></stim_listB>",is opposing,,,,,,
null,"<div style=""font-size:60px;"">+</div>",,html-keyboard-response,388,1741732,0.0-19.0-0.6,1578,List2B,black,woman,,,,null,,,,,,,,,
null,"<img src=""stim_listB/look5.gif""style=""height:400px;""></stim_listB>",,html-keyboard-response,389,1743741,0.0-19.0-1.6,1578,List2B,black,woman,,,,null,,,,,,,,,
null,is looking at,,html-keyboard-response,390,1745750,0.0-19.0-2.6,1578,List2B,black,woman,,,,null,,,,,,,,,
19867.8,,,survey-text,391,1765645,0.0-19.0-3.6,1578,List2B,black,woman,,,,,"{""Q0"":""Fred is looking at jane""}","<img src=""stim_listB/look5.gif""style=""height:400px;""></stim_listB>",is looking at,,,,,,
null,"<div style=""font-size:60px;"">+</div>",,html-keyboard-response,392,1766152,0.0-19.0-0.7,1578,List2B,black,woman,,,,null,,,,,,,,,
null,"<img src=""stim_listB/hug2.gif""style=""height:400px;""></stim_listB>",,html-keyboard-response,393,1768162,0.0-19.0-1.7,1578,List2B,black,woman,,,,null,,,,,,,,,
null,is being hugged by,,html-keyboard-response,394,1770171,0.0-19.0-2.7,1578,List2B,black,woman,,,,null,,,,,,,,,
14444.3,,,survey-text,395,1784639,0.0-19.0-3.7,1578,List2B,black,woman,,,,,"{""Q0"":""Jane is being hugged by dave""}","<img src=""stim_listB/hug2.gif""style=""height:400px;""></stim_listB>",is being hugged by,,,,,,
null,"<div style=""font-size:60px;"">+</div>",,html-keyboard-response,396,1785145,0.0-19.0-0.8,1578,List2B,black,woman,,,,null,,,,,,,,,
null,"<img src=""stim_listB/greet5.gif""style=""height:400px;""></stim_listB>",,html-keyboard-response,397,1787156,0.0-19.0-1.8,1578,List2B,black,woman,,,,null,,,,,,,,,
null,is greeting,,html-keyboard-response,398,1789165,0.0-19.0-2.8,1578,List2B,black,woman,,,,null,,,,,,,,,
17268.1,,,survey-text,399,1806471,0.0-19.0-3.8,1578,List2B,black,woman,,,,,"{""Q0"":""Dave is greeting fred""}","<img src=""stim_listB/greet5.gif""style=""height:400px;""></stim_listB>",is greeting,,,,,,
null,"<div style=""font-size:60px;"">+</div>",,html-keyboard-response,400,1806977,0.0-19.0-0.9,1578,List2B,black,woman,,,,null,,,,,,,,,
null,"<img src=""stim_listB/greet4.gif""style=""height:400px;""></stim_listB>",,html-keyboard-response,401,1808984,0.0-19.0-1.9,1578,List2B,black,woman,,,,null,,,,,,,,,
null,is being greeted by,,html-keyboard-response,402,1810991,0.0-19.0-2.9,1578,List2B,black,woman,,,,null,,,,,,,,,
15684.8,,,survey-text,403,1826710,0.0-19.0-3.9,1578,List2B,black,woman,,,,,"{""Q0"":""Fred is being greeted by kate""}","<img src=""stim_listB/greet4.gif""style=""height:400px;""></stim_listB>",is being greeted by,,,,,,
null,"<div style=""font-size:60px;"">+</div>",,html-keyboard-response,404,1827216,0.0-19.0-0.10,1578,List2B,black,woman,,,,null,,,,,,,,,
null,"<img src=""stim_listB/challenge2.gif""style=""height:400px;""></stim_listB>",,html-keyboard-response,405,1829224,0.0-19.0-1.10,1578,List2B,black,woman,,,,null,,,,,,,,,
null,is being challenged by,,html-keyboard-response,406,1831229,0.0-19.0-2.10,1578,List2B,black,woman,,,,null,,,,,,,,,
16200.3,,,survey-text,407,1847445,0.0-19.0-3.10,1578,List2B,black,woman,,,,,"{""Q0"":""Jane is being challenged by luke""}","<img src=""stim_listB/challenge2.gif""style=""height:400px;""></stim_listB>",is being challenged by,,,,,,
null,"<div style=""font-size:60px;"">+</div>",,html-keyboard-response,408,1847954,0.0-19.0-0.11,1578,List2B,black,woman,,,,null,,,,,,,,,
null,"<img src=""stim_listB/hug6.gif""style=""height:400px;""></stim_listB>",,html-keyboard-response,409,1849964,0.0-19.0-1.11,1578,List2B,black,woman,,,,null,,,,,,,,,
null,is being hugged by,,html-keyboard-response,410,1851979,0.0-19.0-2.11,1578,List2B,black,woman,,,,null,,,,,,,,,
12051,,,survey-text,411,1864068,0.0-19.0-3.11,1578,List2B,black,woman,,,,,"{""Q0"":""Mike is being hugged by dave""}","<img src=""stim_listB/hug6.gif""style=""height:400px;""></stim_listB>",is being hugged by,,,,,,
null,"<div style=""font-size:60px;"">+</div>",,html-keyboard-response,412,1864576,0.0-19.0-0.12,1578,List2B,black,woman,,,,null,,,,,,,,,
null,"<img src=""stim_listB/look8.gif""style=""height:400px;""></stim_listB>",,html-keyboard-response,413,1866588,0.0-19.0-1.12,1578,List2B,black,woman,,,,null,,,,,,,,,
null,is being looked at by,,html-keyboard-response,414,1868600,0.0-19.0-2.12,1578,List2B,black,woman,,,,null,,,,,,,,,
16772.1,,,survey-text,415,1885399,0.0-19.0-3.12,1578,List2B,black,woman,,,,,"{""Q0"":""Jane is being looked at by kate""}","<img src=""stim_listB/look8.gif""style=""height:400px;""></stim_listB>",is being looked at by,,,,,,
null,"<div style=""font-size:60px;"">+</div>",,html-keyboard-response,416,1885908,0.0-19.0-0.13,1578,List2B,black,woman,,,,null,,,,,,,,,
null,"<img src=""stim_listB/shout4.gif""style=""height:400px;""></stim_listB>",,html-keyboard-response,417,1887922,0.0-19.0-1.13,1578,List2B,black,woman,,,,null,,,,,,,,,
null,is being shouted at by,,html-keyboard-response,418,1889930,0.0-19.0-2.13,1578,List2B,black,woman,,,,null,,,,,,,,,
31779.5,,,survey-text,419,1921734,0.0-19.0-3.13,1578,List2B,black,woman,,,,,"{""Q0"":""Kate is being shouted at by jane""}","<img src=""stim_listB/shout4.gif""style=""height:400px;""></stim_listB>",is being shouted at by,,,,,,
null,"<div style=""font-size:60px;"">+</div>",,html-keyboard-response,420,1922242,0.0-19.0-0.14,1578,List2B,black,woman,,,,null,,,,,,,,,
null,"<img src=""stim_listB/greet1.gif""style=""height:400px;""></stim_listB>",,html-keyboard-response,421,1924252,0.0-19.0-1.14,1578,List2B,black,woman,,,,null,,,,,,,,,
null,is greeting,,html-keyboard-response,422,1926260,0.0-19.0-2.14,1578,List2B,black,woman,,,,null,,,,,,,,,
9413.3,,,survey-text,423,1935698,0.0-19.0-3.14,1578,List2B,black,woman,,,,,"{""Q0"":""Ruth is greeting dave""}","<img src=""stim_listB/greet1.gif""style=""height:400px;""></stim_listB>",is greeting,,,,,,
null,"<div style=""font-size:60px;"">+</div>",,html-keyboard-response,424,1936204,0.0-19.0-0.15,1578,List2B,black,woman,,,,null,,,,,,,,,
null,"<img src=""stim_listB/touch7.gif""style=""height:400px;""></stim_listB>",,html-keyboard-response,425,1938215,0.0-19.0-1.15,1578,List2B,black,woman,,,,null,,,,,,,,,
null,is touching,,html-keyboard-response,426,1940223,0.0-19.0-2.15,1578,List2B,black,woman,,,,null,,,,,,,,,
22778.2,,,survey-text,427,1963031,0.0-19.0-3.15,1578,List2B,black,woman,,,,,"{""Q0"":""Kate is touching jane""}","<img src=""stim_listB/touch7.gif""style=""height:400px;""></stim_listB>",is touching,,,,,,
null,"<div style=""font-size:60px;"">+</div>",,html-keyboard-response,428,1963536,0.0-19.0-0.16,1578,List2B,black,woman,,,,null,,,,,,,,,
null,"<img src=""stim_listB/copy1.gif""style=""height:400px;""></stim_listB>",,html-keyboard-response,429,1965546,0.0-19.0-1.16,1578,List2B,black,woman,,,,null,,,,,,,,,
null,is copying,,html-keyboard-response,430,1967559,0.0-19.0-2.16,1578,List2B,black,woman,,,,null,,,,,,,,,
14766.1,,,survey-text,431,1982364,0.0-19.0-3.16,1578,List2B,black,woman,,,,,"{""Q0"":""Dave is copying ruth""}","<img src=""stim_listB/copy1.gif""style=""height:400px;""></stim_listB>",is copying,,,,,,
null,"<div style=""font-size:60px;"">+</div>",,html-keyboard-response,432,1982870,0.0-19.0-0.17,1578,List2B,black,woman,,,,null,,,,,,,,,
null,"<img src=""stim_listB/shout7.gif""style=""height:400px;""></stim_listB>",,html-keyboard-response,433,1984879,0.0-19.0-1.17,1578,List2B,black,woman,,,,null,,,,,,,,,
null,is shouting at,,html-keyboard-response,434,1986887,0.0-19.0-2.17,1578,List2B,black,woman,,,,null,,,,,,,,,
21831.9,,,survey-text,435,2008733,0.0-19.0-3.17,1578,List2B,black,woman,,,,,"{""Q0"":""Luke is shouted at beth""}","<img src=""stim_listB/shout7.gif""style=""height:400px;""></stim_listB>",is shouting at,,,,,,
null,"<div style=""font-size:60px;"">+</div>",,html-keyboard-response,436,2009240,0.0-19.0-0.18,1578,List2B,black,woman,,,,null,,,,,,,,,
null,"<img src=""stim_listB/greet7.gif""style=""height:400px;""></stim_listB>",,html-keyboard-response,437,2011252,0.0-19.0-1.18,1578,List2B,black,woman,,,,null,,,,,,,,,
null,is greeting,,html-keyboard-response,438,2013265,0.0-19.0-2.18,1578,List2B,black,woman,,,,null,,,,,,,,,
17493.1,,,survey-text,439,2030801,0.0-19.0-3.18,1578,List2B,black,woman,,,,,"{""Q0"":""Kate opposing jane""}","<img src=""stim_listB/greet7.gif""style=""height:400px;""></stim_listB>",is greeting,,,,,,
null,"<div style=""font-size:60px;"">+</div>",,html-keyboard-response,440,2031309,0.0-19.0-0.19,1578,List2B,black,woman,,,,null,,,,,,,,,
null,"<img src=""stim_listB/kiss3.gif""style=""height:400px;""></stim_listB>",,html-keyboard-response,441,2033321,0.0-19.0-1.19,1578,List2B,black,woman,,,,null,,,,,,,,,
null,is kissing,,html-keyboard-response,442,2035332,0.0-19.0-2.19,1578,List2B,black,woman,,,,null,,,,,,,,,
20030.2,,,survey-text,443,2055386,0.0-19.0-3.19,1578,List2B,black,woman,,,,,"{""Q0"":""Fred is kiss beth""}","<img src=""stim_listB/kiss3.gif""style=""height:400px;""></stim_listB>",is kissing,,,,,,
6505.1,<p>Thank you for completing that task.</p><p>The final part of this session is a questionnaire that will take about 4 minutes.</p><p>Press Continue.</p>,0,html-button-response,444,2061902,0.0-20.0,1578,List2B,black,woman,,,,,,,,,,,,,
47961.9,,,survey-text,445,2110958,0.0-21.0,1578,List2B,black,woman,,,,,"{""Q0"":""31"",""Q1"":""English"",""Q2"":""English"",""Q3"":""United States"",""Q4"":""United States"",""Q5"":""Black American"",""Q6"":""Female""}",,,demographics,,,,,
4510.6,<p>Have you lived in the USA for the last 5 years or more?</p>,0,html-button-response,446,2115483,0.0-22.0,1578,List2B,black,woman,,,,,,,,fiveyears,,,,,
7075.1,<p>Move the slider to show the extent to which you agree with the following statements.</p>,0,html-button-response,447,2123570,0.0-23.0,1578,List2B,black,woman,,,,,,,,,,,,,
7668.7,,,html-slider-response,448,2132268,0.0-24.0-0.0-0.0,1578,List2B,black,woman,,,,,,,,survey_gender,34,,,Routine is not important to me.,filler
7825.8,,,html-slider-response,449,2140102,0.0-24.0-0.0-0.1,1578,List2B,black,woman,,,,,,,,survey_gender,76,,,Being my gender gives me a good feeling.,feeling
5495.8,,,html-slider-response,450,2145608,0.0-24.0-0.0-0.2,1578,List2B,black,woman,,,,,,,,survey_gender,89,,,I am glad to have the friends that I have.,filler
5486.5,,,html-slider-response,451,2151103,0.0-24.0-0.0-0.3,1578,List2B,black,woman,,,,,,,,survey_gender,51,,,People of my gender have a lot in common with each other.,common
7173.6,,,html-slider-response,452,2158285,0.0-24.0-0.0-0.4,1578,List2B,black,woman,,,,,,,,survey_gender,15,,,I would say I am an animal person.,filler
4478.3,,,html-slider-response,453,2162771,0.0-24.0-0.0-0.5,1578,List2B,black,woman,,,,,,,,survey_gender,88,,,Being around my friends gives me a good feeling.,filler
4660.4,,,html-slider-response,454,2167440,0.0-24.0-0.0-0.6,1578,List2B,black,woman,,,,,,,,survey_gender,73,,,I am glad to be my gender.,glad
6219.6,,,html-slider-response,455,2173669,0.0-24.0-0.0-0.7,1578,List2B,black,woman,,,,,,,,survey_gender,72,,,My friends have a lot in common with each other.,filler
6746.4,,,html-slider-response,456,2180424,0.0-24.0-0.0-0.8,1578,List2B,black,woman,,,,,,,,survey_gender,78,,,I have a lot in common with the average person of my gender.,average
5872.2,,,html-slider-response,457,2186307,0.0-24.0-0.0-0.9,1578,List2B,black,woman,,,,,,,,survey_gender,62,,,I often think about my actions.,filler
3390.9,,,html-slider-response,458,2189708,0.0-24.0-0.0-0.10,1578,List2B,black,woman,,,,,,,,survey_gender,80,,,I feel solidarity with my friends.,filler
6952.9,,,html-slider-response,459,2196670,0.0-24.0-0.0-0.11,1578,List2B,black,woman,,,,,,,,survey_gender,85,,,I often think about the fact that I am my gender.,often
5095.5,,,html-slider-response,460,2201776,0.0-24.0-0.0-0.12,1578,List2B,black,woman,,,,,,,,survey_gender,84,,,It is pleasant to be my gender.,pleasant
4403.9,,,html-slider-response,461,2206187,0.0-24.0-0.0-0.13,1578,List2B,black,woman,,,,,,,,survey_gender,86,,,My friends understand me.,filler
3543.3,,,html-slider-response,462,2209739,0.0-24.0-0.0-0.14,1578,List2B,black,woman,,,,,,,,survey_gender,82,,,I am similar to the average person of my gender.,similar
5478.5,,,html-slider-response,463,2215227,0.0-24.0-0.0-0.15,1578,List2B,black,woman,,,,,,,,survey_gender,79,,,Most of the friends in my life are very similar to me.,filler
7770.5,,,html-slider-response,464,2223007,0.0-24.0-0.0-0.16,1578,List2B,black,woman,,,,,,,,survey_gender,65,,,It is not always easy for people to know what I am thinking.,filler
3493.2,,,html-slider-response,465,2226509,0.0-24.0-0.0-0.17,1578,List2B,black,woman,,,,,,,,survey_gender,65,,,I feel committed to my gender.,committed
4842.3,,,html-slider-response,466,2231358,0.0-24.0-0.0-0.18,1578,List2B,black,woman,,,,,,,,survey_gender,84,,,I think that my gender has a lot to be proud of.,proud
6892.8,,,html-slider-response,467,2238259,0.0-24.0-0.0-0.19,1578,List2B,black,woman,,,,,,,,survey_gender,82,,,Being my gender is an important part of how I see myself.,important
4850.4,,,html-slider-response,468,2243124,0.0-24.0-0.0-0.20,1578,List2B,black,woman,,,,,,,,survey_gender,87,,,I consider myself a highly empathetic person.,filler
4406.6,,,html-slider-response,469,2247539,0.0-24.0-0.0-0.21,1578,List2B,black,woman,,,,,,,,survey_gender,76,,,I have a lot in common with my friends.,filler
5140.3,,,html-slider-response,470,2252692,0.0-24.0-0.0-0.22,1578,List2B,black,woman,,,,,,,,survey_gender,97,,,I feel a bond with my friends.,filler
6704.4,,,html-slider-response,471,2259407,0.0-24.0-0.0-0.23,1578,List2B,black,woman,,,,,,,,survey_gender,74,,,The fact that I am my gender is an important part of my identity.,identity
3791.6,,,html-slider-response,472,2263207,0.0-24.0-0.0-0.24,1578,List2B,black,woman,,,,,,,,survey_gender,81,,,I feel solidarity with my gender.,solidarity
5559.9,,,html-slider-response,473,2268774,0.0-24.0-0.0-0.25,1578,List2B,black,woman,,,,,,,,survey_gender,31,,,Family is not more important to me than friendship.,filler
2557.1,,,html-slider-response,474,2271340,0.0-24.0-0.0-0.26,1578,List2B,black,woman,,,,,,,,survey_gender,73,,,I feel a bond with my gender.,bond
3759.7,,,html-slider-response,475,2275107,0.0-24.0-0.0-0.27,1578,List2B,black,woman,,,,,,,,survey_gender,80,,,People of my gender are very similar to each other.,verysimilar
3172.9,,,html-slider-response,476,2278289,0.0-24.0-1.0-0.0,1578,List2B,black,woman,,,,,,,,survey_race,62,,,People my age have a lot in common with each other.,filler
2691.6,,,html-slider-response,477,2280989,0.0-24.0-1.0-0.1,1578,List2B,black,woman,,,,,,,,survey_race,84,,,I am glad to be my age.,filler
3409.4,,,html-slider-response,478,2284406,0.0-24.0-1.0-0.2,1578,List2B,black,woman,,,,,,,,survey_race,82,,,I am similar to the average person of my race.,similar
3447.2,,,html-slider-response,479,2287862,0.0-24.0-1.0-0.3,1578,List2B,black,woman,,,,,,,,survey_race,86,,,I am glad to be my race.,glad
5402.6,,,html-slider-response,480,2293274,0.0-24.0-1.0-0.4,1578,List2B,black,woman,,,,,,,,survey_race,71,,,People of my race have a lot in common with each other.,common
3908.9,,,html-slider-response,481,2297190,0.0-24.0-1.0-0.5,1578,List2B,black,woman,,,,,,,,survey_race,86,,,"The older I get, the wiser I feel.",filler
5376.9,,,html-slider-response,482,2302575,0.0-24.0-1.0-0.6,1578,List2B,black,woman,,,,,,,,survey_race,81,,,Being my age gives me a good feeling.,filler
4757.9,,,html-slider-response,483,2307341,0.0-24.0-1.0-0.7,1578,List2B,black,woman,,,,,,,,survey_race,42,,,Getting older does not worry me.,filler
3097.1,,,html-slider-response,484,2310446,0.0-24.0-1.0-0.8,1578,List2B,black,woman,,,,,,,,survey_race,42,,,I consider myself an introvert.,filler
4490.4,,,html-slider-response,485,2314945,0.0-24.0-1.0-0.9,1578,List2B,black,woman,,,,,,,,survey_race,84,,,I feel a bond with people the same age as me.,filler
2421.1,,,html-slider-response,486,2317374,0.0-24.0-1.0-0.10,1578,List2B,black,woman,,,,,,,,survey_race,79,,,I feel committed to my race.,committed
4916,,,html-slider-response,487,2322298,0.0-24.0-1.0-0.11,1578,List2B,black,woman,,,,,,,,survey_race,82,,,I have a lot in common with the average person of my race.,average
6305.2,,,html-slider-response,488,2328611,0.0-24.0-1.0-0.12,1578,List2B,black,woman,,,,,,,,survey_race,73,,,The fact that I am my race is an important part of my identity.,identity
2990,,,html-slider-response,489,2331611,0.0-24.0-1.0-0.13,1578,List2B,black,woman,,,,,,,,survey_race,83,,,I enjoy being in large groups.,filler
3912.4,,,html-slider-response,490,2335530,0.0-24.0-1.0-0.14,1578,List2B,black,woman,,,,,,,,survey_race,87,,,I often think about the fact that I am my race.,often
4455.7,,,html-slider-response,491,2339994,0.0-24.0-1.0-0.15,1578,List2B,black,woman,,,,,,,,survey_race,82,,,It is pleasant to be my race.,pleasant
3791.5,,,html-slider-response,492,2343794,0.0-24.0-1.0-0.16,1578,List2B,black,woman,,,,,,,,survey_race,35,,,I consider myself an extrovert.,filler
4357.7,,,html-slider-response,493,2348159,0.0-24.0-1.0-0.17,1578,List2B,black,woman,,,,,,,,survey_race,44,,,My age is not an important part of who I am.,filler
5309.6,,,html-slider-response,494,2353476,0.0-24.0-1.0-0.18,1578,List2B,black,woman,,,,,,,,survey_race,83,,,I think that my race has a lot to be proud of.,proud
2641.7,,,html-slider-response,495,2356125,0.0-24.0-1.0-0.19,1578,List2B,black,woman,,,,,,,,survey_race,83,,,I feel solidarity with my race.,solidarity
4247.7,,,html-slider-response,496,2360379,0.0-24.0-1.0-0.20,1578,List2B,black,woman,,,,,,,,survey_race,90,,,People of my race are very similar to each other.,verysimilar
4741.9,,,html-slider-response,497,2365129,0.0-24.0-1.0-0.21,1578,List2B,black,woman,,,,,,,,survey_race,91,,,I have a lot in common with people of a similar age to me.,filler
4967.1,,,html-slider-response,498,2370114,0.0-24.0-1.0-0.22,1578,List2B,black,woman,,,,,,,,survey_race,75,,,I often think about the fact that I am my age.,filler
2538.3,,,html-slider-response,499,2372663,0.0-24.0-1.0-0.23,1578,List2B,black,woman,,,,,,,,survey_race,85,,,I feel a bond with my race.,bond
4657.3,,,html-slider-response,500,2377328,0.0-24.0-1.0-0.24,1578,List2B,black,woman,,,,,,,,survey_race,96,,,Being my race gives me a good feeling.,feeling
4608.7,,,html-slider-response,501,2381944,0.0-24.0-1.0-0.25,1578,List2B,black,woman,,,,,,,,survey_race,82,,,Being my race is an important part of how I see myself.,important
3943.6,,,html-slider-response,502,2385897,0.0-24.0-1.0-0.26,1578,List2B,black,woman,,,,,,,,survey_race,80,,,I feel solidarity with people the same age as me.,filler
2560.4,,,html-slider-response,503,2388467,0.0-24.0-1.0-0.27,1578,List2B,black,woman,,,,,,,,survey_race,87,,,I am glad to be the age I am.,filler
98602.1,,,survey-text,504,2487113,0.0-25.0,1578,List2B,black,woman,,,,,"{""Q0"":""ccc""}",,,worker_id,,,,,
7133.7,,,external-html,505,2494689,0.0-26.0,1578,List2B,black,woman,debrief.html,,,,,,,,,,,,
