"rt","stimulus","button_pressed","trial_type","trial_index","time_elapsed","internal_node_id","subject","list","ppt_race","ppt_gender","url","first_guess","correct","key_press","responses","image_type","phrase_type","test_part","response","stimulus1","stimulus2","question_type","survey_item"
"3094.4000000953674","Welcome to the experiment. Press Continue to begin.","0","html-button-response","0","3097","0.0-0.0","16029","List2A","white","man","","","","","","","","","","","","",""
"8089.5","","","external-html","1","12273","0.0-1.0","16029","List2A","white","man","consent.html","","","","","","","","","","","",""
"3069.5999999046326","<p>On the next page, you will see portraits of 8 people and their names.</p><p>Your first task is to take a few minutes to memorise the names of these people.</p><p>You will have to recall their names during the rest of the experiment, so it is</p><p>essential that you try to memorise these people and their names as best as you can.</p><br><p><strong>You will then be tested on your memory of these names and portraits.</strong></p><br><p>The experiment will start after you have completed this memory test.</p><br><p>Ready?</p>","0","html-button-response","2","15344","0.0-2.0","16029","List2A","white","man","","","","","","","","","","","","",""
"4106","<img src='img/portrait_matrix_list2.jpg' style='width:900px;height:500px;''></img><p>If you have memorised all the portraits and names and are ready to start, press Continue.</p><p><strong>Please note: Your memory of these faces will be tested 4 times during this experiment.</strong></p>","0","html-button-response","3","20457","0.0-3.0-0.0","16029","List2A","white","man","","","","","","","","","","","","",""
"25640.900000095367","<img src=""portrait/BW2.jpg""style=""height:400px;""></img>","0","html-button-response","4","47103","0.0-3.0-1.0","16029","List2A","white","man","","true","2","","","","","","","","","",""
"10170.5","<img src=""portrait/BW2.jpg""style=""height:400px;""></img>","2","html-button-response","5","58289","0.0-3.0-3.0-0.0","16029","List2A","white","man","","false","2","","","","","","","","","",""
"null","CORRECT","","html-keyboard-response","6","59815","0.0-3.0-3.0-1.0-0.0","16029","List2A","white","man","","","","null","","","","","","","","",""
"14915.39999961853","<img src=""portrait/BW1.jpg""style=""height:400px;""></img>","0","html-button-response","7","74734","0.0-3.0-4.0","16029","List2A","white","man","","true","0","","","","","","","","","",""
"null","CORRECT","","html-keyboard-response","8","76252","0.0-3.0-5.0-0.0","16029","List2A","white","man","","","","null","","","","","","","","",""
"8590.099999904633","<img src=""portrait/WW1.jpg""style=""height:400px;""></img>","1","html-button-response","9","84844","0.0-3.0-7.0","16029","List2A","white","man","","true","1","","","","","","","","","",""
"null","CORRECT","","html-keyboard-response","10","86353","0.0-3.0-8.0-0.0","16029","List2A","white","man","","","","null","","","","","","","","",""
"9299.400000095367","<img src=""portrait/WW2.jpg""style=""height:400px;""></img>","3","html-button-response","11","95654","0.0-3.0-10.0","16029","List2A","white","man","","true","3","","","","","","","","","",""
"null","CORRECT","","html-keyboard-response","12","97169","0.0-3.0-11.0-0.0","16029","List2A","white","man","","","","null","","","","","","","","",""
"8420.199999809265","<img src=""portrait/BM2.jpg""style=""height:400px;""></img>","5","html-button-response","13","105591","0.0-3.0-13.0","16029","List2A","white","man","","true","5","","","","","","","","","",""
"null","CORRECT","","html-keyboard-response","14","107121","0.0-3.0-14.0-0.0","16029","List2A","white","man","","","","null","","","","","","","","",""
"5285.700000286102","<img src=""portrait/WM1.jpg""style=""height:400px;""></img>","6","html-button-response","15","112408","0.0-3.0-16.0","16029","List2A","white","man","","true","6","","","","","","","","","",""
"null","CORRECT","","html-keyboard-response","16","113942","0.0-3.0-17.0-0.0","16029","List2A","white","man","","","","null","","","","","","","","",""
"10745.900000095367","<img src=""portrait/BM1.jpg""style=""height:400px;""></img>","4","html-button-response","17","124689","0.0-3.0-19.0","16029","List2A","white","man","","true","4","","","","","","","","","",""
"null","CORRECT","","html-keyboard-response","18","126194","0.0-3.0-20.0-0.0","16029","List2A","white","man","","","","null","","","","","","","","",""
"21854.60000038147","<img src=""portrait/WM2.jpg""style=""height:400px;""></img>","7","html-button-response","19","148051","0.0-3.0-22.0","16029","List2A","white","man","","true","7","","","","","","","","","",""
"null","CORRECT","","html-keyboard-response","20","149579","0.0-3.0-23.0-0.0","16029","List2A","white","man","","","","null","","","","","","","","",""
"3101.0999999046326","<p>You got 7 out of 8 right first time. Press Continue.</p>","0","html-button-response","21","152682","0.0-3.0-25.0","16029","List2A","white","man","","","","","","","","","","","","",""
"3917.2999997138977","As you did not score 100%, the memory game will repeat. Press Continue.","0","html-button-response","22","157603","0.0-3.0-26.0-0.0","16029","List2A","white","man","","","","","","","","","","","","",""
"33966","<img src='img/portrait_matrix_list2.jpg' style='width:900px;height:500px;''></img><p>If you have memorised all the portraits and names and are ready to start, press Continue.</p><p><strong>Please note: Your memory of these faces will be tested 4 times during this experiment.</strong></p>","0","html-button-response","23","192575","0.0-3.1-0.1","16029","List2A","white","man","","","","","","","","","","","","",""
"6070","<img src=""portrait/BW2.jpg""style=""height:400px;""></img>","2","html-button-response","24","199649","0.0-3.1-1.1","16029","List2A","white","man","","true","2","","","","","","","","","",""
"null","CORRECT","","html-keyboard-response","25","201170","0.0-3.1-2.1-0.1","16029","List2A","white","man","","","","null","","","","","","","","",""
"6584.199999809265","<img src=""portrait/BW1.jpg""style=""height:400px;""></img>","0","html-button-response","26","207756","0.0-3.1-4.1","16029","List2A","white","man","","true","0","","","","","","","","","",""
"null","CORRECT","","html-keyboard-response","27","209271","0.0-3.1-5.1-0.1","16029","List2A","white","man","","","","null","","","","","","","","",""
"5118.099999904633","<img src=""portrait/WW1.jpg""style=""height:400px;""></img>","1","html-button-response","28","214390","0.0-3.1-7.1","16029","List2A","white","man","","true","1","","","","","","","","","",""
"null","CORRECT","","html-keyboard-response","29","215895","0.0-3.1-8.1-0.1","16029","List2A","white","man","","","","null","","","","","","","","",""
"14621.599999904633","<img src=""portrait/WW2.jpg""style=""height:400px;""></img>","3","html-button-response","30","230518","0.0-3.1-10.1","16029","List2A","white","man","","true","3","","","","","","","","","",""
"null","CORRECT","","html-keyboard-response","31","232045","0.0-3.1-11.1-0.1","16029","List2A","white","man","","","","null","","","","","","","","",""
"7944.699999809265","<img src=""portrait/BM2.jpg""style=""height:400px;""></img>","5","html-button-response","32","239992","0.0-3.1-13.1","16029","List2A","white","man","","true","5","","","","","","","","","",""
"null","CORRECT","","html-keyboard-response","33","241500","0.0-3.1-14.1-0.1","16029","List2A","white","man","","","","null","","","","","","","","",""
"5749.400000095367","<img src=""portrait/WM1.jpg""style=""height:400px;""></img>","6","html-button-response","34","247251","0.0-3.1-16.1","16029","List2A","white","man","","true","6","","","","","","","","","",""
"null","CORRECT","","html-keyboard-response","35","248754","0.0-3.1-17.1-0.1","16029","List2A","white","man","","","","null","","","","","","","","",""
"5445.300000190735","<img src=""portrait/BM1.jpg""style=""height:400px;""></img>","4","html-button-response","36","254202","0.0-3.1-19.1","16029","List2A","white","man","","true","4","","","","","","","","","",""
"null","CORRECT","","html-keyboard-response","37","255733","0.0-3.1-20.1-0.1","16029","List2A","white","man","","","","null","","","","","","","","",""
"3935.2999997138977","<img src=""portrait/WM2.jpg""style=""height:400px;""></img>","7","html-button-response","38","259670","0.0-3.1-22.1","16029","List2A","white","man","","true","7","","","","","","","","","",""
"null","CORRECT","","html-keyboard-response","39","261189","0.0-3.1-23.1-0.1","16029","List2A","white","man","","","","null","","","","","","","","",""
"2242.4000000953674","<p>You got 8 out of 8 right first time. Press Continue.</p>","0","html-button-response","40","263434","0.0-3.1-25.1","16029","List2A","white","man","","","","","","","","","","","","",""
"90853.2000002861","<p>In this experiment, you will view photographs of the people from the memory game interacting.</p><p>By using the <strong>exact</strong> phrase given <i>after</i> the photograph appears and recalling the correct names of the people in the photographs, form a sentence describing the interaction. You do not need to capitalise names.</p><p>Type your answer in the space provided. Please complete every sentence before moving onto the next trial.</p><p>You will only have a few seconds to memorise each given photograph and phrase before you can respond, so try your best to focus.</p><p>An example is given below. Press 'Continue' when you are ready.</p><img src='img/speaking_example.jpg' style='width:800px;height:460px;''></img>","0","html-button-response","41","355300","0.0-4.0","16029","List2A","white","man","","","","","","","","","","","","",""
"4763.200000286102","<p>Before the experiment starts, you will watch two example trials. Press 'Continue'.</p>","0","html-button-response","42","361077","0.0-5.0","16029","List2A","white","man","","","","","","","","","","","","",""
"null","<img src='img/play_eg.gif' style='height:400px;''></img>","","html-keyboard-response","43","364087","0.0-6.0","16029","List2A","white","man","","","","null","","","","","","","","",""
"null","<p>is playing with</p>","","html-keyboard-response","44","366094","0.0-7.0","16029","List2A","white","man","","","","null","","","","","","","","",""
"29396.800000190735","<p><b>Answer:</b> jane is playing with ruth</p>","0","html-button-response","45","395493","0.0-8.0","16029","List2A","white","man","","","","","","","","","","","","",""
"null","<img src='img/dance_eg.gif' style='height:400px;''></img>","","html-keyboard-response","46","398517","0.0-9.0","16029","List2A","white","man","","","","null","","","","","","","","",""
"null","<p>is being entertained by</p>","","html-keyboard-response","47","400519","0.0-10.0","16029","List2A","white","man","","","","null","","","","","","","","",""
"20793.199999809265","<p><b>Answer:</b> fred is being entertained by mike</p>","0","html-button-response","48","421313","0.0-11.0","16029","List2A","white","man","","","","","","","","","","","","",""
"9652","<p>Ready to start the experiment?</p><br><p><strong>Remember to describe the picture using a full sentence,</strong></p><p><strong>that combines the names of the people with the <i>exact</i> phrase given.</strong></p><p><strong>To receive full payment you must do this correctly.</strong></p><p><strong> You do not need to capitalise names or use punctuation.</strong></p><br><p>Press 'Continue' to begin.</p>","0","html-button-response","49","431972","0.0-12.0","16029","List2A","white","man","","","","","","","","","","","","",""
"null","<div style=""font-size:60px;"">+</div>","","html-keyboard-response","50","433486","0.0-13.0-0.0","16029","List2A","white","man","","","","null","","","","","","","","",""
"null","<img src=""stim_listA/kiss4.gif""style=""height:400px;""></stim_listA>","","html-keyboard-response","51","435503","0.0-13.0-1.0","16029","List2A","white","man","","","","null","","","","","","","","",""
"null","is being kissed by","","html-keyboard-response","52","437506","0.0-13.0-2.0","16029","List2A","white","man","","","","null","","","","","","","","",""
"45620.40000009537","","","survey-text","53","483128","0.0-13.0-3.0","16029","List2A","white","man","","","","","{""Q0"":""kate is being kissed by mike""}","<img src=""stim_listA/kiss4.gif""style=""height:400px;""></stim_listA>","is being kissed by","","","","","",""
"null","<div style=""font-size:60px;"">+</div>","","html-keyboard-response","54","483645","0.0-13.0-0.1","16029","List2A","white","man","","","","null","","","","","","","","",""
"null","<img src=""stim_listA/touch4.gif""style=""height:400px;""></stim_listA>","","html-keyboard-response","55","485647","0.0-13.0-1.1","16029","List2A","white","man","","","","null","","","","","","","","",""
"null","is being touched by","","html-keyboard-response","56","487658","0.0-13.0-2.1","16029","List2A","white","man","","","","null","","","","","","","","",""
"32713.900000095367","","","survey-text","57","520379","0.0-13.0-3.1","16029","List2A","white","man","","","","","{""Q0"":""beth is being touched by fred""}","<img src=""stim_listA/touch4.gif""style=""height:400px;""></stim_listA>","is being touched by","","","","","",""
"null","<div style=""font-size:60px;"">+</div>","","html-keyboard-response","58","520886","0.0-13.0-0.2","16029","List2A","white","man","","","","null","","","","","","","","",""
"null","<img src=""stim_listA/kiss1.gif""style=""height:400px;""></stim_listA>","","html-keyboard-response","59","522892","0.0-13.0-1.2","16029","List2A","white","man","","","","null","","","","","","","","",""
"null","is kissing","","html-keyboard-response","60","524894","0.0-13.0-2.2","16029","List2A","white","man","","","","null","","","","","","","","",""
"23454.699999809265","","","survey-text","61","548357","0.0-13.0-3.2","16029","List2A","white","man","","","","","{""Q0"":""luke is kissing ruth""}","<img src=""stim_listA/kiss1.gif""style=""height:400px;""></stim_listA>","is kissing","","","","","",""
"null","<div style=""font-size:60px;"">+</div>","","html-keyboard-response","62","548866","0.0-13.0-0.3","16029","List2A","white","man","","","","null","","","","","","","","",""
"null","<img src=""stim_listA/copy6.gif""style=""height:400px;""></stim_listA>","","html-keyboard-response","63","550875","0.0-13.0-1.3","16029","List2A","white","man","","","","null","","","","","","","","",""
"null","is being copied by","","html-keyboard-response","64","552877","0.0-13.0-2.3","16029","List2A","white","man","","","","null","","","","","","","","",""
"20973.400000095367","","","survey-text","65","573855","0.0-13.0-3.3","16029","List2A","white","man","","","","","{""Q0"":""mike is being copied by luke""}","<img src=""stim_listA/copy6.gif""style=""height:400px;""></stim_listA>","is being copied by","","","","","",""
"null","<div style=""font-size:60px;"">+</div>","","html-keyboard-response","66","574364","0.0-13.0-0.4","16029","List2A","white","man","","","","null","","","","","","","","",""
"null","<img src=""stim_listA/seduce8.gif""style=""height:400px;""></stim_listA>","","html-keyboard-response","67","576382","0.0-13.0-1.4","16029","List2A","white","man","","","","null","","","","","","","","",""
"null","is being seduced by","","html-keyboard-response","68","578384","0.0-13.0-2.4","16029","List2A","white","man","","","","null","","","","","","","","",""
"64543.5","","","survey-text","69","642931","0.0-13.0-3.4","16029","List2A","white","man","","","","","{""Q0"":""beth is being seduced by jane""}","<img src=""stim_listA/seduce8.gif""style=""height:400px;""></stim_listA>","is being seduced by","","","","","",""
"null","<div style=""font-size:60px;"">+</div>","","html-keyboard-response","70","643433","0.0-13.0-0.5","16029","List2A","white","man","","","","null","","","","","","","","",""
"null","<img src=""stim_listA/copy8.gif""style=""height:400px;""></stim_listA>","","html-keyboard-response","71","645446","0.0-13.0-1.5","16029","List2A","white","man","","","","null","","","","","","","","",""
"null","is being copied by","","html-keyboard-response","72","647458","0.0-13.0-2.5","16029","List2A","white","man","","","","null","","","","","","","","",""
"46240","","","survey-text","73","693702","0.0-13.0-3.5","16029","List2A","white","man","","","","","{""Q0"":""kate is being copied by ruth""}","<img src=""stim_listA/copy8.gif""style=""height:400px;""></stim_listA>","is being copied by","","","","","",""
"null","<div style=""font-size:60px;"">+</div>","","html-keyboard-response","74","694213","0.0-13.0-0.6","16029","List2A","white","man","","","","null","","","","","","","","",""
"null","<img src=""stim_listA/hug6.gif""style=""height:400px;""></stim_listA>","","html-keyboard-response","75","696222","0.0-13.0-1.6","16029","List2A","white","man","","","","null","","","","","","","","",""
"null","is being hugged by","","html-keyboard-response","76","698225","0.0-13.0-2.6","16029","List2A","white","man","","","","null","","","","","","","","",""
"36070.09999990463","","","survey-text","77","734298","0.0-13.0-3.6","16029","List2A","white","man","","","","","{""Q0"":""mike is being hugged by dave""}","<img src=""stim_listA/hug6.gif""style=""height:400px;""></stim_listA>","is being hugged by","","","","","",""
"null","<div style=""font-size:60px;"">+</div>","","html-keyboard-response","78","734800","0.0-13.0-0.7","16029","List2A","white","man","","","","null","","","","","","","","",""
"null","<img src=""stim_listA/shout1.gif""style=""height:400px;""></stim_listA>","","html-keyboard-response","79","736818","0.0-13.0-1.7","16029","List2A","white","man","","","","null","","","","","","","","",""
"null","is shouting at","","html-keyboard-response","80","738821","0.0-13.0-2.7","16029","List2A","white","man","","","","null","","","","","","","","",""
"35436.90000009537","","","survey-text","81","774262","0.0-13.0-3.7","16029","List2A","white","man","","","","","{""Q0"":""mike is shouting at ruth""}","<img src=""stim_listA/shout1.gif""style=""height:400px;""></stim_listA>","is shouting at","","","","","",""
"null","<div style=""font-size:60px;"">+</div>","","html-keyboard-response","82","774777","0.0-13.0-0.8","16029","List2A","white","man","","","","null","","","","","","","","",""
"null","<img src=""stim_listA/look6.gif""style=""height:400px;""></stim_listA>","","html-keyboard-response","83","776793","0.0-13.0-1.8","16029","List2A","white","man","","","","null","","","","","","","","",""
"null","is being looked at by","","html-keyboard-response","84","778796","0.0-13.0-2.8","16029","List2A","white","man","","","","null","","","","","","","","",""
"32105.300000190735","","","survey-text","85","810905","0.0-13.0-3.8","16029","List2A","white","man","","","","","{""Q0"":""mike is being looked at by dave""}","<img src=""stim_listA/look6.gif""style=""height:400px;""></stim_listA>","is being looked at by","","","","","",""
"null","<div style=""font-size:60px;"">+</div>","","html-keyboard-response","86","811414","0.0-13.0-0.9","16029","List2A","white","man","","","","null","","","","","","","","",""
"null","<img src=""stim_listA/hug2.gif""style=""height:400px;""></stim_listA>","","html-keyboard-response","87","813418","0.0-13.0-1.9","16029","List2A","white","man","","","","null","","","","","","","","",""
"null","is being hugged by","","html-keyboard-response","88","815429","0.0-13.0-2.9","16029","List2A","white","man","","","","null","","","","","","","","",""
"30359.099999904633","","","survey-text","89","845792","0.0-13.0-3.9","16029","List2A","white","man","","","","","{""Q0"":""dave is being hugged by jane""}","<img src=""stim_listA/hug2.gif""style=""height:400px;""></stim_listA>","is being hugged by","","","","","",""
"null","<div style=""font-size:60px;"">+</div>","","html-keyboard-response","90","846294","0.0-13.0-0.10","16029","List2A","white","man","","","","null","","","","","","","","",""
"null","<img src=""stim_listA/touch2.gif""style=""height:400px;""></stim_listA>","","html-keyboard-response","91","848307","0.0-13.0-1.10","16029","List2A","white","man","","","","null","","","","","","","","",""
"null","is being touched by","","html-keyboard-response","92","850310","0.0-13.0-2.10","16029","List2A","white","man","","","","null","","","","","","","","",""
"33296","","","survey-text","93","883608","0.0-13.0-3.10","16029","List2A","white","man","","","","","{""Q0"":""luke is being touched by ruth""}","<img src=""stim_listA/touch2.gif""style=""height:400px;""></stim_listA>","is being touched by","","","","","",""
"null","<div style=""font-size:60px;"">+</div>","","html-keyboard-response","94","884110","0.0-13.0-0.11","16029","List2A","white","man","","","","null","","","","","","","","",""
"null","<img src=""stim_listA/greet2.gif""style=""height:400px;""></stim_listA>","","html-keyboard-response","95","886114","0.0-13.0-1.11","16029","List2A","white","man","","","","null","","","","","","","","",""
"null","is being greeted by","","html-keyboard-response","96","888121","0.0-13.0-2.11","16029","List2A","white","man","","","","null","","","","","","","","",""
"31777.400000095367","","","survey-text","97","919902","0.0-13.0-3.11","16029","List2A","white","man","","","","","{""Q0"":""jane is being greeted by luke""}","<img src=""stim_listA/greet2.gif""style=""height:400px;""></stim_listA>","is being greeted by","","","","","",""
"null","<div style=""font-size:60px;"">+</div>","","html-keyboard-response","98","920404","0.0-13.0-0.12","16029","List2A","white","man","","","","null","","","","","","","","",""
"null","<img src=""stim_listA/seduce4.gif""style=""height:400px;""></stim_listA>","","html-keyboard-response","99","922417","0.0-13.0-1.12","16029","List2A","white","man","","","","null","","","","","","","","",""
"null","is being seduced by","","html-keyboard-response","100","924431","0.0-13.0-2.12","16029","List2A","white","man","","","","null","","","","","","","","",""
"40322.89999961853","","","survey-text","101","964758","0.0-13.0-3.12","16029","List2A","white","man","","","","","{""Q0"":""mike is being seduced by beth""}","<img src=""stim_listA/seduce4.gif""style=""height:400px;""></stim_listA>","is being seduced by","","","","","",""
"null","<div style=""font-size:60px;"">+</div>","","html-keyboard-response","102","965268","0.0-13.0-0.13","16029","List2A","white","man","","","","null","","","","","","","","",""
"null","<img src=""stim_listA/touch7.gif""style=""height:400px;""></stim_listA>","","html-keyboard-response","103","967281","0.0-13.0-1.13","16029","List2A","white","man","","","","null","","","","","","","","",""
"null","is touching","","html-keyboard-response","104","969283","0.0-13.0-2.13","16029","List2A","white","man","","","","null","","","","","","","","",""
"18433.5","","","survey-text","105","987720","0.0-13.0-3.13","16029","List2A","white","man","","","","","{""Q0"":""kate is touching jane""}","<img src=""stim_listA/touch7.gif""style=""height:400px;""></stim_listA>","is touching","","","","","",""
"null","<div style=""font-size:60px;"">+</div>","","html-keyboard-response","106","988229","0.0-13.0-0.14","16029","List2A","white","man","","","","null","","","","","","","","",""
"null","<img src=""stim_listA/kiss6.gif""style=""height:400px;""></stim_listA>","","html-keyboard-response","107","990240","0.0-13.0-1.14","16029","List2A","white","man","","","","null","","","","","","","","",""
"null","is being kissed by","","html-keyboard-response","108","992247","0.0-13.0-2.14","16029","List2A","white","man","","","","null","","","","","","","","",""
"19847","","","survey-text","109","1012098","0.0-13.0-3.14","16029","List2A","white","man","","","","","{""Q0"":""mike is being kissed by luke""}","<img src=""stim_listA/kiss6.gif""style=""height:400px;""></stim_listA>","is being kissed by","","","","","",""
"null","<div style=""font-size:60px;"">+</div>","","html-keyboard-response","110","1012607","0.0-13.0-0.15","16029","List2A","white","man","","","","null","","","","","","","","",""
"null","<img src=""stim_listA/oppose4.gif""style=""height:400px;""></stim_listA>","","html-keyboard-response","111","1014624","0.0-13.0-1.15","16029","List2A","white","man","","","","null","","","","","","","","",""
"null","is being opposed by","","html-keyboard-response","112","1016626","0.0-13.0-2.15","16029","List2A","white","man","","","","null","","","","","","","","",""
"47238.59999990463","","","survey-text","113","1063868","0.0-13.0-3.15","16029","List2A","white","man","","","","","{""Q0"":""beth is being opposed by fred""}","<img src=""stim_listA/oppose4.gif""style=""height:400px;""></stim_listA>","is being opposed by","","","","","",""
"null","<div style=""font-size:60px;"">+</div>","","html-keyboard-response","114","1064370","0.0-13.0-0.16","16029","List2A","white","man","","","","null","","","","","","","","",""
"null","<img src=""stim_listA/shout2.gif""style=""height:400px;""></stim_listA>","","html-keyboard-response","115","1066382","0.0-13.0-1.16","16029","List2A","white","man","","","","null","","","","","","","","",""
"null","is being shouted at by","","html-keyboard-response","116","1068385","0.0-13.0-2.16","16029","List2A","white","man","","","","null","","","","","","","","",""
"42418.40000009537","","","survey-text","117","1110807","0.0-13.0-3.16","16029","List2A","white","man","","","","","{""Q0"":""jane is being shouted at by dave""}","<img src=""stim_listA/shout2.gif""style=""height:400px;""></stim_listA>","is being shouted at by","","","","","",""
"null","<div style=""font-size:60px;"">+</div>","","html-keyboard-response","118","1111309","0.0-13.0-0.17","16029","List2A","white","man","","","","null","","","","","","","","",""
"null","<img src=""stim_listA/oppose8.gif""style=""height:400px;""></stim_listA>","","html-keyboard-response","119","1113313","0.0-13.0-1.17","16029","List2A","white","man","","","","null","","","","","","","","",""
"null","is being opposed by","","html-keyboard-response","120","1115322","0.0-13.0-2.17","16029","List2A","white","man","","","","null","","","","","","","","",""
"32995.699999809265","","","survey-text","121","1148322","0.0-13.0-3.17","16029","List2A","white","man","","","","","{""Q0"":""beth is being opposed by ruth""}","<img src=""stim_listA/oppose8.gif""style=""height:400px;""></stim_listA>","is being opposed by","","","","","",""
"null","<div style=""font-size:60px;"">+</div>","","html-keyboard-response","122","1148829","0.0-13.0-0.18","16029","List2A","white","man","","","","null","","","","","","","","",""
"null","<img src=""stim_listA/challenge1.gif""style=""height:400px;""></stim_listA>","","html-keyboard-response","123","1150833","0.0-13.0-1.18","16029","List2A","white","man","","","","null","","","","","","","","",""
"null","is challenging","","html-keyboard-response","124","1152835","0.0-13.0-2.18","16029","List2A","white","man","","","","null","","","","","","","","",""
"21245","","","survey-text","125","1174083","0.0-13.0-3.18","16029","List2A","white","man","","","","","{""Q0"":""dave is challenging ruth""}","<img src=""stim_listA/challenge1.gif""style=""height:400px;""></stim_listA>","is challenging","","","","","",""
"null","<div style=""font-size:60px;"">+</div>","","html-keyboard-response","126","1174593","0.0-13.0-0.19","16029","List2A","white","man","","","","null","","","","","","","","",""
"null","<img src=""stim_listA/copy2.gif""style=""height:400px;""></stim_listA>","","html-keyboard-response","127","1176602","0.0-13.0-1.19","16029","List2A","white","man","","","","null","","","","","","","","",""
"null","is being copied by","","html-keyboard-response","128","1178605","0.0-13.0-2.19","16029","List2A","white","man","","","","null","","","","","","","","",""
"32053.10000038147","","","survey-text","129","1210661","0.0-13.0-3.19","16029","List2A","white","man","","","","","{""Q0"":""luke is being copied by ruth""}","<img src=""stim_listA/copy2.gif""style=""height:400px;""></stim_listA>","is being copied by","","","","","",""
"18711.400000095367","<img src='img/portrait_matrix_list2.jpg' style='width:900px;height:500px;''></img><p>If you have memorised all the portraits and names and are ready to start, press Continue.</p><p><strong>Please note: Your memory of these faces will be tested 4 times during this experiment.</strong></p>","0","html-button-response","130","1229375","0.0-14.0-0.0","16029","List2A","white","man","","","","","","","","","","","","",""
"9775.599999904633","<img src=""portrait/BW2.jpg""style=""height:400px;""></img>","2","html-button-response","131","1240163","0.0-14.0-1.0","16029","List2A","white","man","","true","2","","","","","","","","","",""
"null","CORRECT","","html-keyboard-response","132","1241682","0.0-14.0-2.0-0.0","16029","List2A","white","man","","","","null","","","","","","","","",""
"4389.599999904633","<img src=""portrait/WM2.jpg""style=""height:400px;""></img>","7","html-button-response","133","1246074","0.0-14.0-4.0","16029","List2A","white","man","","true","7","","","","","","","","","",""
"null","CORRECT","","html-keyboard-response","134","1247584","0.0-14.0-5.0-0.0","16029","List2A","white","man","","","","null","","","","","","","","",""
"4966.300000190735","<img src=""portrait/WM1.jpg""style=""height:400px;""></img>","6","html-button-response","135","1252553","0.0-14.0-7.0","16029","List2A","white","man","","true","6","","","","","","","","","",""
"null","CORRECT","","html-keyboard-response","136","1254066","0.0-14.0-8.0-0.0","16029","List2A","white","man","","","","null","","","","","","","","",""
"3616.5","<img src=""portrait/BM1.jpg""style=""height:400px;""></img>","4","html-button-response","137","1257684","0.0-14.0-10.0","16029","List2A","white","man","","true","4","","","","","","","","","",""
"null","CORRECT","","html-keyboard-response","138","1259192","0.0-14.0-11.0-0.0","16029","List2A","white","man","","","","null","","","","","","","","",""
"4515.5","<img src=""portrait/BW1.jpg""style=""height:400px;""></img>","0","html-button-response","139","1263710","0.0-14.0-13.0","16029","List2A","white","man","","true","0","","","","","","","","","",""
"null","CORRECT","","html-keyboard-response","140","1265236","0.0-14.0-14.0-0.0","16029","List2A","white","man","","","","null","","","","","","","","",""
"8580.599999904633","<img src=""portrait/WW2.jpg""style=""height:400px;""></img>","3","html-button-response","141","1273819","0.0-14.0-16.0","16029","List2A","white","man","","true","3","","","","","","","","","",""
"null","CORRECT","","html-keyboard-response","142","1275327","0.0-14.0-17.0-0.0","16029","List2A","white","man","","","","null","","","","","","","","",""
"4054.0999999046326","<img src=""portrait/BM2.jpg""style=""height:400px;""></img>","5","html-button-response","143","1279383","0.0-14.0-19.0","16029","List2A","white","man","","true","5","","","","","","","","","",""
"null","CORRECT","","html-keyboard-response","144","1280906","0.0-14.0-20.0-0.0","16029","List2A","white","man","","","","null","","","","","","","","",""
"6523.200000286102","<img src=""portrait/WW1.jpg""style=""height:400px;""></img>","1","html-button-response","145","1287431","0.0-14.0-22.0","16029","List2A","white","man","","true","1","","","","","","","","","",""
"null","CORRECT","","html-keyboard-response","146","1288957","0.0-14.0-23.0-0.0","16029","List2A","white","man","","","","null","","","","","","","","",""
"5035.5","<p>You got 8 out of 8 right first time. Press Continue.</p>","0","html-button-response","147","1293995","0.0-14.0-25.0","16029","List2A","white","man","","","","","","","","","","","","",""
"null","<div style=""font-size:60px;"">+</div>","","html-keyboard-response","148","1295508","0.0-15.0-0.0","16029","List2A","white","man","","","","null","","","","","","","","",""
"null","<img src=""stim_listA/oppose3.gif""style=""height:400px;""></stim_listA>","","html-keyboard-response","149","1297512","0.0-15.0-1.0","16029","List2A","white","man","","","","null","","","","","","","","",""
"null","is opposing","","html-keyboard-response","150","1299519","0.0-15.0-2.0","16029","List2A","white","man","","","","null","","","","","","","","",""
"14900.39999961853","","","survey-text","151","1314424","0.0-15.0-3.0","16029","List2A","white","man","","","","","{""Q0"":""kate is opposing mike""}","<img src=""stim_listA/oppose3.gif""style=""height:400px;""></stim_listA>","is opposing","","","","","",""
"null","<div style=""font-size:60px;"">+</div>","","html-keyboard-response","152","1314933","0.0-15.0-0.1","16029","List2A","white","man","","","","null","","","","","","","","",""
"null","<img src=""stim_listA/touch6.gif""style=""height:400px;""></stim_listA>","","html-keyboard-response","153","1316947","0.0-15.0-1.1","16029","List2A","white","man","","","","null","","","","","","","","",""
"null","is being touched by","","html-keyboard-response","154","1318951","0.0-15.0-2.1","16029","List2A","white","man","","","","null","","","","","","","","",""
"17213.5","","","survey-text","155","1336169","0.0-15.0-3.1","16029","List2A","white","man","","","","","{""Q0"":""fred is being touched by luke""}","<img src=""stim_listA/touch6.gif""style=""height:400px;""></stim_listA>","is being touched by","","","","","",""
"null","<div style=""font-size:60px;"">+</div>","","html-keyboard-response","156","1336684","0.0-15.0-0.2","16029","List2A","white","man","","","","null","","","","","","","","",""
"null","<img src=""stim_listA/copy3.gif""style=""height:400px;""></stim_listA>","","html-keyboard-response","157","1338700","0.0-15.0-1.2","16029","List2A","white","man","","","","null","","","","","","","","",""
"null","is copying","","html-keyboard-response","158","1340702","0.0-15.0-2.2","16029","List2A","white","man","","","","null","","","","","","","","",""
"15395.39999961853","","","survey-text","159","1356102","0.0-15.0-3.2","16029","List2A","white","man","","","","","{""Q0"":""mike is copying beth""}","<img src=""stim_listA/copy3.gif""style=""height:400px;""></stim_listA>","is copying","","","","","",""
"null","<div style=""font-size:60px;"">+</div>","","html-keyboard-response","160","1356613","0.0-15.0-0.3","16029","List2A","white","man","","","","null","","","","","","","","",""
"null","<img src=""stim_listA/oppose1.gif""style=""height:400px;""></stim_listA>","","html-keyboard-response","161","1358624","0.0-15.0-1.3","16029","List2A","white","man","","","","null","","","","","","","","",""
"null","is opposing","","html-keyboard-response","162","1360627","0.0-15.0-2.3","16029","List2A","white","man","","","","null","","","","","","","","",""
"23524.800000190735","","","survey-text","163","1384155","0.0-15.0-3.3","16029","List2A","white","man","","","","","{""Q0"":""dave is opposing jane""}","<img src=""stim_listA/oppose1.gif""style=""height:400px;""></stim_listA>","is opposing","","","","","",""
"null","<div style=""font-size:60px;"">+</div>","","html-keyboard-response","164","1384665","0.0-15.0-0.4","16029","List2A","white","man","","","","null","","","","","","","","",""
"null","<img src=""stim_listA/look5.gif""style=""height:400px;""></stim_listA>","","html-keyboard-response","165","1386682","0.0-15.0-1.4","16029","List2A","white","man","","","","null","","","","","","","","",""
"null","is looking at","","html-keyboard-response","166","1388684","0.0-15.0-2.4","16029","List2A","white","man","","","","null","","","","","","","","",""
"23674.10000038147","","","survey-text","167","1412363","0.0-15.0-3.4","16029","List2A","white","man","","","","","{""Q0"":""luke is looking at fred""}","<img src=""stim_listA/look5.gif""style=""height:400px;""></stim_listA>","is looking at","","","","","",""
"null","<div style=""font-size:60px;"">+</div>","","html-keyboard-response","168","1412880","0.0-15.0-0.5","16029","List2A","white","man","","","","null","","","","","","","","",""
"null","<img src=""stim_listA/challenge2.gif""style=""height:400px;""></stim_listA>","","html-keyboard-response","169","1414885","0.0-15.0-1.5","16029","List2A","white","man","","","","null","","","","","","","","",""
"null","is being challenged by","","html-keyboard-response","170","1416887","0.0-15.0-2.5","16029","List2A","white","man","","","","null","","","","","","","","",""
"24986.200000286102","","","survey-text","171","1441878","0.0-15.0-3.5","16029","List2A","white","man","","","","","{""Q0"":""luke is being challenged by jane""}","<img src=""stim_listA/challenge2.gif""style=""height:400px;""></stim_listA>","is being challenged by","","","","","",""
"null","<div style=""font-size:60px;"">+</div>","","html-keyboard-response","172","1442395","0.0-15.0-0.6","16029","List2A","white","man","","","","null","","","","","","","","",""
"null","<img src=""stim_listA/greet7.gif""style=""height:400px;""></stim_listA>","","html-keyboard-response","173","1444412","0.0-15.0-1.6","16029","List2A","white","man","","","","null","","","","","","","","",""
"null","is greeting","","html-keyboard-response","174","1446422","0.0-15.0-2.6","16029","List2A","white","man","","","","null","","","","","","","","",""
"15641","","","survey-text","175","1462067","0.0-15.0-3.6","16029","List2A","white","man","","","","","{""Q0"":""jane is greeting beth""}","<img src=""stim_listA/greet7.gif""style=""height:400px;""></stim_listA>","is greeting","","","","","",""
"null","<div style=""font-size:60px;"">+</div>","","html-keyboard-response","176","1462577","0.0-15.0-0.7","16029","List2A","white","man","","","","null","","","","","","","","",""
"null","<img src=""stim_listA/seduce1.gif""style=""height:400px;""></stim_listA>","","html-keyboard-response","177","1464590","0.0-15.0-1.7","16029","List2A","white","man","","","","null","","","","","","","","",""
"null","is seducing","","html-keyboard-response","178","1466600","0.0-15.0-2.7","16029","List2A","white","man","","","","null","","","","","","","","",""
"13902.900000095367","","","survey-text","179","1480506","0.0-15.0-3.7","16029","List2A","white","man","","","","","{""Q0"":""jane is seducing luke""}","<img src=""stim_listA/seduce1.gif""style=""height:400px;""></stim_listA>","is seducing","","","","","",""
"null","<div style=""font-size:60px;"">+</div>","","html-keyboard-response","180","1481012","0.0-15.0-0.8","16029","List2A","white","man","","","","null","","","","","","","","",""
"null","<img src=""stim_listA/look8.gif""style=""height:400px;""></stim_listA>","","html-keyboard-response","181","1483026","0.0-15.0-1.8","16029","List2A","white","man","","","","null","","","","","","","","",""
"null","is being looked at by","","html-keyboard-response","182","1485040","0.0-15.0-2.8","16029","List2A","white","man","","","","null","","","","","","","","",""
"20603.300000190735","","","survey-text","183","1505647","0.0-15.0-3.8","16029","List2A","white","man","","","","","{""Q0"":""jane is being looked at by kate""}","<img src=""stim_listA/look8.gif""style=""height:400px;""></stim_listA>","is being looked at by","","","","","",""
"null","<div style=""font-size:60px;"">+</div>","","html-keyboard-response","184","1506157","0.0-15.0-0.9","16029","List2A","white","man","","","","null","","","","","","","","",""
"null","<img src=""stim_listA/oppose5.gif""style=""height:400px;""></stim_listA>","","html-keyboard-response","185","1508171","0.0-15.0-1.9","16029","List2A","white","man","","","","null","","","","","","","","",""
"null","is opposing","","html-keyboard-response","186","1510175","0.0-15.0-2.9","16029","List2A","white","man","","","","null","","","","","","","","",""
"10934.099999904633","","","survey-text","187","1521112","0.0-15.0-3.9","16029","List2A","white","man","","","","","{""Q0"":""mike is opposing dave""}","<img src=""stim_listA/oppose5.gif""style=""height:400px;""></stim_listA>","is opposing","","","","","",""
"null","<div style=""font-size:60px;"">+</div>","","html-keyboard-response","188","1521621","0.0-15.0-0.10","16029","List2A","white","man","","","","null","","","","","","","","",""
"null","<img src=""stim_listA/challenge7.gif""style=""height:400px;""></stim_listA>","","html-keyboard-response","189","1523628","0.0-15.0-1.10","16029","List2A","white","man","","","","null","","","","","","","","",""
"null","is challenging","","html-keyboard-response","190","1525645","0.0-15.0-2.10","16029","List2A","white","man","","","","null","","","","","","","","",""
"20785.5","","","survey-text","191","1546433","0.0-15.0-3.10","16029","List2A","white","man","","","","","{""Q0"":""beth is challenging jane""}","<img src=""stim_listA/challenge7.gif""style=""height:400px;""></stim_listA>","is challenging","","","","","",""
"null","<div style=""font-size:60px;"">+</div>","","html-keyboard-response","192","1546942","0.0-15.0-0.11","16029","List2A","white","man","","","","null","","","","","","","","",""
"null","<img src=""stim_listA/hug7.gif""style=""height:400px;""></stim_listA>","","html-keyboard-response","193","1548951","0.0-15.0-1.11","16029","List2A","white","man","","","","null","","","","","","","","",""
"null","is hugging","","html-keyboard-response","194","1550965","0.0-15.0-2.11","16029","List2A","white","man","","","","null","","","","","","","","",""
"19574.599999904633","","","survey-text","195","1570543","0.0-15.0-3.11","16029","List2A","white","man","","","","","{""Q0"":""beth is hugging ruth""}","<img src=""stim_listA/hug7.gif""style=""height:400px;""></stim_listA>","is hugging","","","","","",""
"null","<div style=""font-size:60px;"">+</div>","","html-keyboard-response","196","1571052","0.0-15.0-0.12","16029","List2A","white","man","","","","null","","","","","","","","",""
"null","<img src=""stim_listA/hug1.gif""style=""height:400px;""></stim_listA>","","html-keyboard-response","197","1573069","0.0-15.0-1.12","16029","List2A","white","man","","","","null","","","","","","","","",""
"null","is hugging","","html-keyboard-response","198","1575071","0.0-15.0-2.12","16029","List2A","white","man","","","","null","","","","","","","","",""
"11789","","","survey-text","199","1586863","0.0-15.0-3.12","16029","List2A","white","man","","","","","{""Q0"":""luke is hugging ruth""}","<img src=""stim_listA/hug1.gif""style=""height:400px;""></stim_listA>","is hugging","","","","","",""
"null","<div style=""font-size:60px;"">+</div>","","html-keyboard-response","200","1587373","0.0-15.0-0.13","16029","List2A","white","man","","","","null","","","","","","","","",""
"null","<img src=""stim_listA/copy5.gif""style=""height:400px;""></stim_listA>","","html-keyboard-response","201","1589379","0.0-15.0-1.13","16029","List2A","white","man","","","","null","","","","","","","","",""
"null","is copying","","html-keyboard-response","202","1591390","0.0-15.0-2.13","16029","List2A","white","man","","","","null","","","","","","","","",""
"12839","","","survey-text","203","1604232","0.0-15.0-3.13","16029","List2A","white","man","","","","","{""Q0"":""fred is copying dave""}","<img src=""stim_listA/copy5.gif""style=""height:400px;""></stim_listA>","is copying","","","","","",""
"null","<div style=""font-size:60px;"">+</div>","","html-keyboard-response","204","1604741","0.0-15.0-0.14","16029","List2A","white","man","","","","null","","","","","","","","",""
"null","<img src=""stim_listA/shout8.gif""style=""height:400px;""></stim_listA>","","html-keyboard-response","205","1606759","0.0-15.0-1.14","16029","List2A","white","man","","","","null","","","","","","","","",""
"null","is being shouted at by","","html-keyboard-response","206","1608761","0.0-15.0-2.14","16029","List2A","white","man","","","","null","","","","","","","","",""
"18827.60000038147","","","survey-text","207","1627592","0.0-15.0-3.14","16029","List2A","white","man","","","","","{""Q0"":""jane is being shouted at by kate""}","<img src=""stim_listA/shout8.gif""style=""height:400px;""></stim_listA>","is being shouted at by","","","","","",""
"null","<div style=""font-size:60px;"">+</div>","","html-keyboard-response","208","1628101","0.0-15.0-0.15","16029","List2A","white","man","","","","null","","","","","","","","",""
"null","<img src=""stim_listA/hug8.gif""style=""height:400px;""></stim_listA>","","html-keyboard-response","209","1630116","0.0-15.0-1.15","16029","List2A","white","man","","","","null","","","","","","","","",""
"null","is being hugged by","","html-keyboard-response","210","1632126","0.0-15.0-2.15","16029","List2A","white","man","","","","null","","","","","","","","",""
"14163.39999961853","","","survey-text","211","1646293","0.0-15.0-3.15","16029","List2A","white","man","","","","","{""Q0"":""jane is being hugged by kate""}","<img src=""stim_listA/hug8.gif""style=""height:400px;""></stim_listA>","is being hugged by","","","","","",""
"null","<div style=""font-size:60px;"">+</div>","","html-keyboard-response","212","1646804","0.0-15.0-0.16","16029","List2A","white","man","","","","null","","","","","","","","",""
"null","<img src=""stim_listA/touch5.gif""style=""height:400px;""></stim_listA>","","html-keyboard-response","213","1648813","0.0-15.0-1.16","16029","List2A","white","man","","","","null","","","","","","","","",""
"null","is touching","","html-keyboard-response","214","1650815","0.0-15.0-2.16","16029","List2A","white","man","","","","null","","","","","","","","",""
"13512","","","survey-text","215","1664331","0.0-15.0-3.16","16029","List2A","white","man","","","","","{""Q0"":""mike is touching dave""}","<img src=""stim_listA/touch5.gif""style=""height:400px;""></stim_listA>","is touching","","","","","",""
"null","<div style=""font-size:60px;"">+</div>","","html-keyboard-response","216","1664840","0.0-15.0-0.17","16029","List2A","white","man","","","","null","","","","","","","","",""
"null","<img src=""stim_listA/greet5.gif""style=""height:400px;""></stim_listA>","","html-keyboard-response","217","1666854","0.0-15.0-1.17","16029","List2A","white","man","","","","null","","","","","","","","",""
"null","is greeting","","html-keyboard-response","218","1668856","0.0-15.0-2.17","16029","List2A","white","man","","","","null","","","","","","","","",""
"10745","","","survey-text","219","1679605","0.0-15.0-3.17","16029","List2A","white","man","","","","","{""Q0"":""fred is greeting dave""}","<img src=""stim_listA/greet5.gif""style=""height:400px;""></stim_listA>","is greeting","","","","","",""
"null","<div style=""font-size:60px;"">+</div>","","html-keyboard-response","220","1680106","0.0-15.0-0.18","16029","List2A","white","man","","","","null","","","","","","","","",""
"null","<img src=""stim_listA/shout5.gif""style=""height:400px;""></stim_listA>","","html-keyboard-response","221","1682124","0.0-15.0-1.18","16029","List2A","white","man","","","","null","","","","","","","","",""
"null","is shouting at","","html-keyboard-response","222","1684138","0.0-15.0-2.18","16029","List2A","white","man","","","","null","","","","","","","","",""
"11783.5","","","survey-text","223","1695924","0.0-15.0-3.18","16029","List2A","white","man","","","","","{""Q0"":""luke is shouting at fred""}","<img src=""stim_listA/shout5.gif""style=""height:400px;""></stim_listA>","is shouting at","","","","","",""
"null","<div style=""font-size:60px;"">+</div>","","html-keyboard-response","224","1696426","0.0-15.0-0.19","16029","List2A","white","man","","","","null","","","","","","","","",""
"null","<img src=""stim_listA/look3.gif""style=""height:400px;""></stim_listA>","","html-keyboard-response","225","1698442","0.0-15.0-1.19","16029","List2A","white","man","","","","null","","","","","","","","",""
"null","is looking at","","html-keyboard-response","226","1700444","0.0-15.0-2.19","16029","List2A","white","man","","","","null","","","","","","","","",""
"10313.599999904633","","","survey-text","227","1710761","0.0-15.0-3.19","16029","List2A","white","man","","","","","{""Q0"":""beth is looking at fred""}","<img src=""stim_listA/look3.gif""style=""height:400px;""></stim_listA>","is looking at","","","","","",""
"8372.5","<img src='img/portrait_matrix_list2.jpg' style='width:900px;height:500px;''></img><p>If you have memorised all the portraits and names and are ready to start, press Continue.</p><p><strong>Please note: Your memory of these faces will be tested 4 times during this experiment.</strong></p>","0","html-button-response","228","1719135","0.0-16.0-0.0","16029","List2A","white","man","","","","","","","","","","","","",""
"6241.300000190735","<img src=""portrait/BW1.jpg""style=""height:400px;""></img>","0","html-button-response","229","1726388","0.0-16.0-1.0","16029","List2A","white","man","","true","0","","","","","","","","","",""
"null","CORRECT","","html-keyboard-response","230","1727914","0.0-16.0-2.0-0.0","16029","List2A","white","man","","","","null","","","","","","","","",""
"2889.7999997138977","<img src=""portrait/BM1.jpg""style=""height:400px;""></img>","4","html-button-response","231","1730806","0.0-16.0-4.0","16029","List2A","white","man","","true","4","","","","","","","","","",""
"null","CORRECT","","html-keyboard-response","232","1732317","0.0-16.0-5.0-0.0","16029","List2A","white","man","","","","null","","","","","","","","",""
"3194","<img src=""portrait/WM2.jpg""style=""height:400px;""></img>","7","html-button-response","233","1735514","0.0-16.0-7.0","16029","List2A","white","man","","true","7","","","","","","","","","",""
"null","CORRECT","","html-keyboard-response","234","1737036","0.0-16.0-8.0-0.0","16029","List2A","white","man","","","","null","","","","","","","","",""
"2613.9000000953674","<img src=""portrait/BW2.jpg""style=""height:400px;""></img>","2","html-button-response","235","1739652","0.0-16.0-10.0","16029","List2A","white","man","","true","2","","","","","","","","","",""
"null","CORRECT","","html-keyboard-response","236","1741182","0.0-16.0-11.0-0.0","16029","List2A","white","man","","","","null","","","","","","","","",""
"2057.1000003814697","<img src=""portrait/WW2.jpg""style=""height:400px;""></img>","3","html-button-response","237","1743242","0.0-16.0-13.0","16029","List2A","white","man","","true","3","","","","","","","","","",""
"null","CORRECT","","html-keyboard-response","238","1744766","0.0-16.0-14.0-0.0","16029","List2A","white","man","","","","null","","","","","","","","",""
"2920.0999999046326","<img src=""portrait/WW1.jpg""style=""height:400px;""></img>","1","html-button-response","239","1747688","0.0-16.0-16.0","16029","List2A","white","man","","true","1","","","","","","","","","",""
"null","CORRECT","","html-keyboard-response","240","1749206","0.0-16.0-17.0-0.0","16029","List2A","white","man","","","","null","","","","","","","","",""
"3032.5999999046326","<img src=""portrait/WM1.jpg""style=""height:400px;""></img>","6","html-button-response","241","1752241","0.0-16.0-19.0","16029","List2A","white","man","","true","6","","","","","","","","","",""
"null","CORRECT","","html-keyboard-response","242","1753751","0.0-16.0-20.0-0.0","16029","List2A","white","man","","","","null","","","","","","","","",""
"3617.1000003814697","<img src=""portrait/BM2.jpg""style=""height:400px;""></img>","5","html-button-response","243","1757371","0.0-16.0-22.0","16029","List2A","white","man","","true","5","","","","","","","","","",""
"null","CORRECT","","html-keyboard-response","244","1758885","0.0-16.0-23.0-0.0","16029","List2A","white","man","","","","null","","","","","","","","",""
"3804.699999809265","<p>You got 8 out of 8 right first time. Press Continue.</p>","0","html-button-response","245","1762693","0.0-16.0-25.0","16029","List2A","white","man","","","","","","","","","","","","",""
"null","<div style=""font-size:60px;"">+</div>","","html-keyboard-response","246","1764203","0.0-17.0-0.0","16029","List2A","white","man","","","","null","","","","","","","","",""
"null","<img src=""stim_listA/shout7.gif""style=""height:400px;""></stim_listA>","","html-keyboard-response","247","1766211","0.0-17.0-1.0","16029","List2A","white","man","","","","null","","","","","","","","",""
"null","is shouting at","","html-keyboard-response","248","1768218","0.0-17.0-2.0","16029","List2A","white","man","","","","null","","","","","","","","",""
"11588.900000095367","","","survey-text","249","1779809","0.0-17.0-3.0","16029","List2A","white","man","","","","","{""Q0"":""ruth is shouting at beth""}","<img src=""stim_listA/shout7.gif""style=""height:400px;""></stim_listA>","is shouting at","","","","","",""
"null","<div style=""font-size:60px;"">+</div>","","html-keyboard-response","250","1780327","0.0-17.0-0.1","16029","List2A","white","man","","","","null","","","","","","","","",""
"null","<img src=""stim_listA/seduce7.gif""style=""height:400px;""></stim_listA>","","html-keyboard-response","251","1782339","0.0-17.0-1.1","16029","List2A","white","man","","","","null","","","","","","","","",""
"null","is seducing","","html-keyboard-response","252","1784342","0.0-17.0-2.1","16029","List2A","white","man","","","","null","","","","","","","","",""
"11926","","","survey-text","253","1796273","0.0-17.0-3.1","16029","List2A","white","man","","","","","{""Q0"":""ruth is seducing kate""}","<img src=""stim_listA/seduce7.gif""style=""height:400px;""></stim_listA>","is seducing","","","","","",""
"null","<div style=""font-size:60px;"">+</div>","","html-keyboard-response","254","1796784","0.0-17.0-0.2","16029","List2A","white","man","","","","null","","","","","","","","",""
"null","<img src=""stim_listA/hug5.gif""style=""height:400px;""></stim_listA>","","html-keyboard-response","255","1798793","0.0-17.0-1.2","16029","List2A","white","man","","","","null","","","","","","","","",""
"null","is hugging","","html-keyboard-response","256","1800796","0.0-17.0-2.2","16029","List2A","white","man","","","","null","","","","","","","","",""
"9518.800000190735","","","survey-text","257","1810318","0.0-17.0-3.2","16029","List2A","white","man","","","","","{""Q0"":""luke is hugging fred""}","<img src=""stim_listA/hug5.gif""style=""height:400px;""></stim_listA>","is hugging","","","","","",""
"null","<div style=""font-size:60px;"">+</div>","","html-keyboard-response","258","1810827","0.0-17.0-0.3","16029","List2A","white","man","","","","null","","","","","","","","",""
"null","<img src=""stim_listA/oppose2.gif""style=""height:400px;""></stim_listA>","","html-keyboard-response","259","1812833","0.0-17.0-1.3","16029","List2A","white","man","","","","null","","","","","","","","",""
"null","is being opposed by","","html-keyboard-response","260","1814835","0.0-17.0-2.3","16029","List2A","white","man","","","","null","","","","","","","","",""
"10521.699999809265","","","survey-text","261","1825360","0.0-17.0-3.3","16029","List2A","white","man","","","","","{""Q0"":""luke is being opposed by ruth""}","<img src=""stim_listA/oppose2.gif""style=""height:400px;""></stim_listA>","is being opposed by","","","","","",""
"null","<div style=""font-size:60px;"">+</div>","","html-keyboard-response","262","1825869","0.0-17.0-0.4","16029","List2A","white","man","","","","null","","","","","","","","",""
"null","<img src=""stim_listA/copy4.gif""style=""height:400px;""></stim_listA>","","html-keyboard-response","263","1827882","0.0-17.0-1.4","16029","List2A","white","man","","","","null","","","","","","","","",""
"null","is being copied by","","html-keyboard-response","264","1829884","0.0-17.0-2.4","16029","List2A","white","man","","","","null","","","","","","","","",""
"11121","","","survey-text","265","1841009","0.0-17.0-3.4","16029","List2A","white","man","","","","","{""Q0"":""kate is being copied by fred""}","<img src=""stim_listA/copy4.gif""style=""height:400px;""></stim_listA>","is being copied by","","","","","",""
"null","<div style=""font-size:60px;"">+</div>","","html-keyboard-response","266","1841518","0.0-17.0-0.5","16029","List2A","white","man","","","","null","","","","","","","","",""
"null","<img src=""stim_listA/challenge3.gif""style=""height:400px;""></stim_listA>","","html-keyboard-response","267","1843535","0.0-17.0-1.5","16029","List2A","white","man","","","","null","","","","","","","","",""
"null","is challenging","","html-keyboard-response","268","1845537","0.0-17.0-2.5","16029","List2A","white","man","","","","null","","","","","","","","",""
"10164.89999961853","","","survey-text","269","1855705","0.0-17.0-3.5","16029","List2A","white","man","","","","","{""Q0"":""mike is challenging beth""}","<img src=""stim_listA/challenge3.gif""style=""height:400px;""></stim_listA>","is challenging","","","","","",""
"null","<div style=""font-size:60px;"">+</div>","","html-keyboard-response","270","1856207","0.0-17.0-0.6","16029","List2A","white","man","","","","null","","","","","","","","",""
"null","<img src=""stim_listA/shout3.gif""style=""height:400px;""></stim_listA>","","html-keyboard-response","271","1858220","0.0-17.0-1.6","16029","List2A","white","man","","","","null","","","","","","","","",""
"null","is shouting at","","html-keyboard-response","272","1860223","0.0-17.0-2.6","16029","List2A","white","man","","","","null","","","","","","","","",""
"10585","","","survey-text","273","1870811","0.0-17.0-3.6","16029","List2A","white","man","","","","","{""Q0"":""beth is shouting at fred""}","<img src=""stim_listA/shout3.gif""style=""height:400px;""></stim_listA>","is shouting at","","","","","",""
"null","<div style=""font-size:60px;"">+</div>","","html-keyboard-response","274","1871312","0.0-17.0-0.7","16029","List2A","white","man","","","","null","","","","","","","","",""
"null","<img src=""stim_listA/oppose6.gif""style=""height:400px;""></stim_listA>","","html-keyboard-response","275","1873329","0.0-17.0-1.7","16029","List2A","white","man","","","","null","","","","","","","","",""
"null","is being opposed by","","html-keyboard-response","276","1875331","0.0-17.0-2.7","16029","List2A","white","man","","","","null","","","","","","","","",""
"11330.800000190735","","","survey-text","277","1886665","0.0-17.0-3.7","16029","List2A","white","man","","","","","{""Q0"":""luke is being opposed by fred""}","<img src=""stim_listA/oppose6.gif""style=""height:400px;""></stim_listA>","is being opposed by","","","","","",""
"null","<div style=""font-size:60px;"">+</div>","","html-keyboard-response","278","1887167","0.0-17.0-0.8","16029","List2A","white","man","","","","null","","","","","","","","",""
"null","<img src=""stim_listA/look1.gif""style=""height:400px;""></stim_listA>","","html-keyboard-response","279","1889178","0.0-17.0-1.8","16029","List2A","white","man","","","","null","","","","","","","","",""
"null","is looking at","","html-keyboard-response","280","1891180","0.0-17.0-2.8","16029","List2A","white","man","","","","null","","","","","","","","",""
"10131.900000095367","","","survey-text","281","1901316","0.0-17.0-3.8","16029","List2A","white","man","","","","","{""Q0"":""luke is looking at ruth""}","<img src=""stim_listA/look1.gif""style=""height:400px;""></stim_listA>","is looking at","","","","","",""
"null","<div style=""font-size:60px;"">+</div>","","html-keyboard-response","282","1901817","0.0-17.0-0.9","16029","List2A","white","man","","","","null","","","","","","","","",""
"null","<img src=""stim_listA/greet4.gif""style=""height:400px;""></stim_listA>","","html-keyboard-response","283","1903834","0.0-17.0-1.9","16029","List2A","white","man","","","","null","","","","","","","","",""
"null","is being greeted by","","html-keyboard-response","284","1905836","0.0-17.0-2.9","16029","List2A","white","man","","","","null","","","","","","","","",""
"12834.400000095367","","","survey-text","285","1918674","0.0-17.0-3.9","16029","List2A","white","man","","","","","{""Q0"":""kate is being greeted by fred""}","<img src=""stim_listA/greet4.gif""style=""height:400px;""></stim_listA>","is being greeted by","","","","","",""
"null","<div style=""font-size:60px;"">+</div>","","html-keyboard-response","286","1919183","0.0-17.0-0.10","16029","List2A","white","man","","","","null","","","","","","","","",""
"null","<img src=""stim_listA/look2.gif""style=""height:400px;""></stim_listA>","","html-keyboard-response","287","1921201","0.0-17.0-1.10","16029","List2A","white","man","","","","null","","","","","","","","",""
"null","is being looked at by","","html-keyboard-response","288","1923205","0.0-17.0-2.10","16029","List2A","white","man","","","","null","","","","","","","","",""
"14309.60000038147","","","survey-text","289","1937518","0.0-17.0-3.10","16029","List2A","white","man","","","","","{""Q0"":""dave is being looked at by jane""}","<img src=""stim_listA/look2.gif""style=""height:400px;""></stim_listA>","is being looked at by","","","","","",""
"null","<div style=""font-size:60px;"">+</div>","","html-keyboard-response","290","1938028","0.0-17.0-0.11","16029","List2A","white","man","","","","null","","","","","","","","",""
"null","<img src=""stim_listA/shout6.gif""style=""height:400px;""></stim_listA>","","html-keyboard-response","291","1940043","0.0-17.0-1.11","16029","List2A","white","man","","","","null","","","","","","","","",""
"null","is being shouted at by","","html-keyboard-response","292","1942045","0.0-17.0-2.11","16029","List2A","white","man","","","","null","","","","","","","","",""
"15300.300000190735","","","survey-text","293","1957350","0.0-17.0-3.11","16029","List2A","white","man","","","","","{""Q0"":""mike is being shouted at by dave""}","<img src=""stim_listA/shout6.gif""style=""height:400px;""></stim_listA>","is being shouted at by","","","","","",""
"null","<div style=""font-size:60px;"">+</div>","","html-keyboard-response","294","1957859","0.0-17.0-0.12","16029","List2A","white","man","","","","null","","","","","","","","",""
"null","<img src=""stim_listA/seduce5.gif""style=""height:400px;""></stim_listA>","","html-keyboard-response","295","1959866","0.0-17.0-1.12","16029","List2A","white","man","","","","null","","","","","","","","",""
"null","is seducing","","html-keyboard-response","296","1961876","0.0-17.0-2.12","16029","List2A","white","man","","","","null","","","","","","","","",""
"10424.5","","","survey-text","297","1972306","0.0-17.0-3.12","16029","List2A","white","man","","","","","{""Q0"":""mike is seducing luke""}","<img src=""stim_listA/seduce5.gif""style=""height:400px;""></stim_listA>","is seducing","","","","","",""
"null","<div style=""font-size:60px;"">+</div>","","html-keyboard-response","298","1972815","0.0-17.0-0.13","16029","List2A","white","man","","","","null","","","","","","","","",""
"null","<img src=""stim_listA/kiss2.gif""style=""height:400px;""></stim_listA>","","html-keyboard-response","299","1974829","0.0-17.0-1.13","16029","List2A","white","man","","","","null","","","","","","","","",""
"null","is being kissed by","","html-keyboard-response","300","1976831","0.0-17.0-2.13","16029","List2A","white","man","","","","null","","","","","","","","",""
"17274.400000095367","","","survey-text","301","1994110","0.0-17.0-3.13","16029","List2A","white","man","","","","","{""Q0"":""jane is being kissed by dave""}","<img src=""stim_listA/kiss2.gif""style=""height:400px;""></stim_listA>","is being kissed by","","","","","",""
"null","<div style=""font-size:60px;"">+</div>","","html-keyboard-response","302","1994619","0.0-17.0-0.14","16029","List2A","white","man","","","","null","","","","","","","","",""
"null","<img src=""stim_listA/greet3.gif""style=""height:400px;""></stim_listA>","","html-keyboard-response","303","1996636","0.0-17.0-1.14","16029","List2A","white","man","","","","null","","","","","","","","",""
"null","is greeting","","html-keyboard-response","304","1998638","0.0-17.0-2.14","16029","List2A","white","man","","","","null","","","","","","","","",""
"11121.800000190735","","","survey-text","305","2009764","0.0-17.0-3.14","16029","List2A","white","man","","","","","{""Q0"":""mike is greeting beth""}","<img src=""stim_listA/greet3.gif""style=""height:400px;""></stim_listA>","is greeting","","","","","",""
"null","<div style=""font-size:60px;"">+</div>","","html-keyboard-response","306","2010273","0.0-17.0-0.15","16029","List2A","white","man","","","","null","","","","","","","","",""
"null","<img src=""stim_listA/greet8.gif""style=""height:400px;""></stim_listA>","","html-keyboard-response","307","2012283","0.0-17.0-1.15","16029","List2A","white","man","","","","null","","","","","","","","",""
"null","is being greeted by","","html-keyboard-response","308","2014293","0.0-17.0-2.15","16029","List2A","white","man","","","","null","","","","","","","","",""
"16014","","","survey-text","309","2030311","0.0-17.0-3.15","16029","List2A","white","man","","","","","{""Q0"":""ruth is being greeted by kate""}","<img src=""stim_listA/greet8.gif""style=""height:400px;""></stim_listA>","is being greeted by","","","","","",""
"null","<div style=""font-size:60px;"">+</div>","","html-keyboard-response","310","2030828","0.0-17.0-0.16","16029","List2A","white","man","","","","null","","","","","","","","",""
"null","<img src=""stim_listA/hug4.gif""style=""height:400px;""></stim_listA>","","html-keyboard-response","311","2032846","0.0-17.0-1.16","16029","List2A","white","man","","","","null","","","","","","","","",""
"null","is being hugged by","","html-keyboard-response","312","2034856","0.0-17.0-2.16","16029","List2A","white","man","","","","null","","","","","","","","",""
"12970.5","","","survey-text","313","2047831","0.0-17.0-3.16","16029","List2A","white","man","","","","","{""Q0"":""kate is being hugged by mike""}","<img src=""stim_listA/hug4.gif""style=""height:400px;""></stim_listA>","is being hugged by","","","","","",""
"null","<div style=""font-size:60px;"">+</div>","","html-keyboard-response","314","2048332","0.0-17.0-0.17","16029","List2A","white","man","","","","null","","","","","","","","",""
"null","<img src=""stim_listA/kiss8.gif""style=""height:400px;""></stim_listA>","","html-keyboard-response","315","2050344","0.0-17.0-1.17","16029","List2A","white","man","","","","null","","","","","","","","",""
"null","is being kissed by","","html-keyboard-response","316","2052347","0.0-17.0-2.17","16029","List2A","white","man","","","","null","","","","","","","","",""
"14587","","","survey-text","317","2066937","0.0-17.0-3.17","16029","List2A","white","man","","","","","{""Q0"":""kate is being kissed by jane""}","<img src=""stim_listA/kiss8.gif""style=""height:400px;""></stim_listA>","is being kissed by","","","","","",""
"null","<div style=""font-size:60px;"">+</div>","","html-keyboard-response","318","2067447","0.0-17.0-0.18","16029","List2A","white","man","","","","null","","","","","","","","",""
"null","<img src=""stim_listA/touch3.gif""style=""height:400px;""></stim_listA>","","html-keyboard-response","319","2069463","0.0-17.0-1.18","16029","List2A","white","man","","","","null","","","","","","","","",""
"null","is touching","","html-keyboard-response","320","2071466","0.0-17.0-2.18","16029","List2A","white","man","","","","null","","","","","","","","",""
"14866.099999904633","","","survey-text","321","2086336","0.0-17.0-3.18","16029","List2A","white","man","","","","","{""Q0"":""mike is touching kate""}","<img src=""stim_listA/touch3.gif""style=""height:400px;""></stim_listA>","is touching","","","","","",""
"null","<div style=""font-size:60px;"">+</div>","","html-keyboard-response","322","2086853","0.0-17.0-0.19","16029","List2A","white","man","","","","null","","","","","","","","",""
"null","<img src=""stim_listA/seduce6.gif""style=""height:400px;""></stim_listA>","","html-keyboard-response","323","2088868","0.0-17.0-1.19","16029","List2A","white","man","","","","null","","","","","","","","",""
"null","is being seduced by","","html-keyboard-response","324","2090877","0.0-17.0-2.19","16029","List2A","white","man","","","","null","","","","","","","","",""
"12075.099999904633","","","survey-text","325","2102955","0.0-17.0-3.19","16029","List2A","white","man","","","","","{""Q0"":""dave is being seduced by fred""}","<img src=""stim_listA/seduce6.gif""style=""height:400px;""></stim_listA>","is being seduced by","","","","","",""
"7583.799999713898","<img src='img/portrait_matrix_list2.jpg' style='width:900px;height:500px;''></img><p>If you have memorised all the portraits and names and are ready to start, press Continue.</p><p><strong>Please note: Your memory of these faces will be tested 4 times during this experiment.</strong></p>","0","html-button-response","326","2110541","0.0-18.0-0.0","16029","List2A","white","man","","","","","","","","","","","","",""
"3090.5","<img src=""portrait/BW2.jpg""style=""height:400px;""></img>","2","html-button-response","327","2114651","0.0-18.0-1.0","16029","List2A","white","man","","true","2","","","","","","","","","",""
"null","CORRECT","","html-keyboard-response","328","2116161","0.0-18.0-2.0-0.0","16029","List2A","white","man","","","","null","","","","","","","","",""
"2279.4000000953674","<img src=""portrait/WW1.jpg""style=""height:400px;""></img>","1","html-button-response","329","2118443","0.0-18.0-4.0","16029","List2A","white","man","","true","1","","","","","","","","","",""
"null","CORRECT","","html-keyboard-response","330","2119971","0.0-18.0-5.0-0.0","16029","List2A","white","man","","","","null","","","","","","","","",""
"3137.5999999046326","<img src=""portrait/WM1.jpg""style=""height:400px;""></img>","6","html-button-response","331","2123111","0.0-18.0-7.0","16029","List2A","white","man","","true","6","","","","","","","","","",""
"null","CORRECT","","html-keyboard-response","332","2124622","0.0-18.0-8.0-0.0","16029","List2A","white","man","","","","null","","","","","","","","",""
"2606","<img src=""portrait/BM2.jpg""style=""height:400px;""></img>","5","html-button-response","333","2127231","0.0-18.0-10.0","16029","List2A","white","man","","true","5","","","","","","","","","",""
"null","CORRECT","","html-keyboard-response","334","2128742","0.0-18.0-11.0-0.0","16029","List2A","white","man","","","","null","","","","","","","","",""
"2278.2999997138977","<img src=""portrait/WW2.jpg""style=""height:400px;""></img>","3","html-button-response","335","2131023","0.0-18.0-13.0","16029","List2A","white","man","","true","3","","","","","","","","","",""
"null","CORRECT","","html-keyboard-response","336","2132537","0.0-18.0-14.0-0.0","16029","List2A","white","man","","","","null","","","","","","","","",""
"2324.2999997138977","<img src=""portrait/BW1.jpg""style=""height:400px;""></img>","0","html-button-response","337","2134863","0.0-18.0-16.0","16029","List2A","white","man","","true","0","","","","","","","","","",""
"null","CORRECT","","html-keyboard-response","338","2136393","0.0-18.0-17.0-0.0","16029","List2A","white","man","","","","null","","","","","","","","",""
"2509.199999809265","<img src=""portrait/BM1.jpg""style=""height:400px;""></img>","4","html-button-response","339","2138904","0.0-18.0-19.0","16029","List2A","white","man","","true","4","","","","","","","","","",""
"null","CORRECT","","html-keyboard-response","340","2140412","0.0-18.0-20.0-0.0","16029","List2A","white","man","","","","null","","","","","","","","",""
"2762.9000000953674","<img src=""portrait/WM2.jpg""style=""height:400px;""></img>","7","html-button-response","341","2143178","0.0-18.0-22.0","16029","List2A","white","man","","true","7","","","","","","","","","",""
"null","CORRECT","","html-keyboard-response","342","2144681","0.0-18.0-23.0-0.0","16029","List2A","white","man","","","","null","","","","","","","","",""
"2468.5999999046326","<p>You got 8 out of 8 right first time. Press Continue.</p>","0","html-button-response","343","2147153","0.0-18.0-25.0","16029","List2A","white","man","","","","","","","","","","","","",""
"null","<div style=""font-size:60px;"">+</div>","","html-keyboard-response","344","2148667","0.0-19.0-0.0","16029","List2A","white","man","","","","null","","","","","","","","",""
"null","<img src=""stim_listA/greet6.gif""style=""height:400px;""></stim_listA>","","html-keyboard-response","345","2150671","0.0-19.0-1.0","16029","List2A","white","man","","","","null","","","","","","","","",""
"null","is being greeted by","","html-keyboard-response","346","2152679","0.0-19.0-2.0","16029","List2A","white","man","","","","null","","","","","","","","",""
"10940.89999961853","","","survey-text","347","2163623","0.0-19.0-3.0","16029","List2A","white","man","","","","","{""Q0"":""mike is being greeted by luke""}","<img src=""stim_listA/greet6.gif""style=""height:400px;""></stim_listA>","is being greeted by","","","","","",""
"null","<div style=""font-size:60px;"">+</div>","","html-keyboard-response","348","2164133","0.0-19.0-0.1","16029","List2A","white","man","","","","null","","","","","","","","",""
"null","<img src=""stim_listA/challenge8.gif""style=""height:400px;""></stim_listA>","","html-keyboard-response","349","2166151","0.0-19.0-1.1","16029","List2A","white","man","","","","null","","","","","","","","",""
"null","is being challenged by","","html-keyboard-response","350","2168153","0.0-19.0-2.1","16029","List2A","white","man","","","","null","","","","","","","","",""
"15617.900000095367","","","survey-text","351","2183774","0.0-19.0-3.1","16029","List2A","white","man","","","","","{""Q0"":""kate is being challenged by ruth""}","<img src=""stim_listA/challenge8.gif""style=""height:400px;""></stim_listA>","is being challenged by","","","","","",""
"null","<div style=""font-size:60px;"">+</div>","","html-keyboard-response","352","2184276","0.0-19.0-0.2","16029","List2A","white","man","","","","null","","","","","","","","",""
"null","<img src=""stim_listA/copy7.gif""style=""height:400px;""></stim_listA>","","html-keyboard-response","353","2186285","0.0-19.0-1.2","16029","List2A","white","man","","","","null","","","","","","","","",""
"null","is copying","","html-keyboard-response","354","2188287","0.0-19.0-2.2","16029","List2A","white","man","","","","null","","","","","","","","",""
"15116.10000038147","","","survey-text","355","2203406","0.0-19.0-3.2","16029","List2A","white","man","","","","","{""Q0"":""jane is copying beth""}","<img src=""stim_listA/copy7.gif""style=""height:400px;""></stim_listA>","is copying","","","","","",""
"null","<div style=""font-size:60px;"">+</div>","","html-keyboard-response","356","2203908","0.0-19.0-0.3","16029","List2A","white","man","","","","null","","","","","","","","",""
"null","<img src=""stim_listA/hug3.gif""style=""height:400px;""></stim_listA>","","html-keyboard-response","357","2205923","0.0-19.0-1.3","16029","List2A","white","man","","","","null","","","","","","","","",""
"null","is hugging","","html-keyboard-response","358","2207926","0.0-19.0-2.3","16029","List2A","white","man","","","","null","","","","","","","","",""
"9162.099999904633","","","survey-text","359","2217091","0.0-19.0-3.3","16029","List2A","white","man","","","","","{""Q0"":""fred is hugging beth""}","<img src=""stim_listA/hug3.gif""style=""height:400px;""></stim_listA>","is hugging","","","","","",""
"null","<div style=""font-size:60px;"">+</div>","","html-keyboard-response","360","2217601","0.0-19.0-0.4","16029","List2A","white","man","","","","null","","","","","","","","",""
"null","<img src=""stim_listA/seduce2.gif""style=""height:400px;""></stim_listA>","","html-keyboard-response","361","2219611","0.0-19.0-1.4","16029","List2A","white","man","","","","null","","","","","","","","",""
"null","is being seduced by","","html-keyboard-response","362","2221613","0.0-19.0-2.4","16029","List2A","white","man","","","","null","","","","","","","","",""
"13270.800000190735","","","survey-text","363","2234888","0.0-19.0-3.4","16029","List2A","white","man","","","","","{""Q0"":""dave is being seduced by ruth""}","<img src=""stim_listA/seduce2.gif""style=""height:400px;""></stim_listA>","is being seduced by","","","","","",""
"null","<div style=""font-size:60px;"">+</div>","","html-keyboard-response","364","2235397","0.0-19.0-0.5","16029","List2A","white","man","","","","null","","","","","","","","",""
"null","<img src=""stim_listA/challenge5.gif""style=""height:400px;""></stim_listA>","","html-keyboard-response","365","2237415","0.0-19.0-1.5","16029","List2A","white","man","","","","null","","","","","","","","",""
"null","is challenging","","html-keyboard-response","366","2239430","0.0-19.0-2.5","16029","List2A","white","man","","","","null","","","","","","","","",""
"10247.599999904633","","","survey-text","367","2249681","0.0-19.0-3.5","16029","List2A","white","man","","","","","{""Q0"":""fred is challenging dave""}","<img src=""stim_listA/challenge5.gif""style=""height:400px;""></stim_listA>","is challenging","","","","","",""
"null","<div style=""font-size:60px;"">+</div>","","html-keyboard-response","368","2250191","0.0-19.0-0.6","16029","List2A","white","man","","","","null","","","","","","","","",""
"null","<img src=""stim_listA/kiss7.gif""style=""height:400px;""></stim_listA>","","html-keyboard-response","369","2252199","0.0-19.0-1.6","16029","List2A","white","man","","","","null","","","","","","","","",""
"null","is kissing","","html-keyboard-response","370","2254201","0.0-19.0-2.6","16029","List2A","white","man","","","","null","","","","","","","","",""
"8864.599999904633","","","survey-text","371","2263069","0.0-19.0-3.6","16029","List2A","white","man","","","","","{""Q0"":""beth is kissing ruth""}","<img src=""stim_listA/kiss7.gif""style=""height:400px;""></stim_listA>","is kissing","","","","","",""
"null","<div style=""font-size:60px;"">+</div>","","html-keyboard-response","372","2263571","0.0-19.0-0.7","16029","List2A","white","man","","","","null","","","","","","","","",""
"null","<img src=""stim_listA/challenge4.gif""style=""height:400px;""></stim_listA>","","html-keyboard-response","373","2265575","0.0-19.0-1.7","16029","List2A","white","man","","","","null","","","","","","","","",""
"null","is being challenged by","","html-keyboard-response","374","2267585","0.0-19.0-2.7","16029","List2A","white","man","","","","null","","","","","","","","",""
"13158.099999904633","","","survey-text","375","2280747","0.0-19.0-3.7","16029","List2A","white","man","","","","","{""Q0"":""kate is being challenged by fred""}","<img src=""stim_listA/challenge4.gif""style=""height:400px;""></stim_listA>","is being challenged by","","","","","",""
"null","<div style=""font-size:60px;"">+</div>","","html-keyboard-response","376","2281255","0.0-19.0-0.8","16029","List2A","white","man","","","","null","","","","","","","","",""
"null","<img src=""stim_listA/look4.gif""style=""height:400px;""></stim_listA>","","html-keyboard-response","377","2283260","0.0-19.0-1.8","16029","List2A","white","man","","","","null","","","","","","","","",""
"null","is being looked at by","","html-keyboard-response","378","2285262","0.0-19.0-2.8","16029","List2A","white","man","","","","null","","","","","","","","",""
"12019.099999904633","","","survey-text","379","2297285","0.0-19.0-3.8","16029","List2A","white","man","","","","","{""Q0"":""kate is being looked at by mike""}","<img src=""stim_listA/look4.gif""style=""height:400px;""></stim_listA>","is being looked at by","","","","","",""
"null","<div style=""font-size:60px;"">+</div>","","html-keyboard-response","380","2297795","0.0-19.0-0.9","16029","List2A","white","man","","","","null","","","","","","","","",""
"null","<img src=""stim_listA/copy1.gif""style=""height:400px;""></stim_listA>","","html-keyboard-response","381","2299809","0.0-19.0-1.9","16029","List2A","white","man","","","","null","","","","","","","","",""
"null","is copying","","html-keyboard-response","382","2301811","0.0-19.0-2.9","16029","List2A","white","man","","","","null","","","","","","","","",""
"8349.299999713898","","","survey-text","383","2310164","0.0-19.0-3.9","16029","List2A","white","man","","","","","{""Q0"":""dave is copying ruth""}","<img src=""stim_listA/copy1.gif""style=""height:400px;""></stim_listA>","is copying","","","","","",""
"null","<div style=""font-size:60px;"">+</div>","","html-keyboard-response","384","2310665","0.0-19.0-0.10","16029","List2A","white","man","","","","null","","","","","","","","",""
"null","<img src=""stim_listA/touch1.gif""style=""height:400px;""></stim_listA>","","html-keyboard-response","385","2312683","0.0-19.0-1.10","16029","List2A","white","man","","","","null","","","","","","","","",""
"null","is touching","","html-keyboard-response","386","2314686","0.0-19.0-2.10","16029","List2A","white","man","","","","null","","","","","","","","",""
"13683.300000190735","","","survey-text","387","2328377","0.0-19.0-3.10","16029","List2A","white","man","","","","","{""Q0"":""dave is touching jane""}","<img src=""stim_listA/touch1.gif""style=""height:400px;""></stim_listA>","is touching","","","","","",""
"null","<div style=""font-size:60px;"">+</div>","","html-keyboard-response","388","2328887","0.0-19.0-0.11","16029","List2A","white","man","","","","null","","","","","","","","",""
"null","<img src=""stim_listA/kiss5.gif""style=""height:400px;""></stim_listA>","","html-keyboard-response","389","2330897","0.0-19.0-1.11","16029","List2A","white","man","","","","null","","","","","","","","",""
"null","is kissing","","html-keyboard-response","390","2332899","0.0-19.0-2.11","16029","List2A","white","man","","","","null","","","","","","","","",""
"7944.400000095367","","","survey-text","391","2340848","0.0-19.0-3.11","16029","List2A","white","man","","","","","{""Q0"":""luke is kissing fred""}","<img src=""stim_listA/kiss5.gif""style=""height:400px;""></stim_listA>","is kissing","","","","","",""
"null","<div style=""font-size:60px;"">+</div>","","html-keyboard-response","392","2341360","0.0-19.0-0.12","16029","List2A","white","man","","","","null","","","","","","","","",""
"null","<img src=""stim_listA/shout4.gif""style=""height:400px;""></stim_listA>","","html-keyboard-response","393","2343368","0.0-19.0-1.12","16029","List2A","white","man","","","","null","","","","","","","","",""
"null","is being shouted at by","","html-keyboard-response","394","2345370","0.0-19.0-2.12","16029","List2A","white","man","","","","null","","","","","","","","",""
"12525.900000095367","","","survey-text","395","2357899","0.0-19.0-3.12","16029","List2A","white","man","","","","","{""Q0"":""kate is being shouted at by mike""}","<img src=""stim_listA/shout4.gif""style=""height:400px;""></stim_listA>","is being shouted at by","","","","","",""
"null","<div style=""font-size:60px;"">+</div>","","html-keyboard-response","396","2358409","0.0-19.0-0.13","16029","List2A","white","man","","","","null","","","","","","","","",""
"null","<img src=""stim_listA/seduce3.gif""style=""height:400px;""></stim_listA>","","html-keyboard-response","397","2360425","0.0-19.0-1.13","16029","List2A","white","man","","","","null","","","","","","","","",""
"null","is seducing","","html-keyboard-response","398","2362427","0.0-19.0-2.13","16029","List2A","white","man","","","","null","","","","","","","","",""
"9516.199999809265","","","survey-text","399","2371947","0.0-19.0-3.13","16029","List2A","white","man","","","","","{""Q0"":""kate is seducing fred""}","<img src=""stim_listA/seduce3.gif""style=""height:400px;""></stim_listA>","is seducing","","","","","",""
"null","<div style=""font-size:60px;"">+</div>","","html-keyboard-response","400","2372449","0.0-19.0-0.14","16029","List2A","white","man","","","","null","","","","","","","","",""
"null","<img src=""stim_listA/greet1.gif""style=""height:400px;""></stim_listA>","","html-keyboard-response","401","2374457","0.0-19.0-1.14","16029","List2A","white","man","","","","null","","","","","","","","",""
"null","is greeting","","html-keyboard-response","402","2376461","0.0-19.0-2.14","16029","List2A","white","man","","","","null","","","","","","","","",""
"9114.39999961853","","","survey-text","403","2385579","0.0-19.0-3.14","16029","List2A","white","man","","","","","{""Q0"":""dave is greeting ruth""}","<img src=""stim_listA/greet1.gif""style=""height:400px;""></stim_listA>","is greeting","","","","","",""
"null","<div style=""font-size:60px;"">+</div>","","html-keyboard-response","404","2386081","0.0-19.0-0.15","16029","List2A","white","man","","","","null","","","","","","","","",""
"null","<img src=""stim_listA/kiss3.gif""style=""height:400px;""></stim_listA>","","html-keyboard-response","405","2388098","0.0-19.0-1.15","16029","List2A","white","man","","","","null","","","","","","","","",""
"null","is kissing","","html-keyboard-response","406","2390114","0.0-19.0-2.15","16029","List2A","white","man","","","","null","","","","","","","","",""
"9578.400000095367","","","survey-text","407","2399696","0.0-19.0-3.15","16029","List2A","white","man","","","","","{""Q0"":""beth is kissing fred""}","<img src=""stim_listA/kiss3.gif""style=""height:400px;""></stim_listA>","is kissing","","","","","",""
"null","<div style=""font-size:60px;"">+</div>","","html-keyboard-response","408","2400213","0.0-19.0-0.16","16029","List2A","white","man","","","","null","","","","","","","","",""
"null","<img src=""stim_listA/look7.gif""style=""height:400px;""></stim_listA>","","html-keyboard-response","409","2402230","0.0-19.0-1.16","16029","List2A","white","man","","","","null","","","","","","","","",""
"null","is looking at","","html-keyboard-response","410","2404238","0.0-19.0-2.16","16029","List2A","white","man","","","","null","","","","","","","","",""
"9460","","","survey-text","411","2413701","0.0-19.0-3.16","16029","List2A","white","man","","","","","{""Q0"":""beth is looking at ruth""}","<img src=""stim_listA/look7.gif""style=""height:400px;""></stim_listA>","is looking at","","","","","",""
"null","<div style=""font-size:60px;"">+</div>","","html-keyboard-response","412","2414203","0.0-19.0-0.17","16029","List2A","white","man","","","","null","","","","","","","","",""
"null","<img src=""stim_listA/oppose7.gif""style=""height:400px;""></stim_listA>","","html-keyboard-response","413","2416221","0.0-19.0-1.17","16029","List2A","white","man","","","","null","","","","","","","","",""
"null","is opposing","","html-keyboard-response","414","2418229","0.0-19.0-2.17","16029","List2A","white","man","","","","null","","","","","","","","",""
"10023.099999904633","","","survey-text","415","2428255","0.0-19.0-3.17","16029","List2A","white","man","","","","","{""Q0"":""kate is opposing jane""}","<img src=""stim_listA/oppose7.gif""style=""height:400px;""></stim_listA>","is opposing","","","","","",""
"null","<div style=""font-size:60px;"">+</div>","","html-keyboard-response","416","2428764","0.0-19.0-0.18","16029","List2A","white","man","","","","null","","","","","","","","",""
"null","<img src=""stim_listA/challenge6.gif""style=""height:400px;""></stim_listA>","","html-keyboard-response","417","2430772","0.0-19.0-1.18","16029","List2A","white","man","","","","null","","","","","","","","",""
"null","is being challenged by","","html-keyboard-response","418","2432774","0.0-19.0-2.18","16029","List2A","white","man","","","","null","","","","","","","","",""
"14593.699999809265","","","survey-text","419","2447370","0.0-19.0-3.18","16029","List2A","white","man","","","","","{""Q0"":""luke is being challenged by mike""}","<img src=""stim_listA/challenge6.gif""style=""height:400px;""></stim_listA>","is being challenged by","","","","","",""
"null","<div style=""font-size:60px;"">+</div>","","html-keyboard-response","420","2447880","0.0-19.0-0.19","16029","List2A","white","man","","","","null","","","","","","","","",""
"null","<img src=""stim_listA/touch8.gif""style=""height:400px;""></stim_listA>","","html-keyboard-response","421","2449893","0.0-19.0-1.19","16029","List2A","white","man","","","","null","","","","","","","","",""
"null","is being touched by","","html-keyboard-response","422","2451896","0.0-19.0-2.19","16029","List2A","white","man","","","","null","","","","","","","","",""
"12810.799999713898","","","survey-text","423","2464710","0.0-19.0-3.19","16029","List2A","white","man","","","","","{""Q0"":""beth is being touched by ruth""}","<img src=""stim_listA/touch8.gif""style=""height:400px;""></stim_listA>","is being touched by","","","","","",""
"6831.799999713898","<p>Thank you for completing that task.</p><p>The final part of this session is a questionnaire that will take about 4 minutes.</p><p>Press Continue.</p>","0","html-button-response","424","2471544","0.0-20.0","16029","List2A","white","man","","","","","","","","","","","","",""
"75286.7000002861","","","survey-text","425","2547841","0.0-21.0","16029","List2A","white","man","","","","","{""Q0"":""41"",""Q1"":""English"",""Q2"":""English"",""Q3"":""United State of America"",""Q4"":""United State of America"",""Q5"":""White"",""Q6"":""Male""}","","","demographics","","","","",""
"2999.300000190735","<p>Have you lived in the USA for the last 5 years or more?</p>","0","html-button-response","426","2550843","0.0-22.0","16029","List2A","white","man","","","","","","","","fiveyears","","","","",""
"24877.700000286102","<p>Move the slider to show the extent to which you agree with the following statements.</p>","0","html-button-response","427","2576720","0.0-23.0","16029","List2A","white","man","","","","","","","","","","","","",""
"11186.400000095367","","","html-slider-response","428","2588920","0.0-24.0-0.0-0.0","16029","List2A","white","man","","","","","","","","survey_race","91","","","I have a lot in common with people of a similar age to me.","filler"
"7176.700000286102","","","html-slider-response","429","2596099","0.0-24.0-0.0-0.1","16029","List2A","white","man","","","","","","","","survey_race","100","","","I am glad to be my age.","filler"
"4087.800000190735","","","html-slider-response","430","2600189","0.0-24.0-0.0-0.2","16029","List2A","white","man","","","","","","","","survey_race","100","","","It is pleasant to be my race.","pleasant"
"4386.200000286102","","","html-slider-response","431","2604578","0.0-24.0-0.0-0.3","16029","List2A","white","man","","","","","","","","survey_race","70","","","I consider myself an introvert.","filler"
"4607.39999961853","","","html-slider-response","432","2609187","0.0-24.0-0.0-0.4","16029","List2A","white","man","","","","","","","","survey_race","100","","","People of my race are very similar to each other.","verysimilar"
"7928.300000190735","","","html-slider-response","433","2617117","0.0-24.0-0.0-0.5","16029","List2A","white","man","","","","","","","","survey_race","100","","","The fact that I am my race is an important part of my identity.","identity"
"3904.2999997138977","","","html-slider-response","434","2621028","0.0-24.0-0.0-0.6","16029","List2A","white","man","","","","","","","","survey_race","100","","","Getting older does not worry me.","filler"
"4666.300000190735","","","html-slider-response","435","2625696","0.0-24.0-0.0-0.7","16029","List2A","white","man","","","","","","","","survey_race","85","","","I think that my race has a lot to be proud of.","proud"
"4088.199999809265","","","html-slider-response","436","2629786","0.0-24.0-0.0-0.8","16029","List2A","white","man","","","","","","","","survey_race","91","","","People of my race have a lot in common with each other.","common"
"3655","","","html-slider-response","437","2633443","0.0-24.0-0.0-0.9","16029","List2A","white","man","","","","","","","","survey_race","100","","","I am glad to be my race.","glad"
"4145","","","html-slider-response","438","2637590","0.0-24.0-0.0-0.10","16029","List2A","white","man","","","","","","","","survey_race","100","","","I feel solidarity with people the same age as me.","filler"
"10505.699999809265","","","html-slider-response","439","2648099","0.0-24.0-0.0-0.11","16029","List2A","white","man","","","","","","","","survey_race","22","","","My age is not an important part of who I am.","filler"
"3443.5","","","html-slider-response","440","2651545","0.0-24.0-0.0-0.12","16029","List2A","white","man","","","","","","","","survey_race","100","","","I am glad to be the age I am.","filler"
"3366.5","","","html-slider-response","441","2654913","0.0-24.0-0.0-0.13","16029","List2A","white","man","","","","","","","","survey_race","100","","","Being my age gives me a good feeling.","filler"
"5743.400000095367","","","html-slider-response","442","2660658","0.0-24.0-0.0-0.14","16029","List2A","white","man","","","","","","","","survey_race","58","","","I consider myself an extrovert.","filler"
"4732","","","html-slider-response","443","2665392","0.0-24.0-0.0-0.15","16029","List2A","white","man","","","","","","","","survey_race","81","","","I have a lot in common with the average person of my race.","average"
"5146.900000095367","","","html-slider-response","444","2670541","0.0-24.0-0.0-0.16","16029","List2A","white","man","","","","","","","","survey_race","85","","","The older I get, the wiser I feel.","filler"
"3318.199999809265","","","html-slider-response","445","2673861","0.0-24.0-0.0-0.17","16029","List2A","white","man","","","","","","","","survey_race","99","","","I feel a bond with my race.","bond"
"7677.699999809265","","","html-slider-response","446","2681540","0.0-24.0-0.0-0.18","16029","List2A","white","man","","","","","","","","survey_race","40","","","I often think about the fact that I am my age.","filler"
"5291.400000095367","","","html-slider-response","447","2686833","0.0-24.0-0.0-0.19","16029","List2A","white","man","","","","","","","","survey_race","82","","","I feel committed to my race.","committed"
"4039.0999999046326","","","html-slider-response","448","2690875","0.0-24.0-0.0-0.20","16029","List2A","white","man","","","","","","","","survey_race","79","","","People my age have a lot in common with each other.","filler"
"3866.5","","","html-slider-response","449","2694743","0.0-24.0-0.0-0.21","16029","List2A","white","man","","","","","","","","survey_race","85","","","I feel a bond with people the same age as me.","filler"
"5560.699999809265","","","html-slider-response","450","2700306","0.0-24.0-0.0-0.22","16029","List2A","white","man","","","","","","","","survey_race","58","","","I often think about the fact that I am my race.","often"
"3279.4000000953674","","","html-slider-response","451","2703588","0.0-24.0-0.0-0.23","16029","List2A","white","man","","","","","","","","survey_race","100","","","I feel solidarity with my race.","solidarity"
"5435.10000038147","","","html-slider-response","452","2709025","0.0-24.0-0.0-0.24","16029","List2A","white","man","","","","","","","","survey_race","84","","","I enjoy being in large groups.","filler"
"4087.6000003814697","","","html-slider-response","453","2713114","0.0-24.0-0.0-0.25","16029","List2A","white","man","","","","","","","","survey_race","86","","","I am similar to the average person of my race.","similar"
"5060.800000190735","","","html-slider-response","454","2718177","0.0-24.0-0.0-0.26","16029","List2A","white","man","","","","","","","","survey_race","89","","","Being my race is an important part of how I see myself.","important"
"5214","","","html-slider-response","455","2723393","0.0-24.0-0.0-0.27","16029","List2A","white","man","","","","","","","","survey_race","81","","","Being my race gives me a good feeling.","feeling"
"6070.5","","","html-slider-response","456","2729465","0.0-24.0-1.0-0.0","16029","List2A","white","man","","","","","","","","survey_gender","52","","","I often think about the fact that I am my gender.","often"
"3913.800000190735","","","html-slider-response","457","2733381","0.0-24.0-1.0-0.1","16029","List2A","white","man","","","","","","","","survey_gender","88","","","I consider myself a highly empathetic person.","filler"
"3212.699999809265","","","html-slider-response","458","2736596","0.0-24.0-1.0-0.2","16029","List2A","white","man","","","","","","","","survey_gender","88","","","I feel a bond with my friends.","filler"
"4367.300000190735","","","html-slider-response","459","2740964","0.0-24.0-1.0-0.3","16029","List2A","white","man","","","","","","","","survey_gender","100","","","Being my gender is an important part of how I see myself.","important"
"5165.699999809265","","","html-slider-response","460","2746131","0.0-24.0-1.0-0.4","16029","List2A","white","man","","","","","","","","survey_gender","56","","","It is not always easy for people to know what I am thinking.","filler"
"5993.900000095367","","","html-slider-response","461","2752127","0.0-24.0-1.0-0.5","16029","List2A","white","man","","","","","","","","survey_gender","22","","","Routine is not important to me.","filler"
"4126.400000095367","","","html-slider-response","462","2756256","0.0-24.0-1.0-0.6","16029","List2A","white","man","","","","","","","","survey_gender","80","","","I have a lot in common with the average person of my gender.","average"
"3096.699999809265","","","html-slider-response","463","2759354","0.0-24.0-1.0-0.7","16029","List2A","white","man","","","","","","","","survey_gender","100","","","I am glad to be my gender.","glad"
"2971.8999996185303","","","html-slider-response","464","2762328","0.0-24.0-1.0-0.8","16029","List2A","white","man","","","","","","","","survey_gender","100","","","I feel solidarity with my gender.","solidarity"
"4588.300000190735","","","html-slider-response","465","2766918","0.0-24.0-1.0-0.9","16029","List2A","white","man","","","","","","","","survey_gender","100","","","People of my gender are very similar to each other.","verysimilar"
"3250.7999997138977","","","html-slider-response","466","2770171","0.0-24.0-1.0-0.10","16029","List2A","white","man","","","","","","","","survey_gender","100","","","I feel committed to my gender.","committed"
"3644.5999999046326","","","html-slider-response","467","2773818","0.0-24.0-1.0-0.11","16029","List2A","white","man","","","","","","","","survey_gender","84","","","Most of the friends in my life are very similar to me.","filler"
"9477.60000038147","","","html-slider-response","468","2783297","0.0-24.0-1.0-0.12","16029","List2A","white","man","","","","","","","","survey_gender","89","","","I feel solidarity with my friends.","filler"
"7253.699999809265","","","html-slider-response","469","2790553","0.0-24.0-1.0-0.13","16029","List2A","white","man","","","","","","","","survey_gender","39","","","Family is not more important to me than friendship.","filler"
"3288.699999809265","","","html-slider-response","470","2793844","0.0-24.0-1.0-0.14","16029","List2A","white","man","","","","","","","","survey_gender","100","","","Being my gender gives me a good feeling.","feeling"
"6464.60000038147","","","html-slider-response","471","2800306","0.0-24.0-1.0-0.15","16029","List2A","white","man","","","","","","","","survey_gender","89","","","I think that my gender has a lot to be proud of.","proud"
"3395.199999809265","","","html-slider-response","472","2803703","0.0-24.0-1.0-0.16","16029","List2A","white","man","","","","","","","","survey_gender","100","","","I am glad to have the friends that I have.","filler"
"3308.300000190735","","","html-slider-response","473","2807014","0.0-24.0-1.0-0.17","16029","List2A","white","man","","","","","","","","survey_gender","100","","","It is pleasant to be my gender.","pleasant"
"3867","","","html-slider-response","474","2810882","0.0-24.0-1.0-0.18","16029","List2A","white","man","","","","","","","","survey_gender","93","","","I am similar to the average person of my gender.","similar"
"3837.5999999046326","","","html-slider-response","475","2814722","0.0-24.0-1.0-0.19","16029","List2A","white","man","","","","","","","","survey_gender","91","","","I have a lot in common with my friends.","filler"
"4347.799999713898","","","html-slider-response","476","2819072","0.0-24.0-1.0-0.20","16029","List2A","white","man","","","","","","","","survey_gender","96","","","The fact that I am my gender is an important part of my identity.","identity"
"3846.9000000953674","","","html-slider-response","477","2822921","0.0-24.0-1.0-0.21","16029","List2A","white","man","","","","","","","","survey_gender","96","","","I feel a bond with my gender.","bond"
"3587.1000003814697","","","html-slider-response","478","2826510","0.0-24.0-1.0-0.22","16029","List2A","white","man","","","","","","","","survey_gender","57","","","I often think about my actions.","filler"
"3741.699999809265","","","html-slider-response","479","2830254","0.0-24.0-1.0-0.23","16029","List2A","white","man","","","","","","","","survey_gender","86","","","My friends understand me.","filler"
