"rt","stimulus","button_pressed","trial_type","trial_index","time_elapsed","internal_node_id","subject","list","ppt_race","ppt_gender","url","first_guess","correct","key_press","responses","image_type","phrase_type","test_part","response","stimulus1","stimulus2","question_type","survey_item"
"32027.39999999851","Welcome to the experiment. Press Continue to begin.","0","html-button-response","0","32031","0.0-0.0","16030","List2B","black","woman","","","","","","","","","","","","",""
"64906.599999997765","","","external-html","1","99324","0.0-1.0","16030","List2B","black","woman","consent.html","","","","","","","","","","","",""
"10103","<p>On the next page, you will see portraits of 8 people and their names.</p><p>Your first task is to take a few minutes to memorise the names of these people.</p><p>You will have to recall their names during the rest of the experiment, so it is</p><p>essential that you try to memorise these people and their names as best as you can.</p><br><p><strong>You will then be tested on your memory of these names and portraits.</strong></p><br><p>The experiment will start after you have completed this memory test.</p><br><p>Ready?</p>","0","html-button-response","2","109428","0.0-2.0","16030","List2B","black","woman","","","","","","","","","","","","",""
"143093.8999999985","<img src='img/portrait_matrix_list2.jpg' style='width:900px;height:500px;''></img><p>If you have memorised all the portraits and names and are ready to start, press Continue.</p><p><strong>Please note: Your memory of these faces will be tested 4 times during this experiment.</strong></p>","0","html-button-response","3","253525","0.0-3.0-0.0","16030","List2B","black","woman","","","","","","","","","","","","",""
"10550.20000000298","<img src=""portrait/WM2.jpg""style=""height:400px;""></img>","7","html-button-response","4","265080","0.0-3.0-1.0","16030","List2B","black","woman","","true","7","","","","","","","","","",""
"null","CORRECT","","html-keyboard-response","5","266586","0.0-3.0-2.0-0.0","16030","List2B","black","woman","","","","null","","","","","","","","",""
"8399.699999999255","<img src=""portrait/BM2.jpg""style=""height:400px;""></img>","5","html-button-response","6","274988","0.0-3.0-4.0","16030","List2B","black","woman","","true","5","","","","","","","","","",""
"null","CORRECT","","html-keyboard-response","7","276492","0.0-3.0-5.0-0.0","16030","List2B","black","woman","","","","null","","","","","","","","",""
"6844.400000002235","<img src=""portrait/BM1.jpg""style=""height:400px;""></img>","4","html-button-response","8","283338","0.0-3.0-7.0","16030","List2B","black","woman","","true","4","","","","","","","","","",""
"null","CORRECT","","html-keyboard-response","9","284842","0.0-3.0-8.0-0.0","16030","List2B","black","woman","","","","null","","","","","","","","",""
"11562.099999997765","<img src=""portrait/BW1.jpg""style=""height:400px;""></img>","0","html-button-response","10","296407","0.0-3.0-10.0","16030","List2B","black","woman","","true","0","","","","","","","","","",""
"null","CORRECT","","html-keyboard-response","11","297910","0.0-3.0-11.0-0.0","16030","List2B","black","woman","","","","null","","","","","","","","",""
"10605","<img src=""portrait/WM1.jpg""style=""height:400px;""></img>","6","html-button-response","12","308517","0.0-3.0-13.0","16030","List2B","black","woman","","true","6","","","","","","","","","",""
"null","CORRECT","","html-keyboard-response","13","310020","0.0-3.0-14.0-0.0","16030","List2B","black","woman","","","","null","","","","","","","","",""
"23036","<img src=""portrait/WW1.jpg""style=""height:400px;""></img>","1","html-button-response","14","333058","0.0-3.0-16.0","16030","List2B","black","woman","","true","1","","","","","","","","","",""
"null","CORRECT","","html-keyboard-response","15","334561","0.0-3.0-17.0-0.0","16030","List2B","black","woman","","","","null","","","","","","","","",""
"6758.900000002235","<img src=""portrait/BW2.jpg""style=""height:400px;""></img>","2","html-button-response","16","341322","0.0-3.0-19.0","16030","List2B","black","woman","","true","2","","","","","","","","","",""
"null","CORRECT","","html-keyboard-response","17","342826","0.0-3.0-20.0-0.0","16030","List2B","black","woman","","","","null","","","","","","","","",""
"6212","<img src=""portrait/WW2.jpg""style=""height:400px;""></img>","3","html-button-response","18","349040","0.0-3.0-22.0","16030","List2B","black","woman","","true","3","","","","","","","","","",""
"null","CORRECT","","html-keyboard-response","19","350544","0.0-3.0-23.0-0.0","16030","List2B","black","woman","","","","null","","","","","","","","",""
"2254.699999999255","<p>You got 8 out of 8 right first time. Press Continue.</p>","0","html-button-response","20","352801","0.0-3.0-25.0","16030","List2B","black","woman","","","","","","","","","","","","",""
"185864.59999999776","<p>In this experiment, you will view photographs of the people from the memory game interacting.</p><p>By using the <strong>exact</strong> phrase given <i>after</i> the photograph appears and recalling the correct names of the people in the photographs, form a sentence describing the interaction. You do not need to capitalise names.</p><p>Type your answer in the space provided. Please complete every sentence before moving onto the next trial.</p><p>You will only have a few seconds to memorise each given photograph and phrase before you can respond, so try your best to focus.</p><p>An example is given below. Press 'Continue' when you are ready.</p><img src='img/speaking_example.jpg' style='width:800px;height:460px;''></img>","0","html-button-response","21","539669","0.0-4.0","16030","List2B","black","woman","","","","","","","","","","","","",""
"3402.300000000745","<p>Before the experiment starts, you will watch two example trials. Press 'Continue'.</p>","0","html-button-response","22","544074","0.0-5.0","16030","List2B","black","woman","","","","","","","","","","","","",""
"null","<img src='img/play_eg.gif' style='height:400px;''></img>","","html-keyboard-response","23","547076","0.0-6.0","16030","List2B","black","woman","","","","null","","","","","","","","",""
"null","<p>is playing with</p>","","html-keyboard-response","24","549078","0.0-7.0","16030","List2B","black","woman","","","","null","","","","","","","","",""
"6216.699999999255","<p><b>Answer:</b> jane is playing with ruth</p>","0","html-button-response","25","555296","0.0-8.0","16030","List2B","black","woman","","","","","","","","","","","","",""
"null","<img src='img/dance_eg.gif' style='height:400px;''></img>","","html-keyboard-response","26","558298","0.0-9.0","16030","List2B","black","woman","","","","null","","","","","","","","",""
"null","<p>is being entertained by</p>","","html-keyboard-response","27","560301","0.0-10.0","16030","List2B","black","woman","","","","null","","","","","","","","",""
"333898.80000000075","<p><b>Answer:</b> fred is being entertained by mike</p>","0","html-button-response","28","894201","0.0-11.0","16030","List2B","black","woman","","","","","","","","","","","","",""
"7296.39999999851","<p>Ready to start the experiment?</p><br><p><strong>Remember to describe the picture using a full sentence,</strong></p><p><strong>that combines the names of the people with the <i>exact</i> phrase given.</strong></p><p><strong>To receive full payment you must do this correctly.</strong></p><p><strong> You do not need to capitalise names or use punctuation.</strong></p><br><p>Press 'Continue' to begin.</p>","0","html-button-response","29","902499","0.0-12.0","16030","List2B","black","woman","","","","","","","","","","","","",""
"null","<div style=""font-size:60px;"">+</div>","","html-keyboard-response","30","904003","0.0-13.0-0.0","16030","List2B","black","woman","","","","null","","","","","","","","",""
"null","<img src=""stim_listB/touch8.gif""style=""height:400px;""></stim_listB>","","html-keyboard-response","31","906009","0.0-13.0-1.0","16030","List2B","black","woman","","","","null","","","","","","","","",""
"null","is being touched by","","html-keyboard-response","32","908010","0.0-13.0-2.0","16030","List2B","black","woman","","","","null","","","","","","","","",""
"51029.300000000745","","","survey-text","33","959044","0.0-13.0-3.0","16030","List2B","black","woman","","","","","{""Q0"":""Ruth""}","<img src=""stim_listB/touch8.gif""style=""height:400px;""></stim_listB>","is being touched by","","","","","",""
"null","<div style=""font-size:60px;"">+</div>","","html-keyboard-response","34","959546","0.0-13.0-0.1","16030","List2B","black","woman","","","","null","","","","","","","","",""
"null","<img src=""stim_listB/shout4.gif""style=""height:400px;""></stim_listB>","","html-keyboard-response","35","961549","0.0-13.0-1.1","16030","List2B","black","woman","","","","null","","","","","","","","",""
"null","is being shouted at by","","html-keyboard-response","36","963551","0.0-13.0-2.1","16030","List2B","black","woman","","","","null","","","","","","","","",""
"6596.70000000298","","","survey-text","37","970151","0.0-13.0-3.1","16030","List2B","black","woman","","","","","{""Q0"":""Mike""}","<img src=""stim_listB/shout4.gif""style=""height:400px;""></stim_listB>","is being shouted at by","","","","","",""
"null","<div style=""font-size:60px;"">+</div>","","html-keyboard-response","38","970654","0.0-13.0-0.2","16030","List2B","black","woman","","","","null","","","","","","","","",""
"null","<img src=""stim_listB/copy8.gif""style=""height:400px;""></stim_listB>","","html-keyboard-response","39","972656","0.0-13.0-1.2","16030","List2B","black","woman","","","","null","","","","","","","","",""
"null","is being copied by","","html-keyboard-response","40","974658","0.0-13.0-2.2","16030","List2B","black","woman","","","","null","","","","","","","","",""
"4835.300000000745","","","survey-text","41","979496","0.0-13.0-3.2","16030","List2B","black","woman","","","","","{""Q0"":""Ruth""}","<img src=""stim_listB/copy8.gif""style=""height:400px;""></stim_listB>","is being copied by","","","","","",""
"null","<div style=""font-size:60px;"">+</div>","","html-keyboard-response","42","979999","0.0-13.0-0.3","16030","List2B","black","woman","","","","null","","","","","","","","",""
"null","<img src=""stim_listB/shout7.gif""style=""height:400px;""></stim_listB>","","html-keyboard-response","43","982003","0.0-13.0-1.3","16030","List2B","black","woman","","","","null","","","","","","","","",""
"null","is shouting at","","html-keyboard-response","44","984005","0.0-13.0-2.3","16030","List2B","black","woman","","","","null","","","","","","","","",""
"6605","","","survey-text","45","990612","0.0-13.0-3.3","16030","List2B","black","woman","","","","","{""Q0"":""Ruth""}","<img src=""stim_listB/shout7.gif""style=""height:400px;""></stim_listB>","is shouting at","","","","","",""
"null","<div style=""font-size:60px;"">+</div>","","html-keyboard-response","46","991116","0.0-13.0-0.4","16030","List2B","black","woman","","","","null","","","","","","","","",""
"null","<img src=""stim_listB/touch7.gif""style=""height:400px;""></stim_listB>","","html-keyboard-response","47","993120","0.0-13.0-1.4","16030","List2B","black","woman","","","","null","","","","","","","","",""
"null","is touching","","html-keyboard-response","48","995122","0.0-13.0-2.4","16030","List2B","black","woman","","","","null","","","","","","","","",""
"9183.89999999851","","","survey-text","49","1004308","0.0-13.0-3.4","16030","List2B","black","woman","","","","","{""Q0"":""Kate""}","<img src=""stim_listB/touch7.gif""style=""height:400px;""></stim_listB>","is touching","","","","","",""
"null","<div style=""font-size:60px;"">+</div>","","html-keyboard-response","50","1004810","0.0-13.0-0.5","16030","List2B","black","woman","","","","null","","","","","","","","",""
"null","<img src=""stim_listB/look1.gif""style=""height:400px;""></stim_listB>","","html-keyboard-response","51","1006814","0.0-13.0-1.5","16030","List2B","black","woman","","","","null","","","","","","","","",""
"null","is looking at","","html-keyboard-response","52","1008816","0.0-13.0-2.5","16030","List2B","black","woman","","","","null","","","","","","","","",""
"11680.099999997765","","","survey-text","53","1020499","0.0-13.0-3.5","16030","List2B","black","woman","","","","","{""Q0"":""Luke""}","<img src=""stim_listB/look1.gif""style=""height:400px;""></stim_listB>","is looking at","","","","","",""
"null","<div style=""font-size:60px;"">+</div>","","html-keyboard-response","54","1021002","0.0-13.0-0.6","16030","List2B","black","woman","","","","null","","","","","","","","",""
"null","<img src=""stim_listB/greet2.gif""style=""height:400px;""></stim_listB>","","html-keyboard-response","55","1023005","0.0-13.0-1.6","16030","List2B","black","woman","","","","null","","","","","","","","",""
"null","is being greeted by","","html-keyboard-response","56","1025008","0.0-13.0-2.6","16030","List2B","black","woman","","","","null","","","","","","","","",""
"8243.599999997765","","","survey-text","57","1033254","0.0-13.0-3.6","16030","List2B","black","woman","","","","","{""Q0"":""Jane""}","<img src=""stim_listB/greet2.gif""style=""height:400px;""></stim_listB>","is being greeted by","","","","","",""
"null","<div style=""font-size:60px;"">+</div>","","html-keyboard-response","58","1033757","0.0-13.0-0.7","16030","List2B","black","woman","","","","null","","","","","","","","",""
"null","<img src=""stim_listB/kiss4.gif""style=""height:400px;""></stim_listB>","","html-keyboard-response","59","1035761","0.0-13.0-1.7","16030","List2B","black","woman","","","","null","","","","","","","","",""
"null","is being kissed by","","html-keyboard-response","60","1037762","0.0-13.0-2.7","16030","List2B","black","woman","","","","null","","","","","","","","",""
"6290.699999999255","","","survey-text","61","1044056","0.0-13.0-3.7","16030","List2B","black","woman","","","","","{""Q0"":""Kate""}","<img src=""stim_listB/kiss4.gif""style=""height:400px;""></stim_listB>","is being kissed by","","","","","",""
"null","<div style=""font-size:60px;"">+</div>","","html-keyboard-response","62","1044558","0.0-13.0-0.8","16030","List2B","black","woman","","","","null","","","","","","","","",""
"null","<img src=""stim_listB/seduce4.gif""style=""height:400px;""></stim_listB>","","html-keyboard-response","63","1046562","0.0-13.0-1.8","16030","List2B","black","woman","","","","null","","","","","","","","",""
"null","is being seduced by","","html-keyboard-response","64","1048565","0.0-13.0-2.8","16030","List2B","black","woman","","","","null","","","","","","","","",""
"3098.199999999255","","","survey-text","65","1051667","0.0-13.0-3.8","16030","List2B","black","woman","","","","","{""Q0"":""Mike""}","<img src=""stim_listB/seduce4.gif""style=""height:400px;""></stim_listB>","is being seduced by","","","","","",""
"null","<div style=""font-size:60px;"">+</div>","","html-keyboard-response","66","1052170","0.0-13.0-0.9","16030","List2B","black","woman","","","","null","","","","","","","","",""
"null","<img src=""stim_listB/hug2.gif""style=""height:400px;""></stim_listB>","","html-keyboard-response","67","1054173","0.0-13.0-1.9","16030","List2B","black","woman","","","","null","","","","","","","","",""
"null","is being hugged by","","html-keyboard-response","68","1056178","0.0-13.0-2.9","16030","List2B","black","woman","","","","null","","","","","","","","",""
"9492.89999999851","","","survey-text","69","1065674","0.0-13.0-3.9","16030","List2B","black","woman","","","","","{""Q0"":""Dave""}","<img src=""stim_listB/hug2.gif""style=""height:400px;""></stim_listB>","is being hugged by","","","","","",""
"null","<div style=""font-size:60px;"">+</div>","","html-keyboard-response","70","1066176","0.0-13.0-0.10","16030","List2B","black","woman","","","","null","","","","","","","","",""
"null","<img src=""stim_listB/touch4.gif""style=""height:400px;""></stim_listB>","","html-keyboard-response","71","1068179","0.0-13.0-1.10","16030","List2B","black","woman","","","","null","","","","","","","","",""
"null","is being touched by","","html-keyboard-response","72","1070181","0.0-13.0-2.10","16030","List2B","black","woman","","","","null","","","","","","","","",""
"3779.89999999851","","","survey-text","73","1073964","0.0-13.0-3.10","16030","List2B","black","woman","","","","","{""Q0"":""Fred""}","<img src=""stim_listB/touch4.gif""style=""height:400px;""></stim_listB>","is being touched by","","","","","",""
"null","<div style=""font-size:60px;"">+</div>","","html-keyboard-response","74","1074466","0.0-13.0-0.11","16030","List2B","black","woman","","","","null","","","","","","","","",""
"null","<img src=""stim_listB/copy2.gif""style=""height:400px;""></stim_listB>","","html-keyboard-response","75","1076470","0.0-13.0-1.11","16030","List2B","black","woman","","","","null","","","","","","","","",""
"null","is being copied by","","html-keyboard-response","76","1078472","0.0-13.0-2.11","16030","List2B","black","woman","","","","null","","","","","","","","",""
"17598.199999999255","","","survey-text","77","1096073","0.0-13.0-3.11","16030","List2B","black","woman","","","","","{""Q0"":""Kate""}","<img src=""stim_listB/copy2.gif""style=""height:400px;""></stim_listB>","is being copied by","","","","","",""
"null","<div style=""font-size:60px;"">+</div>","","html-keyboard-response","78","1096575","0.0-13.0-0.12","16030","List2B","black","woman","","","","null","","","","","","","","",""
"null","<img src=""stim_listB/seduce8.gif""style=""height:400px;""></stim_listB>","","html-keyboard-response","79","1098579","0.0-13.0-1.12","16030","List2B","black","woman","","","","null","","","","","","","","",""
"null","is being seduced by","","html-keyboard-response","80","1100581","0.0-13.0-2.12","16030","List2B","black","woman","","","","null","","","","","","","","",""
"4004.300000000745","","","survey-text","81","1104588","0.0-13.0-3.12","16030","List2B","black","woman","","","","","{""Q0"":""Beth""}","<img src=""stim_listB/seduce8.gif""style=""height:400px;""></stim_listB>","is being seduced by","","","","","",""
"null","<div style=""font-size:60px;"">+</div>","","html-keyboard-response","82","1105091","0.0-13.0-0.13","16030","List2B","black","woman","","","","null","","","","","","","","",""
"null","<img src=""stim_listB/hug7.gif""style=""height:400px;""></stim_listB>","","html-keyboard-response","83","1107095","0.0-13.0-1.13","16030","List2B","black","woman","","","","null","","","","","","","","",""
"null","is hugging","","html-keyboard-response","84","1109096","0.0-13.0-2.13","16030","List2B","black","woman","","","","null","","","","","","","","",""
"17075.39999999851","","","survey-text","85","1126174","0.0-13.0-3.13","16030","List2B","black","woman","","","","","{""Q0"":""Beth""}","<img src=""stim_listB/hug7.gif""style=""height:400px;""></stim_listB>","is hugging","","","","","",""
"null","<div style=""font-size:60px;"">+</div>","","html-keyboard-response","86","1126678","0.0-13.0-0.14","16030","List2B","black","woman","","","","null","","","","","","","","",""
"null","<img src=""stim_listB/touch1.gif""style=""height:400px;""></stim_listB>","","html-keyboard-response","87","1128681","0.0-13.0-1.14","16030","List2B","black","woman","","","","null","","","","","","","","",""
"null","is touching","","html-keyboard-response","88","1130683","0.0-13.0-2.14","16030","List2B","black","woman","","","","null","","","","","","","","",""
"3364.10000000149","","","survey-text","89","1134050","0.0-13.0-3.14","16030","List2B","black","woman","","","","","{""Q0"":""Jane""}","<img src=""stim_listB/touch1.gif""style=""height:400px;""></stim_listB>","is touching","","","","","",""
"null","<div style=""font-size:60px;"">+</div>","","html-keyboard-response","90","1134552","0.0-13.0-0.15","16030","List2B","black","woman","","","","null","","","","","","","","",""
"null","<img src=""stim_listB/oppose5.gif""style=""height:400px;""></stim_listB>","","html-keyboard-response","91","1136555","0.0-13.0-1.15","16030","List2B","black","woman","","","","null","","","","","","","","",""
"null","is opposing","","html-keyboard-response","92","1138558","0.0-13.0-2.15","16030","List2B","black","woman","","","","null","","","","","","","","",""
"2417.7999999970198","","","survey-text","93","1140979","0.0-13.0-3.15","16030","List2B","black","woman","","","","","{""Q0"":""Mike""}","<img src=""stim_listB/oppose5.gif""style=""height:400px;""></stim_listB>","is opposing","","","","","",""
"null","<div style=""font-size:60px;"">+</div>","","html-keyboard-response","94","1141482","0.0-13.0-0.16","16030","List2B","black","woman","","","","null","","","","","","","","",""
"null","<img src=""stim_listB/challenge3.gif""style=""height:400px;""></stim_listB>","","html-keyboard-response","95","1143486","0.0-13.0-1.16","16030","List2B","black","woman","","","","null","","","","","","","","",""
"null","is challenging","","html-keyboard-response","96","1145489","0.0-13.0-2.16","16030","List2B","black","woman","","","","null","","","","","","","","",""
"13313.599999997765","","","survey-text","97","1158805","0.0-13.0-3.16","16030","List2B","black","woman","","","","","{""Q0"":""Beth""}","<img src=""stim_listB/challenge3.gif""style=""height:400px;""></stim_listB>","is challenging","","","","","",""
"null","<div style=""font-size:60px;"">+</div>","","html-keyboard-response","98","1159308","0.0-13.0-0.17","16030","List2B","black","woman","","","","null","","","","","","","","",""
"null","<img src=""stim_listB/kiss2.gif""style=""height:400px;""></stim_listB>","","html-keyboard-response","99","1161312","0.0-13.0-1.17","16030","List2B","black","woman","","","","null","","","","","","","","",""
"null","is being kissed by","","html-keyboard-response","100","1163314","0.0-13.0-2.17","16030","List2B","black","woman","","","","null","","","","","","","","",""
"6278.900000002235","","","survey-text","101","1169595","0.0-13.0-3.17","16030","List2B","black","woman","","","","","{""Q0"":""Dave""}","<img src=""stim_listB/kiss2.gif""style=""height:400px;""></stim_listB>","is being kissed by","","","","","",""
"null","<div style=""font-size:60px;"">+</div>","","html-keyboard-response","102","1170099","0.0-13.0-0.18","16030","List2B","black","woman","","","","null","","","","","","","","",""
"null","<img src=""stim_listB/kiss1.gif""style=""height:400px;""></stim_listB>","","html-keyboard-response","103","1172103","0.0-13.0-1.18","16030","List2B","black","woman","","","","null","","","","","","","","",""
"null","is kissing","","html-keyboard-response","104","1174104","0.0-13.0-2.18","16030","List2B","black","woman","","","","null","","","","","","","","",""
"11202.5","","","survey-text","105","1185310","0.0-13.0-3.18","16030","List2B","black","woman","","","","","{""Q0"":""Luke""}","<img src=""stim_listB/kiss1.gif""style=""height:400px;""></stim_listB>","is kissing","","","","","",""
"null","<div style=""font-size:60px;"">+</div>","","html-keyboard-response","106","1185813","0.0-13.0-0.19","16030","List2B","black","woman","","","","null","","","","","","","","",""
"null","<img src=""stim_listB/look8.gif""style=""height:400px;""></stim_listB>","","html-keyboard-response","107","1187817","0.0-13.0-1.19","16030","List2B","black","woman","","","","null","","","","","","","","",""
"null","is being looked at by","","html-keyboard-response","108","1189820","0.0-13.0-2.19","16030","List2B","black","woman","","","","null","","","","","","","","",""
"5692.5","","","survey-text","109","1195515","0.0-13.0-3.19","16030","List2B","black","woman","","","","","{""Q0"":""Jane""}","<img src=""stim_listB/look8.gif""style=""height:400px;""></stim_listB>","is being looked at by","","","","","",""
"15991.70000000298","<img src='img/portrait_matrix_list2.jpg' style='width:900px;height:500px;''></img><p>If you have memorised all the portraits and names and are ready to start, press Continue.</p><p><strong>Please note: Your memory of these faces will be tested 4 times during this experiment.</strong></p>","0","html-button-response","110","1211509","0.0-14.0-0.0","16030","List2B","black","woman","","","","","","","","","","","","",""
"11359.5","<img src=""portrait/WM2.jpg""style=""height:400px;""></img>","7","html-button-response","111","1223872","0.0-14.0-1.0","16030","List2B","black","woman","","true","7","","","","","","","","","",""
"null","CORRECT","","html-keyboard-response","112","1225376","0.0-14.0-2.0-0.0","16030","List2B","black","woman","","","","null","","","","","","","","",""
"4751","<img src=""portrait/WM1.jpg""style=""height:400px;""></img>","6","html-button-response","113","1230130","0.0-14.0-4.0","16030","List2B","black","woman","","true","6","","","","","","","","","",""
"null","CORRECT","","html-keyboard-response","114","1231634","0.0-14.0-5.0-0.0","16030","List2B","black","woman","","","","null","","","","","","","","",""
"7811.400000002235","<img src=""portrait/WW1.jpg""style=""height:400px;""></img>","1","html-button-response","115","1239448","0.0-14.0-7.0","16030","List2B","black","woman","","true","1","","","","","","","","","",""
"null","CORRECT","","html-keyboard-response","116","1240951","0.0-14.0-8.0-0.0","16030","List2B","black","woman","","","","null","","","","","","","","",""
"4308.39999999851","<img src=""portrait/BM2.jpg""style=""height:400px;""></img>","5","html-button-response","117","1245261","0.0-14.0-10.0","16030","List2B","black","woman","","true","5","","","","","","","","","",""
"null","CORRECT","","html-keyboard-response","118","1246765","0.0-14.0-11.0-0.0","16030","List2B","black","woman","","","","null","","","","","","","","",""
"5217.300000000745","<img src=""portrait/BW2.jpg""style=""height:400px;""></img>","2","html-button-response","119","1251985","0.0-14.0-13.0","16030","List2B","black","woman","","true","2","","","","","","","","","",""
"null","CORRECT","","html-keyboard-response","120","1253489","0.0-14.0-14.0-0.0","16030","List2B","black","woman","","","","null","","","","","","","","",""
"5531.60000000149","<img src=""portrait/BM1.jpg""style=""height:400px;""></img>","4","html-button-response","121","1259022","0.0-14.0-16.0","16030","List2B","black","woman","","true","4","","","","","","","","","",""
"null","CORRECT","","html-keyboard-response","122","1260526","0.0-14.0-17.0-0.0","16030","List2B","black","woman","","","","null","","","","","","","","",""
"13275.10000000149","<img src=""portrait/WW2.jpg""style=""height:400px;""></img>","3","html-button-response","123","1273803","0.0-14.0-19.0","16030","List2B","black","woman","","true","3","","","","","","","","","",""
"null","CORRECT","","html-keyboard-response","124","1275308","0.0-14.0-20.0-0.0","16030","List2B","black","woman","","","","null","","","","","","","","",""
"13034.10000000149","<img src=""portrait/BW1.jpg""style=""height:400px;""></img>","0","html-button-response","125","1288344","0.0-14.0-22.0","16030","List2B","black","woman","","true","0","","","","","","","","","",""
"null","CORRECT","","html-keyboard-response","126","1289848","0.0-14.0-23.0-0.0","16030","List2B","black","woman","","","","null","","","","","","","","",""
"1779.5","<p>You got 8 out of 8 right first time. Press Continue.</p>","0","html-button-response","127","1291631","0.0-14.0-25.0","16030","List2B","black","woman","","","","","","","","","","","","",""
"null","<div style=""font-size:60px;"">+</div>","","html-keyboard-response","128","1293134","0.0-15.0-0.0","16030","List2B","black","woman","","","","null","","","","","","","","",""
"null","<img src=""stim_listB/greet6.gif""style=""height:400px;""></stim_listB>","","html-keyboard-response","129","1295138","0.0-15.0-1.0","16030","List2B","black","woman","","","","null","","","","","","","","",""
"null","is being greeted by","","html-keyboard-response","130","1297140","0.0-15.0-2.0","16030","List2B","black","woman","","","","null","","","","","","","","",""
"3293.400000002235","","","survey-text","131","1300436","0.0-15.0-3.0","16030","List2B","black","woman","","","","","{""Q0"":""Luke""}","<img src=""stim_listB/greet6.gif""style=""height:400px;""></stim_listB>","is being greeted by","","","","","",""
"null","<div style=""font-size:60px;"">+</div>","","html-keyboard-response","132","1300939","0.0-15.0-0.1","16030","List2B","black","woman","","","","null","","","","","","","","",""
"null","<img src=""stim_listB/look5.gif""style=""height:400px;""></stim_listB>","","html-keyboard-response","133","1302942","0.0-15.0-1.1","16030","List2B","black","woman","","","","null","","","","","","","","",""
"null","is looking at","","html-keyboard-response","134","1304944","0.0-15.0-2.1","16030","List2B","black","woman","","","","null","","","","","","","","",""
"6733.39999999851","","","survey-text","135","1311680","0.0-15.0-3.1","16030","List2B","black","woman","","","","","{""Q0"":""Fred""}","<img src=""stim_listB/look5.gif""style=""height:400px;""></stim_listB>","is looking at","","","","","",""
"null","<div style=""font-size:60px;"">+</div>","","html-keyboard-response","136","1312183","0.0-15.0-0.2","16030","List2B","black","woman","","","","null","","","","","","","","",""
"null","<img src=""stim_listB/challenge5.gif""style=""height:400px;""></stim_listB>","","html-keyboard-response","137","1314186","0.0-15.0-1.2","16030","List2B","black","woman","","","","null","","","","","","","","",""
"null","is challenging","","html-keyboard-response","138","1316188","0.0-15.0-2.2","16030","List2B","black","woman","","","","null","","","","","","","","",""
"8057.300000000745","","","survey-text","139","1324249","0.0-15.0-3.2","16030","List2B","black","woman","","","","","{""Q0"":""Fred""}","<img src=""stim_listB/challenge5.gif""style=""height:400px;""></stim_listB>","is challenging","","","","","",""
"null","<div style=""font-size:60px;"">+</div>","","html-keyboard-response","140","1324751","0.0-15.0-0.3","16030","List2B","black","woman","","","","null","","","","","","","","",""
"null","<img src=""stim_listB/hug4.gif""style=""height:400px;""></stim_listB>","","html-keyboard-response","141","1326755","0.0-15.0-1.3","16030","List2B","black","woman","","","","null","","","","","","","","",""
"null","is being hugged by","","html-keyboard-response","142","1328757","0.0-15.0-2.3","16030","List2B","black","woman","","","","null","","","","","","","","",""
"17245.900000002235","","","survey-text","143","1346006","0.0-15.0-3.3","16030","List2B","black","woman","","","","","{""Q0"":""Dave""}","<img src=""stim_listB/hug4.gif""style=""height:400px;""></stim_listB>","is being hugged by","","","","","",""
"null","<div style=""font-size:60px;"">+</div>","","html-keyboard-response","144","1346508","0.0-15.0-0.4","16030","List2B","black","woman","","","","null","","","","","","","","",""
"null","<img src=""stim_listB/oppose7.gif""style=""height:400px;""></stim_listB>","","html-keyboard-response","145","1348512","0.0-15.0-1.4","16030","List2B","black","woman","","","","null","","","","","","","","",""
"null","is opposing","","html-keyboard-response","146","1350514","0.0-15.0-2.4","16030","List2B","black","woman","","","","null","","","","","","","","",""
"3494.300000000745","","","survey-text","147","1354011","0.0-15.0-3.4","16030","List2B","black","woman","","","","","{""Q0"":""Kate""}","<img src=""stim_listB/oppose7.gif""style=""height:400px;""></stim_listB>","is opposing","","","","","",""
"null","<div style=""font-size:60px;"">+</div>","","html-keyboard-response","148","1354515","0.0-15.0-0.5","16030","List2B","black","woman","","","","null","","","","","","","","",""
"null","<img src=""stim_listB/touch6.gif""style=""height:400px;""></stim_listB>","","html-keyboard-response","149","1356517","0.0-15.0-1.5","16030","List2B","black","woman","","","","null","","","","","","","","",""
"null","is being touched by","","html-keyboard-response","150","1358520","0.0-15.0-2.5","16030","List2B","black","woman","","","","null","","","","","","","","",""
"7087.5","","","survey-text","151","1365610","0.0-15.0-3.5","16030","List2B","black","woman","","","","","{""Q0"":""Luke""}","<img src=""stim_listB/touch6.gif""style=""height:400px;""></stim_listB>","is being touched by","","","","","",""
"null","<div style=""font-size:60px;"">+</div>","","html-keyboard-response","152","1366113","0.0-15.0-0.6","16030","List2B","black","woman","","","","null","","","","","","","","",""
"null","<img src=""stim_listB/hug6.gif""style=""height:400px;""></stim_listB>","","html-keyboard-response","153","1368117","0.0-15.0-1.6","16030","List2B","black","woman","","","","null","","","","","","","","",""
"null","is being hugged by","","html-keyboard-response","154","1370118","0.0-15.0-2.6","16030","List2B","black","woman","","","","null","","","","","","","","",""
"2959.89999999851","","","survey-text","155","1373081","0.0-15.0-3.6","16030","List2B","black","woman","","","","","{""Q0"":""Dave""}","<img src=""stim_listB/hug6.gif""style=""height:400px;""></stim_listB>","is being hugged by","","","","","",""
"null","<div style=""font-size:60px;"">+</div>","","html-keyboard-response","156","1373585","0.0-15.0-0.7","16030","List2B","black","woman","","","","null","","","","","","","","",""
"null","<img src=""stim_listB/look7.gif""style=""height:400px;""></stim_listB>","","html-keyboard-response","157","1375588","0.0-15.0-1.7","16030","List2B","black","woman","","","","null","","","","","","","","",""
"null","is looking at","","html-keyboard-response","158","1377591","0.0-15.0-2.7","16030","List2B","black","woman","","","","null","","","","","","","","",""
"4764.900000002235","","","survey-text","159","1382359","0.0-15.0-3.7","16030","List2B","black","woman","","","","","{""Q0"":""Ruth""}","<img src=""stim_listB/look7.gif""style=""height:400px;""></stim_listB>","is looking at","","","","","",""
"null","<div style=""font-size:60px;"">+</div>","","html-keyboard-response","160","1382862","0.0-15.0-0.8","16030","List2B","black","woman","","","","null","","","","","","","","",""
"null","<img src=""stim_listB/kiss3.gif""style=""height:400px;""></stim_listB>","","html-keyboard-response","161","1384865","0.0-15.0-1.8","16030","List2B","black","woman","","","","null","","","","","","","","",""
"null","is kissing","","html-keyboard-response","162","1386867","0.0-15.0-2.8","16030","List2B","black","woman","","","","null","","","","","","","","",""
"9512.699999999255","","","survey-text","163","1396383","0.0-15.0-3.8","16030","List2B","black","woman","","","","","{""Q0"":""Kate""}","<img src=""stim_listB/kiss3.gif""style=""height:400px;""></stim_listB>","is kissing","","","","","",""
"null","<div style=""font-size:60px;"">+</div>","","html-keyboard-response","164","1396885","0.0-15.0-0.9","16030","List2B","black","woman","","","","null","","","","","","","","",""
"null","<img src=""stim_listB/copy4.gif""style=""height:400px;""></stim_listB>","","html-keyboard-response","165","1398889","0.0-15.0-1.9","16030","List2B","black","woman","","","","null","","","","","","","","",""
"null","is being copied by","","html-keyboard-response","166","1400892","0.0-15.0-2.9","16030","List2B","black","woman","","","","null","","","","","","","","",""
"3549.800000000745","","","survey-text","167","1404444","0.0-15.0-3.9","16030","List2B","black","woman","","","","","{""Q0"":""Kate""}","<img src=""stim_listB/copy4.gif""style=""height:400px;""></stim_listB>","is being copied by","","","","","",""
"null","<div style=""font-size:60px;"">+</div>","","html-keyboard-response","168","1404949","0.0-15.0-0.10","16030","List2B","black","woman","","","","null","","","","","","","","",""
"null","<img src=""stim_listB/oppose3.gif""style=""height:400px;""></stim_listB>","","html-keyboard-response","169","1406952","0.0-15.0-1.10","16030","List2B","black","woman","","","","null","","","","","","","","",""
"null","is opposing","","html-keyboard-response","170","1408954","0.0-15.0-2.10","16030","List2B","black","woman","","","","null","","","","","","","","",""
"1769.300000000745","","","survey-text","171","1410726","0.0-15.0-3.10","16030","List2B","black","woman","","","","","{""Q0"":""Kate""}","<img src=""stim_listB/oppose3.gif""style=""height:400px;""></stim_listB>","is opposing","","","","","",""
"null","<div style=""font-size:60px;"">+</div>","","html-keyboard-response","172","1411230","0.0-15.0-0.11","16030","List2B","black","woman","","","","null","","","","","","","","",""
"null","<img src=""stim_listB/copy3.gif""style=""height:400px;""></stim_listB>","","html-keyboard-response","173","1413233","0.0-15.0-1.11","16030","List2B","black","woman","","","","null","","","","","","","","",""
"null","is copying","","html-keyboard-response","174","1415235","0.0-15.0-2.11","16030","List2B","black","woman","","","","null","","","","","","","","",""
"3988.900000002235","","","survey-text","175","1419226","0.0-15.0-3.11","16030","List2B","black","woman","","","","","{""Q0"":""Mike""}","<img src=""stim_listB/copy3.gif""style=""height:400px;""></stim_listB>","is copying","","","","","",""
"null","<div style=""font-size:60px;"">+</div>","","html-keyboard-response","176","1419728","0.0-15.0-0.12","16030","List2B","black","woman","","","","null","","","","","","","","",""
"null","<img src=""stim_listB/shout1.gif""style=""height:400px;""></stim_listB>","","html-keyboard-response","177","1421732","0.0-15.0-1.12","16030","List2B","black","woman","","","","null","","","","","","","","",""
"null","is shouting at","","html-keyboard-response","178","1423733","0.0-15.0-2.12","16030","List2B","black","woman","","","","null","","","","","","","","",""
"10750.5","","","survey-text","179","1434487","0.0-15.0-3.12","16030","List2B","black","woman","","","","","{""Q0"":""Ruth""}","<img src=""stim_listB/shout1.gif""style=""height:400px;""></stim_listB>","is shouting at","","","","","",""
"null","<div style=""font-size:60px;"">+</div>","","html-keyboard-response","180","1434990","0.0-15.0-0.13","16030","List2B","black","woman","","","","null","","","","","","","","",""
"null","<img src=""stim_listB/challenge7.gif""style=""height:400px;""></stim_listB>","","html-keyboard-response","181","1436993","0.0-15.0-1.13","16030","List2B","black","woman","","","","null","","","","","","","","",""
"null","is challenging","","html-keyboard-response","182","1438995","0.0-15.0-2.13","16030","List2B","black","woman","","","","null","","","","","","","","",""
"6004.900000002235","","","survey-text","183","1445003","0.0-15.0-3.13","16030","List2B","black","woman","","","","","{""Q0"":""Beth""}","<img src=""stim_listB/challenge7.gif""style=""height:400px;""></stim_listB>","is challenging","","","","","",""
"null","<div style=""font-size:60px;"">+</div>","","html-keyboard-response","184","1445506","0.0-15.0-0.14","16030","List2B","black","woman","","","","null","","","","","","","","",""
"null","<img src=""stim_listB/oppose2.gif""style=""height:400px;""></stim_listB>","","html-keyboard-response","185","1447510","0.0-15.0-1.14","16030","List2B","black","woman","","","","null","","","","","","","","",""
"null","is being opposed by","","html-keyboard-response","186","1449512","0.0-15.0-2.14","16030","List2B","black","woman","","","","null","","","","","","","","",""
"4305.300000000745","","","survey-text","187","1453820","0.0-15.0-3.14","16030","List2B","black","woman","","","","","{""Q0"":""Ruth""}","<img src=""stim_listB/oppose2.gif""style=""height:400px;""></stim_listB>","is being opposed by","","","","","",""
"null","<div style=""font-size:60px;"">+</div>","","html-keyboard-response","188","1454324","0.0-15.0-0.15","16030","List2B","black","woman","","","","null","","","","","","","","",""
"null","<img src=""stim_listB/greet1.gif""style=""height:400px;""></stim_listB>","","html-keyboard-response","189","1456328","0.0-15.0-1.15","16030","List2B","black","woman","","","","null","","","","","","","","",""
"null","is greeting","","html-keyboard-response","190","1458330","0.0-15.0-2.15","16030","List2B","black","woman","","","","null","","","","","","","","",""
"3732.60000000149","","","survey-text","191","1462065","0.0-15.0-3.15","16030","List2B","black","woman","","","","","{""Q0"":""Ruth""}","<img src=""stim_listB/greet1.gif""style=""height:400px;""></stim_listB>","is greeting","","","","","",""
"null","<div style=""font-size:60px;"">+</div>","","html-keyboard-response","192","1462569","0.0-15.0-0.16","16030","List2B","black","woman","","","","null","","","","","","","","",""
"null","<img src=""stim_listB/look6.gif""style=""height:400px;""></stim_listB>","","html-keyboard-response","193","1464572","0.0-15.0-1.16","16030","List2B","black","woman","","","","null","","","","","","","","",""
"null","is being looked at by","","html-keyboard-response","194","1466574","0.0-15.0-2.16","16030","List2B","black","woman","","","","null","","","","","","","","",""
"20223.300000000745","","","survey-text","195","1486800","0.0-15.0-3.16","16030","List2B","black","woman","","","","","{""Q0"":""Ruth""}","<img src=""stim_listB/look6.gif""style=""height:400px;""></stim_listB>","is being looked at by","","","","","",""
"null","<div style=""font-size:60px;"">+</div>","","html-keyboard-response","196","1487303","0.0-15.0-0.17","16030","List2B","black","woman","","","","null","","","","","","","","",""
"null","<img src=""stim_listB/touch5.gif""style=""height:400px;""></stim_listB>","","html-keyboard-response","197","1489308","0.0-15.0-1.17","16030","List2B","black","woman","","","","null","","","","","","","","",""
"null","is touching","","html-keyboard-response","198","1491310","0.0-15.0-2.17","16030","List2B","black","woman","","","","null","","","","","","","","",""
"6460.699999999255","","","survey-text","199","1497773","0.0-15.0-3.17","16030","List2B","black","woman","","","","","{""Q0"":""Frewd""}","<img src=""stim_listB/touch5.gif""style=""height:400px;""></stim_listB>","is touching","","","","","",""
"null","<div style=""font-size:60px;"">+</div>","","html-keyboard-response","200","1498276","0.0-15.0-0.18","16030","List2B","black","woman","","","","null","","","","","","","","",""
"null","<img src=""stim_listB/oppose1.gif""style=""height:400px;""></stim_listB>","","html-keyboard-response","201","1500280","0.0-15.0-1.18","16030","List2B","black","woman","","","","null","","","","","","","","",""
"null","is opposing","","html-keyboard-response","202","1502283","0.0-15.0-2.18","16030","List2B","black","woman","","","","null","","","","","","","","",""
"3698","","","survey-text","203","1505984","0.0-15.0-3.18","16030","List2B","black","woman","","","","","{""Q0"":""Jane""}","<img src=""stim_listB/oppose1.gif""style=""height:400px;""></stim_listB>","is opposing","","","","","",""
"null","<div style=""font-size:60px;"">+</div>","","html-keyboard-response","204","1506486","0.0-15.0-0.19","16030","List2B","black","woman","","","","null","","","","","","","","",""
"null","<img src=""stim_listB/challenge4.gif""style=""height:400px;""></stim_listB>","","html-keyboard-response","205","1508492","0.0-15.0-1.19","16030","List2B","black","woman","","","","null","","","","","","","","",""
"null","is being challenged by","","html-keyboard-response","206","1510494","0.0-15.0-2.19","16030","List2B","black","woman","","","","null","","","","","","","","",""
"5442.89999999851","","","survey-text","207","1515940","0.0-15.0-3.19","16030","List2B","black","woman","","","","","{""Q0"":""Fred""}","<img src=""stim_listB/challenge4.gif""style=""height:400px;""></stim_listB>","is being challenged by","","","","","",""
"34970.199999999255","<img src='img/portrait_matrix_list2.jpg' style='width:900px;height:500px;''></img><p>If you have memorised all the portraits and names and are ready to start, press Continue.</p><p><strong>Please note: Your memory of these faces will be tested 4 times during this experiment.</strong></p>","0","html-button-response","208","1550912","0.0-16.0-0.0","16030","List2B","black","woman","","","","","","","","","","","","",""
"13809","<img src=""portrait/BW1.jpg""style=""height:400px;""></img>","0","html-button-response","209","1565724","0.0-16.0-1.0","16030","List2B","black","woman","","true","0","","","","","","","","","",""
"null","CORRECT","","html-keyboard-response","210","1567228","0.0-16.0-2.0-0.0","16030","List2B","black","woman","","","","null","","","","","","","","",""
"4231.89999999851","<img src=""portrait/BM2.jpg""style=""height:400px;""></img>","5","html-button-response","211","1571464","0.0-16.0-4.0","16030","List2B","black","woman","","true","5","","","","","","","","","",""
"null","CORRECT","","html-keyboard-response","212","1572968","0.0-16.0-5.0-0.0","16030","List2B","black","woman","","","","null","","","","","","","","",""
"5007.900000002235","<img src=""portrait/BM1.jpg""style=""height:400px;""></img>","4","html-button-response","213","1577979","0.0-16.0-7.0","16030","List2B","black","woman","","true","4","","","","","","","","","",""
"null","CORRECT","","html-keyboard-response","214","1579483","0.0-16.0-8.0-0.0","16030","List2B","black","woman","","","","null","","","","","","","","",""
"4996.89999999851","<img src=""portrait/WM1.jpg""style=""height:400px;""></img>","6","html-button-response","215","1584482","0.0-16.0-10.0","16030","List2B","black","woman","","true","6","","","","","","","","","",""
"null","CORRECT","","html-keyboard-response","216","1585987","0.0-16.0-11.0-0.0","16030","List2B","black","woman","","","","null","","","","","","","","",""
"4244.800000000745","<img src=""portrait/WW2.jpg""style=""height:400px;""></img>","3","html-button-response","217","1590235","0.0-16.0-13.0","16030","List2B","black","woman","","true","3","","","","","","","","","",""
"null","CORRECT","","html-keyboard-response","218","1591740","0.0-16.0-14.0-0.0","16030","List2B","black","woman","","","","null","","","","","","","","",""
"17415.10000000149","<img src=""portrait/WW1.jpg""style=""height:400px;""></img>","1","html-button-response","219","1609159","0.0-16.0-16.0","16030","List2B","black","woman","","true","1","","","","","","","","","",""
"null","CORRECT","","html-keyboard-response","220","1610663","0.0-16.0-17.0-0.0","16030","List2B","black","woman","","","","null","","","","","","","","",""
"3150.400000002235","<img src=""portrait/BW2.jpg""style=""height:400px;""></img>","2","html-button-response","221","1613816","0.0-16.0-19.0","16030","List2B","black","woman","","true","2","","","","","","","","","",""
"null","CORRECT","","html-keyboard-response","222","1615320","0.0-16.0-20.0-0.0","16030","List2B","black","woman","","","","null","","","","","","","","",""
"4728.400000002235","<img src=""portrait/WM2.jpg""style=""height:400px;""></img>","7","html-button-response","223","1620051","0.0-16.0-22.0","16030","List2B","black","woman","","true","7","","","","","","","","","",""
"null","CORRECT","","html-keyboard-response","224","1621554","0.0-16.0-23.0-0.0","16030","List2B","black","woman","","","","null","","","","","","","","",""
"1792.199999999255","<p>You got 8 out of 8 right first time. Press Continue.</p>","0","html-button-response","225","1623350","0.0-16.0-25.0","16030","List2B","black","woman","","","","","","","","","","","","",""
"null","<div style=""font-size:60px;"">+</div>","","html-keyboard-response","226","1624855","0.0-17.0-0.0","16030","List2B","black","woman","","","","null","","","","","","","","",""
"null","<img src=""stim_listB/challenge6.gif""style=""height:400px;""></stim_listB>","","html-keyboard-response","227","1626860","0.0-17.0-1.0","16030","List2B","black","woman","","","","null","","","","","","","","",""
"null","is being challenged by","","html-keyboard-response","228","1628863","0.0-17.0-2.0","16030","List2B","black","woman","","","","null","","","","","","","","",""
"3033.900000002235","","","survey-text","229","1631900","0.0-17.0-3.0","16030","List2B","black","woman","","","","","{""Q0"":""Mike""}","<img src=""stim_listB/challenge6.gif""style=""height:400px;""></stim_listB>","is being challenged by","","","","","",""
"null","<div style=""font-size:60px;"">+</div>","","html-keyboard-response","230","1632403","0.0-17.0-0.1","16030","List2B","black","woman","","","","null","","","","","","","","",""
"null","<img src=""stim_listB/seduce1.gif""style=""height:400px;""></stim_listB>","","html-keyboard-response","231","1634407","0.0-17.0-1.1","16030","List2B","black","woman","","","","null","","","","","","","","",""
"null","is seducing","","html-keyboard-response","232","1636409","0.0-17.0-2.1","16030","List2B","black","woman","","","","null","","","","","","","","",""
"3554.300000000745","","","survey-text","233","1639966","0.0-17.0-3.1","16030","List2B","black","woman","","","","","{""Q0"":""Luke""}","<img src=""stim_listB/seduce1.gif""style=""height:400px;""></stim_listB>","is seducing","","","","","",""
"null","<div style=""font-size:60px;"">+</div>","","html-keyboard-response","234","1640470","0.0-17.0-0.2","16030","List2B","black","woman","","","","null","","","","","","","","",""
"null","<img src=""stim_listB/greet5.gif""style=""height:400px;""></stim_listB>","","html-keyboard-response","235","1642474","0.0-17.0-1.2","16030","List2B","black","woman","","","","null","","","","","","","","",""
"null","is greeting","","html-keyboard-response","236","1644477","0.0-17.0-2.2","16030","List2B","black","woman","","","","null","","","","","","","","",""
"3308.60000000149","","","survey-text","237","1647789","0.0-17.0-3.2","16030","List2B","black","woman","","","","","{""Q0"":""Dave""}","<img src=""stim_listB/greet5.gif""style=""height:400px;""></stim_listB>","is greeting","","","","","",""
"null","<div style=""font-size:60px;"">+</div>","","html-keyboard-response","238","1648293","0.0-17.0-0.3","16030","List2B","black","woman","","","","null","","","","","","","","",""
"null","<img src=""stim_listB/hug5.gif""style=""height:400px;""></stim_listB>","","html-keyboard-response","239","1650296","0.0-17.0-1.3","16030","List2B","black","woman","","","","null","","","","","","","","",""
"null","is hugging","","html-keyboard-response","240","1652299","0.0-17.0-2.3","16030","List2B","black","woman","","","","null","","","","","","","","",""
"2410.89999999851","","","survey-text","241","1654713","0.0-17.0-3.3","16030","List2B","black","woman","","","","","{""Q0"":""Luke""}","<img src=""stim_listB/hug5.gif""style=""height:400px;""></stim_listB>","is hugging","","","","","",""
"null","<div style=""font-size:60px;"">+</div>","","html-keyboard-response","242","1655217","0.0-17.0-0.4","16030","List2B","black","woman","","","","null","","","","","","","","",""
"null","<img src=""stim_listB/oppose8.gif""style=""height:400px;""></stim_listB>","","html-keyboard-response","243","1657220","0.0-17.0-1.4","16030","List2B","black","woman","","","","null","","","","","","","","",""
"null","is being opposed by","","html-keyboard-response","244","1659222","0.0-17.0-2.4","16030","List2B","black","woman","","","","null","","","","","","","","",""
"17837","","","survey-text","245","1677063","0.0-17.0-3.4","16030","List2B","black","woman","","","","","{""Q0"":""Ruth""}","<img src=""stim_listB/oppose8.gif""style=""height:400px;""></stim_listB>","is being opposed by","","","","","",""
"null","<div style=""font-size:60px;"">+</div>","","html-keyboard-response","246","1677566","0.0-17.0-0.5","16030","List2B","black","woman","","","","null","","","","","","","","",""
"null","<img src=""stim_listB/oppose4.gif""style=""height:400px;""></stim_listB>","","html-keyboard-response","247","1679570","0.0-17.0-1.5","16030","List2B","black","woman","","","","null","","","","","","","","",""
"null","is being opposed by","","html-keyboard-response","248","1681571","0.0-17.0-2.5","16030","List2B","black","woman","","","","null","","","","","","","","",""
"6926.800000000745","","","survey-text","249","1688502","0.0-17.0-3.5","16030","List2B","black","woman","","","","","{""Q0"":""Fred""}","<img src=""stim_listB/oppose4.gif""style=""height:400px;""></stim_listB>","is being opposed by","","","","","",""
"null","<div style=""font-size:60px;"">+</div>","","html-keyboard-response","250","1689005","0.0-17.0-0.6","16030","List2B","black","woman","","","","null","","","","","","","","",""
"null","<img src=""stim_listB/seduce5.gif""style=""height:400px;""></stim_listB>","","html-keyboard-response","251","1691009","0.0-17.0-1.6","16030","List2B","black","woman","","","","null","","","","","","","","",""
"null","is seducing","","html-keyboard-response","252","1693011","0.0-17.0-2.6","16030","List2B","black","woman","","","","null","","","","","","","","",""
"3188.699999999255","","","survey-text","253","1696204","0.0-17.0-3.6","16030","List2B","black","woman","","","","","{""Q0"":""Luke""}","<img src=""stim_listB/seduce5.gif""style=""height:400px;""></stim_listB>","is seducing","","","","","",""
"null","<div style=""font-size:60px;"">+</div>","","html-keyboard-response","254","1696707","0.0-17.0-0.7","16030","List2B","black","woman","","","","null","","","","","","","","",""
"null","<img src=""stim_listB/greet4.gif""style=""height:400px;""></stim_listB>","","html-keyboard-response","255","1698712","0.0-17.0-1.7","16030","List2B","black","woman","","","","null","","","","","","","","",""
"null","is being greeted by","","html-keyboard-response","256","1700714","0.0-17.0-2.7","16030","List2B","black","woman","","","","null","","","","","","","","",""
"1418.7999999970198","","","survey-text","257","1702136","0.0-17.0-3.7","16030","List2B","black","woman","","","","","{""Q0"":""Fred""}","<img src=""stim_listB/greet4.gif""style=""height:400px;""></stim_listB>","is being greeted by","","","","","",""
"null","<div style=""font-size:60px;"">+</div>","","html-keyboard-response","258","1702640","0.0-17.0-0.8","16030","List2B","black","woman","","","","null","","","","","","","","",""
"null","<img src=""stim_listB/kiss8.gif""style=""height:400px;""></stim_listB>","","html-keyboard-response","259","1704643","0.0-17.0-1.8","16030","List2B","black","woman","","","","null","","","","","","","","",""
"null","is being kissed by","","html-keyboard-response","260","1706646","0.0-17.0-2.8","16030","List2B","black","woman","","","","null","","","","","","","","",""
"2317.5","","","survey-text","261","1708967","0.0-17.0-3.8","16030","List2B","black","woman","","","","","{""Q0"":""Kate""}","<img src=""stim_listB/kiss8.gif""style=""height:400px;""></stim_listB>","is being kissed by","","","","","",""
"null","<div style=""font-size:60px;"">+</div>","","html-keyboard-response","262","1709469","0.0-17.0-0.9","16030","List2B","black","woman","","","","null","","","","","","","","",""
"null","<img src=""stim_listB/look4.gif""style=""height:400px;""></stim_listB>","","html-keyboard-response","263","1711472","0.0-17.0-1.9","16030","List2B","black","woman","","","","null","","","","","","","","",""
"null","is being looked at by","","html-keyboard-response","264","1713474","0.0-17.0-2.9","16030","List2B","black","woman","","","","null","","","","","","","","",""
"10214.699999999255","","","survey-text","265","1723692","0.0-17.0-3.9","16030","List2B","black","woman","","","","","{""Q0"":""Mike""}","<img src=""stim_listB/look4.gif""style=""height:400px;""></stim_listB>","is being looked at by","","","","","",""
"null","<div style=""font-size:60px;"">+</div>","","html-keyboard-response","266","1724196","0.0-17.0-0.10","16030","List2B","black","woman","","","","null","","","","","","","","",""
"null","<img src=""stim_listB/shout6.gif""style=""height:400px;""></stim_listB>","","html-keyboard-response","267","1726200","0.0-17.0-1.10","16030","List2B","black","woman","","","","null","","","","","","","","",""
"null","is being shouted at by","","html-keyboard-response","268","1728204","0.0-17.0-2.10","16030","List2B","black","woman","","","","null","","","","","","","","",""
"7359.800000000745","","","survey-text","269","1735567","0.0-17.0-3.10","16030","List2B","black","woman","","","","","{""Q0"":""Dave""}","<img src=""stim_listB/shout6.gif""style=""height:400px;""></stim_listB>","is being shouted at by","","","","","",""
"null","<div style=""font-size:60px;"">+</div>","","html-keyboard-response","270","1736070","0.0-17.0-0.11","16030","List2B","black","woman","","","","null","","","","","","","","",""
"null","<img src=""stim_listB/seduce7.gif""style=""height:400px;""></stim_listB>","","html-keyboard-response","271","1738075","0.0-17.0-1.11","16030","List2B","black","woman","","","","null","","","","","","","","",""
"null","is seducing","","html-keyboard-response","272","1740078","0.0-17.0-2.11","16030","List2B","black","woman","","","","null","","","","","","","","",""
"3770.60000000149","","","survey-text","273","1743852","0.0-17.0-3.11","16030","List2B","black","woman","","","","","{""Q0"":""Kate""}","<img src=""stim_listB/seduce7.gif""style=""height:400px;""></stim_listB>","is seducing","","","","","",""
"null","<div style=""font-size:60px;"">+</div>","","html-keyboard-response","274","1744356","0.0-17.0-0.12","16030","List2B","black","woman","","","","null","","","","","","","","",""
"null","<img src=""stim_listB/shout2.gif""style=""height:400px;""></stim_listB>","","html-keyboard-response","275","1746359","0.0-17.0-1.12","16030","List2B","black","woman","","","","null","","","","","","","","",""
"null","is being shouted at by","","html-keyboard-response","276","1748361","0.0-17.0-2.12","16030","List2B","black","woman","","","","null","","","","","","","","",""
"11822.10000000149","","","survey-text","277","1760187","0.0-17.0-3.12","16030","List2B","black","woman","","","","","{""Q0"":""Dave""}","<img src=""stim_listB/shout2.gif""style=""height:400px;""></stim_listB>","is being shouted at by","","","","","",""
"null","<div style=""font-size:60px;"">+</div>","","html-keyboard-response","278","1760690","0.0-17.0-0.13","16030","List2B","black","woman","","","","null","","","","","","","","",""
"null","<img src=""stim_listB/greet7.gif""style=""height:400px;""></stim_listB>","","html-keyboard-response","279","1762694","0.0-17.0-1.13","16030","List2B","black","woman","","","","null","","","","","","","","",""
"null","is greeting","","html-keyboard-response","280","1764696","0.0-17.0-2.13","16030","List2B","black","woman","","","","null","","","","","","","","",""
"7504.79999999702","","","survey-text","281","1772203","0.0-17.0-3.13","16030","List2B","black","woman","","","","","{""Q0"":""Beth""}","<img src=""stim_listB/greet7.gif""style=""height:400px;""></stim_listB>","is greeting","","","","","",""
"null","<div style=""font-size:60px;"">+</div>","","html-keyboard-response","282","1772707","0.0-17.0-0.14","16030","List2B","black","woman","","","","null","","","","","","","","",""
"null","<img src=""stim_listB/copy5.gif""style=""height:400px;""></stim_listB>","","html-keyboard-response","283","1774711","0.0-17.0-1.14","16030","List2B","black","woman","","","","null","","","","","","","","",""
"null","is copying","","html-keyboard-response","284","1776713","0.0-17.0-2.14","16030","List2B","black","woman","","","","null","","","","","","","","",""
"5520.60000000149","","","survey-text","285","1782237","0.0-17.0-3.14","16030","List2B","black","woman","","","","","{""Q0"":""Fred""}","<img src=""stim_listB/copy5.gif""style=""height:400px;""></stim_listB>","is copying","","","","","",""
"null","<div style=""font-size:60px;"">+</div>","","html-keyboard-response","286","1782741","0.0-17.0-0.15","16030","List2B","black","woman","","","","null","","","","","","","","",""
"null","<img src=""stim_listB/kiss5.gif""style=""height:400px;""></stim_listB>","","html-keyboard-response","287","1784745","0.0-17.0-1.15","16030","List2B","black","woman","","","","null","","","","","","","","",""
"null","is kissing","","html-keyboard-response","288","1786747","0.0-17.0-2.15","16030","List2B","black","woman","","","","null","","","","","","","","",""
"2740","","","survey-text","289","1789490","0.0-17.0-3.15","16030","List2B","black","woman","","","","","{""Q0"":""Luke""}","<img src=""stim_listB/kiss5.gif""style=""height:400px;""></stim_listB>","is kissing","","","","","",""
"null","<div style=""font-size:60px;"">+</div>","","html-keyboard-response","290","1789994","0.0-17.0-0.16","16030","List2B","black","woman","","","","null","","","","","","","","",""
"null","<img src=""stim_listB/oppose6.gif""style=""height:400px;""></stim_listB>","","html-keyboard-response","291","1791996","0.0-17.0-1.16","16030","List2B","black","woman","","","","null","","","","","","","","",""
"null","is being opposed by","","html-keyboard-response","292","1793998","0.0-17.0-2.16","16030","List2B","black","woman","","","","null","","","","","","","","",""
"3907","","","survey-text","293","1797908","0.0-17.0-3.16","16030","List2B","black","woman","","","","","{""Q0"":""Luke""}","<img src=""stim_listB/oppose6.gif""style=""height:400px;""></stim_listB>","is being opposed by","","","","","",""
"null","<div style=""font-size:60px;"">+</div>","","html-keyboard-response","294","1798412","0.0-17.0-0.17","16030","List2B","black","woman","","","","null","","","","","","","","",""
"null","<img src=""stim_listB/seduce2.gif""style=""height:400px;""></stim_listB>","","html-keyboard-response","295","1800416","0.0-17.0-1.17","16030","List2B","black","woman","","","","null","","","","","","","","",""
"null","is being seduced by","","html-keyboard-response","296","1802418","0.0-17.0-2.17","16030","List2B","black","woman","","","","null","","","","","","","","",""
"18390.699999999255","","","survey-text","297","1820812","0.0-17.0-3.17","16030","List2B","black","woman","","","","","{""Q0"":""Dave""}","<img src=""stim_listB/seduce2.gif""style=""height:400px;""></stim_listB>","is being seduced by","","","","","",""
"null","<div style=""font-size:60px;"">+</div>","","html-keyboard-response","298","1821315","0.0-17.0-0.18","16030","List2B","black","woman","","","","null","","","","","","","","",""
"null","<img src=""stim_listB/kiss7.gif""style=""height:400px;""></stim_listB>","","html-keyboard-response","299","1823320","0.0-17.0-1.18","16030","List2B","black","woman","","","","null","","","","","","","","",""
"null","is kissing","","html-keyboard-response","300","1825322","0.0-17.0-2.18","16030","List2B","black","woman","","","","null","","","","","","","","",""
"5760","","","survey-text","301","1831085","0.0-17.0-3.18","16030","List2B","black","woman","","","","","{""Q0"":""Beth""}","<img src=""stim_listB/kiss7.gif""style=""height:400px;""></stim_listB>","is kissing","","","","","",""
"null","<div style=""font-size:60px;"">+</div>","","html-keyboard-response","302","1831590","0.0-17.0-0.19","16030","List2B","black","woman","","","","null","","","","","","","","",""
"null","<img src=""stim_listB/hug3.gif""style=""height:400px;""></stim_listB>","","html-keyboard-response","303","1833594","0.0-17.0-1.19","16030","List2B","black","woman","","","","null","","","","","","","","",""
"null","is hugging","","html-keyboard-response","304","1835597","0.0-17.0-2.19","16030","List2B","black","woman","","","","null","","","","","","","","",""
"2152.800000000745","","","survey-text","305","1837754","0.0-17.0-3.19","16030","List2B","black","woman","","","","","{""Q0"":""Kate""}","<img src=""stim_listB/hug3.gif""style=""height:400px;""></stim_listB>","is hugging","","","","","",""
"53903.800000000745","<img src='img/portrait_matrix_list2.jpg' style='width:900px;height:500px;''></img><p>If you have memorised all the portraits and names and are ready to start, press Continue.</p><p><strong>Please note: Your memory of these faces will be tested 4 times during this experiment.</strong></p>","0","html-button-response","306","1891659","0.0-18.0-0.0","16030","List2B","black","woman","","","","","","","","","","","","",""
"8080.599999997765","<img src=""portrait/WW1.jpg""style=""height:400px;""></img>","1","html-button-response","307","1900744","0.0-18.0-1.0","16030","List2B","black","woman","","true","1","","","","","","","","","",""
"null","CORRECT","","html-keyboard-response","308","1902248","0.0-18.0-2.0-0.0","16030","List2B","black","woman","","","","null","","","","","","","","",""
"3720.099999997765","<img src=""portrait/BW2.jpg""style=""height:400px;""></img>","2","html-button-response","309","1905972","0.0-18.0-4.0","16030","List2B","black","woman","","true","2","","","","","","","","","",""
"null","CORRECT","","html-keyboard-response","310","1907477","0.0-18.0-5.0-0.0","16030","List2B","black","woman","","","","null","","","","","","","","",""
"2629.7000000029802","<img src=""portrait/WM1.jpg""style=""height:400px;""></img>","6","html-button-response","311","1910110","0.0-18.0-7.0","16030","List2B","black","woman","","true","6","","","","","","","","","",""
"null","CORRECT","","html-keyboard-response","312","1911616","0.0-18.0-8.0-0.0","16030","List2B","black","woman","","","","null","","","","","","","","",""
"5078.5","<img src=""portrait/BW1.jpg""style=""height:400px;""></img>","0","html-button-response","313","1916698","0.0-18.0-10.0","16030","List2B","black","woman","","true","0","","","","","","","","","",""
"null","CORRECT","","html-keyboard-response","314","1918204","0.0-18.0-11.0-0.0","16030","List2B","black","woman","","","","null","","","","","","","","",""
"3124.89999999851","<img src=""portrait/WM2.jpg""style=""height:400px;""></img>","7","html-button-response","315","1921332","0.0-18.0-13.0","16030","List2B","black","woman","","true","7","","","","","","","","","",""
"null","CORRECT","","html-keyboard-response","316","1922836","0.0-18.0-14.0-0.0","16030","List2B","black","woman","","","","null","","","","","","","","",""
"4824.800000000745","<img src=""portrait/WW2.jpg""style=""height:400px;""></img>","3","html-button-response","317","1927663","0.0-18.0-16.0","16030","List2B","black","woman","","true","3","","","","","","","","","",""
"null","CORRECT","","html-keyboard-response","318","1929167","0.0-18.0-17.0-0.0","16030","List2B","black","woman","","","","null","","","","","","","","",""
"3200.300000000745","<img src=""portrait/BM1.jpg""style=""height:400px;""></img>","4","html-button-response","319","1932369","0.0-18.0-19.0","16030","List2B","black","woman","","true","4","","","","","","","","","",""
"null","CORRECT","","html-keyboard-response","320","1933873","0.0-18.0-20.0-0.0","16030","List2B","black","woman","","","","null","","","","","","","","",""
"3176.60000000149","<img src=""portrait/BM2.jpg""style=""height:400px;""></img>","5","html-button-response","321","1937052","0.0-18.0-22.0","16030","List2B","black","woman","","true","5","","","","","","","","","",""
"null","CORRECT","","html-keyboard-response","322","1938556","0.0-18.0-23.0-0.0","16030","List2B","black","woman","","","","null","","","","","","","","",""
"10927.300000000745","<p>You got 8 out of 8 right first time. Press Continue.</p>","0","html-button-response","323","1949485","0.0-18.0-25.0","16030","List2B","black","woman","","","","","","","","","","","","",""
"null","<div style=""font-size:60px;"">+</div>","","html-keyboard-response","324","1950989","0.0-19.0-0.0","16030","List2B","black","woman","","","","null","","","","","","","","",""
"null","<img src=""stim_listB/kiss6.gif""style=""height:400px;""></stim_listB>","","html-keyboard-response","325","1952993","0.0-19.0-1.0","16030","List2B","black","woman","","","","null","","","","","","","","",""
"null","is being kissed by","","html-keyboard-response","326","1954995","0.0-19.0-2.0","16030","List2B","black","woman","","","","null","","","","","","","","",""
"11737.800000000745","","","survey-text","327","1966735","0.0-19.0-3.0","16030","List2B","black","woman","","","","","{""Q0"":""Mike""}","<img src=""stim_listB/kiss6.gif""style=""height:400px;""></stim_listB>","is being kissed by","","","","","",""
"null","<div style=""font-size:60px;"">+</div>","","html-keyboard-response","328","1967237","0.0-19.0-0.1","16030","List2B","black","woman","","","","null","","","","","","","","",""
"null","<img src=""stim_listB/touch2.gif""style=""height:400px;""></stim_listB>","","html-keyboard-response","329","1969241","0.0-19.0-1.1","16030","List2B","black","woman","","","","null","","","","","","","","",""
"null","is being touched by","","html-keyboard-response","330","1971244","0.0-19.0-2.1","16030","List2B","black","woman","","","","null","","","","","","","","",""
"2849.89999999851","","","survey-text","331","1974097","0.0-19.0-3.1","16030","List2B","black","woman","","","","","{""Q0"":""Luke""}","<img src=""stim_listB/touch2.gif""style=""height:400px;""></stim_listB>","is being touched by","","","","","",""
"null","<div style=""font-size:60px;"">+</div>","","html-keyboard-response","332","1974600","0.0-19.0-0.2","16030","List2B","black","woman","","","","null","","","","","","","","",""
"null","<img src=""stim_listB/greet3.gif""style=""height:400px;""></stim_listB>","","html-keyboard-response","333","1976603","0.0-19.0-1.2","16030","List2B","black","woman","","","","null","","","","","","","","",""
"null","is greeting","","html-keyboard-response","334","1978604","0.0-19.0-2.2","16030","List2B","black","woman","","","","null","","","","","","","","",""
"2852.699999999255","","","survey-text","335","1981460","0.0-19.0-3.2","16030","List2B","black","woman","","","","","{""Q0"":""Mike""}","<img src=""stim_listB/greet3.gif""style=""height:400px;""></stim_listB>","is greeting","","","","","",""
"null","<div style=""font-size:60px;"">+</div>","","html-keyboard-response","336","1981962","0.0-19.0-0.3","16030","List2B","black","woman","","","","null","","","","","","","","",""
"null","<img src=""stim_listB/touch3.gif""style=""height:400px;""></stim_listB>","","html-keyboard-response","337","1983966","0.0-19.0-1.3","16030","List2B","black","woman","","","","null","","","","","","","","",""
"null","is touching","","html-keyboard-response","338","1985968","0.0-19.0-2.3","16030","List2B","black","woman","","","","null","","","","","","","","",""
"1941.9000000022352","","","survey-text","339","1987913","0.0-19.0-3.3","16030","List2B","black","woman","","","","","{""Q0"":""Kate""}","<img src=""stim_listB/touch3.gif""style=""height:400px;""></stim_listB>","is touching","","","","","",""
"null","<div style=""font-size:60px;"">+</div>","","html-keyboard-response","340","1988415","0.0-19.0-0.4","16030","List2B","black","woman","","","","null","","","","","","","","",""
"null","<img src=""stim_listB/hug1.gif""style=""height:400px;""></stim_listB>","","html-keyboard-response","341","1990418","0.0-19.0-1.4","16030","List2B","black","woman","","","","null","","","","","","","","",""
"null","is hugging","","html-keyboard-response","342","1992421","0.0-19.0-2.4","16030","List2B","black","woman","","","","null","","","","","","","","",""
"7572.099999997765","","","survey-text","343","1999996","0.0-19.0-3.4","16030","List2B","black","woman","","","","","{""Q0"":""Ruth""}","<img src=""stim_listB/hug1.gif""style=""height:400px;""></stim_listB>","is hugging","","","","","",""
"null","<div style=""font-size:60px;"">+</div>","","html-keyboard-response","344","2000498","0.0-19.0-0.5","16030","List2B","black","woman","","","","null","","","","","","","","",""
"null","<img src=""stim_listB/copy7.gif""style=""height:400px;""></stim_listB>","","html-keyboard-response","345","2002502","0.0-19.0-1.5","16030","List2B","black","woman","","","","null","","","","","","","","",""
"null","is copying","","html-keyboard-response","346","2004505","0.0-19.0-2.5","16030","List2B","black","woman","","","","null","","","","","","","","",""
"3242.5","","","survey-text","347","2007750","0.0-19.0-3.5","16030","List2B","black","woman","","","","","{""Q0"":""Beth""}","<img src=""stim_listB/copy7.gif""style=""height:400px;""></stim_listB>","is copying","","","","","",""
"null","<div style=""font-size:60px;"">+</div>","","html-keyboard-response","348","2008253","0.0-19.0-0.6","16030","List2B","black","woman","","","","null","","","","","","","","",""
"null","<img src=""stim_listB/shout8.gif""style=""height:400px;""></stim_listB>","","html-keyboard-response","349","2010257","0.0-19.0-1.6","16030","List2B","black","woman","","","","null","","","","","","","","",""
"null","is being shouted at by","","html-keyboard-response","350","2012260","0.0-19.0-2.6","16030","List2B","black","woman","","","","null","","","","","","","","",""
"3723.800000000745","","","survey-text","351","2015987","0.0-19.0-3.6","16030","List2B","black","woman","","","","","{""Q0"":""Jane""}","<img src=""stim_listB/shout8.gif""style=""height:400px;""></stim_listB>","is being shouted at by","","","","","",""
"null","<div style=""font-size:60px;"">+</div>","","html-keyboard-response","352","2016490","0.0-19.0-0.7","16030","List2B","black","woman","","","","null","","","","","","","","",""
"null","<img src=""stim_listB/copy1.gif""style=""height:400px;""></stim_listB>","","html-keyboard-response","353","2018495","0.0-19.0-1.7","16030","List2B","black","woman","","","","null","","","","","","","","",""
"null","is copying","","html-keyboard-response","354","2020497","0.0-19.0-2.7","16030","List2B","black","woman","","","","null","","","","","","","","",""
"2267.699999999255","","","survey-text","355","2022768","0.0-19.0-3.7","16030","List2B","black","woman","","","","","{""Q0"":""Dave""}","<img src=""stim_listB/copy1.gif""style=""height:400px;""></stim_listB>","is copying","","","","","",""
"null","<div style=""font-size:60px;"">+</div>","","html-keyboard-response","356","2023271","0.0-19.0-0.8","16030","List2B","black","woman","","","","null","","","","","","","","",""
"null","<img src=""stim_listB/seduce6.gif""style=""height:400px;""></stim_listB>","","html-keyboard-response","357","2025275","0.0-19.0-1.8","16030","List2B","black","woman","","","","null","","","","","","","","",""
"null","is being seduced by","","html-keyboard-response","358","2027276","0.0-19.0-2.8","16030","List2B","black","woman","","","","null","","","","","","","","",""
"4926.199999999255","","","survey-text","359","2032206","0.0-19.0-3.8","16030","List2B","black","woman","","","","","{""Q0"":""Dave""}","<img src=""stim_listB/seduce6.gif""style=""height:400px;""></stim_listB>","is being seduced by","","","","","",""
"null","<div style=""font-size:60px;"">+</div>","","html-keyboard-response","360","2032709","0.0-19.0-0.9","16030","List2B","black","woman","","","","null","","","","","","","","",""
"null","<img src=""stim_listB/challenge8.gif""style=""height:400px;""></stim_listB>","","html-keyboard-response","361","2034713","0.0-19.0-1.9","16030","List2B","black","woman","","","","null","","","","","","","","",""
"null","is being challenged by","","html-keyboard-response","362","2036715","0.0-19.0-2.9","16030","List2B","black","woman","","","","null","","","","","","","","",""
"2074.699999999255","","","survey-text","363","2038793","0.0-19.0-3.9","16030","List2B","black","woman","","","","","{""Q0"":""Ruth""}","<img src=""stim_listB/challenge8.gif""style=""height:400px;""></stim_listB>","is being challenged by","","","","","",""
"null","<div style=""font-size:60px;"">+</div>","","html-keyboard-response","364","2039295","0.0-19.0-0.10","16030","List2B","black","woman","","","","null","","","","","","","","",""
"null","<img src=""stim_listB/look2.gif""style=""height:400px;""></stim_listB>","","html-keyboard-response","365","2041299","0.0-19.0-1.10","16030","List2B","black","woman","","","","null","","","","","","","","",""
"null","is being looked at by","","html-keyboard-response","366","2043301","0.0-19.0-2.10","16030","List2B","black","woman","","","","null","","","","","","","","",""
"4513","","","survey-text","367","2047817","0.0-19.0-3.10","16030","List2B","black","woman","","","","","{""Q0"":""Jane""}","<img src=""stim_listB/look2.gif""style=""height:400px;""></stim_listB>","is being looked at by","","","","","",""
"null","<div style=""font-size:60px;"">+</div>","","html-keyboard-response","368","2048322","0.0-19.0-0.11","16030","List2B","black","woman","","","","null","","","","","","","","",""
"null","<img src=""stim_listB/shout5.gif""style=""height:400px;""></stim_listB>","","html-keyboard-response","369","2050327","0.0-19.0-1.11","16030","List2B","black","woman","","","","null","","","","","","","","",""
"null","is shouting at","","html-keyboard-response","370","2052330","0.0-19.0-2.11","16030","List2B","black","woman","","","","null","","","","","","","","",""
"3985.400000002235","","","survey-text","371","2056319","0.0-19.0-3.11","16030","List2B","black","woman","","","","","{""Q0"":""Fred""}","<img src=""stim_listB/shout5.gif""style=""height:400px;""></stim_listB>","is shouting at","","","","","",""
"null","<div style=""font-size:60px;"">+</div>","","html-keyboard-response","372","2056822","0.0-19.0-0.12","16030","List2B","black","woman","","","","null","","","","","","","","",""
"null","<img src=""stim_listB/challenge2.gif""style=""height:400px;""></stim_listB>","","html-keyboard-response","373","2058826","0.0-19.0-1.12","16030","List2B","black","woman","","","","null","","","","","","","","",""
"null","is being challenged by","","html-keyboard-response","374","2060829","0.0-19.0-2.12","16030","List2B","black","woman","","","","null","","","","","","","","",""
"2497.900000002235","","","survey-text","375","2063330","0.0-19.0-3.12","16030","List2B","black","woman","","","","","{""Q0"":""Jane""}","<img src=""stim_listB/challenge2.gif""style=""height:400px;""></stim_listB>","is being challenged by","","","","","",""
"null","<div style=""font-size:60px;"">+</div>","","html-keyboard-response","376","2063832","0.0-19.0-0.13","16030","List2B","black","woman","","","","null","","","","","","","","",""
"null","<img src=""stim_listB/greet8.gif""style=""height:400px;""></stim_listB>","","html-keyboard-response","377","2065836","0.0-19.0-1.13","16030","List2B","black","woman","","","","null","","","","","","","","",""
"null","is being greeted by","","html-keyboard-response","378","2067838","0.0-19.0-2.13","16030","List2B","black","woman","","","","null","","","","","","","","",""
"16696.300000000745","","","survey-text","379","2084538","0.0-19.0-3.13","16030","List2B","black","woman","","","","","{""Q0"":""Ruth""}","<img src=""stim_listB/greet8.gif""style=""height:400px;""></stim_listB>","is being greeted by","","","","","",""
"null","<div style=""font-size:60px;"">+</div>","","html-keyboard-response","380","2085040","0.0-19.0-0.14","16030","List2B","black","woman","","","","null","","","","","","","","",""
"null","<img src=""stim_listB/seduce3.gif""style=""height:400px;""></stim_listB>","","html-keyboard-response","381","2087045","0.0-19.0-1.14","16030","List2B","black","woman","","","","null","","","","","","","","",""
"null","is seducing","","html-keyboard-response","382","2089047","0.0-19.0-2.14","16030","List2B","black","woman","","","","null","","","","","","","","",""
"2195.900000002235","","","survey-text","383","2091246","0.0-19.0-3.14","16030","List2B","black","woman","","","","","{""Q0"":""Kate""}","<img src=""stim_listB/seduce3.gif""style=""height:400px;""></stim_listB>","is seducing","","","","","",""
"null","<div style=""font-size:60px;"">+</div>","","html-keyboard-response","384","2091749","0.0-19.0-0.15","16030","List2B","black","woman","","","","null","","","","","","","","",""
"null","<img src=""stim_listB/copy6.gif""style=""height:400px;""></stim_listB>","","html-keyboard-response","385","2093752","0.0-19.0-1.15","16030","List2B","black","woman","","","","null","","","","","","","","",""
"null","is being copied by","","html-keyboard-response","386","2095754","0.0-19.0-2.15","16030","List2B","black","woman","","","","null","","","","","","","","",""
"6272.60000000149","","","survey-text","387","2102029","0.0-19.0-3.15","16030","List2B","black","woman","","","","","{""Q0"":""Mike""}","<img src=""stim_listB/copy6.gif""style=""height:400px;""></stim_listB>","is being copied by","","","","","",""
"null","<div style=""font-size:60px;"">+</div>","","html-keyboard-response","388","2102532","0.0-19.0-0.16","16030","List2B","black","woman","","","","null","","","","","","","","",""
"null","<img src=""stim_listB/challenge1.gif""style=""height:400px;""></stim_listB>","","html-keyboard-response","389","2104536","0.0-19.0-1.16","16030","List2B","black","woman","","","","null","","","","","","","","",""
"null","is challenging","","html-keyboard-response","390","2106539","0.0-19.0-2.16","16030","List2B","black","woman","","","","null","","","","","","","","",""
"12397","","","survey-text","391","2118941","0.0-19.0-3.16","16030","List2B","black","woman","","","","","{""Q0"":""Ruth""}","<img src=""stim_listB/challenge1.gif""style=""height:400px;""></stim_listB>","is challenging","","","","","",""
"null","<div style=""font-size:60px;"">+</div>","","html-keyboard-response","392","2119443","0.0-19.0-0.17","16030","List2B","black","woman","","","","null","","","","","","","","",""
"null","<img src=""stim_listB/shout3.gif""style=""height:400px;""></stim_listB>","","html-keyboard-response","393","2121447","0.0-19.0-1.17","16030","List2B","black","woman","","","","null","","","","","","","","",""
"null","is shouting at","","html-keyboard-response","394","2123450","0.0-19.0-2.17","16030","List2B","black","woman","","","","null","","","","","","","","",""
"9316.300000000745","","","survey-text","395","2132768","0.0-19.0-3.17","16030","List2B","black","woman","","","","","{""Q0"":""Fred""}","<img src=""stim_listB/shout3.gif""style=""height:400px;""></stim_listB>","is shouting at","","","","","",""
"null","<div style=""font-size:60px;"">+</div>","","html-keyboard-response","396","2133271","0.0-19.0-0.18","16030","List2B","black","woman","","","","null","","","","","","","","",""
"null","<img src=""stim_listB/look3.gif""style=""height:400px;""></stim_listB>","","html-keyboard-response","397","2135275","0.0-19.0-1.18","16030","List2B","black","woman","","","","null","","","","","","","","",""
"null","is looking at","","html-keyboard-response","398","2137278","0.0-19.0-2.18","16030","List2B","black","woman","","","","null","","","","","","","","",""
"10448","","","survey-text","399","2147728","0.0-19.0-3.18","16030","List2B","black","woman","","","","","{""Q0"":""Beth""}","<img src=""stim_listB/look3.gif""style=""height:400px;""></stim_listB>","is looking at","","","","","",""
"null","<div style=""font-size:60px;"">+</div>","","html-keyboard-response","400","2148231","0.0-19.0-0.19","16030","List2B","black","woman","","","","null","","","","","","","","",""
"null","<img src=""stim_listB/hug8.gif""style=""height:400px;""></stim_listB>","","html-keyboard-response","401","2150235","0.0-19.0-1.19","16030","List2B","black","woman","","","","null","","","","","","","","",""
"null","is being hugged by","","html-keyboard-response","402","2152237","0.0-19.0-2.19","16030","List2B","black","woman","","","","null","","","","","","","","",""
"4088.5","","","survey-text","403","2156329","0.0-19.0-3.19","16030","List2B","black","woman","","","","","{""Q0"":""Kate""}","<img src=""stim_listB/hug8.gif""style=""height:400px;""></stim_listB>","is being hugged by","","","","","",""
"1815.5","<p>Thank you for completing that task.</p><p>The final part of this session is a questionnaire that will take about 4 minutes.</p><p>Press Continue.</p>","0","html-button-response","404","2158145","0.0-20.0","16030","List2B","black","woman","","","","","","","","","","","","",""
"62922.099999997765","","","survey-text","405","2222077","0.0-21.0","16030","List2B","black","woman","","","","","{""Q0"":""34"",""Q1"":""English"",""Q2"":""English"",""Q3"":""United State of America"",""Q4"":""Nigerian"",""Q5"":""Black"",""Q6"":""Female""}","","","demographics","","","","",""
"6059.300000000745","<p>Have you lived in the USA for the last 5 years or more?</p>","1","html-button-response","406","2228139","0.0-22.0","16030","List2B","black","woman","","","","","","","","fiveyears","","","","",""
"2731.89999999851","<p>Move the slider to show the extent to which you agree with the following statements.</p>","0","html-button-response","407","2231873","0.0-23.0","16030","List2B","black","woman","","","","","","","","","","","","",""
"9714.89999999851","","","html-slider-response","408","2242593","0.0-24.0-0.0-0.0","16030","List2B","black","woman","","","","","","","","survey_gender","100","","","I would say I am an animal person.","filler"
"5381.5","","","html-slider-response","409","2247977","0.0-24.0-0.0-0.1","16030","List2B","black","woman","","","","","","","","survey_gender","0","","","Routine is not important to me.","filler"
"5479.699999999255","","","html-slider-response","410","2253459","0.0-24.0-0.0-0.2","16030","List2B","black","woman","","","","","","","","survey_gender","100","","","My friends have a lot in common with each other.","filler"
"18478.800000000745","","","html-slider-response","411","2271940","0.0-24.0-0.0-0.3","16030","List2B","black","woman","","","","","","","","survey_gender","100","","","I often think about my actions.","filler"
"8099.199999999255","","","html-slider-response","412","2280042","0.0-24.0-0.0-0.4","16030","List2B","black","woman","","","","","","","","survey_gender","97","","","It is not always easy for people to know what I am thinking.","filler"
"10138.199999999255","","","html-slider-response","413","2290183","0.0-24.0-0.0-0.5","16030","List2B","black","woman","","","","","","","","survey_gender","49","","","I feel a bond with my gender.","bond"
"4688.79999999702","","","html-slider-response","414","2294874","0.0-24.0-0.0-0.6","16030","List2B","black","woman","","","","","","","","survey_gender","67","","","People of my gender are very similar to each other.","verysimilar"
"3891.699999999255","","","html-slider-response","415","2298768","0.0-24.0-0.0-0.7","16030","List2B","black","woman","","","","","","","","survey_gender","100","","","I am glad to have the friends that I have.","filler"
"4449.599999997765","","","html-slider-response","416","2303220","0.0-24.0-0.0-0.8","16030","List2B","black","woman","","","","","","","","survey_gender","100","","","I have a lot in common with my friends.","filler"
"20816.60000000149","","","html-slider-response","417","2324038","0.0-24.0-0.0-0.9","16030","List2B","black","woman","","","","","","","","survey_gender","100","","","People of my gender have a lot in common with each other.","common"
"8124.400000002235","","","html-slider-response","418","2332165","0.0-24.0-0.0-0.10","16030","List2B","black","woman","","","","","","","","survey_gender","87","","","I have a lot in common with the average person of my gender.","average"
"5433.60000000149","","","html-slider-response","419","2337600","0.0-24.0-0.0-0.11","16030","List2B","black","woman","","","","","","","","survey_gender","54","","","The fact that I am my gender is an important part of my identity.","identity"
"4967.89999999851","","","html-slider-response","420","2342570","0.0-24.0-0.0-0.12","16030","List2B","black","woman","","","","","","","","survey_gender","61","","","I often think about the fact that I am my gender.","often"
"5442.5","","","html-slider-response","421","2348015","0.0-24.0-0.0-0.13","16030","List2B","black","woman","","","","","","","","survey_gender","51","","","I think that my gender has a lot to be proud of.","proud"
"7144.39999999851","","","html-slider-response","422","2355161","0.0-24.0-0.0-0.14","16030","List2B","black","woman","","","","","","","","survey_gender","94","","","Being around my friends gives me a good feeling.","filler"
"7456.599999997765","","","html-slider-response","423","2362620","0.0-24.0-0.0-0.15","16030","List2B","black","woman","","","","","","","","survey_gender","11","","","I am similar to the average person of my gender.","similar"
"3866.300000000745","","","html-slider-response","424","2366489","0.0-24.0-0.0-0.16","16030","List2B","black","woman","","","","","","","","survey_gender","100","","","Being my gender gives me a good feeling.","feeling"
"3309.699999999255","","","html-slider-response","425","2369801","0.0-24.0-0.0-0.17","16030","List2B","black","woman","","","","","","","","survey_gender","55","","","I feel committed to my gender.","committed"
"5115.20000000298","","","html-slider-response","426","2374918","0.0-24.0-0.0-0.18","16030","List2B","black","woman","","","","","","","","survey_gender","96","","","Most of the friends in my life are very similar to me.","filler"
"4448.699999999255","","","html-slider-response","427","2379369","0.0-24.0-0.0-0.19","16030","List2B","black","woman","","","","","","","","survey_gender","47","","","I feel solidarity with my gender.","solidarity"
"5651","","","html-slider-response","428","2385022","0.0-24.0-0.0-0.20","16030","List2B","black","woman","","","","","","","","survey_gender","92","","","Being my gender is an important part of how I see myself.","important"
"3540.10000000149","","","html-slider-response","429","2388564","0.0-24.0-0.0-0.21","16030","List2B","black","woman","","","","","","","","survey_gender","100","","","I consider myself a highly empathetic person.","filler"
"5337.60000000149","","","html-slider-response","430","2393904","0.0-24.0-0.0-0.22","16030","List2B","black","woman","","","","","","","","survey_gender","6","","","Family is not more important to me than friendship.","filler"
"3504","","","html-slider-response","431","2397411","0.0-24.0-0.0-0.23","16030","List2B","black","woman","","","","","","","","survey_gender","58","","","My friends understand me.","filler"
"3249.800000000745","","","html-slider-response","432","2400663","0.0-24.0-0.0-0.24","16030","List2B","black","woman","","","","","","","","survey_gender","85","","","I feel a bond with my friends.","filler"
"4740.699999999255","","","html-slider-response","433","2405406","0.0-24.0-0.0-0.25","16030","List2B","black","woman","","","","","","","","survey_gender","62","","","I am glad to be my gender.","glad"
"7179.800000000745","","","html-slider-response","434","2412588","0.0-24.0-0.0-0.26","16030","List2B","black","woman","","","","","","","","survey_gender","52","","","I feel solidarity with my friends.","filler"
"4110","","","html-slider-response","435","2416700","0.0-24.0-0.0-0.27","16030","List2B","black","woman","","","","","","","","survey_gender","52","","","It is pleasant to be my gender.","pleasant"
"5870.10000000149","","","html-slider-response","436","2422572","0.0-24.0-1.0-0.0","16030","List2B","black","woman","","","","","","","","survey_race","51","","","I feel committed to my race.","committed"
"4595.5","","","html-slider-response","437","2427170","0.0-24.0-1.0-0.1","16030","List2B","black","woman","","","","","","","","survey_race","89","","","I am glad to be the age I am.","filler"
"5071.20000000298","","","html-slider-response","438","2432243","0.0-24.0-1.0-0.2","16030","List2B","black","woman","","","","","","","","survey_race","94","","","Being my race is an important part of how I see myself.","important"
"5143.699999999255","","","html-slider-response","439","2437389","0.0-24.0-1.0-0.3","16030","List2B","black","woman","","","","","","","","survey_race","87","","","I feel solidarity with people the same age as me.","filler"
"3904","","","html-slider-response","440","2441295","0.0-24.0-1.0-0.4","16030","List2B","black","woman","","","","","","","","survey_race","93","","","I have a lot in common with people of a similar age to me.","filler"
"3756.800000000745","","","html-slider-response","441","2445054","0.0-24.0-1.0-0.5","16030","List2B","black","woman","","","","","","","","survey_race","75","","","People of my race have a lot in common with each other.","common"
"12500","","","html-slider-response","442","2457556","0.0-24.0-1.0-0.6","16030","List2B","black","woman","","","","","","","","survey_race","100","","","I am glad to be my age.","filler"
"5564","","","html-slider-response","443","2463122","0.0-24.0-1.0-0.7","16030","List2B","black","woman","","","","","","","","survey_race","99","","","It is pleasant to be my race.","pleasant"
"6207.599999997765","","","html-slider-response","444","2469332","0.0-24.0-1.0-0.8","16030","List2B","black","woman","","","","","","","","survey_race","26","","","I often think about the fact that I am my age.","filler"
"5238.400000002235","","","html-slider-response","445","2474572","0.0-24.0-1.0-0.9","16030","List2B","black","woman","","","","","","","","survey_race","5","","","I am similar to the average person of my race.","similar"
"4560.5","","","html-slider-response","446","2479135","0.0-24.0-1.0-0.10","16030","List2B","black","woman","","","","","","","","survey_race","100","","","The older I get, the wiser I feel.","filler"
"8827.89999999851","","","html-slider-response","447","2487965","0.0-24.0-1.0-0.11","16030","List2B","black","woman","","","","","","","","survey_race","19","","","I feel a bond with people the same age as me.","filler"
"3287.10000000149","","","html-slider-response","448","2491255","0.0-24.0-1.0-0.12","16030","List2B","black","woman","","","","","","","","survey_race","78","","","Being my age gives me a good feeling.","filler"
"6597.699999999255","","","html-slider-response","449","2497854","0.0-24.0-1.0-0.13","16030","List2B","black","woman","","","","","","","","survey_race","100","","","My age is not an important part of who I am.","filler"
"8934.5","","","html-slider-response","450","2506791","0.0-24.0-1.0-0.14","16030","List2B","black","woman","","","","","","","","survey_race","93","","","I think that my race has a lot to be proud of.","proud"
"8561.900000002235","","","html-slider-response","451","2515355","0.0-24.0-1.0-0.15","16030","List2B","black","woman","","","","","","","","survey_race","17","","","People of my race are very similar to each other.","verysimilar"
"7701.79999999702","","","html-slider-response","452","2523060","0.0-24.0-1.0-0.16","16030","List2B","black","woman","","","","","","","","survey_race","74","","","Being my race gives me a good feeling.","feeling"
"2765.300000000745","","","html-slider-response","453","2525827","0.0-24.0-1.0-0.17","16030","List2B","black","woman","","","","","","","","survey_race","100","","","I am glad to be my race.","glad"
"6890.599999997765","","","html-slider-response","454","2532719","0.0-24.0-1.0-0.18","16030","List2B","black","woman","","","","","","","","survey_race","48","","","I have a lot in common with the average person of my race.","average"
"4426.800000000745","","","html-slider-response","455","2537148","0.0-24.0-1.0-0.19","16030","List2B","black","woman","","","","","","","","survey_race","46","","","I feel solidarity with my race.","solidarity"
"4391.5","","","html-slider-response","456","2541541","0.0-24.0-1.0-0.20","16030","List2B","black","woman","","","","","","","","survey_race","0","","","I consider myself an introvert.","filler"
"5567.60000000149","","","html-slider-response","457","2547111","0.0-24.0-1.0-0.21","16030","List2B","black","woman","","","","","","","","survey_race","8","","","I enjoy being in large groups.","filler"
"8512.199999999255","","","html-slider-response","458","2555625","0.0-24.0-1.0-0.22","16030","List2B","black","woman","","","","","","","","survey_race","82","","","The fact that I am my race is an important part of my identity.","identity"
"5359.300000000745","","","html-slider-response","459","2560986","0.0-24.0-1.0-0.23","16030","List2B","black","woman","","","","","","","","survey_race","41","","","I often think about the fact that I am my race.","often"
"4607.199999999255","","","html-slider-response","460","2565596","0.0-24.0-1.0-0.24","16030","List2B","black","woman","","","","","","","","survey_race","100","","","Getting older does not worry me.","filler"
"8021.89999999851","","","html-slider-response","461","2573620","0.0-24.0-1.0-0.25","16030","List2B","black","woman","","","","","","","","survey_race","33","","","People my age have a lot in common with each other.","filler"
"3165.89999999851","","","html-slider-response","462","2576788","0.0-24.0-1.0-0.26","16030","List2B","black","woman","","","","","","","","survey_race","46","","","I feel a bond with my race.","bond"
"5119.900000002235","","","html-slider-response","463","2581909","0.0-24.0-1.0-0.27","16030","List2B","black","woman","","","","","","","","survey_race","65","","","I consider myself an extrovert.","filler"
"14765.199999999255","","","survey-text","464","2596678","0.0-25.0","16030","List2B","black","woman","","","","","{""Q0"":""6153065b0aee325f6f6e3b33""}","","","worker_id","","","","",""
"8209.39999999851","","","external-html","465","2606641","0.0-26.0","16030","List2B","black","woman","debrief.html","","","","","","","","","","","",""
