"rt","stimulus","button_pressed","trial_type","trial_index","time_elapsed","internal_node_id","subject","list","ppt_race","ppt_gender","url","first_guess","correct","key_press","responses","image_type","phrase_type","test_part","response","stimulus1","stimulus2","question_type","survey_item"
"1780.5","Welcome to the experiment. Press Continue to begin.","0","html-button-response","0","1782","0.0-0.0","16087","List2A","black","woman","","","","","","","","","","","","",""
"31717.40000000596","","","external-html","1","34606","0.0-1.0","16087","List2A","black","woman","consent.html","","","","","","","","","","","",""
"17742.79999998212","<p>On the next page, you will see portraits of 8 people and their names.</p><p>Your first task is to take a few minutes to memorise the names of these people.</p><p>You will have to recall their names during the rest of the experiment, so it is</p><p>essential that you try to memorise these people and their names as best as you can.</p><br><p><strong>You will then be tested on your memory of these names and portraits.</strong></p><br><p>The experiment will start after you have completed this memory test.</p><br><p>Ready?</p>","0","html-button-response","2","52350","0.0-2.0","16087","List2A","black","woman","","","","","","","","","","","","",""
"49950.79999998212","<img src='img/portrait_matrix_list2.jpg' style='width:900px;height:500px;''></img><p>If you have memorised all the portraits and names and are ready to start, press Continue.</p><p><strong>Please note: Your memory of these faces will be tested 4 times during this experiment.</strong></p>","0","html-button-response","3","103302","0.0-3.0-0.0","16087","List2A","black","woman","","","","","","","","","","","","",""
"1798.9000000059605","<img src=""portrait/WW2.jpg""style=""height:400px;""></img>","3","html-button-response","4","106111","0.0-3.0-1.0","16087","List2A","black","woman","","true","3","","","","","","","","","",""
"null","CORRECT","","html-keyboard-response","5","107612","0.0-3.0-2.0-0.0","16087","List2A","black","woman","","","","null","","","","","","","","",""
"2313.0999999940395","<img src=""portrait/BM1.jpg""style=""height:400px;""></img>","4","html-button-response","6","109927","0.0-3.0-4.0","16087","List2A","black","woman","","true","4","","","","","","","","","",""
"null","CORRECT","","html-keyboard-response","7","111452","0.0-3.0-5.0-0.0","16087","List2A","black","woman","","","","null","","","","","","","","",""
"2017.5","<img src=""portrait/WM1.jpg""style=""height:400px;""></img>","6","html-button-response","8","113472","0.0-3.0-7.0","16087","List2A","black","woman","","true","6","","","","","","","","","",""
"null","CORRECT","","html-keyboard-response","9","114986","0.0-3.0-8.0-0.0","16087","List2A","black","woman","","","","null","","","","","","","","",""
"7924.799999982119","<img src=""portrait/BM2.jpg""style=""height:400px;""></img>","5","html-button-response","10","122911","0.0-3.0-10.0","16087","List2A","black","woman","","true","5","","","","","","","","","",""
"null","CORRECT","","html-keyboard-response","11","124426","0.0-3.0-11.0-0.0","16087","List2A","black","woman","","","","null","","","","","","","","",""
"2685","<img src=""portrait/WW1.jpg""style=""height:400px;""></img>","1","html-button-response","12","127111","0.0-3.0-13.0","16087","List2A","black","woman","","true","1","","","","","","","","","",""
"null","CORRECT","","html-keyboard-response","13","128613","0.0-3.0-14.0-0.0","16087","List2A","black","woman","","","","null","","","","","","","","",""
"2057.2999999821186","<img src=""portrait/BW1.jpg""style=""height:400px;""></img>","0","html-button-response","14","130671","0.0-3.0-16.0","16087","List2A","black","woman","","true","0","","","","","","","","","",""
"null","CORRECT","","html-keyboard-response","15","132172","0.0-3.0-17.0-0.0","16087","List2A","black","woman","","","","null","","","","","","","","",""
"2106.5999999940395","<img src=""portrait/WM2.jpg""style=""height:400px;""></img>","7","html-button-response","16","134280","0.0-3.0-19.0","16087","List2A","black","woman","","true","7","","","","","","","","","",""
"null","CORRECT","","html-keyboard-response","17","135786","0.0-3.0-20.0-0.0","16087","List2A","black","woman","","","","null","","","","","","","","",""
"1749","<img src=""portrait/BW2.jpg""style=""height:400px;""></img>","2","html-button-response","18","137535","0.0-3.0-22.0","16087","List2A","black","woman","","true","2","","","","","","","","","",""
"null","CORRECT","","html-keyboard-response","19","139058","0.0-3.0-23.0-0.0","16087","List2A","black","woman","","","","null","","","","","","","","",""
"2052","<p>You got 8 out of 8 right first time. Press Continue.</p>","0","html-button-response","20","141111","0.0-3.0-25.0","16087","List2A","black","woman","","","","","","","","","","","","",""
"53116.90000000596","<p>In this experiment, you will view photographs of the people from the memory game interacting.</p><p>By using the <strong>exact</strong> phrase given <i>after</i> the photograph appears and recalling the correct names of the people in the photographs, form a sentence describing the interaction. You do not need to capitalise names.</p><p>Type your answer in the space provided. Please complete every sentence before moving onto the next trial.</p><p>You will only have a few seconds to memorise each given photograph and phrase before you can respond, so try your best to focus.</p><p>An example is given below. Press 'Continue' when you are ready.</p><img src='img/speaking_example.jpg' style='width:800px;height:460px;''></img>","0","html-button-response","21","195233","0.0-4.0","16087","List2A","black","woman","","","","","","","","","","","","",""
"2430.5999999940395","<p>Before the experiment starts, you will watch two example trials. Press 'Continue'.</p>","0","html-button-response","22","198665","0.0-5.0","16087","List2A","black","woman","","","","","","","","","","","","",""
"null","<img src='img/play_eg.gif' style='height:400px;''></img>","","html-keyboard-response","23","201666","0.0-6.0","16087","List2A","black","woman","","","","null","","","","","","","","",""
"null","<p>is playing with</p>","","html-keyboard-response","24","203668","0.0-7.0","16087","List2A","black","woman","","","","null","","","","","","","","",""
"2884.0999999940395","<p><b>Answer:</b> jane is playing with ruth</p>","0","html-button-response","25","206553","0.0-8.0","16087","List2A","black","woman","","","","","","","","","","","","",""
"null","<img src='img/dance_eg.gif' style='height:400px;''></img>","","html-keyboard-response","26","209554","0.0-9.0","16087","List2A","black","woman","","","","null","","","","","","","","",""
"null","<p>is being entertained by</p>","","html-keyboard-response","27","211563","0.0-10.0","16087","List2A","black","woman","","","","null","","","","","","","","",""
"2117.199999988079","<p><b>Answer:</b> fred is being entertained by mike</p>","0","html-button-response","28","213681","0.0-11.0","16087","List2A","black","woman","","","","","","","","","","","","",""
"8981.299999982119","<p>Ready to start the experiment?</p><br><p><strong>Remember to describe the picture using a full sentence,</strong></p><p><strong>that combines the names of the people with the <i>exact</i> phrase given.</strong></p><p><strong>To receive full payment you must do this correctly.</strong></p><p><strong> You do not need to capitalise names or use punctuation.</strong></p><br><p>Press 'Continue' to begin.</p>","0","html-button-response","29","223665","0.0-12.0","16087","List2A","black","woman","","","","","","","","","","","","",""
"null","<div style=""font-size:60px;"">+</div>","","html-keyboard-response","30","225178","0.0-13.0-0.0","16087","List2A","black","woman","","","","null","","","","","","","","",""
"null","<img src=""stim_listA/copy1.gif""style=""height:400px;""></stim_listA>","","html-keyboard-response","31","227182","0.0-13.0-1.0","16087","List2A","black","woman","","","","null","","","","","","","","",""
"null","is copying","","html-keyboard-response","32","229197","0.0-13.0-2.0","16087","List2A","black","woman","","","","null","","","","","","","","",""
"14602.399999976158","","","survey-text","33","243801","0.0-13.0-3.0","16087","List2A","black","woman","","","","","{""Q0"":""Ruth is copying dave""}","<img src=""stim_listA/copy1.gif""style=""height:400px;""></stim_listA>","is copying","","","","","",""
"null","<div style=""font-size:60px;"">+</div>","","html-keyboard-response","34","244317","0.0-13.0-0.1","16087","List2A","black","woman","","","","null","","","","","","","","",""
"null","<img src=""stim_listA/oppose7.gif""style=""height:400px;""></stim_listA>","","html-keyboard-response","35","246323","0.0-13.0-1.1","16087","List2A","black","woman","","","","null","","","","","","","","",""
"null","is opposing","","html-keyboard-response","36","248324","0.0-13.0-2.1","16087","List2A","black","woman","","","","null","","","","","","","","",""
"8356.09999999404","","","survey-text","37","256682","0.0-13.0-3.1","16087","List2A","black","woman","","","","","{""Q0"":""jane is opposing kate""}","<img src=""stim_listA/oppose7.gif""style=""height:400px;""></stim_listA>","is opposing","","","","","",""
"null","<div style=""font-size:60px;"">+</div>","","html-keyboard-response","38","257184","0.0-13.0-0.2","16087","List2A","black","woman","","","","null","","","","","","","","",""
"null","<img src=""stim_listA/hug1.gif""style=""height:400px;""></stim_listA>","","html-keyboard-response","39","259193","0.0-13.0-1.2","16087","List2A","black","woman","","","","null","","","","","","","","",""
"null","is hugging","","html-keyboard-response","40","261194","0.0-13.0-2.2","16087","List2A","black","woman","","","","null","","","","","","","","",""
"9190.90000000596","","","survey-text","41","270386","0.0-13.0-3.2","16087","List2A","black","woman","","","","","{""Q0"":""ruth is hugging luke""}","<img src=""stim_listA/hug1.gif""style=""height:400px;""></stim_listA>","is hugging","","","","","",""
"null","<div style=""font-size:60px;"">+</div>","","html-keyboard-response","42","270893","0.0-13.0-0.3","16087","List2A","black","woman","","","","null","","","","","","","","",""
"null","<img src=""stim_listA/kiss7.gif""style=""height:400px;""></stim_listA>","","html-keyboard-response","43","272895","0.0-13.0-1.3","16087","List2A","black","woman","","","","null","","","","","","","","",""
"null","is kissing","","html-keyboard-response","44","274895","0.0-13.0-2.3","16087","List2A","black","woman","","","","null","","","","","","","","",""
"11001.700000017881","","","survey-text","45","285898","0.0-13.0-3.3","16087","List2A","black","woman","","","","","{""Q0"":""ruth is kissing beth""}","<img src=""stim_listA/kiss7.gif""style=""height:400px;""></stim_listA>","is kissing","","","","","",""
"null","<div style=""font-size:60px;"">+</div>","","html-keyboard-response","46","286399","0.0-13.0-0.4","16087","List2A","black","woman","","","","null","","","","","","","","",""
"null","<img src=""stim_listA/copy5.gif""style=""height:400px;""></stim_listA>","","html-keyboard-response","47","288400","0.0-13.0-1.4","16087","List2A","black","woman","","","","null","","","","","","","","",""
"null","is copying","","html-keyboard-response","48","290405","0.0-13.0-2.4","16087","List2A","black","woman","","","","null","","","","","","","","",""
"8163.5999999940395","","","survey-text","49","298570","0.0-13.0-3.4","16087","List2A","black","woman","","","","","{""Q0"":""dave is copying fred""}","<img src=""stim_listA/copy5.gif""style=""height:400px;""></stim_listA>","is copying","","","","","",""
"null","<div style=""font-size:60px;"">+</div>","","html-keyboard-response","50","299072","0.0-13.0-0.5","16087","List2A","black","woman","","","","null","","","","","","","","",""
"null","<img src=""stim_listA/oppose5.gif""style=""height:400px;""></stim_listA>","","html-keyboard-response","51","301074","0.0-13.0-1.5","16087","List2A","black","woman","","","","null","","","","","","","","",""
"null","is opposing","","html-keyboard-response","52","303076","0.0-13.0-2.5","16087","List2A","black","woman","","","","null","","","","","","","","",""
"7628.700000017881","","","survey-text","53","310706","0.0-13.0-3.5","16087","List2A","black","woman","","","","","{""Q0"":""dave is opposing mike""}","<img src=""stim_listA/oppose5.gif""style=""height:400px;""></stim_listA>","is opposing","","","","","",""
"null","<div style=""font-size:60px;"">+</div>","","html-keyboard-response","54","311208","0.0-13.0-0.6","16087","List2A","black","woman","","","","null","","","","","","","","",""
"null","<img src=""stim_listA/touch1.gif""style=""height:400px;""></stim_listA>","","html-keyboard-response","55","313215","0.0-13.0-1.6","16087","List2A","black","woman","","","","null","","","","","","","","",""
"null","is touching","","html-keyboard-response","56","315225","0.0-13.0-2.6","16087","List2A","black","woman","","","","null","","","","","","","","",""
"6576.9000000059605","","","survey-text","57","321803","0.0-13.0-3.6","16087","List2A","black","woman","","","","","{""Q0"":""dave is touching jane""}","<img src=""stim_listA/touch1.gif""style=""height:400px;""></stim_listA>","is touching","","","","","",""
"null","<div style=""font-size:60px;"">+</div>","","html-keyboard-response","58","322309","0.0-13.0-0.7","16087","List2A","black","woman","","","","null","","","","","","","","",""
"null","<img src=""stim_listA/copy2.gif""style=""height:400px;""></stim_listA>","","html-keyboard-response","59","324310","0.0-13.0-1.7","16087","List2A","black","woman","","","","null","","","","","","","","",""
"null","is being copied by","","html-keyboard-response","60","326311","0.0-13.0-2.7","16087","List2A","black","woman","","","","null","","","","","","","","",""
"17546.59999999404","","","survey-text","61","343859","0.0-13.0-3.7","16087","List2A","black","woman","","","","","{""Q0"":""jane is being copied by luke""}","<img src=""stim_listA/copy2.gif""style=""height:400px;""></stim_listA>","is being copied by","","","","","",""
"null","<div style=""font-size:60px;"">+</div>","","html-keyboard-response","62","344364","0.0-13.0-0.8","16087","List2A","black","woman","","","","null","","","","","","","","",""
"null","<img src=""stim_listA/kiss6.gif""style=""height:400px;""></stim_listA>","","html-keyboard-response","63","346367","0.0-13.0-1.8","16087","List2A","black","woman","","","","null","","","","","","","","",""
"null","is being kissed by","","html-keyboard-response","64","348376","0.0-13.0-2.8","16087","List2A","black","woman","","","","null","","","","","","","","",""
"11850","","","survey-text","65","360227","0.0-13.0-3.8","16087","List2A","black","woman","","","","","{""Q0"":""mike is being kissed by dave""}","<img src=""stim_listA/kiss6.gif""style=""height:400px;""></stim_listA>","is being kissed by","","","","","",""
"null","<div style=""font-size:60px;"">+</div>","","html-keyboard-response","66","360728","0.0-13.0-0.9","16087","List2A","black","woman","","","","null","","","","","","","","",""
"null","<img src=""stim_listA/kiss3.gif""style=""height:400px;""></stim_listA>","","html-keyboard-response","67","362730","0.0-13.0-1.9","16087","List2A","black","woman","","","","null","","","","","","","","",""
"null","is kissing","","html-keyboard-response","68","364742","0.0-13.0-2.9","16087","List2A","black","woman","","","","null","","","","","","","","",""
"9284.5","","","survey-text","69","374027","0.0-13.0-3.9","16087","List2A","black","woman","","","","","{""Q0"":""fred is kissing beth""}","<img src=""stim_listA/kiss3.gif""style=""height:400px;""></stim_listA>","is kissing","","","","","",""
"null","<div style=""font-size:60px;"">+</div>","","html-keyboard-response","70","374528","0.0-13.0-0.10","16087","List2A","black","woman","","","","null","","","","","","","","",""
"null","<img src=""stim_listA/challenge2.gif""style=""height:400px;""></stim_listA>","","html-keyboard-response","71","376530","0.0-13.0-1.10","16087","List2A","black","woman","","","","null","","","","","","","","",""
"null","is being challenged by","","html-keyboard-response","72","378531","0.0-13.0-2.10","16087","List2A","black","woman","","","","null","","","","","","","","",""
"30799.69999998808","","","survey-text","73","409332","0.0-13.0-3.10","16087","List2A","black","woman","","","","","{""Q0"":""jane is being challenged by luke""}","<img src=""stim_listA/challenge2.gif""style=""height:400px;""></stim_listA>","is being challenged by","","","","","",""
"null","<div style=""font-size:60px;"">+</div>","","html-keyboard-response","74","409833","0.0-13.0-0.11","16087","List2A","black","woman","","","","null","","","","","","","","",""
"null","<img src=""stim_listA/kiss2.gif""style=""height:400px;""></stim_listA>","","html-keyboard-response","75","411843","0.0-13.0-1.11","16087","List2A","black","woman","","","","null","","","","","","","","",""
"null","is being kissed by","","html-keyboard-response","76","413848","0.0-13.0-2.11","16087","List2A","black","woman","","","","null","","","","","","","","",""
"8851.09999999404","","","survey-text","77","422700","0.0-13.0-3.11","16087","List2A","black","woman","","","","","{""Q0"":""jane is being kissed by dave""}","<img src=""stim_listA/kiss2.gif""style=""height:400px;""></stim_listA>","is being kissed by","","","","","",""
"null","<div style=""font-size:60px;"">+</div>","","html-keyboard-response","78","423201","0.0-13.0-0.12","16087","List2A","black","woman","","","","null","","","","","","","","",""
"null","<img src=""stim_listA/oppose1.gif""style=""height:400px;""></stim_listA>","","html-keyboard-response","79","425208","0.0-13.0-1.12","16087","List2A","black","woman","","","","null","","","","","","","","",""
"null","is opposing","","html-keyboard-response","80","427215","0.0-13.0-2.12","16087","List2A","black","woman","","","","null","","","","","","","","",""
"9083.700000017881","","","survey-text","81","436301","0.0-13.0-3.12","16087","List2A","black","woman","","","","","{""Q0"":""dave is opposing jane""}","<img src=""stim_listA/oppose1.gif""style=""height:400px;""></stim_listA>","is opposing","","","","","",""
"null","<div style=""font-size:60px;"">+</div>","","html-keyboard-response","82","436801","0.0-13.0-0.13","16087","List2A","black","woman","","","","null","","","","","","","","",""
"null","<img src=""stim_listA/kiss5.gif""style=""height:400px;""></stim_listA>","","html-keyboard-response","83","438802","0.0-13.0-1.13","16087","List2A","black","woman","","","","null","","","","","","","","",""
"null","is kissing","","html-keyboard-response","84","440804","0.0-13.0-2.13","16087","List2A","black","woman","","","","null","","","","","","","","",""
"6640","","","survey-text","85","447445","0.0-13.0-3.13","16087","List2A","black","woman","","","","","{""Q0"":""luke is kissing fred""}","<img src=""stim_listA/kiss5.gif""style=""height:400px;""></stim_listA>","is kissing","","","","","",""
"null","<div style=""font-size:60px;"">+</div>","","html-keyboard-response","86","447946","0.0-13.0-0.14","16087","List2A","black","woman","","","","null","","","","","","","","",""
"null","<img src=""stim_listA/shout4.gif""style=""height:400px;""></stim_listA>","","html-keyboard-response","87","449961","0.0-13.0-1.14","16087","List2A","black","woman","","","","null","","","","","","","","",""
"null","is being shouted at by","","html-keyboard-response","88","451962","0.0-13.0-2.14","16087","List2A","black","woman","","","","null","","","","","","","","",""
"9442.299999982119","","","survey-text","89","461405","0.0-13.0-3.14","16087","List2A","black","woman","","","","","{""Q0"":""kate is being shouted at by mike""}","<img src=""stim_listA/shout4.gif""style=""height:400px;""></stim_listA>","is being shouted at by","","","","","",""
"null","<div style=""font-size:60px;"">+</div>","","html-keyboard-response","90","461906","0.0-13.0-0.15","16087","List2A","black","woman","","","","null","","","","","","","","",""
"null","<img src=""stim_listA/shout7.gif""style=""height:400px;""></stim_listA>","","html-keyboard-response","91","463908","0.0-13.0-1.15","16087","List2A","black","woman","","","","null","","","","","","","","",""
"null","is shouting at","","html-keyboard-response","92","465913","0.0-13.0-2.15","16087","List2A","black","woman","","","","null","","","","","","","","",""
"15002.40000000596","","","survey-text","93","480917","0.0-13.0-3.15","16087","List2A","black","woman","","","","","{""Q0"":""ruth is shouting at beth""}","<img src=""stim_listA/shout7.gif""style=""height:400px;""></stim_listA>","is shouting at","","","","","",""
"null","<div style=""font-size:60px;"">+</div>","","html-keyboard-response","94","481417","0.0-13.0-0.16","16087","List2A","black","woman","","","","null","","","","","","","","",""
"null","<img src=""stim_listA/hug3.gif""style=""height:400px;""></stim_listA>","","html-keyboard-response","95","483419","0.0-13.0-1.16","16087","List2A","black","woman","","","","null","","","","","","","","",""
"null","is hugging","","html-keyboard-response","96","485420","0.0-13.0-2.16","16087","List2A","black","woman","","","","null","","","","","","","","",""
"7647.800000011921","","","survey-text","97","493069","0.0-13.0-3.16","16087","List2A","black","woman","","","","","{""Q0"":""beth is hugging fred""}","<img src=""stim_listA/hug3.gif""style=""height:400px;""></stim_listA>","is hugging","","","","","",""
"null","<div style=""font-size:60px;"">+</div>","","html-keyboard-response","98","493570","0.0-13.0-0.17","16087","List2A","black","woman","","","","null","","","","","","","","",""
"null","<img src=""stim_listA/greet8.gif""style=""height:400px;""></stim_listA>","","html-keyboard-response","99","495575","0.0-13.0-1.17","16087","List2A","black","woman","","","","null","","","","","","","","",""
"null","is being greeted by","","html-keyboard-response","100","497578","0.0-13.0-2.17","16087","List2A","black","woman","","","","null","","","","","","","","",""
"18019","","","survey-text","101","515598","0.0-13.0-3.17","16087","List2A","black","woman","","","","","{""Q0"":""jane is being greeted by kate""}","<img src=""stim_listA/greet8.gif""style=""height:400px;""></stim_listA>","is being greeted by","","","","","",""
"null","<div style=""font-size:60px;"">+</div>","","html-keyboard-response","102","516099","0.0-13.0-0.18","16087","List2A","black","woman","","","","null","","","","","","","","",""
"null","<img src=""stim_listA/touch6.gif""style=""height:400px;""></stim_listA>","","html-keyboard-response","103","518101","0.0-13.0-1.18","16087","List2A","black","woman","","","","null","","","","","","","","",""
"null","is being touched by","","html-keyboard-response","104","520104","0.0-13.0-2.18","16087","List2A","black","woman","","","","null","","","","","","","","",""
"13933.300000011921","","","survey-text","105","534038","0.0-13.0-3.18","16087","List2A","black","woman","","","","","{""Q0"":""fred is being touched by luke""}","<img src=""stim_listA/touch6.gif""style=""height:400px;""></stim_listA>","is being touched by","","","","","",""
"null","<div style=""font-size:60px;"">+</div>","","html-keyboard-response","106","534539","0.0-13.0-0.19","16087","List2A","black","woman","","","","null","","","","","","","","",""
"null","<img src=""stim_listA/kiss4.gif""style=""height:400px;""></stim_listA>","","html-keyboard-response","107","536540","0.0-13.0-1.19","16087","List2A","black","woman","","","","null","","","","","","","","",""
"null","is being kissed by","","html-keyboard-response","108","538541","0.0-13.0-2.19","16087","List2A","black","woman","","","","null","","","","","","","","",""
"8935.800000011921","","","survey-text","109","547478","0.0-13.0-3.19","16087","List2A","black","woman","","","","","{""Q0"":""kate is being kissed by mike""}","<img src=""stim_listA/kiss4.gif""style=""height:400px;""></stim_listA>","is being kissed by","","","","","",""
"12263","<img src='img/portrait_matrix_list2.jpg' style='width:900px;height:500px;''></img><p>If you have memorised all the portraits and names and are ready to start, press Continue.</p><p><strong>Please note: Your memory of these faces will be tested 4 times during this experiment.</strong></p>","0","html-button-response","110","559743","0.0-14.0-0.0","16087","List2A","black","woman","","","","","","","","","","","","",""
"1966.4000000059605","<img src=""portrait/BW1.jpg""style=""height:400px;""></img>","0","html-button-response","111","562711","0.0-14.0-1.0","16087","List2A","black","woman","","true","0","","","","","","","","","",""
"null","CORRECT","","html-keyboard-response","112","564214","0.0-14.0-2.0-0.0","16087","List2A","black","woman","","","","null","","","","","","","","",""
"1463.699999988079","<img src=""portrait/BM1.jpg""style=""height:400px;""></img>","4","html-button-response","113","565679","0.0-14.0-4.0","16087","List2A","black","woman","","true","4","","","","","","","","","",""
"null","CORRECT","","html-keyboard-response","114","567190","0.0-14.0-5.0-0.0","16087","List2A","black","woman","","","","null","","","","","","","","",""
"1224","<img src=""portrait/WW2.jpg""style=""height:400px;""></img>","3","html-button-response","115","568415","0.0-14.0-7.0","16087","List2A","black","woman","","true","3","","","","","","","","","",""
"null","CORRECT","","html-keyboard-response","116","569917","0.0-14.0-8.0-0.0","16087","List2A","black","woman","","","","null","","","","","","","","",""
"1617.3999999761581","<img src=""portrait/WW1.jpg""style=""height:400px;""></img>","1","html-button-response","117","571535","0.0-14.0-10.0","16087","List2A","black","woman","","true","1","","","","","","","","","",""
"null","CORRECT","","html-keyboard-response","118","573037","0.0-14.0-11.0-0.0","16087","List2A","black","woman","","","","null","","","","","","","","",""
"2185.5","<img src=""portrait/WM1.jpg""style=""height:400px;""></img>","6","html-button-response","119","575223","0.0-14.0-13.0","16087","List2A","black","woman","","true","6","","","","","","","","","",""
"null","CORRECT","","html-keyboard-response","120","576726","0.0-14.0-14.0-0.0","16087","List2A","black","woman","","","","null","","","","","","","","",""
"1336","<img src=""portrait/BW2.jpg""style=""height:400px;""></img>","2","html-button-response","121","578063","0.0-14.0-16.0","16087","List2A","black","woman","","true","2","","","","","","","","","",""
"null","CORRECT","","html-keyboard-response","122","579565","0.0-14.0-17.0-0.0","16087","List2A","black","woman","","","","null","","","","","","","","",""
"1697.800000011921","<img src=""portrait/WM2.jpg""style=""height:400px;""></img>","7","html-button-response","123","581263","0.0-14.0-19.0","16087","List2A","black","woman","","true","7","","","","","","","","","",""
"null","CORRECT","","html-keyboard-response","124","582765","0.0-14.0-20.0-0.0","16087","List2A","black","woman","","","","null","","","","","","","","",""
"2361.600000023842","<img src=""portrait/BM2.jpg""style=""height:400px;""></img>","5","html-button-response","125","585127","0.0-14.0-22.0","16087","List2A","black","woman","","true","5","","","","","","","","","",""
"null","CORRECT","","html-keyboard-response","126","586652","0.0-14.0-23.0-0.0","16087","List2A","black","woman","","","","null","","","","","","","","",""
"1809.800000011921","<p>You got 8 out of 8 right first time. Press Continue.</p>","0","html-button-response","127","588463","0.0-14.0-25.0","16087","List2A","black","woman","","","","","","","","","","","","",""
"null","<div style=""font-size:60px;"">+</div>","","html-keyboard-response","128","589978","0.0-15.0-0.0","16087","List2A","black","woman","","","","null","","","","","","","","",""
"null","<img src=""stim_listA/challenge7.gif""style=""height:400px;""></stim_listA>","","html-keyboard-response","129","591988","0.0-15.0-1.0","16087","List2A","black","woman","","","","null","","","","","","","","",""
"null","is challenging","","html-keyboard-response","130","594002","0.0-15.0-2.0","16087","List2A","black","woman","","","","null","","","","","","","","",""
"12259.90000000596","","","survey-text","131","606263","0.0-15.0-3.0","16087","List2A","black","woman","","","","","{""Q0"":""jane is challenging beth""}","<img src=""stim_listA/challenge7.gif""style=""height:400px;""></stim_listA>","is challenging","","","","","",""
"null","<div style=""font-size:60px;"">+</div>","","html-keyboard-response","132","606770","0.0-15.0-0.1","16087","List2A","black","woman","","","","null","","","","","","","","",""
"null","<img src=""stim_listA/greet4.gif""style=""height:400px;""></stim_listA>","","html-keyboard-response","133","608771","0.0-15.0-1.1","16087","List2A","black","woman","","","","null","","","","","","","","",""
"null","is being greeted by","","html-keyboard-response","134","610783","0.0-15.0-2.1","16087","List2A","black","woman","","","","null","","","","","","","","",""
"24183.600000023842","","","survey-text","135","634968","0.0-15.0-3.1","16087","List2A","black","woman","","","","","{""Q0"":""kate is being greeted by fred""}","<img src=""stim_listA/greet4.gif""style=""height:400px;""></stim_listA>","is being greeted by","","","","","",""
"null","<div style=""font-size:60px;"">+</div>","","html-keyboard-response","136","635477","0.0-15.0-0.2","16087","List2A","black","woman","","","","null","","","","","","","","",""
"null","<img src=""stim_listA/greet7.gif""style=""height:400px;""></stim_listA>","","html-keyboard-response","137","637478","0.0-15.0-1.2","16087","List2A","black","woman","","","","null","","","","","","","","",""
"null","is greeting","","html-keyboard-response","138","639481","0.0-15.0-2.2","16087","List2A","black","woman","","","","null","","","","","","","","",""
"15309.40000000596","","","survey-text","139","654792","0.0-15.0-3.2","16087","List2A","black","woman","","","","","{""Q0"":""jane is greeting beth""}","<img src=""stim_listA/greet7.gif""style=""height:400px;""></stim_listA>","is greeting","","","","","",""
"null","<div style=""font-size:60px;"">+</div>","","html-keyboard-response","140","655293","0.0-15.0-0.3","16087","List2A","black","woman","","","","null","","","","","","","","",""
"null","<img src=""stim_listA/look6.gif""style=""height:400px;""></stim_listA>","","html-keyboard-response","141","657294","0.0-15.0-1.3","16087","List2A","black","woman","","","","null","","","","","","","","",""
"null","is being looked at by","","html-keyboard-response","142","659299","0.0-15.0-2.3","16087","List2A","black","woman","","","","null","","","","","","","","",""
"8251.799999982119","","","survey-text","143","667552","0.0-15.0-3.3","16087","List2A","black","woman","","","","","{""Q0"":""mike is being looked at by dave""}","<img src=""stim_listA/look6.gif""style=""height:400px;""></stim_listA>","is being looked at by","","","","","",""
"null","<div style=""font-size:60px;"">+</div>","","html-keyboard-response","144","668066","0.0-15.0-0.4","16087","List2A","black","woman","","","","null","","","","","","","","",""
"null","<img src=""stim_listA/look8.gif""style=""height:400px;""></stim_listA>","","html-keyboard-response","145","670075","0.0-15.0-1.4","16087","List2A","black","woman","","","","null","","","","","","","","",""
"null","is being looked at by","","html-keyboard-response","146","672090","0.0-15.0-2.4","16087","List2A","black","woman","","","","null","","","","","","","","",""
"11652.09999999404","","","survey-text","147","683745","0.0-15.0-3.4","16087","List2A","black","woman","","","","","{""Q0"":""kate is being looked at by jane""}","<img src=""stim_listA/look8.gif""style=""height:400px;""></stim_listA>","is being looked at by","","","","","",""
"null","<div style=""font-size:60px;"">+</div>","","html-keyboard-response","148","684250","0.0-15.0-0.5","16087","List2A","black","woman","","","","null","","","","","","","","",""
"null","<img src=""stim_listA/challenge8.gif""style=""height:400px;""></stim_listA>","","html-keyboard-response","149","686252","0.0-15.0-1.5","16087","List2A","black","woman","","","","null","","","","","","","","",""
"null","is being challenged by","","html-keyboard-response","150","688259","0.0-15.0-2.5","16087","List2A","black","woman","","","","null","","","","","","","","",""
"21404.69999998808","","","survey-text","151","709665","0.0-15.0-3.5","16087","List2A","black","woman","","","","","{""Q0"":""kate is being challenged by ruth""}","<img src=""stim_listA/challenge8.gif""style=""height:400px;""></stim_listA>","is being challenged by","","","","","",""
"null","<div style=""font-size:60px;"">+</div>","","html-keyboard-response","152","710170","0.0-15.0-0.6","16087","List2A","black","woman","","","","null","","","","","","","","",""
"null","<img src=""stim_listA/shout5.gif""style=""height:400px;""></stim_listA>","","html-keyboard-response","153","712171","0.0-15.0-1.6","16087","List2A","black","woman","","","","null","","","","","","","","",""
"null","is shouting at","","html-keyboard-response","154","714179","0.0-15.0-2.6","16087","List2A","black","woman","","","","null","","","","","","","","",""
"7796.799999982119","","","survey-text","155","721977","0.0-15.0-3.6","16087","List2A","black","woman","","","","","{""Q0"":""luke is shouting at fred""}","<img src=""stim_listA/shout5.gif""style=""height:400px;""></stim_listA>","is shouting at","","","","","",""
"null","<div style=""font-size:60px;"">+</div>","","html-keyboard-response","156","722489","0.0-15.0-0.7","16087","List2A","black","woman","","","","null","","","","","","","","",""
"null","<img src=""stim_listA/challenge4.gif""style=""height:400px;""></stim_listA>","","html-keyboard-response","157","724502","0.0-15.0-1.7","16087","List2A","black","woman","","","","null","","","","","","","","",""
"null","is being challenged by","","html-keyboard-response","158","726507","0.0-15.0-2.7","16087","List2A","black","woman","","","","null","","","","","","","","",""
"15700.699999988079","","","survey-text","159","742210","0.0-15.0-3.7","16087","List2A","black","woman","","","","","{""Q0"":""kate is being challenged by fred""}","<img src=""stim_listA/challenge4.gif""style=""height:400px;""></stim_listA>","is being challenged by","","","","","",""
"null","<div style=""font-size:60px;"">+</div>","","html-keyboard-response","160","742711","0.0-15.0-0.8","16087","List2A","black","woman","","","","null","","","","","","","","",""
"null","<img src=""stim_listA/hug7.gif""style=""height:400px;""></stim_listA>","","html-keyboard-response","161","744718","0.0-15.0-1.8","16087","List2A","black","woman","","","","null","","","","","","","","",""
"null","is hugging","","html-keyboard-response","162","746718","0.0-15.0-2.8","16087","List2A","black","woman","","","","null","","","","","","","","",""
"9338.299999982119","","","survey-text","163","756058","0.0-15.0-3.8","16087","List2A","black","woman","","","","","{""Q0"":""beth is hugging ruth""}","<img src=""stim_listA/hug7.gif""style=""height:400px;""></stim_listA>","is hugging","","","","","",""
"null","<div style=""font-size:60px;"">+</div>","","html-keyboard-response","164","756560","0.0-15.0-0.9","16087","List2A","black","woman","","","","null","","","","","","","","",""
"null","<img src=""stim_listA/challenge6.gif""style=""height:400px;""></stim_listA>","","html-keyboard-response","165","758561","0.0-15.0-1.9","16087","List2A","black","woman","","","","null","","","","","","","","",""
"null","is being challenged by","","html-keyboard-response","166","760571","0.0-15.0-2.9","16087","List2A","black","woman","","","","null","","","","","","","","",""
"11853.5","","","survey-text","167","772426","0.0-15.0-3.9","16087","List2A","black","woman","","","","","{""Q0"":""luke is being challenged by mike""}","<img src=""stim_listA/challenge6.gif""style=""height:400px;""></stim_listA>","is being challenged by","","","","","",""
"null","<div style=""font-size:60px;"">+</div>","","html-keyboard-response","168","772928","0.0-15.0-0.10","16087","List2A","black","woman","","","","null","","","","","","","","",""
"null","<img src=""stim_listA/greet3.gif""style=""height:400px;""></stim_listA>","","html-keyboard-response","169","774929","0.0-15.0-1.10","16087","List2A","black","woman","","","","null","","","","","","","","",""
"null","is greeting","","html-keyboard-response","170","776934","0.0-15.0-2.10","16087","List2A","black","woman","","","","null","","","","","","","","",""
"9066.59999999404","","","survey-text","171","786002","0.0-15.0-3.10","16087","List2A","black","woman","","","","","{""Q0"":""mike is greeting beth""}","<img src=""stim_listA/greet3.gif""style=""height:400px;""></stim_listA>","is greeting","","","","","",""
"null","<div style=""font-size:60px;"">+</div>","","html-keyboard-response","172","786502","0.0-15.0-0.11","16087","List2A","black","woman","","","","null","","","","","","","","",""
"null","<img src=""stim_listA/seduce3.gif""style=""height:400px;""></stim_listA>","","html-keyboard-response","173","788512","0.0-15.0-1.11","16087","List2A","black","woman","","","","null","","","","","","","","",""
"null","is seducing","","html-keyboard-response","174","790516","0.0-15.0-2.11","16087","List2A","black","woman","","","","null","","","","","","","","",""
"6460.5999999940395","","","survey-text","175","796979","0.0-15.0-3.11","16087","List2A","black","woman","","","","","{""Q0"":""fred is seducing kate""}","<img src=""stim_listA/seduce3.gif""style=""height:400px;""></stim_listA>","is seducing","","","","","",""
"null","<div style=""font-size:60px;"">+</div>","","html-keyboard-response","176","797494","0.0-15.0-0.12","16087","List2A","black","woman","","","","null","","","","","","","","",""
"null","<img src=""stim_listA/challenge5.gif""style=""height:400px;""></stim_listA>","","html-keyboard-response","177","799495","0.0-15.0-1.12","16087","List2A","black","woman","","","","null","","","","","","","","",""
"null","is challenging","","html-keyboard-response","178","801503","0.0-15.0-2.12","16087","List2A","black","woman","","","","null","","","","","","","","",""
"7362.5","","","survey-text","179","808867","0.0-15.0-3.12","16087","List2A","black","woman","","","","","{""Q0"":""dave is challenging fred""}","<img src=""stim_listA/challenge5.gif""style=""height:400px;""></stim_listA>","is challenging","","","","","",""
"null","<div style=""font-size:60px;"">+</div>","","html-keyboard-response","180","809369","0.0-15.0-0.13","16087","List2A","black","woman","","","","null","","","","","","","","",""
"null","<img src=""stim_listA/look5.gif""style=""height:400px;""></stim_listA>","","html-keyboard-response","181","811371","0.0-15.0-1.13","16087","List2A","black","woman","","","","null","","","","","","","","",""
"null","is looking at","","html-keyboard-response","182","813380","0.0-15.0-2.13","16087","List2A","black","woman","","","","null","","","","","","","","",""
"6621","","","survey-text","183","820003","0.0-15.0-3.13","16087","List2A","black","woman","","","","","{""Q0"":""luke is looking at fred""}","<img src=""stim_listA/look5.gif""style=""height:400px;""></stim_listA>","is looking at","","","","","",""
"null","<div style=""font-size:60px;"">+</div>","","html-keyboard-response","184","820503","0.0-15.0-0.14","16087","List2A","black","woman","","","","null","","","","","","","","",""
"null","<img src=""stim_listA/touch7.gif""style=""height:400px;""></stim_listA>","","html-keyboard-response","185","822505","0.0-15.0-1.14","16087","List2A","black","woman","","","","null","","","","","","","","",""
"null","is touching","","html-keyboard-response","186","824509","0.0-15.0-2.14","16087","List2A","black","woman","","","","null","","","","","","","","",""
"20292.90000000596","","","survey-text","187","844803","0.0-15.0-3.14","16087","List2A","black","woman","","","","","{""Q0"":""jane is touching kate""}","<img src=""stim_listA/touch7.gif""style=""height:400px;""></stim_listA>","is touching","","","","","",""
"null","<div style=""font-size:60px;"">+</div>","","html-keyboard-response","188","845307","0.0-15.0-0.15","16087","List2A","black","woman","","","","null","","","","","","","","",""
"null","<img src=""stim_listA/hug4.gif""style=""height:400px;""></stim_listA>","","html-keyboard-response","189","847308","0.0-15.0-1.15","16087","List2A","black","woman","","","","null","","","","","","","","",""
"null","is being hugged by","","html-keyboard-response","190","849317","0.0-15.0-2.15","16087","List2A","black","woman","","","","null","","","","","","","","",""
"12157","","","survey-text","191","861476","0.0-15.0-3.15","16087","List2A","black","woman","","","","","{""Q0"":""kate is being hugged by mike""}","<img src=""stim_listA/hug4.gif""style=""height:400px;""></stim_listA>","is being hugged by","","","","","",""
"null","<div style=""font-size:60px;"">+</div>","","html-keyboard-response","192","861977","0.0-15.0-0.16","16087","List2A","black","woman","","","","null","","","","","","","","",""
"null","<img src=""stim_listA/greet6.gif""style=""height:400px;""></stim_listA>","","html-keyboard-response","193","863978","0.0-15.0-1.16","16087","List2A","black","woman","","","","null","","","","","","","","",""
"null","is being greeted by","","html-keyboard-response","194","865991","0.0-15.0-2.16","16087","List2A","black","woman","","","","null","","","","","","","","",""
"8212","","","survey-text","195","874204","0.0-15.0-3.16","16087","List2A","black","woman","","","","","{""Q0"":""mike is being greeted by luke""}","<img src=""stim_listA/greet6.gif""style=""height:400px;""></stim_listA>","is being greeted by","","","","","",""
"null","<div style=""font-size:60px;"">+</div>","","html-keyboard-response","196","874705","0.0-15.0-0.17","16087","List2A","black","woman","","","","null","","","","","","","","",""
"null","<img src=""stim_listA/touch3.gif""style=""height:400px;""></stim_listA>","","html-keyboard-response","197","876706","0.0-15.0-1.17","16087","List2A","black","woman","","","","null","","","","","","","","",""
"null","is touching","","html-keyboard-response","198","878710","0.0-15.0-2.17","16087","List2A","black","woman","","","","null","","","","","","","","",""
"6988.799999982119","","","survey-text","199","885700","0.0-15.0-3.17","16087","List2A","black","woman","","","","","{""Q0"":""mike is touching kate""}","<img src=""stim_listA/touch3.gif""style=""height:400px;""></stim_listA>","is touching","","","","","",""
"null","<div style=""font-size:60px;"">+</div>","","html-keyboard-response","200","886215","0.0-15.0-0.18","16087","List2A","black","woman","","","","null","","","","","","","","",""
"null","<img src=""stim_listA/copy8.gif""style=""height:400px;""></stim_listA>","","html-keyboard-response","201","888221","0.0-15.0-1.18","16087","List2A","black","woman","","","","null","","","","","","","","",""
"null","is being copied by","","html-keyboard-response","202","890235","0.0-15.0-2.18","16087","List2A","black","woman","","","","null","","","","","","","","",""
"13136.5","","","survey-text","203","903372","0.0-15.0-3.18","16087","List2A","black","woman","","","","","{""Q0"":""kate is being copied by ruth""}","<img src=""stim_listA/copy8.gif""style=""height:400px;""></stim_listA>","is being copied by","","","","","",""
"null","<div style=""font-size:60px;"">+</div>","","html-keyboard-response","204","903874","0.0-15.0-0.19","16087","List2A","black","woman","","","","null","","","","","","","","",""
"null","<img src=""stim_listA/copy7.gif""style=""height:400px;""></stim_listA>","","html-keyboard-response","205","905875","0.0-15.0-1.19","16087","List2A","black","woman","","","","null","","","","","","","","",""
"null","is copying","","html-keyboard-response","206","907889","0.0-15.0-2.19","16087","List2A","black","woman","","","","null","","","","","","","","",""
"6393.5","","","survey-text","207","914284","0.0-15.0-3.19","16087","List2A","black","woman","","","","","{""Q0"":""beth is copying jane""}","<img src=""stim_listA/copy7.gif""style=""height:400px;""></stim_listA>","is copying","","","","","",""
"3078.9000000059605","<img src='img/portrait_matrix_list2.jpg' style='width:900px;height:500px;''></img><p>If you have memorised all the portraits and names and are ready to start, press Continue.</p><p><strong>Please note: Your memory of these faces will be tested 4 times during this experiment.</strong></p>","0","html-button-response","208","917365","0.0-16.0-0.0","16087","List2A","black","woman","","","","","","","","","","","","",""
"1422.4000000059605","<img src=""portrait/BW1.jpg""style=""height:400px;""></img>","0","html-button-response","209","919789","0.0-16.0-1.0","16087","List2A","black","woman","","true","0","","","","","","","","","",""
"null","CORRECT","","html-keyboard-response","210","921290","0.0-16.0-2.0-0.0","16087","List2A","black","woman","","","","null","","","","","","","","",""
"1993.4000000059605","<img src=""portrait/WW1.jpg""style=""height:400px;""></img>","1","html-button-response","211","923285","0.0-16.0-4.0","16087","List2A","black","woman","","true","1","","","","","","","","","",""
"null","CORRECT","","html-keyboard-response","212","924786","0.0-16.0-5.0-0.0","16087","List2A","black","woman","","","","null","","","","","","","","",""
"1633.7000000178814","<img src=""portrait/BM1.jpg""style=""height:400px;""></img>","4","html-button-response","213","926421","0.0-16.0-7.0","16087","List2A","black","woman","","true","4","","","","","","","","","",""
"null","CORRECT","","html-keyboard-response","214","927933","0.0-16.0-8.0-0.0","16087","List2A","black","woman","","","","null","","","","","","","","",""
"1519.0999999940395","<img src=""portrait/BW2.jpg""style=""height:400px;""></img>","2","html-button-response","215","929453","0.0-16.0-10.0","16087","List2A","black","woman","","true","2","","","","","","","","","",""
"null","CORRECT","","html-keyboard-response","216","930954","0.0-16.0-11.0-0.0","16087","List2A","black","woman","","","","null","","","","","","","","",""
"2129.4000000059605","<img src=""portrait/BM2.jpg""style=""height:400px;""></img>","5","html-button-response","217","933085","0.0-16.0-13.0","16087","List2A","black","woman","","true","5","","","","","","","","","",""
"null","CORRECT","","html-keyboard-response","218","934586","0.0-16.0-14.0-0.0","16087","List2A","black","woman","","","","null","","","","","","","","",""
"1249.5","<img src=""portrait/WM1.jpg""style=""height:400px;""></img>","6","html-button-response","219","935837","0.0-16.0-16.0","16087","List2A","black","woman","","true","6","","","","","","","","","",""
"null","CORRECT","","html-keyboard-response","220","937338","0.0-16.0-17.0-0.0","16087","List2A","black","woman","","","","null","","","","","","","","",""
"1290.0999999940395","<img src=""portrait/WW2.jpg""style=""height:400px;""></img>","3","html-button-response","221","938629","0.0-16.0-19.0","16087","List2A","black","woman","","true","3","","","","","","","","","",""
"null","CORRECT","","html-keyboard-response","222","940156","0.0-16.0-20.0-0.0","16087","List2A","black","woman","","","","null","","","","","","","","",""
"903.8000000119209","<img src=""portrait/WM2.jpg""style=""height:400px;""></img>","7","html-button-response","223","941061","0.0-16.0-22.0","16087","List2A","black","woman","","true","7","","","","","","","","","",""
"null","CORRECT","","html-keyboard-response","224","942563","0.0-16.0-23.0-0.0","16087","List2A","black","woman","","","","null","","","","","","","","",""
"1728.5999999940395","<p>You got 8 out of 8 right first time. Press Continue.</p>","0","html-button-response","225","944293","0.0-16.0-25.0","16087","List2A","black","woman","","","","","","","","","","","","",""
"null","<div style=""font-size:60px;"">+</div>","","html-keyboard-response","226","945814","0.0-17.0-0.0","16087","List2A","black","woman","","","","null","","","","","","","","",""
"null","<img src=""stim_listA/touch4.gif""style=""height:400px;""></stim_listA>","","html-keyboard-response","227","947820","0.0-17.0-1.0","16087","List2A","black","woman","","","","null","","","","","","","","",""
"null","is being touched by","","html-keyboard-response","228","949831","0.0-17.0-2.0","16087","List2A","black","woman","","","","null","","","","","","","","",""
"13580.899999976158","","","survey-text","229","963413","0.0-17.0-3.0","16087","List2A","black","woman","","","","","{""Q0"":""beth is being touched by fred""}","<img src=""stim_listA/touch4.gif""style=""height:400px;""></stim_listA>","is being touched by","","","","","",""
"null","<div style=""font-size:60px;"">+</div>","","html-keyboard-response","230","963914","0.0-17.0-0.1","16087","List2A","black","woman","","","","null","","","","","","","","",""
"null","<img src=""stim_listA/look7.gif""style=""height:400px;""></stim_listA>","","html-keyboard-response","231","965930","0.0-17.0-1.1","16087","List2A","black","woman","","","","null","","","","","","","","",""
"null","is looking at","","html-keyboard-response","232","967943","0.0-17.0-2.1","16087","List2A","black","woman","","","","null","","","","","","","","",""
"18588","","","survey-text","233","986534","0.0-17.0-3.1","16087","List2A","black","woman","","","","","{""Q0"":""beth is looking at ruth""}","<img src=""stim_listA/look7.gif""style=""height:400px;""></stim_listA>","is looking at","","","","","",""
"null","<div style=""font-size:60px;"">+</div>","","html-keyboard-response","234","987049","0.0-17.0-0.2","16087","List2A","black","woman","","","","null","","","","","","","","",""
"null","<img src=""stim_listA/greet5.gif""style=""height:400px;""></stim_listA>","","html-keyboard-response","235","989051","0.0-17.0-1.2","16087","List2A","black","woman","","","","null","","","","","","","","",""
"null","is greeting","","html-keyboard-response","236","991064","0.0-17.0-2.2","16087","List2A","black","woman","","","","null","","","","","","","","",""
"14108.700000017881","","","survey-text","237","1005174","0.0-17.0-3.2","16087","List2A","black","woman","","","","","{""Q0"":""fred is greeting dave""}","<img src=""stim_listA/greet5.gif""style=""height:400px;""></stim_listA>","is greeting","","","","","",""
"null","<div style=""font-size:60px;"">+</div>","","html-keyboard-response","238","1005675","0.0-17.0-0.3","16087","List2A","black","woman","","","","null","","","","","","","","",""
"null","<img src=""stim_listA/copy4.gif""style=""height:400px;""></stim_listA>","","html-keyboard-response","239","1007676","0.0-17.0-1.3","16087","List2A","black","woman","","","","null","","","","","","","","",""
"null","is being copied by","","html-keyboard-response","240","1009692","0.0-17.0-2.3","16087","List2A","black","woman","","","","null","","","","","","","","",""
"7889","","","survey-text","241","1017582","0.0-17.0-3.3","16087","List2A","black","woman","","","","","{""Q0"":""fred is being copied by kate""}","<img src=""stim_listA/copy4.gif""style=""height:400px;""></stim_listA>","is being copied by","","","","","",""
"null","<div style=""font-size:60px;"">+</div>","","html-keyboard-response","242","1018083","0.0-17.0-0.4","16087","List2A","black","woman","","","","null","","","","","","","","",""
"null","<img src=""stim_listA/shout2.gif""style=""height:400px;""></stim_listA>","","html-keyboard-response","243","1020085","0.0-17.0-1.4","16087","List2A","black","woman","","","","null","","","","","","","","",""
"null","is being shouted at by","","html-keyboard-response","244","1022091","0.0-17.0-2.4","16087","List2A","black","woman","","","","null","","","","","","","","",""
"27402","","","survey-text","245","1049495","0.0-17.0-3.4","16087","List2A","black","woman","","","","","{""Q0"":""jane is being shouted at by dave""}","<img src=""stim_listA/shout2.gif""style=""height:400px;""></stim_listA>","is being shouted at by","","","","","",""
"null","<div style=""font-size:60px;"">+</div>","","html-keyboard-response","246","1050002","0.0-17.0-0.5","16087","List2A","black","woman","","","","null","","","","","","","","",""
"null","<img src=""stim_listA/oppose2.gif""style=""height:400px;""></stim_listA>","","html-keyboard-response","247","1052009","0.0-17.0-1.5","16087","List2A","black","woman","","","","null","","","","","","","","",""
"null","is being opposed by","","html-keyboard-response","248","1054011","0.0-17.0-2.5","16087","List2A","black","woman","","","","null","","","","","","","","",""
"11242.90000000596","","","survey-text","249","1065255","0.0-17.0-3.5","16087","List2A","black","woman","","","","","{""Q0"":""luke is being opposed by ruth""}","<img src=""stim_listA/oppose2.gif""style=""height:400px;""></stim_listA>","is being opposed by","","","","","",""
"null","<div style=""font-size:60px;"">+</div>","","html-keyboard-response","250","1065757","0.0-17.0-0.6","16087","List2A","black","woman","","","","null","","","","","","","","",""
"null","<img src=""stim_listA/shout6.gif""style=""height:400px;""></stim_listA>","","html-keyboard-response","251","1067762","0.0-17.0-1.6","16087","List2A","black","woman","","","","null","","","","","","","","",""
"null","is being shouted at by","","html-keyboard-response","252","1069773","0.0-17.0-2.6","16087","List2A","black","woman","","","","null","","","","","","","","",""
"10047.899999976158","","","survey-text","253","1079823","0.0-17.0-3.6","16087","List2A","black","woman","","","","","{""Q0"":""dave is being shouted at by mike""}","<img src=""stim_listA/shout6.gif""style=""height:400px;""></stim_listA>","is being shouted at by","","","","","",""
"null","<div style=""font-size:60px;"">+</div>","","html-keyboard-response","254","1080324","0.0-17.0-0.7","16087","List2A","black","woman","","","","null","","","","","","","","",""
"null","<img src=""stim_listA/greet2.gif""style=""height:400px;""></stim_listA>","","html-keyboard-response","255","1082333","0.0-17.0-1.7","16087","List2A","black","woman","","","","null","","","","","","","","",""
"null","is being greeted by","","html-keyboard-response","256","1084334","0.0-17.0-2.7","16087","List2A","black","woman","","","","null","","","","","","","","",""
"22670.899999976158","","","survey-text","257","1107008","0.0-17.0-3.7","16087","List2A","black","woman","","","","","{""Q0"":""jane is being greeted by luke""}","<img src=""stim_listA/greet2.gif""style=""height:400px;""></stim_listA>","is being greeted by","","","","","",""
"null","<div style=""font-size:60px;"">+</div>","","html-keyboard-response","258","1107512","0.0-17.0-0.8","16087","List2A","black","woman","","","","null","","","","","","","","",""
"null","<img src=""stim_listA/seduce1.gif""style=""height:400px;""></stim_listA>","","html-keyboard-response","259","1109520","0.0-17.0-1.8","16087","List2A","black","woman","","","","null","","","","","","","","",""
"null","is seducing","","html-keyboard-response","260","1111535","0.0-17.0-2.8","16087","List2A","black","woman","","","","null","","","","","","","","",""
"6599.300000011921","","","survey-text","261","1118136","0.0-17.0-3.8","16087","List2A","black","woman","","","","","{""Q0"":""jane is seducing luke""}","<img src=""stim_listA/seduce1.gif""style=""height:400px;""></stim_listA>","is seducing","","","","","",""
"null","<div style=""font-size:60px;"">+</div>","","html-keyboard-response","262","1118637","0.0-17.0-0.9","16087","List2A","black","woman","","","","null","","","","","","","","",""
"null","<img src=""stim_listA/look2.gif""style=""height:400px;""></stim_listA>","","html-keyboard-response","263","1120645","0.0-17.0-1.9","16087","List2A","black","woman","","","","null","","","","","","","","",""
"null","is being looked at by","","html-keyboard-response","264","1122654","0.0-17.0-2.9","16087","List2A","black","woman","","","","null","","","","","","","","",""
"7968.899999976158","","","survey-text","265","1130624","0.0-17.0-3.9","16087","List2A","black","woman","","","","","{""Q0"":""jane is being looked at by dave""}","<img src=""stim_listA/look2.gif""style=""height:400px;""></stim_listA>","is being looked at by","","","","","",""
"null","<div style=""font-size:60px;"">+</div>","","html-keyboard-response","266","1131128","0.0-17.0-0.10","16087","List2A","black","woman","","","","null","","","","","","","","",""
"null","<img src=""stim_listA/oppose3.gif""style=""height:400px;""></stim_listA>","","html-keyboard-response","267","1133143","0.0-17.0-1.10","16087","List2A","black","woman","","","","null","","","","","","","","",""
"null","is opposing","","html-keyboard-response","268","1135146","0.0-17.0-2.10","16087","List2A","black","woman","","","","null","","","","","","","","",""
"24309","","","survey-text","269","1159456","0.0-17.0-3.10","16087","List2A","black","woman","","","","","{""Q0"":""kate is opposing mike""}","<img src=""stim_listA/oppose3.gif""style=""height:400px;""></stim_listA>","is opposing","","","","","",""
"null","<div style=""font-size:60px;"">+</div>","","html-keyboard-response","270","1159958","0.0-17.0-0.11","16087","List2A","black","woman","","","","null","","","","","","","","",""
"null","<img src=""stim_listA/oppose8.gif""style=""height:400px;""></stim_listA>","","html-keyboard-response","271","1161959","0.0-17.0-1.11","16087","List2A","black","woman","","","","null","","","","","","","","",""
"null","is being opposed by","","html-keyboard-response","272","1163968","0.0-17.0-2.11","16087","List2A","black","woman","","","","null","","","","","","","","",""
"16847.40000000596","","","survey-text","273","1180817","0.0-17.0-3.11","16087","List2A","black","woman","","","","","{""Q0"":""beth is being opposed by ruth""}","<img src=""stim_listA/oppose8.gif""style=""height:400px;""></stim_listA>","is being opposed by","","","","","",""
"null","<div style=""font-size:60px;"">+</div>","","html-keyboard-response","274","1181325","0.0-17.0-0.12","16087","List2A","black","woman","","","","null","","","","","","","","",""
"null","<img src=""stim_listA/seduce8.gif""style=""height:400px;""></stim_listA>","","html-keyboard-response","275","1183327","0.0-17.0-1.12","16087","List2A","black","woman","","","","null","","","","","","","","",""
"null","is being seduced by","","html-keyboard-response","276","1185331","0.0-17.0-2.12","16087","List2A","black","woman","","","","null","","","","","","","","",""
"8524.09999999404","","","survey-text","277","1193857","0.0-17.0-3.12","16087","List2A","black","woman","","","","","{""Q0"":""beth is being seduced by jane""}","<img src=""stim_listA/seduce8.gif""style=""height:400px;""></stim_listA>","is being seduced by","","","","","",""
"null","<div style=""font-size:60px;"">+</div>","","html-keyboard-response","278","1194363","0.0-17.0-0.13","16087","List2A","black","woman","","","","null","","","","","","","","",""
"null","<img src=""stim_listA/seduce6.gif""style=""height:400px;""></stim_listA>","","html-keyboard-response","279","1196364","0.0-17.0-1.13","16087","List2A","black","woman","","","","null","","","","","","","","",""
"null","is being seduced by","","html-keyboard-response","280","1198370","0.0-17.0-2.13","16087","List2A","black","woman","","","","null","","","","","","","","",""
"8572.90000000596","","","survey-text","281","1206945","0.0-17.0-3.13","16087","List2A","black","woman","","","","","{""Q0"":""fred is being seduced by dave""}","<img src=""stim_listA/seduce6.gif""style=""height:400px;""></stim_listA>","is being seduced by","","","","","",""
"null","<div style=""font-size:60px;"">+</div>","","html-keyboard-response","282","1207455","0.0-17.0-0.14","16087","List2A","black","woman","","","","null","","","","","","","","",""
"null","<img src=""stim_listA/oppose6.gif""style=""height:400px;""></stim_listA>","","html-keyboard-response","283","1209466","0.0-17.0-1.14","16087","List2A","black","woman","","","","null","","","","","","","","",""
"null","is being opposed by","","html-keyboard-response","284","1211467","0.0-17.0-2.14","16087","List2A","black","woman","","","","null","","","","","","","","",""
"17876.100000023842","","","survey-text","285","1229345","0.0-17.0-3.14","16087","List2A","black","woman","","","","","{""Q0"":""fred is being opposed by luke""}","<img src=""stim_listA/oppose6.gif""style=""height:400px;""></stim_listA>","is being opposed by","","","","","",""
"null","<div style=""font-size:60px;"">+</div>","","html-keyboard-response","286","1229847","0.0-17.0-0.15","16087","List2A","black","woman","","","","null","","","","","","","","",""
"null","<img src=""stim_listA/copy6.gif""style=""height:400px;""></stim_listA>","","html-keyboard-response","287","1231851","0.0-17.0-1.15","16087","List2A","black","woman","","","","null","","","","","","","","",""
"null","is being copied by","","html-keyboard-response","288","1233857","0.0-17.0-2.15","16087","List2A","black","woman","","","","null","","","","","","","","",""
"11687.5","","","survey-text","289","1245545","0.0-17.0-3.15","16087","List2A","black","woman","","","","","{""Q0"":""mike is being copied by luke""}","<img src=""stim_listA/copy6.gif""style=""height:400px;""></stim_listA>","is being copied by","","","","","",""
"null","<div style=""font-size:60px;"">+</div>","","html-keyboard-response","290","1246046","0.0-17.0-0.16","16087","List2A","black","woman","","","","null","","","","","","","","",""
"null","<img src=""stim_listA/touch5.gif""style=""height:400px;""></stim_listA>","","html-keyboard-response","291","1248057","0.0-17.0-1.16","16087","List2A","black","woman","","","","null","","","","","","","","",""
"null","is touching","","html-keyboard-response","292","1250060","0.0-17.0-2.16","16087","List2A","black","woman","","","","null","","","","","","","","",""
"9156","","","survey-text","293","1259218","0.0-17.0-3.16","16087","List2A","black","woman","","","","","{""Q0"":""dave is touching mike""}","<img src=""stim_listA/touch5.gif""style=""height:400px;""></stim_listA>","is touching","","","","","",""
"null","<div style=""font-size:60px;"">+</div>","","html-keyboard-response","294","1259719","0.0-17.0-0.17","16087","List2A","black","woman","","","","null","","","","","","","","",""
"null","<img src=""stim_listA/seduce4.gif""style=""height:400px;""></stim_listA>","","html-keyboard-response","295","1261732","0.0-17.0-1.17","16087","List2A","black","woman","","","","null","","","","","","","","",""
"null","is being seduced by","","html-keyboard-response","296","1263738","0.0-17.0-2.17","16087","List2A","black","woman","","","","null","","","","","","","","",""
"21094","","","survey-text","297","1284834","0.0-17.0-3.17","16087","List2A","black","woman","","","","","{""Q0"":""beth is being seduced by mike""}","<img src=""stim_listA/seduce4.gif""style=""height:400px;""></stim_listA>","is being seduced by","","","","","",""
"null","<div style=""font-size:60px;"">+</div>","","html-keyboard-response","298","1285335","0.0-17.0-0.18","16087","List2A","black","woman","","","","null","","","","","","","","",""
"null","<img src=""stim_listA/look1.gif""style=""height:400px;""></stim_listA>","","html-keyboard-response","299","1287351","0.0-17.0-1.18","16087","List2A","black","woman","","","","null","","","","","","","","",""
"null","is looking at","","html-keyboard-response","300","1289354","0.0-17.0-2.18","16087","List2A","black","woman","","","","null","","","","","","","","",""
"6022.800000011921","","","survey-text","301","1295378","0.0-17.0-3.18","16087","List2A","black","woman","","","","","{""Q0"":""luke is looking at ruth""}","<img src=""stim_listA/look1.gif""style=""height:400px;""></stim_listA>","is looking at","","","","","",""
"null","<div style=""font-size:60px;"">+</div>","","html-keyboard-response","302","1295889","0.0-17.0-0.19","16087","List2A","black","woman","","","","null","","","","","","","","",""
"null","<img src=""stim_listA/hug8.gif""style=""height:400px;""></stim_listA>","","html-keyboard-response","303","1297890","0.0-17.0-1.19","16087","List2A","black","woman","","","","null","","","","","","","","",""
"null","is being hugged by","","html-keyboard-response","304","1299896","0.0-17.0-2.19","16087","List2A","black","woman","","","","null","","","","","","","","",""
"10177.100000023842","","","survey-text","305","1310074","0.0-17.0-3.19","16087","List2A","black","woman","","","","","{""Q0"":""kate is being hugged by jane""}","<img src=""stim_listA/hug8.gif""style=""height:400px;""></stim_listA>","is being hugged by","","","","","",""
"1870.9000000059605","<img src='img/portrait_matrix_list2.jpg' style='width:900px;height:500px;''></img><p>If you have memorised all the portraits and names and are ready to start, press Continue.</p><p><strong>Please note: Your memory of these faces will be tested 4 times during this experiment.</strong></p>","0","html-button-response","306","1311946","0.0-18.0-0.0","16087","List2A","black","woman","","","","","","","","","","","","",""
"1694.699999988079","<img src=""portrait/BM1.jpg""style=""height:400px;""></img>","4","html-button-response","307","1314642","0.0-18.0-1.0","16087","List2A","black","woman","","true","4","","","","","","","","","",""
"null","CORRECT","","html-keyboard-response","308","1316146","0.0-18.0-2.0-0.0","16087","List2A","black","woman","","","","null","","","","","","","","",""
"1727.0999999940395","<img src=""portrait/WW1.jpg""style=""height:400px;""></img>","1","html-button-response","309","1317874","0.0-18.0-4.0","16087","List2A","black","woman","","true","1","","","","","","","","","",""
"null","CORRECT","","html-keyboard-response","310","1319391","0.0-18.0-5.0-0.0","16087","List2A","black","woman","","","","null","","","","","","","","",""
"1481.699999988079","<img src=""portrait/WM1.jpg""style=""height:400px;""></img>","6","html-button-response","311","1320874","0.0-18.0-7.0","16087","List2A","black","woman","","true","6","","","","","","","","","",""
"null","CORRECT","","html-keyboard-response","312","1322379","0.0-18.0-8.0-0.0","16087","List2A","black","woman","","","","null","","","","","","","","",""
"1126.4000000059605","<img src=""portrait/WW2.jpg""style=""height:400px;""></img>","3","html-button-response","313","1323506","0.0-18.0-10.0","16087","List2A","black","woman","","true","3","","","","","","","","","",""
"null","CORRECT","","html-keyboard-response","314","1325022","0.0-18.0-11.0-0.0","16087","List2A","black","woman","","","","null","","","","","","","","",""
"1267.2999999821186","<img src=""portrait/WM2.jpg""style=""height:400px;""></img>","7","html-button-response","315","1326290","0.0-18.0-13.0","16087","List2A","black","woman","","true","7","","","","","","","","","",""
"null","CORRECT","","html-keyboard-response","316","1327809","0.0-18.0-14.0-0.0","16087","List2A","black","woman","","","","null","","","","","","","","",""
"1608.0999999940395","<img src=""portrait/BW2.jpg""style=""height:400px;""></img>","2","html-button-response","317","1329418","0.0-18.0-16.0","16087","List2A","black","woman","","true","2","","","","","","","","","",""
"null","CORRECT","","html-keyboard-response","318","1330940","0.0-18.0-17.0-0.0","16087","List2A","black","woman","","","","null","","","","","","","","",""
"1509.5","<img src=""portrait/BW1.jpg""style=""height:400px;""></img>","0","html-button-response","319","1332450","0.0-18.0-19.0","16087","List2A","black","woman","","true","0","","","","","","","","","",""
"null","CORRECT","","html-keyboard-response","320","1333959","0.0-18.0-20.0-0.0","16087","List2A","black","woman","","","","null","","","","","","","","",""
"1666.199999988079","<img src=""portrait/BM2.jpg""style=""height:400px;""></img>","5","html-button-response","321","1335626","0.0-18.0-22.0","16087","List2A","black","woman","","true","5","","","","","","","","","",""
"null","CORRECT","","html-keyboard-response","322","1337134","0.0-18.0-23.0-0.0","16087","List2A","black","woman","","","","null","","","","","","","","",""
"4578.5999999940395","<p>You got 8 out of 8 right first time. Press Continue.</p>","0","html-button-response","323","1341715","0.0-18.0-25.0","16087","List2A","black","woman","","","","","","","","","","","","",""
"null","<div style=""font-size:60px;"">+</div>","","html-keyboard-response","324","1343218","0.0-19.0-0.0","16087","List2A","black","woman","","","","null","","","","","","","","",""
"null","<img src=""stim_listA/shout8.gif""style=""height:400px;""></stim_listA>","","html-keyboard-response","325","1345230","0.0-19.0-1.0","16087","List2A","black","woman","","","","null","","","","","","","","",""
"null","is being shouted at by","","html-keyboard-response","326","1347234","0.0-19.0-2.0","16087","List2A","black","woman","","","","null","","","","","","","","",""
"16623.40000000596","","","survey-text","327","1363859","0.0-19.0-3.0","16087","List2A","black","woman","","","","","{""Q0"":""kate is being shouted at by jane""}","<img src=""stim_listA/shout8.gif""style=""height:400px;""></stim_listA>","is being shouted at by","","","","","",""
"null","<div style=""font-size:60px;"">+</div>","","html-keyboard-response","328","1364370","0.0-19.0-0.1","16087","List2A","black","woman","","","","null","","","","","","","","",""
"null","<img src=""stim_listA/shout1.gif""style=""height:400px;""></stim_listA>","","html-keyboard-response","329","1366373","0.0-19.0-1.1","16087","List2A","black","woman","","","","null","","","","","","","","",""
"null","is shouting at","","html-keyboard-response","330","1368383","0.0-19.0-2.1","16087","List2A","black","woman","","","","null","","","","","","","","",""
"8043.100000023842","","","survey-text","331","1376427","0.0-19.0-3.1","16087","List2A","black","woman","","","","","{""Q0"":""ruth is shouting at luke""}","<img src=""stim_listA/shout1.gif""style=""height:400px;""></stim_listA>","is shouting at","","","","","",""
"null","<div style=""font-size:60px;"">+</div>","","html-keyboard-response","332","1376942","0.0-19.0-0.2","16087","List2A","black","woman","","","","null","","","","","","","","",""
"null","<img src=""stim_listA/seduce5.gif""style=""height:400px;""></stim_listA>","","html-keyboard-response","333","1378943","0.0-19.0-1.2","16087","List2A","black","woman","","","","null","","","","","","","","",""
"null","is seducing","","html-keyboard-response","334","1380958","0.0-19.0-2.2","16087","List2A","black","woman","","","","null","","","","","","","","",""
"11308","","","survey-text","335","1392267","0.0-19.0-3.2","16087","List2A","black","woman","","","","","{""Q0"":""luke is seducing mike""}","<img src=""stim_listA/seduce5.gif""style=""height:400px;""></stim_listA>","is seducing","","","","","",""
"null","<div style=""font-size:60px;"">+</div>","","html-keyboard-response","336","1392777","0.0-19.0-0.3","16087","List2A","black","woman","","","","null","","","","","","","","",""
"null","<img src=""stim_listA/challenge3.gif""style=""height:400px;""></stim_listA>","","html-keyboard-response","337","1394786","0.0-19.0-1.3","16087","List2A","black","woman","","","","null","","","","","","","","",""
"null","is challenging","","html-keyboard-response","338","1396797","0.0-19.0-2.3","16087","List2A","black","woman","","","","null","","","","","","","","",""
"11517.100000023842","","","survey-text","339","1408317","0.0-19.0-3.3","16087","List2A","black","woman","","","","","{""Q0"":""mike is challenging beth""}","<img src=""stim_listA/challenge3.gif""style=""height:400px;""></stim_listA>","is challenging","","","","","",""
"null","<div style=""font-size:60px;"">+</div>","","html-keyboard-response","340","1408831","0.0-19.0-0.4","16087","List2A","black","woman","","","","null","","","","","","","","",""
"null","<img src=""stim_listA/hug2.gif""style=""height:400px;""></stim_listA>","","html-keyboard-response","341","1410832","0.0-19.0-1.4","16087","List2A","black","woman","","","","null","","","","","","","","",""
"null","is being hugged by","","html-keyboard-response","342","1412837","0.0-19.0-2.4","16087","List2A","black","woman","","","","null","","","","","","","","",""
"12022.700000017881","","","survey-text","343","1424861","0.0-19.0-3.4","16087","List2A","black","woman","","","","","{""Q0"":""jane is being hugged by dave""}","<img src=""stim_listA/hug2.gif""style=""height:400px;""></stim_listA>","is being hugged by","","","","","",""
"null","<div style=""font-size:60px;"">+</div>","","html-keyboard-response","344","1425363","0.0-19.0-0.5","16087","List2A","black","woman","","","","null","","","","","","","","",""
"null","<img src=""stim_listA/seduce2.gif""style=""height:400px;""></stim_listA>","","html-keyboard-response","345","1427364","0.0-19.0-1.5","16087","List2A","black","woman","","","","null","","","","","","","","",""
"null","is being seduced by","","html-keyboard-response","346","1429373","0.0-19.0-2.5","16087","List2A","black","woman","","","","null","","","","","","","","",""
"10262.40000000596","","","survey-text","347","1439637","0.0-19.0-3.5","16087","List2A","black","woman","","","","","{""Q0"":""ruth is being seduced by dave""}","<img src=""stim_listA/seduce2.gif""style=""height:400px;""></stim_listA>","is being seduced by","","","","","",""
"null","<div style=""font-size:60px;"">+</div>","","html-keyboard-response","348","1440138","0.0-19.0-0.6","16087","List2A","black","woman","","","","null","","","","","","","","",""
"null","<img src=""stim_listA/greet1.gif""style=""height:400px;""></stim_listA>","","html-keyboard-response","349","1442152","0.0-19.0-1.6","16087","List2A","black","woman","","","","null","","","","","","","","",""
"null","is greeting","","html-keyboard-response","350","1444159","0.0-19.0-2.6","16087","List2A","black","woman","","","","null","","","","","","","","",""
"10060","","","survey-text","351","1454221","0.0-19.0-3.6","16087","List2A","black","woman","","","","","{""Q0"":""dave is greeting ruth""}","<img src=""stim_listA/greet1.gif""style=""height:400px;""></stim_listA>","is greeting","","","","","",""
"null","<div style=""font-size:60px;"">+</div>","","html-keyboard-response","352","1454722","0.0-19.0-0.7","16087","List2A","black","woman","","","","null","","","","","","","","",""
"null","<img src=""stim_listA/oppose4.gif""style=""height:400px;""></stim_listA>","","html-keyboard-response","353","1456723","0.0-19.0-1.7","16087","List2A","black","woman","","","","null","","","","","","","","",""
"null","is being opposed by","","html-keyboard-response","354","1458736","0.0-19.0-2.7","16087","List2A","black","woman","","","","null","","","","","","","","",""
"13892.100000023842","","","survey-text","355","1472629","0.0-19.0-3.7","16087","List2A","black","woman","","","","","{""Q0"":""beth is being opposed by fred""}","<img src=""stim_listA/oppose4.gif""style=""height:400px;""></stim_listA>","is being opposed by","","","","","",""
"null","<div style=""font-size:60px;"">+</div>","","html-keyboard-response","356","1473130","0.0-19.0-0.8","16087","List2A","black","woman","","","","null","","","","","","","","",""
"null","<img src=""stim_listA/look4.gif""style=""height:400px;""></stim_listA>","","html-keyboard-response","357","1475131","0.0-19.0-1.8","16087","List2A","black","woman","","","","null","","","","","","","","",""
"null","is being looked at by","","html-keyboard-response","358","1477136","0.0-19.0-2.8","16087","List2A","black","woman","","","","null","","","","","","","","",""
"18076","","","survey-text","359","1495213","0.0-19.0-3.8","16087","List2A","black","woman","","","","","{""Q0"":""kate is being looked at by mike""}","<img src=""stim_listA/look4.gif""style=""height:400px;""></stim_listA>","is being looked at by","","","","","",""
"null","<div style=""font-size:60px;"">+</div>","","html-keyboard-response","360","1495714","0.0-19.0-0.9","16087","List2A","black","woman","","","","null","","","","","","","","",""
"null","<img src=""stim_listA/challenge1.gif""style=""height:400px;""></stim_listA>","","html-keyboard-response","361","1497715","0.0-19.0-1.9","16087","List2A","black","woman","","","","null","","","","","","","","",""
"null","is challenging","","html-keyboard-response","362","1499728","0.0-19.0-2.9","16087","List2A","black","woman","","","","null","","","","","","","","",""
"10860.100000023842","","","survey-text","363","1510589","0.0-19.0-3.9","16087","List2A","black","woman","","","","","{""Q0"":""ruth is challenging dave""}","<img src=""stim_listA/challenge1.gif""style=""height:400px;""></stim_listA>","is challenging","","","","","",""
"null","<div style=""font-size:60px;"">+</div>","","html-keyboard-response","364","1511104","0.0-19.0-0.10","16087","List2A","black","woman","","","","null","","","","","","","","",""
"null","<img src=""stim_listA/touch8.gif""style=""height:400px;""></stim_listA>","","html-keyboard-response","365","1513115","0.0-19.0-1.10","16087","List2A","black","woman","","","","null","","","","","","","","",""
"null","is being touched by","","html-keyboard-response","366","1515130","0.0-19.0-2.10","16087","List2A","black","woman","","","","null","","","","","","","","",""
"13225.90000000596","","","survey-text","367","1528358","0.0-19.0-3.10","16087","List2A","black","woman","","","","","{""Q0"":""ruth is being touched by beth""}","<img src=""stim_listA/touch8.gif""style=""height:400px;""></stim_listA>","is being touched by","","","","","",""
"null","<div style=""font-size:60px;"">+</div>","","html-keyboard-response","368","1528859","0.0-19.0-0.11","16087","List2A","black","woman","","","","null","","","","","","","","",""
"null","<img src=""stim_listA/copy3.gif""style=""height:400px;""></stim_listA>","","html-keyboard-response","369","1530860","0.0-19.0-1.11","16087","List2A","black","woman","","","","null","","","","","","","","",""
"null","is copying","","html-keyboard-response","370","1532865","0.0-19.0-2.11","16087","List2A","black","woman","","","","null","","","","","","","","",""
"8723.59999999404","","","survey-text","371","1541590","0.0-19.0-3.11","16087","List2A","black","woman","","","","","{""Q0"":""mike is copying beth""}","<img src=""stim_listA/copy3.gif""style=""height:400px;""></stim_listA>","is copying","","","","","",""
"null","<div style=""font-size:60px;"">+</div>","","html-keyboard-response","372","1542095","0.0-19.0-0.12","16087","List2A","black","woman","","","","null","","","","","","","","",""
"null","<img src=""stim_listA/kiss1.gif""style=""height:400px;""></stim_listA>","","html-keyboard-response","373","1544105","0.0-19.0-1.12","16087","List2A","black","woman","","","","null","","","","","","","","",""
"null","is kissing","","html-keyboard-response","374","1546106","0.0-19.0-2.12","16087","List2A","black","woman","","","","null","","","","","","","","",""
"15650.90000000596","","","survey-text","375","1561758","0.0-19.0-3.12","16087","List2A","black","woman","","","","","{""Q0"":""luke is kissing ruth""}","<img src=""stim_listA/kiss1.gif""style=""height:400px;""></stim_listA>","is kissing","","","","","",""
"null","<div style=""font-size:60px;"">+</div>","","html-keyboard-response","376","1562258","0.0-19.0-0.13","16087","List2A","black","woman","","","","null","","","","","","","","",""
"null","<img src=""stim_listA/look3.gif""style=""height:400px;""></stim_listA>","","html-keyboard-response","377","1564264","0.0-19.0-1.13","16087","List2A","black","woman","","","","null","","","","","","","","",""
"null","is looking at","","html-keyboard-response","378","1566276","0.0-19.0-2.13","16087","List2A","black","woman","","","","null","","","","","","","","",""
"13176.700000017881","","","survey-text","379","1579455","0.0-19.0-3.13","16087","List2A","black","woman","","","","","{""Q0"":""beth is looking at fred""}","<img src=""stim_listA/look3.gif""style=""height:400px;""></stim_listA>","is looking at","","","","","",""
"null","<div style=""font-size:60px;"">+</div>","","html-keyboard-response","380","1579957","0.0-19.0-0.14","16087","List2A","black","woman","","","","null","","","","","","","","",""
"null","<img src=""stim_listA/hug6.gif""style=""height:400px;""></stim_listA>","","html-keyboard-response","381","1581958","0.0-19.0-1.14","16087","List2A","black","woman","","","","null","","","","","","","","",""
"null","is being hugged by","","html-keyboard-response","382","1583967","0.0-19.0-2.14","16087","List2A","black","woman","","","","null","","","","","","","","",""
"7423.5","","","survey-text","383","1591391","0.0-19.0-3.14","16087","List2A","black","woman","","","","","{""Q0"":""dave is being hugged by mike""}","<img src=""stim_listA/hug6.gif""style=""height:400px;""></stim_listA>","is being hugged by","","","","","",""
"null","<div style=""font-size:60px;"">+</div>","","html-keyboard-response","384","1591892","0.0-19.0-0.15","16087","List2A","black","woman","","","","null","","","","","","","","",""
"null","<img src=""stim_listA/seduce7.gif""style=""height:400px;""></stim_listA>","","html-keyboard-response","385","1593894","0.0-19.0-1.15","16087","List2A","black","woman","","","","null","","","","","","","","",""
"null","is seducing","","html-keyboard-response","386","1595903","0.0-19.0-2.15","16087","List2A","black","woman","","","","null","","","","","","","","",""
"8567.200000017881","","","survey-text","387","1604471","0.0-19.0-3.15","16087","List2A","black","woman","","","","","{""Q0"":""ruth is seducing kate""}","<img src=""stim_listA/seduce7.gif""style=""height:400px;""></stim_listA>","is seducing","","","","","",""
"null","<div style=""font-size:60px;"">+</div>","","html-keyboard-response","388","1604973","0.0-19.0-0.16","16087","List2A","black","woman","","","","null","","","","","","","","",""
"null","<img src=""stim_listA/hug5.gif""style=""height:400px;""></stim_listA>","","html-keyboard-response","389","1606986","0.0-19.0-1.16","16087","List2A","black","woman","","","","null","","","","","","","","",""
"null","is hugging","","html-keyboard-response","390","1608990","0.0-19.0-2.16","16087","List2A","black","woman","","","","null","","","","","","","","",""
"11599.40000000596","","","survey-text","391","1620591","0.0-19.0-3.16","16087","List2A","black","woman","","","","","{""Q0"":""luke is hugging fred""}","<img src=""stim_listA/hug5.gif""style=""height:400px;""></stim_listA>","is hugging","","","","","",""
"null","<div style=""font-size:60px;"">+</div>","","html-keyboard-response","392","1621092","0.0-19.0-0.17","16087","List2A","black","woman","","","","null","","","","","","","","",""
"null","<img src=""stim_listA/kiss8.gif""style=""height:400px;""></stim_listA>","","html-keyboard-response","393","1623104","0.0-19.0-1.17","16087","List2A","black","woman","","","","null","","","","","","","","",""
"null","is being kissed by","","html-keyboard-response","394","1625107","0.0-19.0-2.17","16087","List2A","black","woman","","","","null","","","","","","","","",""
"23323.20000001788","","","survey-text","395","1648431","0.0-19.0-3.17","16087","List2A","black","woman","","","","","{""Q0"":""kate is being kissed by jane""}","<img src=""stim_listA/kiss8.gif""style=""height:400px;""></stim_listA>","is being kissed by","","","","","",""
"null","<div style=""font-size:60px;"">+</div>","","html-keyboard-response","396","1648932","0.0-19.0-0.18","16087","List2A","black","woman","","","","null","","","","","","","","",""
"null","<img src=""stim_listA/touch2.gif""style=""height:400px;""></stim_listA>","","html-keyboard-response","397","1650934","0.0-19.0-1.18","16087","List2A","black","woman","","","","null","","","","","","","","",""
"null","is being touched by","","html-keyboard-response","398","1652934","0.0-19.0-2.18","16087","List2A","black","woman","","","","null","","","","","","","","",""
"9039.700000017881","","","survey-text","399","1661975","0.0-19.0-3.18","16087","List2A","black","woman","","","","","{""Q0"":""ruth is being touched by luke""}","<img src=""stim_listA/touch2.gif""style=""height:400px;""></stim_listA>","is being touched by","","","","","",""
"null","<div style=""font-size:60px;"">+</div>","","html-keyboard-response","400","1662477","0.0-19.0-0.19","16087","List2A","black","woman","","","","null","","","","","","","","",""
"null","<img src=""stim_listA/shout3.gif""style=""height:400px;""></stim_listA>","","html-keyboard-response","401","1664478","0.0-19.0-1.19","16087","List2A","black","woman","","","","null","","","","","","","","",""
"null","is shouting at","","html-keyboard-response","402","1666486","0.0-19.0-2.19","16087","List2A","black","woman","","","","null","","","","","","","","",""
"11399.90000000596","","","survey-text","403","1677888","0.0-19.0-3.19","16087","List2A","black","woman","","","","","{""Q0"":""beth is shouting at fred""}","<img src=""stim_listA/shout3.gif""style=""height:400px;""></stim_listA>","is shouting at","","","","","",""
"2406.800000011921","<p>Thank you for completing that task.</p><p>The final part of this session is a questionnaire that will take about 4 minutes.</p><p>Press Continue.</p>","0","html-button-response","404","1680295","0.0-20.0","16087","List2A","black","woman","","","","","","","","","","","","",""
"132301.90000000596","","","survey-text","405","1813603","0.0-21.0","16087","List2A","black","woman","","","","","{""Q0"":""19"",""Q1"":""english"",""Q2"":""english"",""Q3"":""USA"",""Q4"":""USA"",""Q5"":""black"",""Q6"":""woman""}","","","demographics","","","","",""
"2014.4000000059605","<p>Have you lived in the USA for the last 5 years or more?</p>","0","html-button-response","406","1815619","0.0-22.0","16087","List2A","black","woman","","","","","","","","fiveyears","","","","",""
"1950.6000000238419","<p>Move the slider to show the extent to which you agree with the following statements.</p>","0","html-button-response","407","1818579","0.0-23.0","16087","List2A","black","woman","","","","","","","","","","","","",""
"5540.9000000059605","","","html-slider-response","408","1825123","0.0-24.0-0.0-0.0","16087","List2A","black","woman","","","","","","","","survey_gender","95","","","I am similar to the average person of my gender.","similar"
"4934.5","","","html-slider-response","409","1830059","0.0-24.0-0.0-0.1","16087","List2A","black","woman","","","","","","","","survey_gender","90","","","I am glad to be my gender.","glad"
"5110.800000011921","","","html-slider-response","410","1835171","0.0-24.0-0.0-0.2","16087","List2A","black","woman","","","","","","","","survey_gender","61","","","It is not always easy for people to know what I am thinking.","filler"
"2750.7000000178814","","","html-slider-response","411","1837922","0.0-24.0-0.0-0.3","16087","List2A","black","woman","","","","","","","","survey_gender","76","","","My friends understand me.","filler"
"4054.7999999821186","","","html-slider-response","412","1841978","0.0-24.0-0.0-0.4","16087","List2A","black","woman","","","","","","","","survey_gender","83","","","I have a lot in common with my friends.","filler"
"3791","","","html-slider-response","413","1845771","0.0-24.0-0.0-0.5","16087","List2A","black","woman","","","","","","","","survey_gender","70","","","I think that my gender has a lot to be proud of.","proud"
"4118.799999982119","","","html-slider-response","414","1849891","0.0-24.0-0.0-0.6","16087","List2A","black","woman","","","","","","","","survey_gender","78","","","Most of the friends in my life are very similar to me.","filler"
"4246.800000011921","","","html-slider-response","415","1854139","0.0-24.0-0.0-0.7","16087","List2A","black","woman","","","","","","","","survey_gender","54","","","I would say I am an animal person.","filler"
"2926.800000011921","","","html-slider-response","416","1857067","0.0-24.0-0.0-0.8","16087","List2A","black","woman","","","","","","","","survey_gender","100","","","I often think about my actions.","filler"
"3487.100000023842","","","html-slider-response","417","1860555","0.0-24.0-0.0-0.9","16087","List2A","black","woman","","","","","","","","survey_gender","70","","","Being my gender is an important part of how I see myself.","important"
"8846.800000011921","","","html-slider-response","418","1869403","0.0-24.0-0.0-0.10","16087","List2A","black","woman","","","","","","","","survey_gender","53","","","People of my gender have a lot in common with each other.","common"
"3614.800000011921","","","html-slider-response","419","1873019","0.0-24.0-0.0-0.11","16087","List2A","black","woman","","","","","","","","survey_gender","65","","","Being around my friends gives me a good feeling.","filler"
"5055.200000017881","","","html-slider-response","420","1878075","0.0-24.0-0.0-0.12","16087","List2A","black","woman","","","","","","","","survey_gender","66","","","I feel a bond with my gender.","bond"
"2702.699999988079","","","html-slider-response","421","1880779","0.0-24.0-0.0-0.13","16087","List2A","black","woman","","","","","","","","survey_gender","72","","","I feel solidarity with my friends.","filler"
"3967.300000011921","","","html-slider-response","422","1884747","0.0-24.0-0.0-0.14","16087","List2A","black","woman","","","","","","","","survey_gender","80","","","I am glad to have the friends that I have.","filler"
"3966.5999999940395","","","html-slider-response","423","1888715","0.0-24.0-0.0-0.15","16087","List2A","black","woman","","","","","","","","survey_gender","45","","","It is pleasant to be my gender.","pleasant"
"4374.800000011921","","","html-slider-response","424","1893091","0.0-24.0-0.0-0.16","16087","List2A","black","woman","","","","","","","","survey_gender","42","","","I often think about the fact that I am my gender.","often"
"2854.7000000178814","","","html-slider-response","425","1895947","0.0-24.0-0.0-0.17","16087","List2A","black","woman","","","","","","","","survey_gender","57","","","I feel solidarity with my gender.","solidarity"
"5046.800000011921","","","html-slider-response","426","1900995","0.0-24.0-0.0-0.18","16087","List2A","black","woman","","","","","","","","survey_gender","80","","","The fact that I am my gender is an important part of my identity.","identity"
"5214.700000017881","","","html-slider-response","427","1906211","0.0-24.0-0.0-0.19","16087","List2A","black","woman","","","","","","","","survey_gender","61","","","I feel committed to my gender.","committed"
"4878.700000017881","","","html-slider-response","428","1911091","0.0-24.0-0.0-0.20","16087","List2A","black","woman","","","","","","","","survey_gender","65","","","I have a lot in common with the average person of my gender.","average"
"8726.699999988079","","","html-slider-response","429","1919819","0.0-24.0-0.0-0.21","16087","List2A","black","woman","","","","","","","","survey_gender","68","","","Family is not more important to me than friendship.","filler"
"5687.0999999940395","","","html-slider-response","430","1925507","0.0-24.0-0.0-0.22","16087","List2A","black","woman","","","","","","","","survey_gender","45","","","Being my gender gives me a good feeling.","feeling"
"2078.600000023842","","","html-slider-response","431","1927588","0.0-24.0-0.0-0.23","16087","List2A","black","woman","","","","","","","","survey_gender","74","","","I feel a bond with my friends.","filler"
"3551","","","html-slider-response","432","1931140","0.0-24.0-0.0-0.24","16087","List2A","black","woman","","","","","","","","survey_gender","30","","","I consider myself a highly empathetic person.","filler"
"2711","","","html-slider-response","433","1933852","0.0-24.0-0.0-0.25","16087","List2A","black","woman","","","","","","","","survey_gender","70","","","My friends have a lot in common with each other.","filler"
"3838.9000000059605","","","html-slider-response","434","1937692","0.0-24.0-0.0-0.26","16087","List2A","black","woman","","","","","","","","survey_gender","39","","","People of my gender are very similar to each other.","verysimilar"
"4223","","","html-slider-response","435","1941916","0.0-24.0-0.0-0.27","16087","List2A","black","woman","","","","","","","","survey_gender","4","","","Routine is not important to me.","filler"
"5462.699999988079","","","html-slider-response","436","1947380","0.0-24.0-1.0-0.0","16087","List2A","black","woman","","","","","","","","survey_race","77","","","I often think about the fact that I am my age.","filler"
"3062.9000000059605","","","html-slider-response","437","1950444","0.0-24.0-1.0-0.1","16087","List2A","black","woman","","","","","","","","survey_race","98","","","People of my race have a lot in common with each other.","common"
"7078.9000000059605","","","html-slider-response","438","1957524","0.0-24.0-1.0-0.2","16087","List2A","black","woman","","","","","","","","survey_race","28","","","I have a lot in common with people of a similar age to me.","filler"
"2830.800000011921","","","html-slider-response","439","1960356","0.0-24.0-1.0-0.3","16087","List2A","black","woman","","","","","","","","survey_race","100","","","I am glad to be my race.","glad"
"4191","","","html-slider-response","440","1964548","0.0-24.0-1.0-0.4","16087","List2A","black","woman","","","","","","","","survey_race","81","","","The older I get, the wiser I feel.","filler"
"2206.800000011921","","","html-slider-response","441","1966756","0.0-24.0-1.0-0.5","16087","List2A","black","woman","","","","","","","","survey_race","92","","","I consider myself an introvert.","filler"
"3151.100000023842","","","html-slider-response","442","1969908","0.0-24.0-1.0-0.6","16087","List2A","black","woman","","","","","","","","survey_race","20","","","I am glad to be my age.","filler"
"4182.5","","","html-slider-response","443","1974092","0.0-24.0-1.0-0.7","16087","List2A","black","woman","","","","","","","","survey_race","41","","","My age is not an important part of who I am.","filler"
"4526.600000023842","","","html-slider-response","444","1978620","0.0-24.0-1.0-0.8","16087","List2A","black","woman","","","","","","","","survey_race","64","","","People my age have a lot in common with each other.","filler"
"2646.7000000178814","","","html-slider-response","445","1981268","0.0-24.0-1.0-0.9","16087","List2A","black","woman","","","","","","","","survey_race","22","","","Being my age gives me a good feeling.","filler"
"2607.100000023842","","","html-slider-response","446","1983876","0.0-24.0-1.0-0.10","16087","List2A","black","woman","","","","","","","","survey_race","82","","","I think that my race has a lot to be proud of.","proud"
"1895.1000000238419","","","html-slider-response","447","1985772","0.0-24.0-1.0-0.11","16087","List2A","black","woman","","","","","","","","survey_race","83","","","Being my race gives me a good feeling.","feeling"
"2327","","","html-slider-response","448","1988100","0.0-24.0-1.0-0.12","16087","List2A","black","woman","","","","","","","","survey_race","83","","","People of my race are very similar to each other.","verysimilar"
"2350.9000000059605","","","html-slider-response","449","1990452","0.0-24.0-1.0-0.13","16087","List2A","black","woman","","","","","","","","survey_race","17","","","I consider myself an extrovert.","filler"
"4159.100000023842","","","html-slider-response","450","1994613","0.0-24.0-1.0-0.14","16087","List2A","black","woman","","","","","","","","survey_race","46","","","I often think about the fact that I am my race.","often"
"4446.800000011921","","","html-slider-response","451","1999061","0.0-24.0-1.0-0.15","16087","List2A","black","woman","","","","","","","","survey_race","59","","","It is pleasant to be my race.","pleasant"
"3070.800000011921","","","html-slider-response","452","2002133","0.0-24.0-1.0-0.16","16087","List2A","black","woman","","","","","","","","survey_race","98","","","The fact that I am my race is an important part of my identity.","identity"
"2382.800000011921","","","html-slider-response","453","2004517","0.0-24.0-1.0-0.17","16087","List2A","black","woman","","","","","","","","survey_race","85","","","I feel a bond with my race.","bond"
"3375","","","html-slider-response","454","2007892","0.0-24.0-1.0-0.18","16087","List2A","black","woman","","","","","","","","survey_race","7","","","I am glad to be the age I am.","filler"
"2063.300000011921","","","html-slider-response","455","2009957","0.0-24.0-1.0-0.19","16087","List2A","black","woman","","","","","","","","survey_race","75","","","I feel solidarity with my race.","solidarity"
"3119","","","html-slider-response","456","2013077","0.0-24.0-1.0-0.20","16087","List2A","black","woman","","","","","","","","survey_race","17","","","Getting older does not worry me.","filler"
"4567.200000017881","","","html-slider-response","457","2017645","0.0-24.0-1.0-0.21","16087","List2A","black","woman","","","","","","","","survey_race","27","","","I enjoy being in large groups.","filler"
"2470.9000000059605","","","html-slider-response","458","2020117","0.0-24.0-1.0-0.22","16087","List2A","black","woman","","","","","","","","survey_race","56","","","I feel committed to my race.","committed"
"4270.800000011921","","","html-slider-response","459","2024389","0.0-24.0-1.0-0.23","16087","List2A","black","woman","","","","","","","","survey_race","79","","","I have a lot in common with the average person of my race.","average"
"2991","","","html-slider-response","460","2027381","0.0-24.0-1.0-0.24","16087","List2A","black","woman","","","","","","","","survey_race","33","","","I feel solidarity with people the same age as me.","filler"
"4423","","","html-slider-response","461","2031805","0.0-24.0-1.0-0.25","16087","List2A","black","woman","","","","","","","","survey_race","78","","","I am similar to the average person of my race.","similar"
"3486.800000011921","","","html-slider-response","462","2035293","0.0-24.0-1.0-0.26","16087","List2A","black","woman","","","","","","","","survey_race","79","","","Being my race is an important part of how I see myself.","important"
"5662.700000017881","","","html-slider-response","463","2040956","0.0-24.0-1.0-0.27","16087","List2A","black","woman","","","","","","","","survey_race","57","","","I feel a bond with people the same age as me.","filler"
"8742.300000011921","","","survey-text","464","2049701","0.0-25.0","16087","List2A","black","woman","","","","","{""Q0"":""6101ceb34a3a20c05e35511d""}","","","worker_id","","","","",""
"30264.59999999404","","","external-html","465","2080166","0.0-26.0","16087","List2A","black","woman","debrief.html","","","","","","","","","","","",""
