"rt","stimulus","button_pressed","trial_type","trial_index","time_elapsed","internal_node_id","subject","list","ppt_race","ppt_gender","url","first_guess","correct","key_press","responses","image_type","phrase_type","test_part","response","stimulus1","stimulus2","question_type","survey_item"
"3529","Welcome to the experiment. Press Continue to begin.","0","html-button-response","0","3535","0.0-0.0","16123","List1B","black","woman","","","","","","","","","","","","",""
"41644","","","external-html","1","46396","0.0-1.0","16123","List1B","black","woman","consent.html","","","","","","","","","","","",""
"2574","<p>On the next page, you will see portraits of 8 people and their names.</p><p>Your first task is to take a few minutes to memorise the names of these people.</p><p>You will have to recall their names during the rest of the experiment, so it is</p><p>essential that you try to memorise these people and their names as best as you can.</p><br><p><strong>You will then be tested on your memory of these names and portraits.</strong></p><br><p>The experiment will start after you have completed this memory test.</p><br><p>Ready?</p>","0","html-button-response","2","48971","0.0-2.0","16123","List1B","black","woman","","","","","","","","","","","","",""
"52087","<img src='img/portrait_matrix_list1.jpg' style='width:900px;height:500px;''></img><p>If you have memorised all the portraits and names and are ready to start, press Continue.</p><p><strong>Please note: Your memory of these faces will be tested 4 times during this experiment.</strong></p>","0","html-button-response","3","102063","0.0-3.0-0.0","16123","List1B","black","woman","","","","","","","","","","","","",""
"4745","<img src=""portrait/BW1.jpg""style=""height:400px;""></img>","2","html-button-response","4","107812","0.0-3.0-1.0","16123","List1B","black","woman","","true","0","","","","","","","","","",""
"7794","<img src=""portrait/BW1.jpg""style=""height:400px;""></img>","0","html-button-response","5","116612","0.0-3.0-3.0-0.0","16123","List1B","black","woman","","false","0","","","","","","","","","",""
"null","CORRECT","","html-keyboard-response","6","118120","0.0-3.0-3.0-1.0-0.0","16123","List1B","black","woman","","","","null","","","","","","","","",""
"3522","<img src=""portrait/BW2.jpg""style=""height:400px;""></img>","2","html-button-response","7","121645","0.0-3.0-4.0","16123","List1B","black","woman","","true","2","","","","","","","","","",""
"null","CORRECT","","html-keyboard-response","8","123149","0.0-3.0-5.0-0.0","16123","List1B","black","woman","","","","null","","","","","","","","",""
"2292.9999999999854","<img src=""portrait/WW2.jpg""style=""height:400px;""></img>","3","html-button-response","9","125446","0.0-3.0-7.0","16123","List1B","black","woman","","true","3","","","","","","","","","",""
"null","CORRECT","","html-keyboard-response","10","126950","0.0-3.0-8.0-0.0","16123","List1B","black","woman","","","","null","","","","","","","","",""
"3542.0000000000146","<img src=""portrait/WW1.jpg""style=""height:400px;""></img>","1","html-button-response","11","130495","0.0-3.0-10.0","16123","List1B","black","woman","","true","1","","","","","","","","","",""
"null","CORRECT","","html-keyboard-response","12","131999","0.0-3.0-11.0-0.0","16123","List1B","black","woman","","","","null","","","","","","","","",""
"2576.000000000029","<img src=""portrait/BM1.jpg""style=""height:400px;""></img>","4","html-button-response","13","134579","0.0-3.0-13.0","16123","List1B","black","woman","","true","4","","","","","","","","","",""
"null","CORRECT","","html-keyboard-response","14","136083","0.0-3.0-14.0-0.0","16123","List1B","black","woman","","","","null","","","","","","","","",""
"3409","<img src=""portrait/WM1.jpg""style=""height:400px;""></img>","6","html-button-response","15","139496","0.0-3.0-16.0","16123","List1B","black","woman","","true","6","","","","","","","","","",""
"null","CORRECT","","html-keyboard-response","16","141000","0.0-3.0-17.0-0.0","16123","List1B","black","woman","","","","null","","","","","","","","",""
"2409","<img src=""portrait/WM2.jpg""style=""height:400px;""></img>","7","html-button-response","17","143413","0.0-3.0-19.0","16123","List1B","black","woman","","true","7","","","","","","","","","",""
"null","CORRECT","","html-keyboard-response","18","144916","0.0-3.0-20.0-0.0","16123","List1B","black","woman","","","","null","","","","","","","","",""
"3594","<img src=""portrait/BM2.jpg""style=""height:400px;""></img>","5","html-button-response","19","148513","0.0-3.0-22.0","16123","List1B","black","woman","","true","5","","","","","","","","","",""
"null","CORRECT","","html-keyboard-response","20","150017","0.0-3.0-23.0-0.0","16123","List1B","black","woman","","","","null","","","","","","","","",""
"1726","<p>You got 7 out of 8 right first time. Press Continue.</p>","0","html-button-response","21","151746","0.0-3.0-25.0","16123","List1B","black","woman","","","","","","","","","","","","",""
"2798","As you did not score 100%, the memory game will repeat. Press Continue.","0","html-button-response","22","155547","0.0-3.0-26.0-0.0","16123","List1B","black","woman","","","","","","","","","","","","",""
"3276.000000000029","<img src='img/portrait_matrix_list1.jpg' style='width:900px;height:500px;''></img><p>If you have memorised all the portraits and names and are ready to start, press Continue.</p><p><strong>Please note: Your memory of these faces will be tested 4 times during this experiment.</strong></p>","0","html-button-response","23","159829","0.0-3.1-0.1","16123","List1B","black","woman","","","","","","","","","","","","",""
"2663","<img src=""portrait/BW1.jpg""style=""height:400px;""></img>","0","html-button-response","24","163496","0.0-3.1-1.1","16123","List1B","black","woman","","true","0","","","","","","","","","",""
"null","CORRECT","","html-keyboard-response","25","165000","0.0-3.1-2.1-0.1","16123","List1B","black","woman","","","","null","","","","","","","","",""
"1677.000000000029","<img src=""portrait/BW2.jpg""style=""height:400px;""></img>","2","html-button-response","26","166680","0.0-3.1-4.1","16123","List1B","black","woman","","true","2","","","","","","","","","",""
"null","CORRECT","","html-keyboard-response","27","168185","0.0-3.1-5.1-0.1","16123","List1B","black","woman","","","","null","","","","","","","","",""
"1359","<img src=""portrait/WW2.jpg""style=""height:400px;""></img>","3","html-button-response","28","169548","0.0-3.1-7.1","16123","List1B","black","woman","","true","3","","","","","","","","","",""
"null","CORRECT","","html-keyboard-response","29","171052","0.0-3.1-8.1-0.1","16123","List1B","black","woman","","","","null","","","","","","","","",""
"3244","<img src=""portrait/WW1.jpg""style=""height:400px;""></img>","1","html-button-response","30","174298","0.0-3.1-10.1","16123","List1B","black","woman","","true","1","","","","","","","","","",""
"null","CORRECT","","html-keyboard-response","31","175802","0.0-3.1-11.1-0.1","16123","List1B","black","woman","","","","null","","","","","","","","",""
"2058.999999999971","<img src=""portrait/BM1.jpg""style=""height:400px;""></img>","4","html-button-response","32","177865","0.0-3.1-13.1","16123","List1B","black","woman","","true","4","","","","","","","","","",""
"null","CORRECT","","html-keyboard-response","33","179369","0.0-3.1-14.1-0.1","16123","List1B","black","woman","","","","null","","","","","","","","",""
"1476.999999999971","<img src=""portrait/WM1.jpg""style=""height:400px;""></img>","6","html-button-response","34","180849","0.0-3.1-16.1","16123","List1B","black","woman","","true","6","","","","","","","","","",""
"null","CORRECT","","html-keyboard-response","35","182353","0.0-3.1-17.1-0.1","16123","List1B","black","woman","","","","null","","","","","","","","",""
"1159","<img src=""portrait/WM2.jpg""style=""height:400px;""></img>","7","html-button-response","36","183515","0.0-3.1-19.1","16123","List1B","black","woman","","true","7","","","","","","","","","",""
"null","CORRECT","","html-keyboard-response","37","185019","0.0-3.1-20.1-0.1","16123","List1B","black","woman","","","","null","","","","","","","","",""
"1660","<img src=""portrait/BM2.jpg""style=""height:400px;""></img>","5","html-button-response","38","186682","0.0-3.1-22.1","16123","List1B","black","woman","","true","5","","","","","","","","","",""
"null","CORRECT","","html-keyboard-response","39","188186","0.0-3.1-23.1-0.1","16123","List1B","black","woman","","","","null","","","","","","","","",""
"1193","<p>You got 8 out of 8 right first time. Press Continue.</p>","0","html-button-response","40","189382","0.0-3.1-25.1","16123","List1B","black","woman","","","","","","","","","","","","",""
"14783.00000000003","<p>In this experiment, you will view photographs of the people from the memory game interacting.</p><p>By using the <strong>exact</strong> phrase given <i>after</i> the photograph appears and recalling the correct names of the people in the photographs, form a sentence describing the interaction. You do not need to capitalise names.</p><p>Type your answer in the space provided. Please complete every sentence before moving onto the next trial.</p><p>You will only have a few seconds to memorise each given photograph and phrase before you can respond, so try your best to focus.</p><p>An example is given below. Press 'Continue' when you are ready.</p><img src='img/speaking_example.jpg' style='width:800px;height:460px;''></img>","0","html-button-response","41","205169","0.0-4.0","16123","List1B","black","woman","","","","","","","","","","","","",""
"2178","<p>Before the experiment starts, you will watch two example trials. Press 'Continue'.</p>","0","html-button-response","42","208350","0.0-5.0","16123","List1B","black","woman","","","","","","","","","","","","",""
"null","<img src='img/play_eg.gif' style='height:400px;''></img>","","html-keyboard-response","43","211354","0.0-6.0","16123","List1B","black","woman","","","","null","","","","","","","","",""
"null","<p>is playing with</p>","","html-keyboard-response","44","213357","0.0-7.0","16123","List1B","black","woman","","","","null","","","","","","","","",""
"2741","<p><b>Answer:</b> kate is playing with beth</p>","0","html-button-response","45","216100","0.0-8.0","16123","List1B","black","woman","","","","","","","","","","","","",""
"null","<img src='img/dance_eg.gif' style='height:400px;''></img>","","html-keyboard-response","46","219105","0.0-9.0","16123","List1B","black","woman","","","","null","","","","","","","","",""
"null","<p>is being entertained by</p>","","html-keyboard-response","47","221107","0.0-10.0","16123","List1B","black","woman","","","","null","","","","","","","","",""
"5326","<p><b>Answer:</b> luke is being entertained by dave</p>","0","html-button-response","48","226435","0.0-11.0","16123","List1B","black","woman","","","","","","","","","","","","",""
"4264","<p>Ready to start the experiment?</p><br><p><strong>Remember to describe the picture using a full sentence,</strong></p><p><strong>that combines the names of the people with the <i>exact</i> phrase given.</strong></p><p><strong>To receive full payment you must do this correctly.</strong></p><p><strong> You do not need to capitalise names or use punctuation.</strong></p><br><p>Press 'Continue' to begin.</p>","0","html-button-response","49","231702","0.0-12.0","16123","List1B","black","woman","","","","","","","","","","","","",""
"null","<div style=""font-size:60px;"">+</div>","","html-keyboard-response","50","233206","0.0-13.0-0.0","16123","List1B","black","woman","","","","null","","","","","","","","",""
"null","<img src=""stim_listB/kiss5.gif""style=""height:400px;""></stim_listB>","","html-keyboard-response","51","235211","0.0-13.0-1.0","16123","List1B","black","woman","","","","null","","","","","","","","",""
"null","is kissing","","html-keyboard-response","52","237213","0.0-13.0-2.0","16123","List1B","black","woman","","","","null","","","","","","","","",""
"11513","","","survey-text","53","248751","0.0-13.0-3.0","16123","List1B","black","woman","","","","","{""Q0"":""Fred is kissing Luke ""}","<img src=""stim_listB/kiss5.gif""style=""height:400px;""></stim_listB>","is kissing","","","","","",""
"null","<div style=""font-size:60px;"">+</div>","","html-keyboard-response","54","249254","0.0-13.0-0.1","16123","List1B","black","woman","","","","null","","","","","","","","",""
"null","<img src=""stim_listB/touch2.gif""style=""height:400px;""></stim_listB>","","html-keyboard-response","55","251258","0.0-13.0-1.1","16123","List1B","black","woman","","","","null","","","","","","","","",""
"null","is being touched by","","html-keyboard-response","56","253261","0.0-13.0-2.1","16123","List1B","black","woman","","","","null","","","","","","","","",""
"9964.99999999997","","","survey-text","57","263243","0.0-13.0-3.1","16123","List1B","black","woman","","","","","{""Q0"":""Fred is being touched by Beth ""}","<img src=""stim_listB/touch2.gif""style=""height:400px;""></stim_listB>","is being touched by","","","","","",""
"null","<div style=""font-size:60px;"">+</div>","","html-keyboard-response","58","263746","0.0-13.0-0.2","16123","List1B","black","woman","","","","null","","","","","","","","",""
"null","<img src=""stim_listB/oppose1.gif""style=""height:400px;""></stim_listB>","","html-keyboard-response","59","265750","0.0-13.0-1.2","16123","List1B","black","woman","","","","null","","","","","","","","",""
"null","is opposing","","html-keyboard-response","60","267753","0.0-13.0-2.2","16123","List1B","black","woman","","","","null","","","","","","","","",""
"6667","","","survey-text","61","274427","0.0-13.0-3.2","16123","List1B","black","woman","","","","","{""Q0"":""Mike is opposing kate""}","<img src=""stim_listB/oppose1.gif""style=""height:400px;""></stim_listB>","is opposing","","","","","",""
"null","<div style=""font-size:60px;"">+</div>","","html-keyboard-response","62","274930","0.0-13.0-0.3","16123","List1B","black","woman","","","","null","","","","","","","","",""
"null","<img src=""stim_listB/challenge1.gif""style=""height:400px;""></stim_listB>","","html-keyboard-response","63","276934","0.0-13.0-1.3","16123","List1B","black","woman","","","","null","","","","","","","","",""
"null","is challenging","","html-keyboard-response","64","278938","0.0-13.0-2.3","16123","List1B","black","woman","","","","null","","","","","","","","",""
"8053","","","survey-text","65","286999","0.0-13.0-3.3","16123","List1B","black","woman","","","","","{""Q0"":""Mike is challenging beth""}","<img src=""stim_listB/challenge1.gif""style=""height:400px;""></stim_listB>","is challenging","","","","","",""
"null","<div style=""font-size:60px;"">+</div>","","html-keyboard-response","66","287501","0.0-13.0-0.4","16123","List1B","black","woman","","","","null","","","","","","","","",""
"null","<img src=""stim_listB/shout2.gif""style=""height:400px;""></stim_listB>","","html-keyboard-response","67","289505","0.0-13.0-1.4","16123","List1B","black","woman","","","","null","","","","","","","","",""
"null","is being shouted at by","","html-keyboard-response","68","291508","0.0-13.0-2.4","16123","List1B","black","woman","","","","null","","","","","","","","",""
"7413","","","survey-text","69","298928","0.0-13.0-3.4","16123","List1B","black","woman","","","","","{""Q0"":""Mike is being shouted at by kate""}","<img src=""stim_listB/shout2.gif""style=""height:400px;""></stim_listB>","is being shouted at by","","","","","",""
"null","<div style=""font-size:60px;"">+</div>","","html-keyboard-response","70","299432","0.0-13.0-0.5","16123","List1B","black","woman","","","","null","","","","","","","","",""
"null","<img src=""stim_listB/challenge8.gif""style=""height:400px;""></stim_listB>","","html-keyboard-response","71","301435","0.0-13.0-1.5","16123","List1B","black","woman","","","","null","","","","","","","","",""
"null","is being challenged by","","html-keyboard-response","72","303439","0.0-13.0-2.5","16123","List1B","black","woman","","","","null","","","","","","","","",""
"8083","","","survey-text","73","311530","0.0-13.0-3.5","16123","List1B","black","woman","","","","","{""Q0"":""Jane is being challenged by Beth ""}","<img src=""stim_listB/challenge8.gif""style=""height:400px;""></stim_listB>","is being challenged by","","","","","",""
"null","<div style=""font-size:60px;"">+</div>","","html-keyboard-response","74","312032","0.0-13.0-0.6","16123","List1B","black","woman","","","","null","","","","","","","","",""
"null","<img src=""stim_listB/oppose3.gif""style=""height:400px;""></stim_listB>","","html-keyboard-response","75","314038","0.0-13.0-1.6","16123","List1B","black","woman","","","","null","","","","","","","","",""
"null","is opposing","","html-keyboard-response","76","316041","0.0-13.0-2.6","16123","List1B","black","woman","","","","null","","","","","","","","",""
"13531.000000000058","","","survey-text","77","329580","0.0-13.0-3.6","16123","List1B","black","woman","","","","","{""Q0"":""Dave is opposing jane""}","<img src=""stim_listB/oppose3.gif""style=""height:400px;""></stim_listB>","is opposing","","","","","",""
"null","<div style=""font-size:60px;"">+</div>","","html-keyboard-response","78","330083","0.0-13.0-0.7","16123","List1B","black","woman","","","","null","","","","","","","","",""
"null","<img src=""stim_listB/kiss2.gif""style=""height:400px;""></stim_listB>","","html-keyboard-response","79","332086","0.0-13.0-1.7","16123","List1B","black","woman","","","","null","","","","","","","","",""
"null","is being kissed by","","html-keyboard-response","80","334090","0.0-13.0-2.7","16123","List1B","black","woman","","","","null","","","","","","","","",""
"10222.999999999942","","","survey-text","81","344319","0.0-13.0-3.7","16123","List1B","black","woman","","","","","{""Q0"":""Mike is being kissed by kate""}","<img src=""stim_listB/kiss2.gif""style=""height:400px;""></stim_listB>","is being kissed by","","","","","",""
"null","<div style=""font-size:60px;"">+</div>","","html-keyboard-response","82","344822","0.0-13.0-0.8","16123","List1B","black","woman","","","","null","","","","","","","","",""
"null","<img src=""stim_listB/shout5.gif""style=""height:400px;""></stim_listB>","","html-keyboard-response","83","346826","0.0-13.0-1.8","16123","List1B","black","woman","","","","null","","","","","","","","",""
"null","is shouting at","","html-keyboard-response","84","348830","0.0-13.0-2.8","16123","List1B","black","woman","","","","null","","","","","","","","",""
"7962","","","survey-text","85","356800","0.0-13.0-3.8","16123","List1B","black","woman","","","","","{""Q0"":""Fred is shouting at luke""}","<img src=""stim_listB/shout5.gif""style=""height:400px;""></stim_listB>","is shouting at","","","","","",""
"null","<div style=""font-size:60px;"">+</div>","","html-keyboard-response","86","357302","0.0-13.0-0.9","16123","List1B","black","woman","","","","null","","","","","","","","",""
"null","<img src=""stim_listB/seduce5.gif""style=""height:400px;""></stim_listB>","","html-keyboard-response","87","359305","0.0-13.0-1.9","16123","List1B","black","woman","","","","null","","","","","","","","",""
"null","is seducing","","html-keyboard-response","88","361309","0.0-13.0-2.9","16123","List1B","black","woman","","","","null","","","","","","","","",""
"10936","","","survey-text","89","372252","0.0-13.0-3.9","16123","List1B","black","woman","","","","","{""Q0"":""Fred is seducing Dave ""}","<img src=""stim_listB/seduce5.gif""style=""height:400px;""></stim_listB>","is seducing","","","","","",""
"null","<div style=""font-size:60px;"">+</div>","","html-keyboard-response","90","372755","0.0-13.0-0.10","16123","List1B","black","woman","","","","null","","","","","","","","",""
"null","<img src=""stim_listB/shout4.gif""style=""height:400px;""></stim_listB>","","html-keyboard-response","91","374758","0.0-13.0-1.10","16123","List1B","black","woman","","","","null","","","","","","","","",""
"null","is being shouted at by","","html-keyboard-response","92","376761","0.0-13.0-2.10","16123","List1B","black","woman","","","","null","","","","","","","","",""
"9756","","","survey-text","93","386524","0.0-13.0-3.10","16123","List1B","black","woman","","","","","{""Q0"":""Dave is being shouted at by jane""}","<img src=""stim_listB/shout4.gif""style=""height:400px;""></stim_listB>","is being shouted at by","","","","","",""
"null","<div style=""font-size:60px;"">+</div>","","html-keyboard-response","94","387026","0.0-13.0-0.11","16123","List1B","black","woman","","","","null","","","","","","","","",""
"null","<img src=""stim_listB/copy7.gif""style=""height:400px;""></stim_listB>","","html-keyboard-response","95","389030","0.0-13.0-1.11","16123","List1B","black","woman","","","","null","","","","","","","","",""
"null","is copying","","html-keyboard-response","96","391033","0.0-13.0-2.11","16123","List1B","black","woman","","","","null","","","","","","","","",""
"20050","","","survey-text","97","411090","0.0-13.0-3.11","16123","List1B","black","woman","","","","","{""Q0"":""Kate is I forgot by jane""}","<img src=""stim_listB/copy7.gif""style=""height:400px;""></stim_listB>","is copying","","","","","",""
"null","<div style=""font-size:60px;"">+</div>","","html-keyboard-response","98","411592","0.0-13.0-0.12","16123","List1B","black","woman","","","","null","","","","","","","","",""
"null","<img src=""stim_listB/kiss8.gif""style=""height:400px;""></stim_listB>","","html-keyboard-response","99","413596","0.0-13.0-1.12","16123","List1B","black","woman","","","","null","","","","","","","","",""
"null","is being kissed by","","html-keyboard-response","100","415599","0.0-13.0-2.12","16123","List1B","black","woman","","","","null","","","","","","","","",""
"6779","","","survey-text","101","422386","0.0-13.0-3.12","16123","List1B","black","woman","","","","","{""Q0"":""Kate is being kissed by jane""}","<img src=""stim_listB/kiss8.gif""style=""height:400px;""></stim_listB>","is being kissed by","","","","","",""
"null","<div style=""font-size:60px;"">+</div>","","html-keyboard-response","102","422891","0.0-13.0-0.13","16123","List1B","black","woman","","","","null","","","","","","","","",""
"null","<img src=""stim_listB/challenge5.gif""style=""height:400px;""></stim_listB>","","html-keyboard-response","103","424895","0.0-13.0-1.13","16123","List1B","black","woman","","","","null","","","","","","","","",""
"null","is challenging","","html-keyboard-response","104","426899","0.0-13.0-2.13","16123","List1B","black","woman","","","","null","","","","","","","","",""
"6438","","","survey-text","105","433344","0.0-13.0-3.13","16123","List1B","black","woman","","","","","{""Q0"":""Mike is challenging luke""}","<img src=""stim_listB/challenge5.gif""style=""height:400px;""></stim_listB>","is challenging","","","","","",""
"null","<div style=""font-size:60px;"">+</div>","","html-keyboard-response","106","433846","0.0-13.0-0.14","16123","List1B","black","woman","","","","null","","","","","","","","",""
"null","<img src=""stim_listB/greet3.gif""style=""height:400px;""></stim_listB>","","html-keyboard-response","107","435848","0.0-13.0-1.14","16123","List1B","black","woman","","","","null","","","","","","","","",""
"null","is greeting","","html-keyboard-response","108","437852","0.0-13.0-2.14","16123","List1B","black","woman","","","","null","","","","","","","","",""
"5961","","","survey-text","109","443820","0.0-13.0-3.14","16123","List1B","black","woman","","","","","{""Q0"":""Jane is greeting dave""}","<img src=""stim_listB/greet3.gif""style=""height:400px;""></stim_listB>","is greeting","","","","","",""
"null","<div style=""font-size:60px;"">+</div>","","html-keyboard-response","110","444322","0.0-13.0-0.15","16123","List1B","black","woman","","","","null","","","","","","","","",""
"null","<img src=""stim_listB/kiss1.gif""style=""height:400px;""></stim_listB>","","html-keyboard-response","111","446326","0.0-13.0-1.15","16123","List1B","black","woman","","","","null","","","","","","","","",""
"null","is kissing","","html-keyboard-response","112","448330","0.0-13.0-2.15","16123","List1B","black","woman","","","","null","","","","","","","","",""
"20785.00000000006","","","survey-text","113","469123","0.0-13.0-3.15","16123","List1B","black","woman","","","","","{""Q0"":""Ruth is kissing Fred ""}","<img src=""stim_listB/kiss1.gif""style=""height:400px;""></stim_listB>","is kissing","","","","","",""
"null","<div style=""font-size:60px;"">+</div>","","html-keyboard-response","114","469626","0.0-13.0-0.16","16123","List1B","black","woman","","","","null","","","","","","","","",""
"null","<img src=""stim_listB/look2.gif""style=""height:400px;""></stim_listB>","","html-keyboard-response","115","471630","0.0-13.0-1.16","16123","List1B","black","woman","","","","null","","","","","","","","",""
"null","is being looked at by","","html-keyboard-response","116","473633","0.0-13.0-2.16","16123","List1B","black","woman","","","","null","","","","","","","","",""
"6651","","","survey-text","117","480291","0.0-13.0-3.16","16123","List1B","black","woman","","","","","{""Q0"":""Kate is being looked at by mike""}","<img src=""stim_listB/look2.gif""style=""height:400px;""></stim_listB>","is being looked at by","","","","","",""
"null","<div style=""font-size:60px;"">+</div>","","html-keyboard-response","118","480794","0.0-13.0-0.17","16123","List1B","black","woman","","","","null","","","","","","","","",""
"null","<img src=""stim_listB/shout6.gif""style=""height:400px;""></stim_listB>","","html-keyboard-response","119","482797","0.0-13.0-1.17","16123","List1B","black","woman","","","","null","","","","","","","","",""
"null","is being shouted at by","","html-keyboard-response","120","484800","0.0-13.0-2.17","16123","List1B","black","woman","","","","null","","","","","","","","",""
"6604.999999999942","","","survey-text","121","491413","0.0-13.0-3.17","16123","List1B","black","woman","","","","","{""Q0"":""Dave is being shouted at by mike""}","<img src=""stim_listB/shout6.gif""style=""height:400px;""></stim_listB>","is being shouted at by","","","","","",""
"null","<div style=""font-size:60px;"">+</div>","","html-keyboard-response","122","491916","0.0-13.0-0.18","16123","List1B","black","woman","","","","null","","","","","","","","",""
"null","<img src=""stim_listB/hug2.gif""style=""height:400px;""></stim_listB>","","html-keyboard-response","123","493919","0.0-13.0-1.18","16123","List1B","black","woman","","","","null","","","","","","","","",""
"null","is being hugged by","","html-keyboard-response","124","495923","0.0-13.0-2.18","16123","List1B","black","woman","","","","null","","","","","","","","",""
"6079.000000000058","","","survey-text","125","502010","0.0-13.0-3.18","16123","List1B","black","woman","","","","","{""Q0"":""Mike is being hugged by kate""}","<img src=""stim_listB/hug2.gif""style=""height:400px;""></stim_listB>","is being hugged by","","","","","",""
"null","<div style=""font-size:60px;"">+</div>","","html-keyboard-response","126","502513","0.0-13.0-0.19","16123","List1B","black","woman","","","","null","","","","","","","","",""
"null","<img src=""stim_listB/copy4.gif""style=""height:400px;""></stim_listB>","","html-keyboard-response","127","504516","0.0-13.0-1.19","16123","List1B","black","woman","","","","null","","","","","","","","",""
"null","is being copied by","","html-keyboard-response","128","506520","0.0-13.0-2.19","16123","List1B","black","woman","","","","null","","","","","","","","",""
"8033.000000000058","","","survey-text","129","514559","0.0-13.0-3.19","16123","List1B","black","woman","","","","","{""Q0"":""Jane is being copied by luke""}","<img src=""stim_listB/copy4.gif""style=""height:400px;""></stim_listB>","is being copied by","","","","","",""
"16192","<img src='img/portrait_matrix_list1.jpg' style='width:900px;height:500px;''></img><p>If you have memorised all the portraits and names and are ready to start, press Continue.</p><p><strong>Please note: Your memory of these faces will be tested 4 times during this experiment.</strong></p>","0","html-button-response","130","530754","0.0-14.0-0.0","16123","List1B","black","woman","","","","","","","","","","","","",""
"4347","<img src=""portrait/BM2.jpg""style=""height:400px;""></img>","5","html-button-response","131","536107","0.0-14.0-1.0","16123","List1B","black","woman","","true","5","","","","","","","","","",""
"null","CORRECT","","html-keyboard-response","132","537611","0.0-14.0-2.0-0.0","16123","List1B","black","woman","","","","null","","","","","","","","",""
"1889","<img src=""portrait/BW2.jpg""style=""height:400px;""></img>","2","html-button-response","133","539504","0.0-14.0-4.0","16123","List1B","black","woman","","true","2","","","","","","","","","",""
"null","CORRECT","","html-keyboard-response","134","541009","0.0-14.0-5.0-0.0","16123","List1B","black","woman","","","","null","","","","","","","","",""
"2792","<img src=""portrait/WW2.jpg""style=""height:400px;""></img>","3","html-button-response","135","543805","0.0-14.0-7.0","16123","List1B","black","woman","","true","3","","","","","","","","","",""
"null","CORRECT","","html-keyboard-response","136","545309","0.0-14.0-8.0-0.0","16123","List1B","black","woman","","","","null","","","","","","","","",""
"2028","<img src=""portrait/WM1.jpg""style=""height:400px;""></img>","6","html-button-response","137","547342","0.0-14.0-10.0","16123","List1B","black","woman","","true","6","","","","","","","","","",""
"null","CORRECT","","html-keyboard-response","138","548845","0.0-14.0-11.0-0.0","16123","List1B","black","woman","","","","null","","","","","","","","",""
"1590","<img src=""portrait/BM1.jpg""style=""height:400px;""></img>","4","html-button-response","139","550439","0.0-14.0-13.0","16123","List1B","black","woman","","true","4","","","","","","","","","",""
"null","CORRECT","","html-keyboard-response","140","551943","0.0-14.0-14.0-0.0","16123","List1B","black","woman","","","","null","","","","","","","","",""
"2592","<img src=""portrait/WW1.jpg""style=""height:400px;""></img>","0","html-button-response","141","554539","0.0-14.0-16.0","16123","List1B","black","woman","","true","1","","","","","","","","","",""
"1562","<img src=""portrait/WW1.jpg""style=""height:400px;""></img>","1","html-button-response","142","557105","0.0-14.0-18.0-0.0","16123","List1B","black","woman","","false","1","","","","","","","","","",""
"null","CORRECT","","html-keyboard-response","143","558609","0.0-14.0-18.0-1.0-0.0","16123","List1B","black","woman","","","","null","","","","","","","","",""
"1710.9999999998836","<img src=""portrait/WM2.jpg""style=""height:400px;""></img>","7","html-button-response","144","560324","0.0-14.0-19.0","16123","List1B","black","woman","","true","7","","","","","","","","","",""
"null","CORRECT","","html-keyboard-response","145","561828","0.0-14.0-20.0-0.0","16123","List1B","black","woman","","","","null","","","","","","","","",""
"2240","<img src=""portrait/BW1.jpg""style=""height:400px;""></img>","0","html-button-response","146","564072","0.0-14.0-22.0","16123","List1B","black","woman","","true","0","","","","","","","","","",""
"null","CORRECT","","html-keyboard-response","147","565577","0.0-14.0-23.0-0.0","16123","List1B","black","woman","","","","null","","","","","","","","",""
"1293","<p>You got 7 out of 8 right first time. Press Continue.</p>","0","html-button-response","148","566873","0.0-14.0-25.0","16123","List1B","black","woman","","","","","","","","","","","","",""
"2080","As you did not score 100%, the memory game will repeat. Press Continue.","0","html-button-response","149","569956","0.0-14.0-26.0-0.0","16123","List1B","black","woman","","","","","","","","","","","","",""
"1296","<img src='img/portrait_matrix_list1.jpg' style='width:900px;height:500px;''></img><p>If you have memorised all the portraits and names and are ready to start, press Continue.</p><p><strong>Please note: Your memory of these faces will be tested 4 times during this experiment.</strong></p>","0","html-button-response","150","572257","0.0-14.1-0.1","16123","List1B","black","woman","","","","","","","","","","","","",""
"2313","<img src=""portrait/BM2.jpg""style=""height:400px;""></img>","5","html-button-response","151","575574","0.0-14.1-1.1","16123","List1B","black","woman","","true","5","","","","","","","","","",""
"null","CORRECT","","html-keyboard-response","152","577077","0.0-14.1-2.1-0.1","16123","List1B","black","woman","","","","null","","","","","","","","",""
"1643","<img src=""portrait/BW2.jpg""style=""height:400px;""></img>","2","html-button-response","153","578723","0.0-14.1-4.1","16123","List1B","black","woman","","true","2","","","","","","","","","",""
"null","CORRECT","","html-keyboard-response","154","580228","0.0-14.1-5.1-0.1","16123","List1B","black","woman","","","","null","","","","","","","","",""
"2143","<img src=""portrait/WW2.jpg""style=""height:400px;""></img>","3","html-button-response","155","582374","0.0-14.1-7.1","16123","List1B","black","woman","","true","3","","","","","","","","","",""
"null","CORRECT","","html-keyboard-response","156","583878","0.0-14.1-8.1-0.1","16123","List1B","black","woman","","","","null","","","","","","","","",""
"1893","<img src=""portrait/WM1.jpg""style=""height:400px;""></img>","6","html-button-response","157","585774","0.0-14.1-10.1","16123","List1B","black","woman","","true","6","","","","","","","","","",""
"null","CORRECT","","html-keyboard-response","158","587278","0.0-14.1-11.1-0.1","16123","List1B","black","woman","","","","null","","","","","","","","",""
"1710","<img src=""portrait/BM1.jpg""style=""height:400px;""></img>","4","html-button-response","159","588991","0.0-14.1-13.1","16123","List1B","black","woman","","true","4","","","","","","","","","",""
"null","CORRECT","","html-keyboard-response","160","590495","0.0-14.1-14.1-0.1","16123","List1B","black","woman","","","","null","","","","","","","","",""
"2293.0000000001164","<img src=""portrait/WW1.jpg""style=""height:400px;""></img>","1","html-button-response","161","592791","0.0-14.1-16.1","16123","List1B","black","woman","","true","1","","","","","","","","","",""
"null","CORRECT","","html-keyboard-response","162","594295","0.0-14.1-17.1-0.1","16123","List1B","black","woman","","","","null","","","","","","","","",""
"2093","<img src=""portrait/WM2.jpg""style=""height:400px;""></img>","7","html-button-response","163","596391","0.0-14.1-19.1","16123","List1B","black","woman","","true","7","","","","","","","","","",""
"null","CORRECT","","html-keyboard-response","164","597896","0.0-14.1-20.1-0.1","16123","List1B","black","woman","","","","null","","","","","","","","",""
"2093","<img src=""portrait/BW1.jpg""style=""height:400px;""></img>","2","html-button-response","165","599992","0.0-14.1-22.1","16123","List1B","black","woman","","true","0","","","","","","","","","",""
"1913","<img src=""portrait/BW1.jpg""style=""height:400px;""></img>","0","html-button-response","166","602909","0.0-14.1-24.1-0.1","16123","List1B","black","woman","","false","0","","","","","","","","","",""
"null","CORRECT","","html-keyboard-response","167","604413","0.0-14.1-24.1-1.1-0.1","16123","List1B","black","woman","","","","null","","","","","","","","",""
"2227.0000000001164","<p>You got 7 out of 8 right first time. Press Continue.</p>","0","html-button-response","168","606642","0.0-14.1-25.1","16123","List1B","black","woman","","","","","","","","","","","","",""
"1264","As you did not score 100%, the memory game will repeat. Press Continue.","0","html-button-response","169","608909","0.0-14.1-26.1-0.1","16123","List1B","black","woman","","","","","","","","","","","","",""
"1011","<img src='img/portrait_matrix_list1.jpg' style='width:900px;height:500px;''></img><p>If you have memorised all the portraits and names and are ready to start, press Continue.</p><p><strong>Please note: Your memory of these faces will be tested 4 times during this experiment.</strong></p>","0","html-button-response","170","610925","0.0-14.2-0.2","16123","List1B","black","woman","","","","","","","","","","","","",""
"2046","<img src=""portrait/BM2.jpg""style=""height:400px;""></img>","5","html-button-response","171","613976","0.0-14.2-1.2","16123","List1B","black","woman","","true","5","","","","","","","","","",""
"null","CORRECT","","html-keyboard-response","172","615480","0.0-14.2-2.2-0.2","16123","List1B","black","woman","","","","null","","","","","","","","",""
"3330","<img src=""portrait/BW2.jpg""style=""height:400px;""></img>","2","html-button-response","173","618812","0.0-14.2-4.2","16123","List1B","black","woman","","true","2","","","","","","","","","",""
"null","CORRECT","","html-keyboard-response","174","620316","0.0-14.2-5.2-0.2","16123","List1B","black","woman","","","","null","","","","","","","","",""
"1641.0000000001164","<img src=""portrait/WW2.jpg""style=""height:400px;""></img>","3","html-button-response","175","621960","0.0-14.2-7.2","16123","List1B","black","woman","","true","3","","","","","","","","","",""
"null","CORRECT","","html-keyboard-response","176","623464","0.0-14.2-8.2-0.2","16123","List1B","black","woman","","","","null","","","","","","","","",""
"4893","<img src=""portrait/WM1.jpg""style=""height:400px;""></img>","6","html-button-response","177","628360","0.0-14.2-10.2","16123","List1B","black","woman","","true","6","","","","","","","","","",""
"null","CORRECT","","html-keyboard-response","178","629864","0.0-14.2-11.2-0.2","16123","List1B","black","woman","","","","null","","","","","","","","",""
"2077","<img src=""portrait/BM1.jpg""style=""height:400px;""></img>","4","html-button-response","179","631944","0.0-14.2-13.2","16123","List1B","black","woman","","true","4","","","","","","","","","",""
"null","CORRECT","","html-keyboard-response","180","633448","0.0-14.2-14.2-0.2","16123","List1B","black","woman","","","","null","","","","","","","","",""
"2293.0000000001164","<img src=""portrait/WW1.jpg""style=""height:400px;""></img>","1","html-button-response","181","635744","0.0-14.2-16.2","16123","List1B","black","woman","","true","1","","","","","","","","","",""
"null","CORRECT","","html-keyboard-response","182","637247","0.0-14.2-17.2-0.2","16123","List1B","black","woman","","","","null","","","","","","","","",""
"1661","<img src=""portrait/WM2.jpg""style=""height:400px;""></img>","7","html-button-response","183","638911","0.0-14.2-19.2","16123","List1B","black","woman","","true","7","","","","","","","","","",""
"null","CORRECT","","html-keyboard-response","184","640414","0.0-14.2-20.2-0.2","16123","List1B","black","woman","","","","null","","","","","","","","",""
"1626","<img src=""portrait/BW1.jpg""style=""height:400px;""></img>","0","html-button-response","185","642044","0.0-14.2-22.2","16123","List1B","black","woman","","true","0","","","","","","","","","",""
"null","CORRECT","","html-keyboard-response","186","643548","0.0-14.2-23.2-0.2","16123","List1B","black","woman","","","","null","","","","","","","","",""
"1396","<p>You got 8 out of 8 right first time. Press Continue.</p>","0","html-button-response","187","644947","0.0-14.2-25.2","16123","List1B","black","woman","","","","","","","","","","","","",""
"null","<div style=""font-size:60px;"">+</div>","","html-keyboard-response","188","646451","0.0-15.0-0.0","16123","List1B","black","woman","","","","null","","","","","","","","",""
"null","<img src=""stim_listB/seduce7.gif""style=""height:400px;""></stim_listB>","","html-keyboard-response","189","648455","0.0-15.0-1.0","16123","List1B","black","woman","","","","null","","","","","","","","",""
"null","is seducing","","html-keyboard-response","190","650459","0.0-15.0-2.0","16123","List1B","black","woman","","","","null","","","","","","","","",""
"6104","","","survey-text","191","656571","0.0-15.0-3.0","16123","List1B","black","woman","","","","","{""Q0"":""Beth is seducing jane""}","<img src=""stim_listB/seduce7.gif""style=""height:400px;""></stim_listB>","is seducing","","","","","",""
"null","<div style=""font-size:60px;"">+</div>","","html-keyboard-response","192","657073","0.0-15.0-0.1","16123","List1B","black","woman","","","","null","","","","","","","","",""
"null","<img src=""stim_listB/kiss3.gif""style=""height:400px;""></stim_listB>","","html-keyboard-response","193","659075","0.0-15.0-1.1","16123","List1B","black","woman","","","","null","","","","","","","","",""
"null","is kissing","","html-keyboard-response","194","661078","0.0-15.0-2.1","16123","List1B","black","woman","","","","null","","","","","","","","",""
"7512.999999999884","","","survey-text","195","668598","0.0-15.0-3.1","16123","List1B","black","woman","","","","","{""Q0"":""Ruth is kissing luke""}","<img src=""stim_listB/kiss3.gif""style=""height:400px;""></stim_listB>","is kissing","","","","","",""
"null","<div style=""font-size:60px;"">+</div>","","html-keyboard-response","196","669100","0.0-15.0-0.2","16123","List1B","black","woman","","","","null","","","","","","","","",""
"null","<img src=""stim_listB/seduce8.gif""style=""height:400px;""></stim_listB>","","html-keyboard-response","197","671104","0.0-15.0-1.2","16123","List1B","black","woman","","","","null","","","","","","","","",""
"null","is being seduced by","","html-keyboard-response","198","673108","0.0-15.0-2.2","16123","List1B","black","woman","","","","null","","","","","","","","",""
"6505.999999999884","","","survey-text","199","679620","0.0-15.0-3.2","16123","List1B","black","woman","","","","","{""Q0"":""Ruth is being seduced by kate""}","<img src=""stim_listB/seduce8.gif""style=""height:400px;""></stim_listB>","is being seduced by","","","","","",""
"null","<div style=""font-size:60px;"">+</div>","","html-keyboard-response","200","680123","0.0-15.0-0.3","16123","List1B","black","woman","","","","null","","","","","","","","",""
"null","<img src=""stim_listB/greet7.gif""style=""height:400px;""></stim_listB>","","html-keyboard-response","201","682127","0.0-15.0-1.3","16123","List1B","black","woman","","","","null","","","","","","","","",""
"null","is greeting","","html-keyboard-response","202","684131","0.0-15.0-2.3","16123","List1B","black","woman","","","","null","","","","","","","","",""
"4933.999999999884","","","survey-text","203","689073","0.0-15.0-3.3","16123","List1B","black","woman","","","","","{""Q0"":""Ruth is greeting kate""}","<img src=""stim_listB/greet7.gif""style=""height:400px;""></stim_listB>","is greeting","","","","","",""
"null","<div style=""font-size:60px;"">+</div>","","html-keyboard-response","204","689575","0.0-15.0-0.4","16123","List1B","black","woman","","","","null","","","","","","","","",""
"null","<img src=""stim_listB/challenge3.gif""style=""height:400px;""></stim_listB>","","html-keyboard-response","205","691578","0.0-15.0-1.4","16123","List1B","black","woman","","","","null","","","","","","","","",""
"null","is challenging","","html-keyboard-response","206","693582","0.0-15.0-2.4","16123","List1B","black","woman","","","","null","","","","","","","","",""
"5302","","","survey-text","207","698890","0.0-15.0-3.4","16123","List1B","black","woman","","","","","{""Q0"":""Dave is challenging kate""}","<img src=""stim_listB/challenge3.gif""style=""height:400px;""></stim_listB>","is challenging","","","","","",""
"null","<div style=""font-size:60px;"">+</div>","","html-keyboard-response","208","699391","0.0-15.0-0.5","16123","List1B","black","woman","","","","null","","","","","","","","",""
"null","<img src=""stim_listB/oppose5.gif""style=""height:400px;""></stim_listB>","","html-keyboard-response","209","701393","0.0-15.0-1.5","16123","List1B","black","woman","","","","null","","","","","","","","",""
"null","is opposing","","html-keyboard-response","210","703397","0.0-15.0-2.5","16123","List1B","black","woman","","","","null","","","","","","","","",""
"6024","","","survey-text","211","709425","0.0-15.0-3.5","16123","List1B","black","woman","","","","","{""Q0"":""Dave is opposing mike ""}","<img src=""stim_listB/oppose5.gif""style=""height:400px;""></stim_listB>","is opposing","","","","","",""
"null","<div style=""font-size:60px;"">+</div>","","html-keyboard-response","212","709926","0.0-15.0-0.6","16123","List1B","black","woman","","","","null","","","","","","","","",""
"null","<img src=""stim_listB/shout1.gif""style=""height:400px;""></stim_listB>","","html-keyboard-response","213","711929","0.0-15.0-1.6","16123","List1B","black","woman","","","","null","","","","","","","","",""
"null","is shouting at","","html-keyboard-response","214","713932","0.0-15.0-2.6","16123","List1B","black","woman","","","","null","","","","","","","","",""
"5851","","","survey-text","215","719790","0.0-15.0-3.6","16123","List1B","black","woman","","","","","{""Q0"":""Fred is shouting at beth""}","<img src=""stim_listB/shout1.gif""style=""height:400px;""></stim_listB>","is shouting at","","","","","",""
"null","<div style=""font-size:60px;"">+</div>","","html-keyboard-response","216","720294","0.0-15.0-0.7","16123","List1B","black","woman","","","","null","","","","","","","","",""
"null","<img src=""stim_listB/copy1.gif""style=""height:400px;""></stim_listB>","","html-keyboard-response","217","722298","0.0-15.0-1.7","16123","List1B","black","woman","","","","null","","","","","","","","",""
"null","is copying","","html-keyboard-response","218","724302","0.0-15.0-2.7","16123","List1B","black","woman","","","","null","","","","","","","","",""
"5859.000000000116","","","survey-text","219","730168","0.0-15.0-3.7","16123","List1B","black","woman","","","","","{""Q0"":""Beth is copying mike""}","<img src=""stim_listB/copy1.gif""style=""height:400px;""></stim_listB>","is copying","","","","","",""
"null","<div style=""font-size:60px;"">+</div>","","html-keyboard-response","220","730670","0.0-15.0-0.8","16123","List1B","black","woman","","","","null","","","","","","","","",""
"null","<img src=""stim_listB/seduce2.gif""style=""height:400px;""></stim_listB>","","html-keyboard-response","221","732673","0.0-15.0-1.8","16123","List1B","black","woman","","","","null","","","","","","","","",""
"null","is being seduced by","","html-keyboard-response","222","734676","0.0-15.0-2.8","16123","List1B","black","woman","","","","null","","","","","","","","",""
"6477","","","survey-text","223","741160","0.0-15.0-3.8","16123","List1B","black","woman","","","","","{""Q0"":""Beth is being seduced by mike""}","<img src=""stim_listB/seduce2.gif""style=""height:400px;""></stim_listB>","is being seduced by","","","","","",""
"null","<div style=""font-size:60px;"">+</div>","","html-keyboard-response","224","741663","0.0-15.0-0.9","16123","List1B","black","woman","","","","null","","","","","","","","",""
"null","<img src=""stim_listB/copy8.gif""style=""height:400px;""></stim_listB>","","html-keyboard-response","225","743667","0.0-15.0-1.9","16123","List1B","black","woman","","","","null","","","","","","","","",""
"null","is being copied by","","html-keyboard-response","226","745671","0.0-15.0-2.9","16123","List1B","black","woman","","","","null","","","","","","","","",""
"7389.000000000116","","","survey-text","227","753067","0.0-15.0-3.9","16123","List1B","black","woman","","","","","{""Q0"":""Jane is being copied by Beth ""}","<img src=""stim_listB/copy8.gif""style=""height:400px;""></stim_listB>","is being copied by","","","","","",""
"null","<div style=""font-size:60px;"">+</div>","","html-keyboard-response","228","753569","0.0-15.0-0.10","16123","List1B","black","woman","","","","null","","","","","","","","",""
"null","<img src=""stim_listB/touch1.gif""style=""height:400px;""></stim_listB>","","html-keyboard-response","229","755573","0.0-15.0-1.10","16123","List1B","black","woman","","","","null","","","","","","","","",""
"null","is touching","","html-keyboard-response","230","757576","0.0-15.0-2.10","16123","List1B","black","woman","","","","null","","","","","","","","",""
"5527.000000000116","","","survey-text","231","763111","0.0-15.0-3.10","16123","List1B","black","woman","","","","","{""Q0"":""Mike is touching kate""}","<img src=""stim_listB/touch1.gif""style=""height:400px;""></stim_listB>","is touching","","","","","",""
"null","<div style=""font-size:60px;"">+</div>","","html-keyboard-response","232","763612","0.0-15.0-0.11","16123","List1B","black","woman","","","","null","","","","","","","","",""
"null","<img src=""stim_listB/oppose8.gif""style=""height:400px;""></stim_listB>","","html-keyboard-response","233","765615","0.0-15.0-1.11","16123","List1B","black","woman","","","","null","","","","","","","","",""
"null","is being opposed by","","html-keyboard-response","234","767618","0.0-15.0-2.11","16123","List1B","black","woman","","","","null","","","","","","","","",""
"8855","","","survey-text","235","776479","0.0-15.0-3.11","16123","List1B","black","woman","","","","","{""Q0"":""Ruth is being opposed by beth""}","<img src=""stim_listB/oppose8.gif""style=""height:400px;""></stim_listB>","is being opposed by","","","","","",""
"null","<div style=""font-size:60px;"">+</div>","","html-keyboard-response","236","776981","0.0-15.0-0.12","16123","List1B","black","woman","","","","null","","","","","","","","",""
"null","<img src=""stim_listB/kiss4.gif""style=""height:400px;""></stim_listB>","","html-keyboard-response","237","778983","0.0-15.0-1.12","16123","List1B","black","woman","","","","null","","","","","","","","",""
"null","is being kissed by","","html-keyboard-response","238","780986","0.0-15.0-2.12","16123","List1B","black","woman","","","","null","","","","","","","","",""
"7984","","","survey-text","239","788977","0.0-15.0-3.12","16123","List1B","black","woman","","","","","{""Q0"":""Jane is being kissed by dave""}","<img src=""stim_listB/kiss4.gif""style=""height:400px;""></stim_listB>","is being kissed by","","","","","",""
"null","<div style=""font-size:60px;"">+</div>","","html-keyboard-response","240","789479","0.0-15.0-0.13","16123","List1B","black","woman","","","","null","","","","","","","","",""
"null","<img src=""stim_listB/touch8.gif""style=""height:400px;""></stim_listB>","","html-keyboard-response","241","791484","0.0-15.0-1.13","16123","List1B","black","woman","","","","null","","","","","","","","",""
"null","is being touched by","","html-keyboard-response","242","793487","0.0-15.0-2.13","16123","List1B","black","woman","","","","null","","","","","","","","",""
"6708","","","survey-text","243","800197","0.0-15.0-3.13","16123","List1B","black","woman","","","","","{""Q0"":""Beth is being touched by Ruth ""}","<img src=""stim_listB/touch8.gif""style=""height:400px;""></stim_listB>","is being touched by","","","","","",""
"null","<div style=""font-size:60px;"">+</div>","","html-keyboard-response","244","800699","0.0-15.0-0.14","16123","List1B","black","woman","","","","null","","","","","","","","",""
"null","<img src=""stim_listB/copy5.gif""style=""height:400px;""></stim_listB>","","html-keyboard-response","245","802703","0.0-15.0-1.14","16123","List1B","black","woman","","","","null","","","","","","","","",""
"null","is copying","","html-keyboard-response","246","804706","0.0-15.0-2.14","16123","List1B","black","woman","","","","null","","","","","","","","",""
"5666","","","survey-text","247","810379","0.0-15.0-3.14","16123","List1B","black","woman","","","","","{""Q0"":""Luke is copying mike""}","<img src=""stim_listB/copy5.gif""style=""height:400px;""></stim_listB>","is copying","","","","","",""
"null","<div style=""font-size:60px;"">+</div>","","html-keyboard-response","248","810880","0.0-15.0-0.15","16123","List1B","black","woman","","","","null","","","","","","","","",""
"null","<img src=""stim_listB/touch3.gif""style=""height:400px;""></stim_listB>","","html-keyboard-response","249","812883","0.0-15.0-1.15","16123","List1B","black","woman","","","","null","","","","","","","","",""
"null","is touching","","html-keyboard-response","250","814886","0.0-15.0-2.15","16123","List1B","black","woman","","","","null","","","","","","","","",""
"4986","","","survey-text","251","819879","0.0-15.0-3.15","16123","List1B","black","woman","","","","","{""Q0"":""Jane is touching dave""}","<img src=""stim_listB/touch3.gif""style=""height:400px;""></stim_listB>","is touching","","","","","",""
"null","<div style=""font-size:60px;"">+</div>","","html-keyboard-response","252","820382","0.0-15.0-0.16","16123","List1B","black","woman","","","","null","","","","","","","","",""
"null","<img src=""stim_listB/kiss7.gif""style=""height:400px;""></stim_listB>","","html-keyboard-response","253","822386","0.0-15.0-1.16","16123","List1B","black","woman","","","","null","","","","","","","","",""
"null","is kissing","","html-keyboard-response","254","824389","0.0-15.0-2.16","16123","List1B","black","woman","","","","null","","","","","","","","",""
"4949","","","survey-text","255","829345","0.0-15.0-3.16","16123","List1B","black","woman","","","","","{""Q0"":""Ruth is kissing beth""}","<img src=""stim_listB/kiss7.gif""style=""height:400px;""></stim_listB>","is kissing","","","","","",""
"null","<div style=""font-size:60px;"">+</div>","","html-keyboard-response","256","829848","0.0-15.0-0.17","16123","List1B","black","woman","","","","null","","","","","","","","",""
"null","<img src=""stim_listB/look1.gif""style=""height:400px;""></stim_listB>","","html-keyboard-response","257","831852","0.0-15.0-1.17","16123","List1B","black","woman","","","","null","","","","","","","","",""
"null","is looking at","","html-keyboard-response","258","833856","0.0-15.0-2.17","16123","List1B","black","woman","","","","null","","","","","","","","",""
"5249","","","survey-text","259","839113","0.0-15.0-3.17","16123","List1B","black","woman","","","","","{""Q0"":""Fred is looking at beth""}","<img src=""stim_listB/look1.gif""style=""height:400px;""></stim_listB>","is looking at","","","","","",""
"null","<div style=""font-size:60px;"">+</div>","","html-keyboard-response","260","839615","0.0-15.0-0.18","16123","List1B","black","woman","","","","null","","","","","","","","",""
"null","<img src=""stim_listB/touch6.gif""style=""height:400px;""></stim_listB>","","html-keyboard-response","261","841620","0.0-15.0-1.18","16123","List1B","black","woman","","","","null","","","","","","","","",""
"null","is being touched by","","html-keyboard-response","262","843623","0.0-15.0-2.18","16123","List1B","black","woman","","","","null","","","","","","","","",""
"6577.000000000116","","","survey-text","263","850207","0.0-15.0-3.18","16123","List1B","black","woman","","","","","{""Q0"":""Fred is being touched by luke""}","<img src=""stim_listB/touch6.gif""style=""height:400px;""></stim_listB>","is being touched by","","","","","",""
"null","<div style=""font-size:60px;"">+</div>","","html-keyboard-response","264","850710","0.0-15.0-0.19","16123","List1B","black","woman","","","","null","","","","","","","","",""
"null","<img src=""stim_listB/look7.gif""style=""height:400px;""></stim_listB>","","html-keyboard-response","265","852714","0.0-15.0-1.19","16123","List1B","black","woman","","","","null","","","","","","","","",""
"null","is looking at","","html-keyboard-response","266","854717","0.0-15.0-2.19","16123","List1B","black","woman","","","","null","","","","","","","","",""
"5789","","","survey-text","267","860513","0.0-15.0-3.19","16123","List1B","black","woman","","","","","{""Q0"":""Ruth is looking at beth""}","<img src=""stim_listB/look7.gif""style=""height:400px;""></stim_listB>","is looking at","","","","","",""
"4029","<img src='img/portrait_matrix_list1.jpg' style='width:900px;height:500px;''></img><p>If you have memorised all the portraits and names and are ready to start, press Continue.</p><p><strong>Please note: Your memory of these faces will be tested 4 times during this experiment.</strong></p>","0","html-button-response","268","864544","0.0-16.0-0.0","16123","List1B","black","woman","","","","","","","","","","","","",""
"1793","<img src=""portrait/BW1.jpg""style=""height:400px;""></img>","0","html-button-response","269","867341","0.0-16.0-1.0","16123","List1B","black","woman","","true","0","","","","","","","","","",""
"null","CORRECT","","html-keyboard-response","270","868845","0.0-16.0-2.0-0.0","16123","List1B","black","woman","","","","null","","","","","","","","",""
"1762","<img src=""portrait/BM2.jpg""style=""height:400px;""></img>","5","html-button-response","271","870611","0.0-16.0-4.0","16123","List1B","black","woman","","true","5","","","","","","","","","",""
"null","CORRECT","","html-keyboard-response","272","872115","0.0-16.0-5.0-0.0","16123","List1B","black","woman","","","","null","","","","","","","","",""
"2274","<img src=""portrait/BW2.jpg""style=""height:400px;""></img>","2","html-button-response","273","874392","0.0-16.0-7.0","16123","List1B","black","woman","","true","2","","","","","","","","","",""
"null","CORRECT","","html-keyboard-response","274","875896","0.0-16.0-8.0-0.0","16123","List1B","black","woman","","","","null","","","","","","","","",""
"2477","<img src=""portrait/WM2.jpg""style=""height:400px;""></img>","7","html-button-response","275","878376","0.0-16.0-10.0","16123","List1B","black","woman","","true","7","","","","","","","","","",""
"null","CORRECT","","html-keyboard-response","276","879880","0.0-16.0-11.0-0.0","16123","List1B","black","woman","","","","null","","","","","","","","",""
"1492","<img src=""portrait/BM1.jpg""style=""height:400px;""></img>","4","html-button-response","277","881375","0.0-16.0-13.0","16123","List1B","black","woman","","true","4","","","","","","","","","",""
"null","CORRECT","","html-keyboard-response","278","882879","0.0-16.0-14.0-0.0","16123","List1B","black","woman","","","","null","","","","","","","","",""
"1494","<img src=""portrait/WM1.jpg""style=""height:400px;""></img>","6","html-button-response","279","884376","0.0-16.0-16.0","16123","List1B","black","woman","","true","6","","","","","","","","","",""
"null","CORRECT","","html-keyboard-response","280","885880","0.0-16.0-17.0-0.0","16123","List1B","black","woman","","","","null","","","","","","","","",""
"1325","<img src=""portrait/WW2.jpg""style=""height:400px;""></img>","3","html-button-response","281","887209","0.0-16.0-19.0","16123","List1B","black","woman","","true","3","","","","","","","","","",""
"null","CORRECT","","html-keyboard-response","282","888713","0.0-16.0-20.0-0.0","16123","List1B","black","woman","","","","null","","","","","","","","",""
"1709","<img src=""portrait/WW1.jpg""style=""height:400px;""></img>","1","html-button-response","283","890426","0.0-16.0-22.0","16123","List1B","black","woman","","true","1","","","","","","","","","",""
"null","CORRECT","","html-keyboard-response","284","891930","0.0-16.0-23.0-0.0","16123","List1B","black","woman","","","","null","","","","","","","","",""
"1228.0000000001164","<p>You got 8 out of 8 right first time. Press Continue.</p>","0","html-button-response","285","893159","0.0-16.0-25.0","16123","List1B","black","woman","","","","","","","","","","","","",""
"null","<div style=""font-size:60px;"">+</div>","","html-keyboard-response","286","894664","0.0-17.0-0.0","16123","List1B","black","woman","","","","null","","","","","","","","",""
"null","<img src=""stim_listB/look6.gif""style=""height:400px;""></stim_listB>","","html-keyboard-response","287","896672","0.0-17.0-1.0","16123","List1B","black","woman","","","","null","","","","","","","","",""
"null","is being looked at by","","html-keyboard-response","288","898676","0.0-17.0-2.0","16123","List1B","black","woman","","","","null","","","","","","","","",""
"6711","","","survey-text","289","905403","0.0-17.0-3.0","16123","List1B","black","woman","","","","","{""Q0"":""Luke is being looked at by dave""}","<img src=""stim_listB/look6.gif""style=""height:400px;""></stim_listB>","is being looked at by","","","","","",""
"null","<div style=""font-size:60px;"">+</div>","","html-keyboard-response","290","905906","0.0-17.0-0.1","16123","List1B","black","woman","","","","null","","","","","","","","",""
"null","<img src=""stim_listB/hug6.gif""style=""height:400px;""></stim_listB>","","html-keyboard-response","291","907910","0.0-17.0-1.1","16123","List1B","black","woman","","","","null","","","","","","","","",""
"null","is being hugged by","","html-keyboard-response","292","909913","0.0-17.0-2.1","16123","List1B","black","woman","","","","null","","","","","","","","",""
"7448.999999999884","","","survey-text","293","917370","0.0-17.0-3.1","16123","List1B","black","woman","","","","","{""Q0"":""Luke is being hugged by dave""}","<img src=""stim_listB/hug6.gif""style=""height:400px;""></stim_listB>","is being hugged by","","","","","",""
"null","<div style=""font-size:60px;"">+</div>","","html-keyboard-response","294","917872","0.0-17.0-0.2","16123","List1B","black","woman","","","","null","","","","","","","","",""
"null","<img src=""stim_listB/seduce4.gif""style=""height:400px;""></stim_listB>","","html-keyboard-response","295","919875","0.0-17.0-1.2","16123","List1B","black","woman","","","","null","","","","","","","","",""
"null","is being seduced by","","html-keyboard-response","296","921879","0.0-17.0-2.2","16123","List1B","black","woman","","","","null","","","","","","","","",""
"6536.999999999884","","","survey-text","297","928429","0.0-17.0-3.2","16123","List1B","black","woman","","","","","{""Q0"":""Ruth is being seduced by dave""}","<img src=""stim_listB/seduce4.gif""style=""height:400px;""></stim_listB>","is being seduced by","","","","","",""
"null","<div style=""font-size:60px;"">+</div>","","html-keyboard-response","298","928930","0.0-17.0-0.3","16123","List1B","black","woman","","","","null","","","","","","","","",""
"null","<img src=""stim_listB/hug3.gif""style=""height:400px;""></stim_listB>","","html-keyboard-response","299","930932","0.0-17.0-1.3","16123","List1B","black","woman","","","","null","","","","","","","","",""
"null","is hugging","","html-keyboard-response","300","932936","0.0-17.0-2.3","16123","List1B","black","woman","","","","null","","","","","","","","",""
"5343.000000000116","","","survey-text","301","938285","0.0-17.0-3.3","16123","List1B","black","woman","","","","","{""Q0"":""Luke is hugging ruth""}","<img src=""stim_listB/hug3.gif""style=""height:400px;""></stim_listB>","is hugging","","","","","",""
"null","<div style=""font-size:60px;"">+</div>","","html-keyboard-response","302","938789","0.0-17.0-0.4","16123","List1B","black","woman","","","","null","","","","","","","","",""
"null","<img src=""stim_listB/hug1.gif""style=""height:400px;""></stim_listB>","","html-keyboard-response","303","940791","0.0-17.0-1.4","16123","List1B","black","woman","","","","null","","","","","","","","",""
"null","is hugging","","html-keyboard-response","304","942795","0.0-17.0-2.4","16123","List1B","black","woman","","","","null","","","","","","","","",""
"6903","","","survey-text","305","949704","0.0-17.0-3.4","16123","List1B","black","woman","","","","","{""Q0"":""Beth is hugging Fred ""}","<img src=""stim_listB/hug1.gif""style=""height:400px;""></stim_listB>","is hugging","","","","","",""
"null","<div style=""font-size:60px;"">+</div>","","html-keyboard-response","306","950206","0.0-17.0-0.5","16123","List1B","black","woman","","","","null","","","","","","","","",""
"null","<img src=""stim_listB/touch4.gif""style=""height:400px;""></stim_listB>","","html-keyboard-response","307","952208","0.0-17.0-1.5","16123","List1B","black","woman","","","","null","","","","","","","","",""
"null","is being touched by","","html-keyboard-response","308","954212","0.0-17.0-2.5","16123","List1B","black","woman","","","","null","","","","","","","","",""
"7834","","","survey-text","309","962054","0.0-17.0-3.5","16123","List1B","black","woman","","","","","{""Q0"":""Luke is being touched by Ruth ""}","<img src=""stim_listB/touch4.gif""style=""height:400px;""></stim_listB>","is being touched by","","","","","",""
"null","<div style=""font-size:60px;"">+</div>","","html-keyboard-response","310","962557","0.0-17.0-0.6","16123","List1B","black","woman","","","","null","","","","","","","","",""
"null","<img src=""stim_listB/look8.gif""style=""height:400px;""></stim_listB>","","html-keyboard-response","311","964561","0.0-17.0-1.6","16123","List1B","black","woman","","","","null","","","","","","","","",""
"null","is being looked at by","","html-keyboard-response","312","966564","0.0-17.0-2.6","16123","List1B","black","woman","","","","null","","","","","","","","",""
"6433","","","survey-text","313","973004","0.0-17.0-3.6","16123","List1B","black","woman","","","","","{""Q0"":""Jane is being looked at by kate""}","<img src=""stim_listB/look8.gif""style=""height:400px;""></stim_listB>","is being looked at by","","","","","",""
"null","<div style=""font-size:60px;"">+</div>","","html-keyboard-response","314","973506","0.0-17.0-0.7","16123","List1B","black","woman","","","","null","","","","","","","","",""
"null","<img src=""stim_listB/oppose4.gif""style=""height:400px;""></stim_listB>","","html-keyboard-response","315","975509","0.0-17.0-1.7","16123","List1B","black","woman","","","","null","","","","","","","","",""
"null","is being opposed by","","html-keyboard-response","316","977512","0.0-17.0-2.7","16123","List1B","black","woman","","","","null","","","","","","","","",""
"7250","","","survey-text","317","984774","0.0-17.0-3.7","16123","List1B","black","woman","","","","","{""Q0"":""Luke is being opposed by ruth""}","<img src=""stim_listB/oppose4.gif""style=""height:400px;""></stim_listB>","is being opposed by","","","","","",""
"null","<div style=""font-size:60px;"">+</div>","","html-keyboard-response","318","985282","0.0-17.0-0.8","16123","List1B","black","woman","","","","null","","","","","","","","",""
"null","<img src=""stim_listB/greet1.gif""style=""height:400px;""></stim_listB>","","html-keyboard-response","319","987285","0.0-17.0-1.8","16123","List1B","black","woman","","","","null","","","","","","","","",""
"null","is greeting","","html-keyboard-response","320","989289","0.0-17.0-2.8","16123","List1B","black","woman","","","","null","","","","","","","","",""
"6215","","","survey-text","321","995510","0.0-17.0-3.8","16123","List1B","black","woman","","","","","{""Q0"":""Beth is greeting mike""}","<img src=""stim_listB/greet1.gif""style=""height:400px;""></stim_listB>","is greeting","","","","","",""
"null","<div style=""font-size:60px;"">+</div>","","html-keyboard-response","322","996012","0.0-17.0-0.9","16123","List1B","black","woman","","","","null","","","","","","","","",""
"null","<img src=""stim_listB/look3.gif""style=""height:400px;""></stim_listB>","","html-keyboard-response","323","998015","0.0-17.0-1.9","16123","List1B","black","woman","","","","null","","","","","","","","",""
"null","is looking at","","html-keyboard-response","324","1000018","0.0-17.0-2.9","16123","List1B","black","woman","","","","null","","","","","","","","",""
"10506.000000000116","","","survey-text","325","1010531","0.0-17.0-3.9","16123","List1B","black","woman","","","","","{""Q0"":""Luke is looking at Ruth ""}","<img src=""stim_listB/look3.gif""style=""height:400px;""></stim_listB>","is looking at","","","","","",""
"null","<div style=""font-size:60px;"">+</div>","","html-keyboard-response","326","1011033","0.0-17.0-0.10","16123","List1B","black","woman","","","","null","","","","","","","","",""
"null","<img src=""stim_listB/oppose7.gif""style=""height:400px;""></stim_listB>","","html-keyboard-response","327","1013036","0.0-17.0-1.10","16123","List1B","black","woman","","","","null","","","","","","","","",""
"null","is opposing","","html-keyboard-response","328","1015040","0.0-17.0-2.10","16123","List1B","black","woman","","","","null","","","","","","","","",""
"5512.999999999884","","","survey-text","329","1020560","0.0-17.0-3.10","16123","List1B","black","woman","","","","","{""Q0"":""Jane is opposing kate""}","<img src=""stim_listB/oppose7.gif""style=""height:400px;""></stim_listB>","is opposing","","","","","",""
"null","<div style=""font-size:60px;"">+</div>","","html-keyboard-response","330","1021061","0.0-17.0-0.11","16123","List1B","black","woman","","","","null","","","","","","","","",""
"null","<img src=""stim_listB/copy2.gif""style=""height:400px;""></stim_listB>","","html-keyboard-response","331","1023064","0.0-17.0-1.11","16123","List1B","black","woman","","","","null","","","","","","","","",""
"null","is being copied by","","html-keyboard-response","332","1025067","0.0-17.0-2.11","16123","List1B","black","woman","","","","null","","","","","","","","",""
"8162","","","survey-text","333","1033242","0.0-17.0-3.11","16123","List1B","black","woman","","","","","{""Q0"":""Fred is being copied by kate""}","<img src=""stim_listB/copy2.gif""style=""height:400px;""></stim_listB>","is being copied by","","","","","",""
"null","<div style=""font-size:60px;"">+</div>","","html-keyboard-response","334","1033746","0.0-17.0-0.12","16123","List1B","black","woman","","","","null","","","","","","","","",""
"null","<img src=""stim_listB/greet6.gif""style=""height:400px;""></stim_listB>","","html-keyboard-response","335","1035750","0.0-17.0-1.12","16123","List1B","black","woman","","","","null","","","","","","","","",""
"null","is being greeted by","","html-keyboard-response","336","1037754","0.0-17.0-2.12","16123","List1B","black","woman","","","","null","","","","","","","","",""
"8731","","","survey-text","337","1046492","0.0-17.0-3.12","16123","List1B","black","woman","","","","","{""Q0"":""Dave is being greeted by Fred ""}","<img src=""stim_listB/greet6.gif""style=""height:400px;""></stim_listB>","is being greeted by","","","","","",""
"null","<div style=""font-size:60px;"">+</div>","","html-keyboard-response","338","1046995","0.0-17.0-0.13","16123","List1B","black","woman","","","","null","","","","","","","","",""
"null","<img src=""stim_listB/challenge2.gif""style=""height:400px;""></stim_listB>","","html-keyboard-response","339","1048998","0.0-17.0-1.13","16123","List1B","black","woman","","","","null","","","","","","","","",""
"null","is being challenged by","","html-keyboard-response","340","1051001","0.0-17.0-2.13","16123","List1B","black","woman","","","","null","","","","","","","","",""
"7030","","","survey-text","341","1058044","0.0-17.0-3.13","16123","List1B","black","woman","","","","","{""Q0"":""Kate is being challenged by Fred ""}","<img src=""stim_listB/challenge2.gif""style=""height:400px;""></stim_listB>","is being challenged by","","","","","",""
"null","<div style=""font-size:60px;"">+</div>","","html-keyboard-response","342","1058547","0.0-17.0-0.14","16123","List1B","black","woman","","","","null","","","","","","","","",""
"null","<img src=""stim_listB/oppose6.gif""style=""height:400px;""></stim_listB>","","html-keyboard-response","343","1060550","0.0-17.0-1.14","16123","List1B","black","woman","","","","null","","","","","","","","",""
"null","is being opposed by","","html-keyboard-response","344","1062554","0.0-17.0-2.14","16123","List1B","black","woman","","","","null","","","","","","","","",""
"7767","","","survey-text","345","1070328","0.0-17.0-3.14","16123","List1B","black","woman","","","","","{""Q0"":""Luke is being opposed by Fred ""}","<img src=""stim_listB/oppose6.gif""style=""height:400px;""></stim_listB>","is being opposed by","","","","","",""
"null","<div style=""font-size:60px;"">+</div>","","html-keyboard-response","346","1070832","0.0-17.0-0.15","16123","List1B","black","woman","","","","null","","","","","","","","",""
"null","<img src=""stim_listB/hug5.gif""style=""height:400px;""></stim_listB>","","html-keyboard-response","347","1072835","0.0-17.0-1.15","16123","List1B","black","woman","","","","null","","","","","","","","",""
"null","is hugging","","html-keyboard-response","348","1074838","0.0-17.0-2.15","16123","List1B","black","woman","","","","null","","","","","","","","",""
"5266","","","survey-text","349","1080112","0.0-17.0-3.15","16123","List1B","black","woman","","","","","{""Q0"":""Luke is hugging fred""}","<img src=""stim_listB/hug5.gif""style=""height:400px;""></stim_listB>","is hugging","","","","","",""
"null","<div style=""font-size:60px;"">+</div>","","html-keyboard-response","350","1080618","0.0-17.0-0.16","16123","List1B","black","woman","","","","null","","","","","","","","",""
"null","<img src=""stim_listB/copy6.gif""style=""height:400px;""></stim_listB>","","html-keyboard-response","351","1082621","0.0-17.0-1.16","16123","List1B","black","woman","","","","null","","","","","","","","",""
"null","is being copied by","","html-keyboard-response","352","1084624","0.0-17.0-2.16","16123","List1B","black","woman","","","","null","","","","","","","","",""
"7180.999999999767","","","survey-text","353","1091813","0.0-17.0-3.16","16123","List1B","black","woman","","","","","{""Q0"":""Dave is being copied by fred""}","<img src=""stim_listB/copy6.gif""style=""height:400px;""></stim_listB>","is being copied by","","","","","",""
"null","<div style=""font-size:60px;"">+</div>","","html-keyboard-response","354","1092316","0.0-17.0-0.17","16123","List1B","black","woman","","","","null","","","","","","","","",""
"null","<img src=""stim_listB/shout3.gif""style=""height:400px;""></stim_listB>","","html-keyboard-response","355","1094319","0.0-17.0-1.17","16123","List1B","black","woman","","","","null","","","","","","","","",""
"null","is shouting at","","html-keyboard-response","356","1096322","0.0-17.0-2.17","16123","List1B","black","woman","","","","null","","","","","","","","",""
"7589","","","survey-text","357","1103931","0.0-17.0-3.17","16123","List1B","black","woman","","","","","{""Q0"":""Luke is shouting at ruth""}","<img src=""stim_listB/shout3.gif""style=""height:400px;""></stim_listB>","is shouting at","","","","","",""
"null","<div style=""font-size:60px;"">+</div>","","html-keyboard-response","358","1104434","0.0-17.0-0.18","16123","List1B","black","woman","","","","null","","","","","","","","",""
"null","<img src=""stim_listB/kiss6.gif""style=""height:400px;""></stim_listB>","","html-keyboard-response","359","1106438","0.0-17.0-1.18","16123","List1B","black","woman","","","","null","","","","","","","","",""
"null","is being kissed by","","html-keyboard-response","360","1108441","0.0-17.0-2.18","16123","List1B","black","woman","","","","null","","","","","","","","",""
"8216.999999999767","","","survey-text","361","1116666","0.0-17.0-3.18","16123","List1B","black","woman","","","","","{""Q0"":""Dave is being kissed by mike""}","<img src=""stim_listB/kiss6.gif""style=""height:400px;""></stim_listB>","is being kissed by","","","","","",""
"null","<div style=""font-size:60px;"">+</div>","","html-keyboard-response","362","1117169","0.0-17.0-0.19","16123","List1B","black","woman","","","","null","","","","","","","","",""
"null","<img src=""stim_listB/touch5.gif""style=""height:400px;""></stim_listB>","","html-keyboard-response","363","1119172","0.0-17.0-1.19","16123","List1B","black","woman","","","","null","","","","","","","","",""
"null","is touching","","html-keyboard-response","364","1121176","0.0-17.0-2.19","16123","List1B","black","woman","","","","null","","","","","","","","",""
"5414","","","survey-text","365","1126597","0.0-17.0-3.19","16123","List1B","black","woman","","","","","{""Q0"":""Mike is touching dave""}","<img src=""stim_listB/touch5.gif""style=""height:400px;""></stim_listB>","is touching","","","","","",""
"1928","<img src='img/portrait_matrix_list1.jpg' style='width:900px;height:500px;''></img><p>If you have memorised all the portraits and names and are ready to start, press Continue.</p><p><strong>Please note: Your memory of these faces will be tested 4 times during this experiment.</strong></p>","0","html-button-response","366","1128527","0.0-18.0-0.0","16123","List1B","black","woman","","","","","","","","","","","","",""
"3063","<img src=""portrait/WM1.jpg""style=""height:400px;""></img>","6","html-button-response","367","1132594","0.0-18.0-1.0","16123","List1B","black","woman","","true","6","","","","","","","","","",""
"null","CORRECT","","html-keyboard-response","368","1134098","0.0-18.0-2.0-0.0","16123","List1B","black","woman","","","","null","","","","","","","","",""
"1637","<img src=""portrait/BM2.jpg""style=""height:400px;""></img>","5","html-button-response","369","1135742","0.0-18.0-4.0","16123","List1B","black","woman","","true","5","","","","","","","","","",""
"null","CORRECT","","html-keyboard-response","370","1137246","0.0-18.0-5.0-0.0","16123","List1B","black","woman","","","","null","","","","","","","","",""
"1652","<img src=""portrait/BW1.jpg""style=""height:400px;""></img>","0","html-button-response","371","1138909","0.0-18.0-7.0","16123","List1B","black","woman","","true","0","","","","","","","","","",""
"null","CORRECT","","html-keyboard-response","372","1140413","0.0-18.0-8.0-0.0","16123","List1B","black","woman","","","","null","","","","","","","","",""
"1825","<img src=""portrait/BM1.jpg""style=""height:400px;""></img>","4","html-button-response","373","1142243","0.0-18.0-10.0","16123","List1B","black","woman","","true","4","","","","","","","","","",""
"null","CORRECT","","html-keyboard-response","374","1143746","0.0-18.0-11.0-0.0","16123","List1B","black","woman","","","","null","","","","","","","","",""
"2043","<img src=""portrait/WW1.jpg""style=""height:400px;""></img>","1","html-button-response","375","1145792","0.0-18.0-13.0","16123","List1B","black","woman","","true","1","","","","","","","","","",""
"null","CORRECT","","html-keyboard-response","376","1147296","0.0-18.0-14.0-0.0","16123","List1B","black","woman","","","","null","","","","","","","","",""
"1510","<img src=""portrait/WW2.jpg""style=""height:400px;""></img>","3","html-button-response","377","1148809","0.0-18.0-16.0","16123","List1B","black","woman","","true","3","","","","","","","","","",""
"null","CORRECT","","html-keyboard-response","378","1150313","0.0-18.0-17.0-0.0","16123","List1B","black","woman","","","","null","","","","","","","","",""
"1660","<img src=""portrait/WM2.jpg""style=""height:400px;""></img>","7","html-button-response","379","1151976","0.0-18.0-19.0","16123","List1B","black","woman","","true","7","","","","","","","","","",""
"null","CORRECT","","html-keyboard-response","380","1153480","0.0-18.0-20.0-0.0","16123","List1B","black","woman","","","","null","","","","","","","","",""
"1876","<img src=""portrait/BW2.jpg""style=""height:400px;""></img>","2","html-button-response","381","1155360","0.0-18.0-22.0","16123","List1B","black","woman","","true","2","","","","","","","","","",""
"null","CORRECT","","html-keyboard-response","382","1156864","0.0-18.0-23.0-0.0","16123","List1B","black","woman","","","","null","","","","","","","","",""
"1294","<p>You got 8 out of 8 right first time. Press Continue.</p>","0","html-button-response","383","1158160","0.0-18.0-25.0","16123","List1B","black","woman","","","","","","","","","","","","",""
"null","<div style=""font-size:60px;"">+</div>","","html-keyboard-response","384","1159666","0.0-19.0-0.0","16123","List1B","black","woman","","","","null","","","","","","","","",""
"null","<img src=""stim_listB/greet5.gif""style=""height:400px;""></stim_listB>","","html-keyboard-response","385","1161670","0.0-19.0-1.0","16123","List1B","black","woman","","","","null","","","","","","","","",""
"null","is greeting","","html-keyboard-response","386","1163673","0.0-19.0-2.0","16123","List1B","black","woman","","","","null","","","","","","","","",""
"5185.999999999767","","","survey-text","387","1168866","0.0-19.0-3.0","16123","List1B","black","woman","","","","","{""Q0"":""Luke is greeting mike""}","<img src=""stim_listB/greet5.gif""style=""height:400px;""></stim_listB>","is greeting","","","","","",""
"null","<div style=""font-size:60px;"">+</div>","","html-keyboard-response","388","1169369","0.0-19.0-0.1","16123","List1B","black","woman","","","","null","","","","","","","","",""
"null","<img src=""stim_listB/shout7.gif""style=""height:400px;""></stim_listB>","","html-keyboard-response","389","1171375","0.0-19.0-1.1","16123","List1B","black","woman","","","","null","","","","","","","","",""
"null","is shouting at","","html-keyboard-response","390","1173379","0.0-19.0-2.1","16123","List1B","black","woman","","","","null","","","","","","","","",""
"7179","","","survey-text","391","1180566","0.0-19.0-3.1","16123","List1B","black","woman","","","","","{""Q0"":""Ruth is shouting at beth ""}","<img src=""stim_listB/shout7.gif""style=""height:400px;""></stim_listB>","is shouting at","","","","","",""
"null","<div style=""font-size:60px;"">+</div>","","html-keyboard-response","392","1181075","0.0-19.0-0.2","16123","List1B","black","woman","","","","null","","","","","","","","",""
"null","<img src=""stim_listB/hug7.gif""style=""height:400px;""></stim_listB>","","html-keyboard-response","393","1183077","0.0-19.0-1.2","16123","List1B","black","woman","","","","null","","","","","","","","",""
"null","is hugging","","html-keyboard-response","394","1185081","0.0-19.0-2.2","16123","List1B","black","woman","","","","null","","","","","","","","",""
"5397","","","survey-text","395","1190486","0.0-19.0-3.2","16123","List1B","black","woman","","","","","{""Q0"":""Ruth is hugging beth""}","<img src=""stim_listB/hug7.gif""style=""height:400px;""></stim_listB>","is hugging","","","","","",""
"null","<div style=""font-size:60px;"">+</div>","","html-keyboard-response","396","1190989","0.0-19.0-0.3","16123","List1B","black","woman","","","","null","","","","","","","","",""
"null","<img src=""stim_listB/challenge7.gif""style=""height:400px;""></stim_listB>","","html-keyboard-response","397","1192992","0.0-19.0-1.3","16123","List1B","black","woman","","","","null","","","","","","","","",""
"null","is challenging","","html-keyboard-response","398","1194995","0.0-19.0-2.3","16123","List1B","black","woman","","","","null","","","","","","","","",""
"5703","","","survey-text","399","1200705","0.0-19.0-3.3","16123","List1B","black","woman","","","","","{""Q0"":""Kate is challenging ruth""}","<img src=""stim_listB/challenge7.gif""style=""height:400px;""></stim_listB>","is challenging","","","","","",""
"null","<div style=""font-size:60px;"">+</div>","","html-keyboard-response","400","1201207","0.0-19.0-0.4","16123","List1B","black","woman","","","","null","","","","","","","","",""
"null","<img src=""stim_listB/copy3.gif""style=""height:400px;""></stim_listB>","","html-keyboard-response","401","1203210","0.0-19.0-1.4","16123","List1B","black","woman","","","","null","","","","","","","","",""
"null","is copying","","html-keyboard-response","402","1205213","0.0-19.0-2.4","16123","List1B","black","woman","","","","null","","","","","","","","",""
"5602.999999999767","","","survey-text","403","1210823","0.0-19.0-3.4","16123","List1B","black","woman","","","","","{""Q0"":""Dave is copying ruth""}","<img src=""stim_listB/copy3.gif""style=""height:400px;""></stim_listB>","is copying","","","","","",""
"null","<div style=""font-size:60px;"">+</div>","","html-keyboard-response","404","1211325","0.0-19.0-0.5","16123","List1B","black","woman","","","","null","","","","","","","","",""
"null","<img src=""stim_listB/greet2.gif""style=""height:400px;""></stim_listB>","","html-keyboard-response","405","1213328","0.0-19.0-1.5","16123","List1B","black","woman","","","","null","","","","","","","","",""
"null","is being greeted by","","html-keyboard-response","406","1215332","0.0-19.0-2.5","16123","List1B","black","woman","","","","null","","","","","","","","",""
"6631","","","survey-text","407","1221970","0.0-19.0-3.5","16123","List1B","black","woman","","","","","{""Q0"":""Fred is being greeted by kate""}","<img src=""stim_listB/greet2.gif""style=""height:400px;""></stim_listB>","is being greeted by","","","","","",""
"null","<div style=""font-size:60px;"">+</div>","","html-keyboard-response","408","1222474","0.0-19.0-0.6","16123","List1B","black","woman","","","","null","","","","","","","","",""
"null","<img src=""stim_listB/seduce1.gif""style=""height:400px;""></stim_listB>","","html-keyboard-response","409","1224478","0.0-19.0-1.6","16123","List1B","black","woman","","","","null","","","","","","","","",""
"null","is seducing","","html-keyboard-response","410","1226482","0.0-19.0-2.6","16123","List1B","black","woman","","","","null","","","","","","","","",""
"4731","","","survey-text","411","1231221","0.0-19.0-3.6","16123","List1B","black","woman","","","","","{""Q0"":""Fred is seducing kate""}","<img src=""stim_listB/seduce1.gif""style=""height:400px;""></stim_listB>","is seducing","","","","","",""
"null","<div style=""font-size:60px;"">+</div>","","html-keyboard-response","412","1231723","0.0-19.0-0.7","16123","List1B","black","woman","","","","null","","","","","","","","",""
"null","<img src=""stim_listB/challenge6.gif""style=""height:400px;""></stim_listB>","","html-keyboard-response","413","1233726","0.0-19.0-1.7","16123","List1B","black","woman","","","","null","","","","","","","","",""
"null","is being challenged by","","html-keyboard-response","414","1235730","0.0-19.0-2.7","16123","List1B","black","woman","","","","null","","","","","","","","",""
"7319","","","survey-text","415","1243055","0.0-19.0-3.7","16123","List1B","black","woman","","","","","{""Q0"":""Fred is being challenged by dave""}","<img src=""stim_listB/challenge6.gif""style=""height:400px;""></stim_listB>","is being challenged by","","","","","",""
"null","<div style=""font-size:60px;"">+</div>","","html-keyboard-response","416","1243559","0.0-19.0-0.8","16123","List1B","black","woman","","","","null","","","","","","","","",""
"null","<img src=""stim_listB/greet8.gif""style=""height:400px;""></stim_listB>","","html-keyboard-response","417","1245563","0.0-19.0-1.8","16123","List1B","black","woman","","","","null","","","","","","","","",""
"null","is being greeted by","","html-keyboard-response","418","1247567","0.0-19.0-2.8","16123","List1B","black","woman","","","","null","","","","","","","","",""
"8281","","","survey-text","419","1255855","0.0-19.0-3.8","16123","List1B","black","woman","","","","","{""Q0"":""Beth is being greeted by jane ""}","<img src=""stim_listB/greet8.gif""style=""height:400px;""></stim_listB>","is being greeted by","","","","","",""
"null","<div style=""font-size:60px;"">+</div>","","html-keyboard-response","420","1256359","0.0-19.0-0.9","16123","List1B","black","woman","","","","null","","","","","","","","",""
"null","<img src=""stim_listB/look4.gif""style=""height:400px;""></stim_listB>","","html-keyboard-response","421","1258362","0.0-19.0-1.9","16123","List1B","black","woman","","","","null","","","","","","","","",""
"null","is being looked at by","","html-keyboard-response","422","1260371","0.0-19.0-2.9","16123","List1B","black","woman","","","","null","","","","","","","","",""
"6427","","","survey-text","423","1266807","0.0-19.0-3.9","16123","List1B","black","woman","","","","","{""Q0"":""Jane is being looked at by dave""}","<img src=""stim_listB/look4.gif""style=""height:400px;""></stim_listB>","is being looked at by","","","","","",""
"null","<div style=""font-size:60px;"">+</div>","","html-keyboard-response","424","1267310","0.0-19.0-0.10","16123","List1B","black","woman","","","","null","","","","","","","","",""
"null","<img src=""stim_listB/look5.gif""style=""height:400px;""></stim_listB>","","html-keyboard-response","425","1269314","0.0-19.0-1.10","16123","List1B","black","woman","","","","null","","","","","","","","",""
"null","is looking at","","html-keyboard-response","426","1271318","0.0-19.0-2.10","16123","List1B","black","woman","","","","null","","","","","","","","",""
"10302","","","survey-text","427","1281627","0.0-19.0-3.10","16123","List1B","black","woman","","","","","{""Q0"":""Fred is looking at luke""}","<img src=""stim_listB/look5.gif""style=""height:400px;""></stim_listB>","is looking at","","","","","",""
"null","<div style=""font-size:60px;"">+</div>","","html-keyboard-response","428","1282131","0.0-19.0-0.11","16123","List1B","black","woman","","","","null","","","","","","","","",""
"null","<img src=""stim_listB/seduce3.gif""style=""height:400px;""></stim_listB>","","html-keyboard-response","429","1284135","0.0-19.0-1.11","16123","List1B","black","woman","","","","null","","","","","","","","",""
"null","is seducing","","html-keyboard-response","430","1286138","0.0-19.0-2.11","16123","List1B","black","woman","","","","null","","","","","","","","",""
"5969","","","survey-text","431","1292116","0.0-19.0-3.11","16123","List1B","black","woman","","","","","{""Q0"":""Luke is seducing jane""}","<img src=""stim_listB/seduce3.gif""style=""height:400px;""></stim_listB>","is seducing","","","","","",""
"null","<div style=""font-size:60px;"">+</div>","","html-keyboard-response","432","1292618","0.0-19.0-0.12","16123","List1B","black","woman","","","","null","","","","","","","","",""
"null","<img src=""stim_listB/greet4.gif""style=""height:400px;""></stim_listB>","","html-keyboard-response","433","1294621","0.0-19.0-1.12","16123","List1B","black","woman","","","","null","","","","","","","","",""
"null","is being greeted by","","html-keyboard-response","434","1296625","0.0-19.0-2.12","16123","List1B","black","woman","","","","null","","","","","","","","",""
"7010","","","survey-text","435","1303642","0.0-19.0-3.12","16123","List1B","black","woman","","","","","{""Q0"":""Luke is being greeted by jane""}","<img src=""stim_listB/greet4.gif""style=""height:400px;""></stim_listB>","is being greeted by","","","","","",""
"null","<div style=""font-size:60px;"">+</div>","","html-keyboard-response","436","1304144","0.0-19.0-0.13","16123","List1B","black","woman","","","","null","","","","","","","","",""
"null","<img src=""stim_listB/hug4.gif""style=""height:400px;""></stim_listB>","","html-keyboard-response","437","1306146","0.0-19.0-1.13","16123","List1B","black","woman","","","","null","","","","","","","","",""
"null","is being hugged by","","html-keyboard-response","438","1308149","0.0-19.0-2.13","16123","List1B","black","woman","","","","null","","","","","","","","",""
"6981","","","survey-text","439","1315143","0.0-19.0-3.13","16123","List1B","black","woman","","","","","{""Q0"":""Jane is being hugged by dave""}","<img src=""stim_listB/hug4.gif""style=""height:400px;""></stim_listB>","is being hugged by","","","","","",""
"null","<div style=""font-size:60px;"">+</div>","","html-keyboard-response","440","1315658","0.0-19.0-0.14","16123","List1B","black","woman","","","","null","","","","","","","","",""
"null","<img src=""stim_listB/shout8.gif""style=""height:400px;""></stim_listB>","","html-keyboard-response","441","1317661","0.0-19.0-1.14","16123","List1B","black","woman","","","","null","","","","","","","","",""
"null","is being shouted at by","","html-keyboard-response","442","1319665","0.0-19.0-2.14","16123","List1B","black","woman","","","","null","","","","","","","","",""
"6958.999999999767","","","survey-text","443","1326632","0.0-19.0-3.14","16123","List1B","black","woman","","","","","{""Q0"":""Jane is being shouted at by kate ""}","<img src=""stim_listB/shout8.gif""style=""height:400px;""></stim_listB>","is being shouted at by","","","","","",""
"null","<div style=""font-size:60px;"">+</div>","","html-keyboard-response","444","1327135","0.0-19.0-0.15","16123","List1B","black","woman","","","","null","","","","","","","","",""
"null","<img src=""stim_listB/seduce6.gif""style=""height:400px;""></stim_listB>","","html-keyboard-response","445","1329139","0.0-19.0-1.15","16123","List1B","black","woman","","","","null","","","","","","","","",""
"null","is being seduced by","","html-keyboard-response","446","1331143","0.0-19.0-2.15","16123","List1B","black","woman","","","","null","","","","","","","","",""
"6344","","","survey-text","447","1337494","0.0-19.0-3.15","16123","List1B","black","woman","","","","","{""Q0"":""Luke is being seduced by mike ""}","<img src=""stim_listB/seduce6.gif""style=""height:400px;""></stim_listB>","is being seduced by","","","","","",""
"null","<div style=""font-size:60px;"">+</div>","","html-keyboard-response","448","1337996","0.0-19.0-0.16","16123","List1B","black","woman","","","","null","","","","","","","","",""
"null","<img src=""stim_listB/touch7.gif""style=""height:400px;""></stim_listB>","","html-keyboard-response","449","1339998","0.0-19.0-1.16","16123","List1B","black","woman","","","","null","","","","","","","","",""
"null","is touching","","html-keyboard-response","450","1342002","0.0-19.0-2.16","16123","List1B","black","woman","","","","null","","","","","","","","",""
"6036","","","survey-text","451","1348045","0.0-19.0-3.16","16123","List1B","black","woman","","","","","{""Q0"":""Jane is touching kate""}","<img src=""stim_listB/touch7.gif""style=""height:400px;""></stim_listB>","is touching","","","","","",""
"null","<div style=""font-size:60px;"">+</div>","","html-keyboard-response","452","1348547","0.0-19.0-0.17","16123","List1B","black","woman","","","","null","","","","","","","","",""
"null","<img src=""stim_listB/oppose2.gif""style=""height:400px;""></stim_listB>","","html-keyboard-response","453","1350550","0.0-19.0-1.17","16123","List1B","black","woman","","","","null","","","","","","","","",""
"null","is being opposed by","","html-keyboard-response","454","1352554","0.0-19.0-2.17","16123","List1B","black","woman","","","","null","","","","","","","","",""
"7334","","","survey-text","455","1359896","0.0-19.0-3.17","16123","List1B","black","woman","","","","","{""Q0"":""Beth is being opposed by fred""}","<img src=""stim_listB/oppose2.gif""style=""height:400px;""></stim_listB>","is being opposed by","","","","","",""
"null","<div style=""font-size:60px;"">+</div>","","html-keyboard-response","456","1360400","0.0-19.0-0.18","16123","List1B","black","woman","","","","null","","","","","","","","",""
"null","<img src=""stim_listB/challenge4.gif""style=""height:400px;""></stim_listB>","","html-keyboard-response","457","1362404","0.0-19.0-1.18","16123","List1B","black","woman","","","","null","","","","","","","","",""
"null","is being challenged by","","html-keyboard-response","458","1364407","0.0-19.0-2.18","16123","List1B","black","woman","","","","null","","","","","","","","",""
"9613","","","survey-text","459","1374028","0.0-19.0-3.18","16123","List1B","black","woman","","","","","{""Q0"":""Luke is being challenged by jane""}","<img src=""stim_listB/challenge4.gif""style=""height:400px;""></stim_listB>","is being challenged by","","","","","",""
"null","<div style=""font-size:60px;"">+</div>","","html-keyboard-response","460","1374532","0.0-19.0-0.19","16123","List1B","black","woman","","","","null","","","","","","","","",""
"null","<img src=""stim_listB/hug8.gif""style=""height:400px;""></stim_listB>","","html-keyboard-response","461","1376536","0.0-19.0-1.19","16123","List1B","black","woman","","","","null","","","","","","","","",""
"null","is being hugged by","","html-keyboard-response","462","1378539","0.0-19.0-2.19","16123","List1B","black","woman","","","","null","","","","","","","","",""
"8099","","","survey-text","463","1386647","0.0-19.0-3.19","16123","List1B","black","woman","","","","","{""Q0"":""Kate is being hugged by jane""}","<img src=""stim_listB/hug8.gif""style=""height:400px;""></stim_listB>","is being hugged by","","","","","",""
"3343","<p>Thank you for completing that task.</p><p>The final part of this session is a questionnaire that will take about 4 minutes.</p><p>Press Continue.</p>","0","html-button-response","464","1389992","0.0-20.0","16123","List1B","black","woman","","","","","","","","","","","","",""
"29731","","","survey-text","465","1420736","0.0-21.0","16123","List1B","black","woman","","","","","{""Q0"":""19"",""Q1"":""English"",""Q2"":""English"",""Q3"":""United States"",""Q4"":""American"",""Q5"":""Black"",""Q6"":""Woman""}","","","demographics","","","","",""
"2935","<p>Have you lived in the USA for the last 5 years or more?</p>","0","html-button-response","466","1423674","0.0-22.0","16123","List1B","black","woman","","","","","","","","fiveyears","","","","",""
"3033","<p>Move the slider to show the extent to which you agree with the following statements.</p>","0","html-button-response","467","1427711","0.0-23.0","16123","List1B","black","woman","","","","","","","","","","","","",""
"9854.999999999767","","","html-slider-response","468","1438577","0.0-24.0-0.0-0.0","16123","List1B","black","woman","","","","","","","","survey_race","69","","","I am similar to the average person of my race.","similar"
"3896","","","html-slider-response","469","1442477","0.0-24.0-0.0-0.1","16123","List1B","black","woman","","","","","","","","survey_race","82","","","It is pleasant to be my race.","pleasant"
"7444.999999999767","","","html-slider-response","470","1449922","0.0-24.0-0.0-0.2","16123","List1B","black","woman","","","","","","","","survey_race","69","","","I feel a bond with people the same age as me.","filler"
"4982","","","html-slider-response","471","1454896","0.0-24.0-0.0-0.3","16123","List1B","black","woman","","","","","","","","survey_race","100","","","Being my race is an important part of how I see myself.","important"
"2145","","","html-slider-response","472","1457040","0.0-24.0-0.0-0.4","16123","List1B","black","woman","","","","","","","","survey_race","100","","","I feel solidarity with my race.","solidarity"
"4329","","","html-slider-response","473","1461367","0.0-24.0-0.0-0.5","16123","List1B","black","woman","","","","","","","","survey_race","19","","","I often think about the fact that I am my age.","filler"
"7280","","","html-slider-response","474","1468644","0.0-24.0-0.0-0.6","16123","List1B","black","woman","","","","","","","","survey_race","100","","","The fact that I am my race is an important part of my identity.","identity"
"5814","","","html-slider-response","475","1474457","0.0-24.0-0.0-0.7","16123","List1B","black","woman","","","","","","","","survey_race","100","","","I feel committed to my race.","committed"
"5163","","","html-slider-response","476","1479622","0.0-24.0-0.0-0.8","16123","List1B","black","woman","","","","","","","","survey_race","77","","","I have a lot in common with the average person of my race.","average"
"5346","","","html-slider-response","477","1484970","0.0-24.0-0.0-0.9","16123","List1B","black","woman","","","","","","","","survey_race","73","","","I have a lot in common with people of a similar age to me.","filler"
"3148","","","html-slider-response","478","1488120","0.0-24.0-0.0-0.10","16123","List1B","black","woman","","","","","","","","survey_race","89","","","People my age have a lot in common with each other.","filler"
"4197","","","html-slider-response","479","1492319","0.0-24.0-0.0-0.11","16123","List1B","black","woman","","","","","","","","survey_race","100","","","I think that my race has a lot to be proud of.","proud"
"3366","","","html-slider-response","480","1495688","0.0-24.0-0.0-0.12","16123","List1B","black","woman","","","","","","","","survey_race","80","","","The older I get, the wiser I feel.","filler"
"5996.000000000233","","","html-slider-response","481","1501687","0.0-24.0-0.0-0.13","16123","List1B","black","woman","","","","","","","","survey_race","77","","","People of my race are very similar to each other.","verysimilar"
"2644","","","html-slider-response","482","1504335","0.0-24.0-0.0-0.14","16123","List1B","black","woman","","","","","","","","survey_race","97","","","Being my race gives me a good feeling.","feeling"
"2448","","","html-slider-response","483","1506787","0.0-24.0-0.0-0.15","16123","List1B","black","woman","","","","","","","","survey_race","77","","","I feel solidarity with people the same age as me.","filler"
"2126","","","html-slider-response","484","1508918","0.0-24.0-0.0-0.16","16123","List1B","black","woman","","","","","","","","survey_race","98","","","I feel a bond with my race.","bond"
