"rt","stimulus","button_pressed","trial_type","trial_index","time_elapsed","internal_node_id","subject","list","ppt_race","ppt_gender","url","first_guess","correct","key_press","responses","image_type","phrase_type","test_part","response","stimulus1","stimulus2","question_type","survey_item"
"1778.0999999046326","Welcome to the experiment. Press Continue to begin.","0","html-button-response","0","1780","0.0-0.0","16830","List2B","white","woman","","","","","","","","","","","","",""
"26149.5","","","external-html","1","29323","0.0-1.0","16830","List2B","white","woman","consent.html","","","","","","","","","","","",""
"9447.399999976158","<p>On the next page, you will see portraits of 8 people and their names.</p><p>Your first task is to take a few minutes to memorise the names of these people.</p><p>You will have to recall their names during the rest of the experiment, so it is</p><p>essential that you try to memorise these people and their names as best as you can.</p><br><p><strong>You will then be tested on your memory of these names and portraits.</strong></p><br><p>The experiment will start after you have completed this memory test.</p><br><p>Ready?</p>","0","html-button-response","2","38771","0.0-2.0","16830","List2B","white","woman","","","","","","","","","","","","",""
"115493.10000002384","<img src='img/portrait_matrix_list2.jpg' style='width:900px;height:500px;''></img><p>If you have memorised all the portraits and names and are ready to start, press Continue.</p><p><strong>Please note: Your memory of these faces will be tested 4 times during this experiment.</strong></p>","0","html-button-response","3","155268","0.0-3.0-0.0","16830","List2B","white","woman","","","","","","","","","","","","",""
"2913.600000023842","<img src=""portrait/BW2.jpg""style=""height:400px;""></img>","2","html-button-response","4","159196","0.0-3.0-1.0","16830","List2B","white","woman","","true","2","","","","","","","","","",""
"null","CORRECT","","html-keyboard-response","5","160722","0.0-3.0-2.0-0.0","16830","List2B","white","woman","","","","null","","","","","","","","",""
"2104.5","<img src=""portrait/BM2.jpg""style=""height:400px;""></img>","5","html-button-response","6","162828","0.0-3.0-4.0","16830","List2B","white","woman","","true","5","","","","","","","","","",""
"null","CORRECT","","html-keyboard-response","7","164357","0.0-3.0-5.0-0.0","16830","List2B","white","woman","","","","null","","","","","","","","",""
"2293.7999999523163","<img src=""portrait/BW1.jpg""style=""height:400px;""></img>","0","html-button-response","8","166652","0.0-3.0-7.0","16830","List2B","white","woman","","true","0","","","","","","","","","",""
"null","CORRECT","","html-keyboard-response","9","168176","0.0-3.0-8.0-0.0","16830","List2B","white","woman","","","","null","","","","","","","","",""
"2010.2999999523163","<img src=""portrait/WW1.jpg""style=""height:400px;""></img>","1","html-button-response","10","170188","0.0-3.0-10.0","16830","List2B","white","woman","","true","1","","","","","","","","","",""
"null","CORRECT","","html-keyboard-response","11","171714","0.0-3.0-11.0-0.0","16830","List2B","white","woman","","","","null","","","","","","","","",""
"2993","<img src=""portrait/WM1.jpg""style=""height:400px;""></img>","6","html-button-response","12","174708","0.0-3.0-13.0","16830","List2B","white","woman","","true","6","","","","","","","","","",""
"null","CORRECT","","html-keyboard-response","13","176217","0.0-3.0-14.0-0.0","16830","List2B","white","woman","","","","null","","","","","","","","",""
"1809.5","<img src=""portrait/WM2.jpg""style=""height:400px;""></img>","7","html-button-response","14","178028","0.0-3.0-16.0","16830","List2B","white","woman","","true","7","","","","","","","","","",""
"null","CORRECT","","html-keyboard-response","15","179556","0.0-3.0-17.0-0.0","16830","List2B","white","woman","","","","null","","","","","","","","",""
"2310.1999999284744","<img src=""portrait/BM1.jpg""style=""height:400px;""></img>","4","html-button-response","16","181868","0.0-3.0-19.0","16830","List2B","white","woman","","true","4","","","","","","","","","",""
"null","CORRECT","","html-keyboard-response","17","183396","0.0-3.0-20.0-0.0","16830","List2B","white","woman","","","","null","","","","","","","","",""
"2086","<img src=""portrait/WW2.jpg""style=""height:400px;""></img>","3","html-button-response","18","185483","0.0-3.0-22.0","16830","List2B","white","woman","","true","3","","","","","","","","","",""
"null","CORRECT","","html-keyboard-response","19","187005","0.0-3.0-23.0-0.0","16830","List2B","white","woman","","","","null","","","","","","","","",""
"1725","<p>You got 8 out of 8 right first time. Press Continue.</p>","0","html-button-response","20","188732","0.0-3.0-25.0","16830","List2B","white","woman","","","","","","","","","","","","",""
"28412.399999976158","<p>In this experiment, you will view photographs of the people from the memory game interacting.</p><p>By using the <strong>exact</strong> phrase given <i>after</i> the photograph appears and recalling the correct names of the people in the photographs, form a sentence describing the interaction. You do not need to capitalise names.</p><p>Type your answer in the space provided. Please complete every sentence before moving onto the next trial.</p><p>You will only have a few seconds to memorise each given photograph and phrase before you can respond, so try your best to focus.</p><p>An example is given below. Press 'Continue' when you are ready.</p><img src='img/speaking_example.jpg' style='width:800px;height:460px;''></img>","0","html-button-response","21","218148","0.0-4.0","16830","List2B","white","woman","","","","","","","","","","","","",""
"2462.1999999284744","<p>Before the experiment starts, you will watch two example trials. Press 'Continue'.</p>","0","html-button-response","22","221612","0.0-5.0","16830","List2B","white","woman","","","","","","","","","","","","",""
"null","<img src='img/play_eg.gif' style='height:400px;''></img>","","html-keyboard-response","23","224617","0.0-6.0","16830","List2B","white","woman","","","","null","","","","","","","","",""
"null","<p>is playing with</p>","","html-keyboard-response","24","226633","0.0-7.0","16830","List2B","white","woman","","","","null","","","","","","","","",""
"2746.1999999284744","<p><b>Answer:</b> jane is playing with ruth</p>","0","html-button-response","25","229380","0.0-8.0","16830","List2B","white","woman","","","","","","","","","","","","",""
"null","<img src='img/dance_eg.gif' style='height:400px;''></img>","","html-keyboard-response","26","232392","0.0-9.0","16830","List2B","white","woman","","","","null","","","","","","","","",""
"null","<p>is being entertained by</p>","","html-keyboard-response","27","234405","0.0-10.0","16830","List2B","white","woman","","","","null","","","","","","","","",""
"4333.899999976158","<p><b>Answer:</b> fred is being entertained by mike</p>","0","html-button-response","28","238740","0.0-11.0","16830","List2B","white","woman","","","","","","","","","","","","",""
"6984.299999952316","<p>Ready to start the experiment?</p><br><p><strong>Remember to describe the picture using a full sentence,</strong></p><p><strong>that combines the names of the people with the <i>exact</i> phrase given.</strong></p><p><strong>To receive full payment you must do this correctly.</strong></p><p><strong> You do not need to capitalise names or use punctuation.</strong></p><br><p>Press 'Continue' to begin.</p>","0","html-button-response","29","246732","0.0-12.0","16830","List2B","white","woman","","","","","","","","","","","","",""
"null","<div style=""font-size:60px;"">+</div>","","html-keyboard-response","30","248243","0.0-13.0-0.0","16830","List2B","white","woman","","","","null","","","","","","","","",""
"null","<img src=""stim_listB/shout2.gif""style=""height:400px;""></stim_listB>","","html-keyboard-response","31","250257","0.0-13.0-1.0","16830","List2B","white","woman","","","","null","","","","","","","","",""
"null","is being shouted at by","","html-keyboard-response","32","252273","0.0-13.0-2.0","16830","List2B","white","woman","","","","null","","","","","","","","",""
"5840.200000047684","","","survey-text","33","258116","0.0-13.0-3.0","16830","List2B","white","woman","","","","","{""Q0"":""jane is being shouted at by dave""}","<img src=""stim_listB/shout2.gif""style=""height:400px;""></stim_listB>","is being shouted at by","","","","","",""
"null","<div style=""font-size:60px;"">+</div>","","html-keyboard-response","34","258626","0.0-13.0-0.1","16830","List2B","white","woman","","","","null","","","","","","","","",""
"null","<img src=""stim_listB/look7.gif""style=""height:400px;""></stim_listB>","","html-keyboard-response","35","260641","0.0-13.0-1.1","16830","List2B","white","woman","","","","null","","","","","","","","",""
"null","is looking at","","html-keyboard-response","36","262654","0.0-13.0-2.1","16830","List2B","white","woman","","","","null","","","","","","","","",""
"2885.2000000476837","","","survey-text","37","265541","0.0-13.0-3.1","16830","List2B","white","woman","","","","","{""Q0"":""beth is looking at ruth""}","<img src=""stim_listB/look7.gif""style=""height:400px;""></stim_listB>","is looking at","","","","","",""
"null","<div style=""font-size:60px;"">+</div>","","html-keyboard-response","38","266056","0.0-13.0-0.2","16830","List2B","white","woman","","","","null","","","","","","","","",""
"null","<img src=""stim_listB/touch4.gif""style=""height:400px;""></stim_listB>","","html-keyboard-response","39","268064","0.0-13.0-1.2","16830","List2B","white","woman","","","","null","","","","","","","","",""
"null","is being touched by","","html-keyboard-response","40","270077","0.0-13.0-2.2","16830","List2B","white","woman","","","","null","","","","","","","","",""
"4533.100000023842","","","survey-text","41","274612","0.0-13.0-3.2","16830","List2B","white","woman","","","","","{""Q0"":""fred is being touched by beth""}","<img src=""stim_listB/touch4.gif""style=""height:400px;""></stim_listB>","is being touched by","","","","","",""
"null","<div style=""font-size:60px;"">+</div>","","html-keyboard-response","42","275118","0.0-13.0-0.3","16830","List2B","white","woman","","","","null","","","","","","","","",""
"null","<img src=""stim_listB/touch6.gif""style=""height:400px;""></stim_listB>","","html-keyboard-response","43","277130","0.0-13.0-1.3","16830","List2B","white","woman","","","","null","","","","","","","","",""
"null","is being touched by","","html-keyboard-response","44","279133","0.0-13.0-2.3","16830","List2B","white","woman","","","","null","","","","","","","","",""
"5905.100000023842","","","survey-text","45","285040","0.0-13.0-3.3","16830","List2B","white","woman","","","","","{""Q0"":""luke is being touched by fred""}","<img src=""stim_listB/touch6.gif""style=""height:400px;""></stim_listB>","is being touched by","","","","","",""
"null","<div style=""font-size:60px;"">+</div>","","html-keyboard-response","46","285542","0.0-13.0-0.4","16830","List2B","white","woman","","","","null","","","","","","","","",""
"null","<img src=""stim_listB/touch2.gif""style=""height:400px;""></stim_listB>","","html-keyboard-response","47","287557","0.0-13.0-1.4","16830","List2B","white","woman","","","","null","","","","","","","","",""
"null","is being touched by","","html-keyboard-response","48","289571","0.0-13.0-2.4","16830","List2B","white","woman","","","","null","","","","","","","","",""
"3438.100000023842","","","survey-text","49","293011","0.0-13.0-3.4","16830","List2B","white","woman","","","","","{""Q0"":""luke is being touched by ruth""}","<img src=""stim_listB/touch2.gif""style=""height:400px;""></stim_listB>","is being touched by","","","","","",""
"null","<div style=""font-size:60px;"">+</div>","","html-keyboard-response","50","293524","0.0-13.0-0.5","16830","List2B","white","woman","","","","null","","","","","","","","",""
"null","<img src=""stim_listB/look3.gif""style=""height:400px;""></stim_listB>","","html-keyboard-response","51","295529","0.0-13.0-1.5","16830","List2B","white","woman","","","","null","","","","","","","","",""
"null","is looking at","","html-keyboard-response","52","297544","0.0-13.0-2.5","16830","List2B","white","woman","","","","null","","","","","","","","",""
"2666.5999999046326","","","survey-text","53","300212","0.0-13.0-3.5","16830","List2B","white","woman","","","","","{""Q0"":""beth is looking at fred""}","<img src=""stim_listB/look3.gif""style=""height:400px;""></stim_listB>","is looking at","","","","","",""
"null","<div style=""font-size:60px;"">+</div>","","html-keyboard-response","54","300728","0.0-13.0-0.6","16830","List2B","white","woman","","","","null","","","","","","","","",""
"null","<img src=""stim_listB/shout7.gif""style=""height:400px;""></stim_listB>","","html-keyboard-response","55","302730","0.0-13.0-1.6","16830","List2B","white","woman","","","","null","","","","","","","","",""
"null","is shouting at","","html-keyboard-response","56","304737","0.0-13.0-2.6","16830","List2B","white","woman","","","","null","","","","","","","","",""
"2556.3000000715256","","","survey-text","57","307294","0.0-13.0-3.6","16830","List2B","white","woman","","","","","{""Q0"":""beth is shouting at ruth""}","<img src=""stim_listB/shout7.gif""style=""height:400px;""></stim_listB>","is shouting at","","","","","",""
"null","<div style=""font-size:60px;"">+</div>","","html-keyboard-response","58","307808","0.0-13.0-0.7","16830","List2B","white","woman","","","","null","","","","","","","","",""
"null","<img src=""stim_listB/seduce5.gif""style=""height:400px;""></stim_listB>","","html-keyboard-response","59","309815","0.0-13.0-1.7","16830","List2B","white","woman","","","","null","","","","","","","","",""
"null","is seducing","","html-keyboard-response","60","311827","0.0-13.0-2.7","16830","List2B","white","woman","","","","null","","","","","","","","",""
"3637.5","","","survey-text","61","315466","0.0-13.0-3.7","16830","List2B","white","woman","","","","","{""Q0"":""mike is seducing luke""}","<img src=""stim_listB/seduce5.gif""style=""height:400px;""></stim_listB>","is seducing","","","","","",""
"null","<div style=""font-size:60px;"">+</div>","","html-keyboard-response","62","315975","0.0-13.0-0.8","16830","List2B","white","woman","","","","null","","","","","","","","",""
"null","<img src=""stim_listB/copy8.gif""style=""height:400px;""></stim_listB>","","html-keyboard-response","63","317985","0.0-13.0-1.8","16830","List2B","white","woman","","","","null","","","","","","","","",""
"null","is being copied by","","html-keyboard-response","64","319992","0.0-13.0-2.8","16830","List2B","white","woman","","","","null","","","","","","","","",""
"8678","","","survey-text","65","328671","0.0-13.0-3.8","16830","List2B","white","woman","","","","","{""Q0"":""ruth is being copied by kate""}","<img src=""stim_listB/copy8.gif""style=""height:400px;""></stim_listB>","is being copied by","","","","","",""
"null","<div style=""font-size:60px;"">+</div>","","html-keyboard-response","66","329176","0.0-13.0-0.9","16830","List2B","white","woman","","","","null","","","","","","","","",""
"null","<img src=""stim_listB/touch3.gif""style=""height:400px;""></stim_listB>","","html-keyboard-response","67","331193","0.0-13.0-1.9","16830","List2B","white","woman","","","","null","","","","","","","","",""
"null","is touching","","html-keyboard-response","68","333202","0.0-13.0-2.9","16830","List2B","white","woman","","","","null","","","","","","","","",""
"3118.3000000715256","","","survey-text","69","336322","0.0-13.0-3.9","16830","List2B","white","woman","","","","","{""Q0"":""kate is touching mike""}","<img src=""stim_listB/touch3.gif""style=""height:400px;""></stim_listB>","is touching","","","","","",""
"null","<div style=""font-size:60px;"">+</div>","","html-keyboard-response","70","336828","0.0-13.0-0.10","16830","List2B","white","woman","","","","null","","","","","","","","",""
"null","<img src=""stim_listB/copy3.gif""style=""height:400px;""></stim_listB>","","html-keyboard-response","71","338844","0.0-13.0-1.10","16830","List2B","white","woman","","","","null","","","","","","","","",""
"null","is copying","","html-keyboard-response","72","340854","0.0-13.0-2.10","16830","List2B","white","woman","","","","null","","","","","","","","",""
"2578.600000023842","","","survey-text","73","343435","0.0-13.0-3.10","16830","List2B","white","woman","","","","","{""Q0"":""beth is copying mike""}","<img src=""stim_listB/copy3.gif""style=""height:400px;""></stim_listB>","is copying","","","","","",""
"null","<div style=""font-size:60px;"">+</div>","","html-keyboard-response","74","343946","0.0-13.0-0.11","16830","List2B","white","woman","","","","null","","","","","","","","",""
"null","<img src=""stim_listB/greet8.gif""style=""height:400px;""></stim_listB>","","html-keyboard-response","75","345950","0.0-13.0-1.11","16830","List2B","white","woman","","","","null","","","","","","","","",""
"null","is being greeted by","","html-keyboard-response","76","347951","0.0-13.0-2.11","16830","List2B","white","woman","","","","null","","","","","","","","",""
"4624.700000047684","","","survey-text","77","352577","0.0-13.0-3.11","16830","List2B","white","woman","","","","","{""Q0"":""ruth is being greeted by kate""}","<img src=""stim_listB/greet8.gif""style=""height:400px;""></stim_listB>","is being greeted by","","","","","",""
"null","<div style=""font-size:60px;"">+</div>","","html-keyboard-response","78","353090","0.0-13.0-0.12","16830","List2B","white","woman","","","","null","","","","","","","","",""
"null","<img src=""stim_listB/hug4.gif""style=""height:400px;""></stim_listB>","","html-keyboard-response","79","355098","0.0-13.0-1.12","16830","List2B","white","woman","","","","null","","","","","","","","",""
"null","is being hugged by","","html-keyboard-response","80","357100","0.0-13.0-2.12","16830","List2B","white","woman","","","","null","","","","","","","","",""
"3664.2000000476837","","","survey-text","81","360766","0.0-13.0-3.12","16830","List2B","white","woman","","","","","{""Q0"":""mike is being hugged by kate""}","<img src=""stim_listB/hug4.gif""style=""height:400px;""></stim_listB>","is being hugged by","","","","","",""
"null","<div style=""font-size:60px;"">+</div>","","html-keyboard-response","82","361269","0.0-13.0-0.13","16830","List2B","white","woman","","","","null","","","","","","","","",""
"null","<img src=""stim_listB/kiss1.gif""style=""height:400px;""></stim_listB>","","html-keyboard-response","83","363275","0.0-13.0-1.13","16830","List2B","white","woman","","","","null","","","","","","","","",""
"null","is kissing","","html-keyboard-response","84","365288","0.0-13.0-2.13","16830","List2B","white","woman","","","","null","","","","","","","","",""
"4197.5","","","survey-text","85","369488","0.0-13.0-3.13","16830","List2B","white","woman","","","","","{""Q0"":""luke is kissing ruth""}","<img src=""stim_listB/kiss1.gif""style=""height:400px;""></stim_listB>","is kissing","","","","","",""
"null","<div style=""font-size:60px;"">+</div>","","html-keyboard-response","86","370001","0.0-13.0-0.14","16830","List2B","white","woman","","","","null","","","","","","","","",""
"null","<img src=""stim_listB/seduce1.gif""style=""height:400px;""></stim_listB>","","html-keyboard-response","87","372007","0.0-13.0-1.14","16830","List2B","white","woman","","","","null","","","","","","","","",""
"null","is seducing","","html-keyboard-response","88","374022","0.0-13.0-2.14","16830","List2B","white","woman","","","","null","","","","","","","","",""
"3157.9000000953674","","","survey-text","89","377182","0.0-13.0-3.14","16830","List2B","white","woman","","","","","{""Q0"":""jane is seducing luke""}","<img src=""stim_listB/seduce1.gif""style=""height:400px;""></stim_listB>","is seducing","","","","","",""
"null","<div style=""font-size:60px;"">+</div>","","html-keyboard-response","90","377696","0.0-13.0-0.15","16830","List2B","white","woman","","","","null","","","","","","","","",""
"null","<img src=""stim_listB/challenge2.gif""style=""height:400px;""></stim_listB>","","html-keyboard-response","91","379710","0.0-13.0-1.15","16830","List2B","white","woman","","","","null","","","","","","","","",""
"null","is being challenged by","","html-keyboard-response","92","381711","0.0-13.0-2.15","16830","List2B","white","woman","","","","null","","","","","","","","",""
"4842","","","survey-text","93","386555","0.0-13.0-3.15","16830","List2B","white","woman","","","","","{""Q0"":""luke is being challenged by jane""}","<img src=""stim_listB/challenge2.gif""style=""height:400px;""></stim_listB>","is being challenged by","","","","","",""
"null","<div style=""font-size:60px;"">+</div>","","html-keyboard-response","94","387064","0.0-13.0-0.16","16830","List2B","white","woman","","","","null","","","","","","","","",""
"null","<img src=""stim_listB/greet2.gif""style=""height:400px;""></stim_listB>","","html-keyboard-response","95","389065","0.0-13.0-1.16","16830","List2B","white","woman","","","","null","","","","","","","","",""
"null","is being greeted by","","html-keyboard-response","96","391067","0.0-13.0-2.16","16830","List2B","white","woman","","","","null","","","","","","","","",""
"5290.5","","","survey-text","97","396359","0.0-13.0-3.16","16830","List2B","white","woman","","","","","{""Q0"":""jane is being greeted by luke""}","<img src=""stim_listB/greet2.gif""style=""height:400px;""></stim_listB>","is being greeted by","","","","","",""
"null","<div style=""font-size:60px;"">+</div>","","html-keyboard-response","98","396865","0.0-13.0-0.17","16830","List2B","white","woman","","","","null","","","","","","","","",""
"null","<img src=""stim_listB/shout4.gif""style=""height:400px;""></stim_listB>","","html-keyboard-response","99","398880","0.0-13.0-1.17","16830","List2B","white","woman","","","","null","","","","","","","","",""
"null","is being shouted at by","","html-keyboard-response","100","400888","0.0-13.0-2.17","16830","List2B","white","woman","","","","null","","","","","","","","",""
"4847.799999952316","","","survey-text","101","405737","0.0-13.0-3.17","16830","List2B","white","woman","","","","","{""Q0"":""mike is being shouted at by kate""}","<img src=""stim_listB/shout4.gif""style=""height:400px;""></stim_listB>","is being shouted at by","","","","","",""
"null","<div style=""font-size:60px;"">+</div>","","html-keyboard-response","102","406252","0.0-13.0-0.18","16830","List2B","white","woman","","","","null","","","","","","","","",""
"null","<img src=""stim_listB/hug6.gif""style=""height:400px;""></stim_listB>","","html-keyboard-response","103","408270","0.0-13.0-1.18","16830","List2B","white","woman","","","","null","","","","","","","","",""
"null","is being hugged by","","html-keyboard-response","104","410283","0.0-13.0-2.18","16830","List2B","white","woman","","","","null","","","","","","","","",""
"4122.800000071526","","","survey-text","105","414408","0.0-13.0-3.18","16830","List2B","white","woman","","","","","{""Q0"":""dave is being hugged by mike""}","<img src=""stim_listB/hug6.gif""style=""height:400px;""></stim_listB>","is being hugged by","","","","","",""
"null","<div style=""font-size:60px;"">+</div>","","html-keyboard-response","106","414922","0.0-13.0-0.19","16830","List2B","white","woman","","","","null","","","","","","","","",""
"null","<img src=""stim_listB/challenge5.gif""style=""height:400px;""></stim_listB>","","html-keyboard-response","107","416925","0.0-13.0-1.19","16830","List2B","white","woman","","","","null","","","","","","","","",""
"null","is challenging","","html-keyboard-response","108","418940","0.0-13.0-2.19","16830","List2B","white","woman","","","","null","","","","","","","","",""
"9965.600000023842","","","survey-text","109","428908","0.0-13.0-3.19","16830","List2B","white","woman","","","","","{""Q0"":""dave is challenging fred""}","<img src=""stim_listB/challenge5.gif""style=""height:400px;""></stim_listB>","is challenging","","","","","",""
"11486.199999928474","<img src='img/portrait_matrix_list2.jpg' style='width:900px;height:500px;''></img><p>If you have memorised all the portraits and names and are ready to start, press Continue.</p><p><strong>Please note: Your memory of these faces will be tested 4 times during this experiment.</strong></p>","0","html-button-response","110","440394","0.0-14.0-0.0","16830","List2B","white","woman","","","","","","","","","","","","",""
"2716.899999976158","<img src=""portrait/WW2.jpg""style=""height:400px;""></img>","3","html-button-response","111","444114","0.0-14.0-1.0","16830","List2B","white","woman","","true","3","","","","","","","","","",""
"null","CORRECT","","html-keyboard-response","112","445627","0.0-14.0-2.0-0.0","16830","List2B","white","woman","","","","null","","","","","","","","",""
"1718.0999999046326","<img src=""portrait/BW2.jpg""style=""height:400px;""></img>","2","html-button-response","113","447346","0.0-14.0-4.0","16830","List2B","white","woman","","true","2","","","","","","","","","",""
"null","CORRECT","","html-keyboard-response","114","448874","0.0-14.0-5.0-0.0","16830","List2B","white","woman","","","","null","","","","","","","","",""
"3895.100000023842","<img src=""portrait/BW1.jpg""style=""height:400px;""></img>","0","html-button-response","115","452771","0.0-14.0-7.0","16830","List2B","white","woman","","true","0","","","","","","","","","",""
"null","CORRECT","","html-keyboard-response","116","454272","0.0-14.0-8.0-0.0","16830","List2B","white","woman","","","","null","","","","","","","","",""
"2001","<img src=""portrait/WM2.jpg""style=""height:400px;""></img>","7","html-button-response","117","456275","0.0-14.0-10.0","16830","List2B","white","woman","","true","7","","","","","","","","","",""
"null","CORRECT","","html-keyboard-response","118","457785","0.0-14.0-11.0-0.0","16830","List2B","white","woman","","","","null","","","","","","","","",""
"2864.899999976158","<img src=""portrait/WW1.jpg""style=""height:400px;""></img>","1","html-button-response","119","460651","0.0-14.0-13.0","16830","List2B","white","woman","","true","1","","","","","","","","","",""
"null","CORRECT","","html-keyboard-response","120","462165","0.0-14.0-14.0-0.0","16830","List2B","white","woman","","","","null","","","","","","","","",""
"3292.3000000715256","<img src=""portrait/BM1.jpg""style=""height:400px;""></img>","4","html-button-response","121","465459","0.0-14.0-16.0","16830","List2B","white","woman","","true","4","","","","","","","","","",""
"null","CORRECT","","html-keyboard-response","122","466985","0.0-14.0-17.0-0.0","16830","List2B","white","woman","","","","null","","","","","","","","",""
"2512.2999999523163","<img src=""portrait/WM1.jpg""style=""height:400px;""></img>","6","html-button-response","123","469499","0.0-14.0-19.0","16830","List2B","white","woman","","true","6","","","","","","","","","",""
"null","CORRECT","","html-keyboard-response","124","471009","0.0-14.0-20.0-0.0","16830","List2B","white","woman","","","","null","","","","","","","","",""
"1104","<img src=""portrait/BM2.jpg""style=""height:400px;""></img>","5","html-button-response","125","472115","0.0-14.0-22.0","16830","List2B","white","woman","","true","5","","","","","","","","","",""
"null","CORRECT","","html-keyboard-response","126","473619","0.0-14.0-23.0-0.0","16830","List2B","white","woman","","","","null","","","","","","","","",""
"1342.2000000476837","<p>You got 8 out of 8 right first time. Press Continue.</p>","0","html-button-response","127","474963","0.0-14.0-25.0","16830","List2B","white","woman","","","","","","","","","","","","",""
"null","<div style=""font-size:60px;"">+</div>","","html-keyboard-response","128","476485","0.0-15.0-0.0","16830","List2B","white","woman","","","","null","","","","","","","","",""
"null","<img src=""stim_listB/kiss5.gif""style=""height:400px;""></stim_listB>","","html-keyboard-response","129","478496","0.0-15.0-1.0","16830","List2B","white","woman","","","","null","","","","","","","","",""
"null","is kissing","","html-keyboard-response","130","480500","0.0-15.0-2.0","16830","List2B","white","woman","","","","null","","","","","","","","",""
"3531.4000000953674","","","survey-text","131","484034","0.0-15.0-3.0","16830","List2B","white","woman","","","","","{""Q0"":""luke is kissing fred""}","<img src=""stim_listB/kiss5.gif""style=""height:400px;""></stim_listB>","is kissing","","","","","",""
"null","<div style=""font-size:60px;"">+</div>","","html-keyboard-response","132","484546","0.0-15.0-0.1","16830","List2B","white","woman","","","","null","","","","","","","","",""
"null","<img src=""stim_listB/challenge7.gif""style=""height:400px;""></stim_listB>","","html-keyboard-response","133","486551","0.0-15.0-1.1","16830","List2B","white","woman","","","","null","","","","","","","","",""
"null","is challenging","","html-keyboard-response","134","488562","0.0-15.0-2.1","16830","List2B","white","woman","","","","null","","","","","","","","",""
"3415.399999976158","","","survey-text","135","491979","0.0-15.0-3.1","16830","List2B","white","woman","","","","","{""Q0"":""beth is challenging jane""}","<img src=""stim_listB/challenge7.gif""style=""height:400px;""></stim_listB>","is challenging","","","","","",""
"null","<div style=""font-size:60px;"">+</div>","","html-keyboard-response","136","492485","0.0-15.0-0.2","16830","List2B","white","woman","","","","null","","","","","","","","",""
"null","<img src=""stim_listB/oppose6.gif""style=""height:400px;""></stim_listB>","","html-keyboard-response","137","494494","0.0-15.0-1.2","16830","List2B","white","woman","","","","null","","","","","","","","",""
"null","is being opposed by","","html-keyboard-response","138","496510","0.0-15.0-2.2","16830","List2B","white","woman","","","","null","","","","","","","","",""
"6037.300000071526","","","survey-text","139","502549","0.0-15.0-3.2","16830","List2B","white","woman","","","","","{""Q0"":""luke is being opposed by fred""}","<img src=""stim_listB/oppose6.gif""style=""height:400px;""></stim_listB>","is being opposed by","","","","","",""
"null","<div style=""font-size:60px;"">+</div>","","html-keyboard-response","140","503055","0.0-15.0-0.3","16830","List2B","white","woman","","","","null","","","","","","","","",""
"null","<img src=""stim_listB/hug2.gif""style=""height:400px;""></stim_listB>","","html-keyboard-response","141","505065","0.0-15.0-1.3","16830","List2B","white","woman","","","","null","","","","","","","","",""
"null","is being hugged by","","html-keyboard-response","142","507069","0.0-15.0-2.3","16830","List2B","white","woman","","","","null","","","","","","","","",""
"4572.300000071526","","","survey-text","143","511643","0.0-15.0-3.3","16830","List2B","white","woman","","","","","{""Q0"":""dave is being hugged by jane""}","<img src=""stim_listB/hug2.gif""style=""height:400px;""></stim_listB>","is being hugged by","","","","","",""
"null","<div style=""font-size:60px;"">+</div>","","html-keyboard-response","144","512158","0.0-15.0-0.4","16830","List2B","white","woman","","","","null","","","","","","","","",""
"null","<img src=""stim_listB/copy7.gif""style=""height:400px;""></stim_listB>","","html-keyboard-response","145","514160","0.0-15.0-1.4","16830","List2B","white","woman","","","","null","","","","","","","","",""
"null","is copying","","html-keyboard-response","146","516172","0.0-15.0-2.4","16830","List2B","white","woman","","","","null","","","","","","","","",""
"7135.699999928474","","","survey-text","147","523310","0.0-15.0-3.4","16830","List2B","white","woman","","","","","{""Q0"":""beth is copying jane""}","<img src=""stim_listB/copy7.gif""style=""height:400px;""></stim_listB>","is copying","","","","","",""
"null","<div style=""font-size:60px;"">+</div>","","html-keyboard-response","148","523826","0.0-15.0-0.5","16830","List2B","white","woman","","","","null","","","","","","","","",""
"null","<img src=""stim_listB/touch1.gif""style=""height:400px;""></stim_listB>","","html-keyboard-response","149","525831","0.0-15.0-1.5","16830","List2B","white","woman","","","","null","","","","","","","","",""
"null","is touching","","html-keyboard-response","150","527832","0.0-15.0-2.5","16830","List2B","white","woman","","","","null","","","","","","","","",""
"4396.199999928474","","","survey-text","151","532230","0.0-15.0-3.5","16830","List2B","white","woman","","","","","{""Q0"":""jane is touching dave""}","<img src=""stim_listB/touch1.gif""style=""height:400px;""></stim_listB>","is touching","","","","","",""
"null","<div style=""font-size:60px;"">+</div>","","html-keyboard-response","152","532742","0.0-15.0-0.6","16830","List2B","white","woman","","","","null","","","","","","","","",""
"null","<img src=""stim_listB/challenge1.gif""style=""height:400px;""></stim_listB>","","html-keyboard-response","153","534747","0.0-15.0-1.6","16830","List2B","white","woman","","","","null","","","","","","","","",""
"null","is challenging","","html-keyboard-response","154","536762","0.0-15.0-2.6","16830","List2B","white","woman","","","","null","","","","","","","","",""
"2943.2000000476837","","","survey-text","155","539707","0.0-15.0-3.6","16830","List2B","white","woman","","","","","{""Q0"":""ruth is challenging dave""}","<img src=""stim_listB/challenge1.gif""style=""height:400px;""></stim_listB>","is challenging","","","","","",""
"null","<div style=""font-size:60px;"">+</div>","","html-keyboard-response","156","540220","0.0-15.0-0.7","16830","List2B","white","woman","","","","null","","","","","","","","",""
"null","<img src=""stim_listB/kiss6.gif""style=""height:400px;""></stim_listB>","","html-keyboard-response","157","542236","0.0-15.0-1.7","16830","List2B","white","woman","","","","null","","","","","","","","",""
"null","is being kissed by","","html-keyboard-response","158","544252","0.0-15.0-2.7","16830","List2B","white","woman","","","","null","","","","","","","","",""
"3609.399999976158","","","survey-text","159","547863","0.0-15.0-3.7","16830","List2B","white","woman","","","","","{""Q0"":""mike is being kissed by dave""}","<img src=""stim_listB/kiss6.gif""style=""height:400px;""></stim_listB>","is being kissed by","","","","","",""
"null","<div style=""font-size:60px;"">+</div>","","html-keyboard-response","160","548364","0.0-15.0-0.8","16830","List2B","white","woman","","","","null","","","","","","","","",""
"null","<img src=""stim_listB/greet3.gif""style=""height:400px;""></stim_listB>","","html-keyboard-response","161","550367","0.0-15.0-1.8","16830","List2B","white","woman","","","","null","","","","","","","","",""
"null","is greeting","","html-keyboard-response","162","552381","0.0-15.0-2.8","16830","List2B","white","woman","","","","null","","","","","","","","",""
"2819.2000000476837","","","survey-text","163","555202","0.0-15.0-3.8","16830","List2B","white","woman","","","","","{""Q0"":""beth is greeting mike""}","<img src=""stim_listB/greet3.gif""style=""height:400px;""></stim_listB>","is greeting","","","","","",""
"null","<div style=""font-size:60px;"">+</div>","","html-keyboard-response","164","555707","0.0-15.0-0.9","16830","List2B","white","woman","","","","null","","","","","","","","",""
"null","<img src=""stim_listB/oppose3.gif""style=""height:400px;""></stim_listB>","","html-keyboard-response","165","557723","0.0-15.0-1.9","16830","List2B","white","woman","","","","null","","","","","","","","",""
"null","is opposing","","html-keyboard-response","166","559725","0.0-15.0-2.9","16830","List2B","white","woman","","","","null","","","","","","","","",""
"3377.899999976158","","","survey-text","167","563105","0.0-15.0-3.9","16830","List2B","white","woman","","","","","{""Q0"":""kate is opposing mike""}","<img src=""stim_listB/oppose3.gif""style=""height:400px;""></stim_listB>","is opposing","","","","","",""
"null","<div style=""font-size:60px;"">+</div>","","html-keyboard-response","168","563606","0.0-15.0-0.10","16830","List2B","white","woman","","","","null","","","","","","","","",""
"null","<img src=""stim_listB/touch5.gif""style=""height:400px;""></stim_listB>","","html-keyboard-response","169","565618","0.0-15.0-1.10","16830","List2B","white","woman","","","","null","","","","","","","","",""
"null","is touching","","html-keyboard-response","170","567628","0.0-15.0-2.10","16830","List2B","white","woman","","","","null","","","","","","","","",""
"2319.399999976158","","","survey-text","171","569949","0.0-15.0-3.10","16830","List2B","white","woman","","","","","{""Q0"":""mike is touching dave""}","<img src=""stim_listB/touch5.gif""style=""height:400px;""></stim_listB>","is touching","","","","","",""
"null","<div style=""font-size:60px;"">+</div>","","html-keyboard-response","172","570451","0.0-15.0-0.11","16830","List2B","white","woman","","","","null","","","","","","","","",""
"null","<img src=""stim_listB/seduce2.gif""style=""height:400px;""></stim_listB>","","html-keyboard-response","173","572463","0.0-15.0-1.11","16830","List2B","white","woman","","","","null","","","","","","","","",""
"null","is being seduced by","","html-keyboard-response","174","574472","0.0-15.0-2.11","16830","List2B","white","woman","","","","null","","","","","","","","",""
"4175.699999928474","","","survey-text","175","578649","0.0-15.0-3.11","16830","List2B","white","woman","","","","","{""Q0"":""dave is being seduced by ruth""}","<img src=""stim_listB/seduce2.gif""style=""height:400px;""></stim_listB>","is being seduced by","","","","","",""
"null","<div style=""font-size:60px;"">+</div>","","html-keyboard-response","176","579163","0.0-15.0-0.12","16830","List2B","white","woman","","","","null","","","","","","","","",""
"null","<img src=""stim_listB/touch8.gif""style=""height:400px;""></stim_listB>","","html-keyboard-response","177","581167","0.0-15.0-1.12","16830","List2B","white","woman","","","","null","","","","","","","","",""
"null","is being touched by","","html-keyboard-response","178","583172","0.0-15.0-2.12","16830","List2B","white","woman","","","","null","","","","","","","","",""
"3564.100000023842","","","survey-text","179","586737","0.0-15.0-3.12","16830","List2B","white","woman","","","","","{""Q0"":""ruth is being touched by beth""}","<img src=""stim_listB/touch8.gif""style=""height:400px;""></stim_listB>","is being touched by","","","","","",""
"null","<div style=""font-size:60px;"">+</div>","","html-keyboard-response","180","587243","0.0-15.0-0.13","16830","List2B","white","woman","","","","null","","","","","","","","",""
"null","<img src=""stim_listB/look1.gif""style=""height:400px;""></stim_listB>","","html-keyboard-response","181","589253","0.0-15.0-1.13","16830","List2B","white","woman","","","","null","","","","","","","","",""
"null","is looking at","","html-keyboard-response","182","591260","0.0-15.0-2.13","16830","List2B","white","woman","","","","null","","","","","","","","",""
"5210.899999976158","","","survey-text","183","596472","0.0-15.0-3.13","16830","List2B","white","woman","","","","","{""Q0"":""ruth is looking at luke""}","<img src=""stim_listB/look1.gif""style=""height:400px;""></stim_listB>","is looking at","","","","","",""
"null","<div style=""font-size:60px;"">+</div>","","html-keyboard-response","184","596989","0.0-15.0-0.14","16830","List2B","white","woman","","","","null","","","","","","","","",""
"null","<img src=""stim_listB/kiss7.gif""style=""height:400px;""></stim_listB>","","html-keyboard-response","185","598990","0.0-15.0-1.14","16830","List2B","white","woman","","","","null","","","","","","","","",""
"null","is kissing","","html-keyboard-response","186","601005","0.0-15.0-2.14","16830","List2B","white","woman","","","","null","","","","","","","","",""
"3018.9000000953674","","","survey-text","187","604026","0.0-15.0-3.14","16830","List2B","white","woman","","","","","{""Q0"":""beth is kissing ruth""}","<img src=""stim_listB/kiss7.gif""style=""height:400px;""></stim_listB>","is kissing","","","","","",""
"null","<div style=""font-size:60px;"">+</div>","","html-keyboard-response","188","604542","0.0-15.0-0.15","16830","List2B","white","woman","","","","null","","","","","","","","",""
"null","<img src=""stim_listB/hug8.gif""style=""height:400px;""></stim_listB>","","html-keyboard-response","189","606558","0.0-15.0-1.15","16830","List2B","white","woman","","","","null","","","","","","","","",""
"null","is being hugged by","","html-keyboard-response","190","608561","0.0-15.0-2.15","16830","List2B","white","woman","","","","null","","","","","","","","",""
"3542.600000023842","","","survey-text","191","612108","0.0-15.0-3.15","16830","List2B","white","woman","","","","","{""Q0"":""jane is being hugged by kate""}","<img src=""stim_listB/hug8.gif""style=""height:400px;""></stim_listB>","is being hugged by","","","","","",""
"null","<div style=""font-size:60px;"">+</div>","","html-keyboard-response","192","612617","0.0-15.0-0.16","16830","List2B","white","woman","","","","null","","","","","","","","",""
"null","<img src=""stim_listB/copy5.gif""style=""height:400px;""></stim_listB>","","html-keyboard-response","193","614630","0.0-15.0-1.16","16830","List2B","white","woman","","","","null","","","","","","","","",""
"null","is copying","","html-keyboard-response","194","616640","0.0-15.0-2.16","16830","List2B","white","woman","","","","null","","","","","","","","",""
"4277.5","","","survey-text","195","620920","0.0-15.0-3.16","16830","List2B","white","woman","","","","","{""Q0"":""fred is copying dave""}","<img src=""stim_listB/copy5.gif""style=""height:400px;""></stim_listB>","is copying","","","","","",""
"null","<div style=""font-size:60px;"">+</div>","","html-keyboard-response","196","621431","0.0-15.0-0.17","16830","List2B","white","woman","","","","null","","","","","","","","",""
"null","<img src=""stim_listB/shout8.gif""style=""height:400px;""></stim_listB>","","html-keyboard-response","197","623433","0.0-15.0-1.17","16830","List2B","white","woman","","","","null","","","","","","","","",""
"null","is being shouted at by","","html-keyboard-response","198","625436","0.0-15.0-2.17","16830","List2B","white","woman","","","","null","","","","","","","","",""
"4422.800000071526","","","survey-text","199","629861","0.0-15.0-3.17","16830","List2B","white","woman","","","","","{""Q0"":""kate is being shouted at by jane""}","<img src=""stim_listB/shout8.gif""style=""height:400px;""></stim_listB>","is being shouted at by","","","","","",""
"null","<div style=""font-size:60px;"">+</div>","","html-keyboard-response","200","630373","0.0-15.0-0.18","16830","List2B","white","woman","","","","null","","","","","","","","",""
"null","<img src=""stim_listB/look5.gif""style=""height:400px;""></stim_listB>","","html-keyboard-response","201","632385","0.0-15.0-1.18","16830","List2B","white","woman","","","","null","","","","","","","","",""
"null","is looking at","","html-keyboard-response","202","634400","0.0-15.0-2.18","16830","List2B","white","woman","","","","null","","","","","","","","",""
"5717.100000023842","","","survey-text","203","640119","0.0-15.0-3.18","16830","List2B","white","woman","","","","","{""Q0"":""luke is looking at fred""}","<img src=""stim_listB/look5.gif""style=""height:400px;""></stim_listB>","is looking at","","","","","",""
"null","<div style=""font-size:60px;"">+</div>","","html-keyboard-response","204","640630","0.0-15.0-0.19","16830","List2B","white","woman","","","","null","","","","","","","","",""
"null","<img src=""stim_listB/oppose5.gif""style=""height:400px;""></stim_listB>","","html-keyboard-response","205","642648","0.0-15.0-1.19","16830","List2B","white","woman","","","","null","","","","","","","","",""
"null","is opposing","","html-keyboard-response","206","644651","0.0-15.0-2.19","16830","List2B","white","woman","","","","null","","","","","","","","",""
"4125.399999976158","","","survey-text","207","648779","0.0-15.0-3.19","16830","List2B","white","woman","","","","","{""Q0"":""mike is opposing dave""}","<img src=""stim_listB/oppose5.gif""style=""height:400px;""></stim_listB>","is opposing","","","","","",""
"6910.200000047684","<img src='img/portrait_matrix_list2.jpg' style='width:900px;height:500px;''></img><p>If you have memorised all the portraits and names and are ready to start, press Continue.</p><p><strong>Please note: Your memory of these faces will be tested 4 times during this experiment.</strong></p>","0","html-button-response","208","655690","0.0-16.0-0.0","16830","List2B","white","woman","","","","","","","","","","","","",""
"2196.3000000715256","<img src=""portrait/BW1.jpg""style=""height:400px;""></img>","0","html-button-response","209","658890","0.0-16.0-1.0","16830","List2B","white","woman","","true","0","","","","","","","","","",""
"null","CORRECT","","html-keyboard-response","210","660394","0.0-16.0-2.0-0.0","16830","List2B","white","woman","","","","null","","","","","","","","",""
"1670.6000000238419","<img src=""portrait/WW2.jpg""style=""height:400px;""></img>","3","html-button-response","211","662066","0.0-16.0-4.0","16830","List2B","white","woman","","true","3","","","","","","","","","",""
"null","CORRECT","","html-keyboard-response","212","663589","0.0-16.0-5.0-0.0","16830","List2B","white","woman","","","","null","","","","","","","","",""
"1531.3000000715256","<img src=""portrait/BW2.jpg""style=""height:400px;""></img>","2","html-button-response","213","665122","0.0-16.0-7.0","16830","List2B","white","woman","","true","2","","","","","","","","","",""
"null","CORRECT","","html-keyboard-response","214","666639","0.0-16.0-8.0-0.0","16830","List2B","white","woman","","","","null","","","","","","","","",""
"2769","<img src=""portrait/WW1.jpg""style=""height:400px;""></img>","1","html-button-response","215","669410","0.0-16.0-10.0","16830","List2B","white","woman","","true","1","","","","","","","","","",""
"null","CORRECT","","html-keyboard-response","216","670920","0.0-16.0-11.0-0.0","16830","List2B","white","woman","","","","null","","","","","","","","",""
"3032.3000000715256","<img src=""portrait/WM1.jpg""style=""height:400px;""></img>","6","html-button-response","217","673954","0.0-16.0-13.0","16830","List2B","white","woman","","true","6","","","","","","","","","",""
"null","CORRECT","","html-keyboard-response","218","675470","0.0-16.0-14.0-0.0","16830","List2B","white","woman","","","","null","","","","","","","","",""
"1338.2000000476837","<img src=""portrait/BM1.jpg""style=""height:400px;""></img>","4","html-button-response","219","676810","0.0-16.0-16.0","16830","List2B","white","woman","","true","4","","","","","","","","","",""
"null","CORRECT","","html-keyboard-response","220","678332","0.0-16.0-17.0-0.0","16830","List2B","white","woman","","","","null","","","","","","","","",""
"1356.3999999761581","<img src=""portrait/BM2.jpg""style=""height:400px;""></img>","5","html-button-response","221","679690","0.0-16.0-19.0","16830","List2B","white","woman","","true","5","","","","","","","","","",""
"null","CORRECT","","html-keyboard-response","222","681193","0.0-16.0-20.0-0.0","16830","List2B","white","woman","","","","null","","","","","","","","",""
"1239.3999999761581","<img src=""portrait/WM2.jpg""style=""height:400px;""></img>","7","html-button-response","223","682434","0.0-16.0-22.0","16830","List2B","white","woman","","true","7","","","","","","","","","",""
"null","CORRECT","","html-keyboard-response","224","683949","0.0-16.0-23.0-0.0","16830","List2B","white","woman","","","","null","","","","","","","","",""
"1971.3000000715256","<p>You got 8 out of 8 right first time. Press Continue.</p>","0","html-button-response","225","685922","0.0-16.0-25.0","16830","List2B","white","woman","","","","","","","","","","","","",""
"null","<div style=""font-size:60px;"">+</div>","","html-keyboard-response","226","687434","0.0-17.0-0.0","16830","List2B","white","woman","","","","null","","","","","","","","",""
"null","<img src=""stim_listB/oppose1.gif""style=""height:400px;""></stim_listB>","","html-keyboard-response","227","689442","0.0-17.0-1.0","16830","List2B","white","woman","","","","null","","","","","","","","",""
"null","is opposing","","html-keyboard-response","228","691453","0.0-17.0-2.0","16830","List2B","white","woman","","","","null","","","","","","","","",""
"4984.399999976158","","","survey-text","229","696440","0.0-17.0-3.0","16830","List2B","white","woman","","","","","{""Q0"":""jane is opposing dave""}","<img src=""stim_listB/oppose1.gif""style=""height:400px;""></stim_listB>","is opposing","","","","","",""
"null","<div style=""font-size:60px;"">+</div>","","html-keyboard-response","230","696944","0.0-17.0-0.1","16830","List2B","white","woman","","","","null","","","","","","","","",""
"null","<img src=""stim_listB/greet1.gif""style=""height:400px;""></stim_listB>","","html-keyboard-response","231","698949","0.0-17.0-1.1","16830","List2B","white","woman","","","","null","","","","","","","","",""
"null","is greeting","","html-keyboard-response","232","700964","0.0-17.0-2.1","16830","List2B","white","woman","","","","null","","","","","","","","",""
"3005.2000000476837","","","survey-text","233","703972","0.0-17.0-3.1","16830","List2B","white","woman","","","","","{""Q0"":""dave is greeting ruth""}","<img src=""stim_listB/greet1.gif""style=""height:400px;""></stim_listB>","is greeting","","","","","",""
"null","<div style=""font-size:60px;"">+</div>","","html-keyboard-response","234","704474","0.0-17.0-0.2","16830","List2B","white","woman","","","","null","","","","","","","","",""
"null","<img src=""stim_listB/oppose4.gif""style=""height:400px;""></stim_listB>","","html-keyboard-response","235","706485","0.0-17.0-1.2","16830","List2B","white","woman","","","","null","","","","","","","","",""
"null","is being opposed by","","html-keyboard-response","236","708494","0.0-17.0-2.2","16830","List2B","white","woman","","","","null","","","","","","","","",""
"3474.100000023842","","","survey-text","237","711970","0.0-17.0-3.2","16830","List2B","white","woman","","","","","{""Q0"":""beth is being opposed by fred""}","<img src=""stim_listB/oppose4.gif""style=""height:400px;""></stim_listB>","is being opposed by","","","","","",""
"null","<div style=""font-size:60px;"">+</div>","","html-keyboard-response","238","712481","0.0-17.0-0.3","16830","List2B","white","woman","","","","null","","","","","","","","",""
"null","<img src=""stim_listB/challenge3.gif""style=""height:400px;""></stim_listB>","","html-keyboard-response","239","714490","0.0-17.0-1.3","16830","List2B","white","woman","","","","null","","","","","","","","",""
"null","is challenging","","html-keyboard-response","240","716501","0.0-17.0-2.3","16830","List2B","white","woman","","","","null","","","","","","","","",""
"3245.899999976158","","","survey-text","241","719748","0.0-17.0-3.3","16830","List2B","white","woman","","","","","{""Q0"":""beth is challenging mike""}","<img src=""stim_listB/challenge3.gif""style=""height:400px;""></stim_listB>","is challenging","","","","","",""
"null","<div style=""font-size:60px;"">+</div>","","html-keyboard-response","242","720255","0.0-17.0-0.4","16830","List2B","white","woman","","","","null","","","","","","","","",""
"null","<img src=""stim_listB/oppose2.gif""style=""height:400px;""></stim_listB>","","html-keyboard-response","243","722266","0.0-17.0-1.4","16830","List2B","white","woman","","","","null","","","","","","","","",""
"null","is being opposed by","","html-keyboard-response","244","724282","0.0-17.0-2.4","16830","List2B","white","woman","","","","null","","","","","","","","",""
"7778.399999976158","","","survey-text","245","732062","0.0-17.0-3.4","16830","List2B","white","woman","","","","","{""Q0"":""luke is being opposed by ruth""}","<img src=""stim_listB/oppose2.gif""style=""height:400px;""></stim_listB>","is being opposed by","","","","","",""
"null","<div style=""font-size:60px;"">+</div>","","html-keyboard-response","246","732573","0.0-17.0-0.5","16830","List2B","white","woman","","","","null","","","","","","","","",""
"null","<img src=""stim_listB/shout1.gif""style=""height:400px;""></stim_listB>","","html-keyboard-response","247","734579","0.0-17.0-1.5","16830","List2B","white","woman","","","","null","","","","","","","","",""
"null","is shouting at","","html-keyboard-response","248","736585","0.0-17.0-2.5","16830","List2B","white","woman","","","","null","","","","","","","","",""
"5050.5","","","survey-text","249","741637","0.0-17.0-3.5","16830","List2B","white","woman","","","","","{""Q0"":""luke is shouting at ruth""}","<img src=""stim_listB/shout1.gif""style=""height:400px;""></stim_listB>","is shouting at","","","","","",""
"null","<div style=""font-size:60px;"">+</div>","","html-keyboard-response","250","742146","0.0-17.0-0.6","16830","List2B","white","woman","","","","null","","","","","","","","",""
"null","<img src=""stim_listB/greet4.gif""style=""height:400px;""></stim_listB>","","html-keyboard-response","251","744160","0.0-17.0-1.6","16830","List2B","white","woman","","","","null","","","","","","","","",""
"null","is being greeted by","","html-keyboard-response","252","746166","0.0-17.0-2.6","16830","List2B","white","woman","","","","null","","","","","","","","",""
"5329.300000071526","","","survey-text","253","751498","0.0-17.0-3.6","16830","List2B","white","woman","","","","","{""Q0"":""fred is being greeted by kate""}","<img src=""stim_listB/greet4.gif""style=""height:400px;""></stim_listB>","is being greeted by","","","","","",""
"null","<div style=""font-size:60px;"">+</div>","","html-keyboard-response","254","752013","0.0-17.0-0.7","16830","List2B","white","woman","","","","null","","","","","","","","",""
"null","<img src=""stim_listB/copy4.gif""style=""height:400px;""></stim_listB>","","html-keyboard-response","255","754018","0.0-17.0-1.7","16830","List2B","white","woman","","","","null","","","","","","","","",""
"null","is being copied by","","html-keyboard-response","256","756024","0.0-17.0-2.7","16830","List2B","white","woman","","","","null","","","","","","","","",""
"3309","","","survey-text","257","759334","0.0-17.0-3.7","16830","List2B","white","woman","","","","","{""Q0"":""fred is being copied by kate""}","<img src=""stim_listB/copy4.gif""style=""height:400px;""></stim_listB>","is being copied by","","","","","",""
"null","<div style=""font-size:60px;"">+</div>","","html-keyboard-response","258","759837","0.0-17.0-0.8","16830","List2B","white","woman","","","","null","","","","","","","","",""
"null","<img src=""stim_listB/hug7.gif""style=""height:400px;""></stim_listB>","","html-keyboard-response","259","761848","0.0-17.0-1.8","16830","List2B","white","woman","","","","null","","","","","","","","",""
"null","is hugging","","html-keyboard-response","260","763858","0.0-17.0-2.8","16830","List2B","white","woman","","","","null","","","","","","","","",""
"2223.5","","","survey-text","261","766083","0.0-17.0-3.8","16830","List2B","white","woman","","","","","{""Q0"":""beth is hugging ruth""}","<img src=""stim_listB/hug7.gif""style=""height:400px;""></stim_listB>","is hugging","","","","","",""
"null","<div style=""font-size:60px;"">+</div>","","html-keyboard-response","262","766589","0.0-17.0-0.9","16830","List2B","white","woman","","","","null","","","","","","","","",""
"null","<img src=""stim_listB/copy1.gif""style=""height:400px;""></stim_listB>","","html-keyboard-response","263","768603","0.0-17.0-1.9","16830","List2B","white","woman","","","","null","","","","","","","","",""
"null","is copying","","html-keyboard-response","264","770611","0.0-17.0-2.9","16830","List2B","white","woman","","","","null","","","","","","","","",""
"3386","","","survey-text","265","773999","0.0-17.0-3.9","16830","List2B","white","woman","","","","","{""Q0"":""ruth is copying dave""}","<img src=""stim_listB/copy1.gif""style=""height:400px;""></stim_listB>","is copying","","","","","",""
"null","<div style=""font-size:60px;"">+</div>","","html-keyboard-response","266","774508","0.0-17.0-0.10","16830","List2B","white","woman","","","","null","","","","","","","","",""
"null","<img src=""stim_listB/hug3.gif""style=""height:400px;""></stim_listB>","","html-keyboard-response","267","776516","0.0-17.0-1.10","16830","List2B","white","woman","","","","null","","","","","","","","",""
"null","is hugging","","html-keyboard-response","268","778527","0.0-17.0-2.10","16830","List2B","white","woman","","","","null","","","","","","","","",""
"2234.399999976158","","","survey-text","269","780764","0.0-17.0-3.10","16830","List2B","white","woman","","","","","{""Q0"":""beth is hugging fred""}","<img src=""stim_listB/hug3.gif""style=""height:400px;""></stim_listB>","is hugging","","","","","",""
"null","<div style=""font-size:60px;"">+</div>","","html-keyboard-response","270","781270","0.0-17.0-0.11","16830","List2B","white","woman","","","","null","","","","","","","","",""
"null","<img src=""stim_listB/seduce7.gif""style=""height:400px;""></stim_listB>","","html-keyboard-response","271","783278","0.0-17.0-1.11","16830","List2B","white","woman","","","","null","","","","","","","","",""
"null","is seducing","","html-keyboard-response","272","785292","0.0-17.0-2.11","16830","List2B","white","woman","","","","null","","","","","","","","",""
"3717.399999976158","","","survey-text","273","789012","0.0-17.0-3.11","16830","List2B","white","woman","","","","","{""Q0"":""kate is seducing ruth""}","<img src=""stim_listB/seduce7.gif""style=""height:400px;""></stim_listB>","is seducing","","","","","",""
"null","<div style=""font-size:60px;"">+</div>","","html-keyboard-response","274","789516","0.0-17.0-0.12","16830","List2B","white","woman","","","","null","","","","","","","","",""
"null","<img src=""stim_listB/hug1.gif""style=""height:400px;""></stim_listB>","","html-keyboard-response","275","791518","0.0-17.0-1.12","16830","List2B","white","woman","","","","null","","","","","","","","",""
"null","is hugging","","html-keyboard-response","276","793531","0.0-17.0-2.12","16830","List2B","white","woman","","","","null","","","","","","","","",""
"2240.100000023842","","","survey-text","277","795773","0.0-17.0-3.12","16830","List2B","white","woman","","","","","{""Q0"":""ruth is hugging luke""}","<img src=""stim_listB/hug1.gif""style=""height:400px;""></stim_listB>","is hugging","","","","","",""
"null","<div style=""font-size:60px;"">+</div>","","html-keyboard-response","278","796282","0.0-17.0-0.13","16830","List2B","white","woman","","","","null","","","","","","","","",""
"null","<img src=""stim_listB/oppose8.gif""style=""height:400px;""></stim_listB>","","html-keyboard-response","279","798285","0.0-17.0-1.13","16830","List2B","white","woman","","","","null","","","","","","","","",""
"null","is being opposed by","","html-keyboard-response","280","800289","0.0-17.0-2.13","16830","List2B","white","woman","","","","null","","","","","","","","",""
"3787.9000000953674","","","survey-text","281","804078","0.0-17.0-3.13","16830","List2B","white","woman","","","","","{""Q0"":""ruth is being opposed by beth ""}","<img src=""stim_listB/oppose8.gif""style=""height:400px;""></stim_listB>","is being opposed by","","","","","",""
"null","<div style=""font-size:60px;"">+</div>","","html-keyboard-response","282","804581","0.0-17.0-0.14","16830","List2B","white","woman","","","","null","","","","","","","","",""
"null","<img src=""stim_listB/copy6.gif""style=""height:400px;""></stim_listB>","","html-keyboard-response","283","806587","0.0-17.0-1.14","16830","List2B","white","woman","","","","null","","","","","","","","",""
"null","is being copied by","","html-keyboard-response","284","808591","0.0-17.0-2.14","16830","List2B","white","woman","","","","null","","","","","","","","",""
"4715.200000047684","","","survey-text","285","813308","0.0-17.0-3.14","16830","List2B","white","woman","","","","","{""Q0"":""luke is being copied by mike""}","<img src=""stim_listB/copy6.gif""style=""height:400px;""></stim_listB>","is being copied by","","","","","",""
"null","<div style=""font-size:60px;"">+</div>","","html-keyboard-response","286","813824","0.0-17.0-0.15","16830","List2B","white","woman","","","","null","","","","","","","","",""
"null","<img src=""stim_listB/look6.gif""style=""height:400px;""></stim_listB>","","html-keyboard-response","287","815840","0.0-17.0-1.15","16830","List2B","white","woman","","","","null","","","","","","","","",""
"null","is being looked at by","","html-keyboard-response","288","817842","0.0-17.0-2.15","16830","List2B","white","woman","","","","null","","","","","","","","",""
"5380.600000023842","","","survey-text","289","823224","0.0-17.0-3.15","16830","List2B","white","woman","","","","","{""Q0"":""dave is being looked at by mike""}","<img src=""stim_listB/look6.gif""style=""height:400px;""></stim_listB>","is being looked at by","","","","","",""
"null","<div style=""font-size:60px;"">+</div>","","html-keyboard-response","290","823734","0.0-17.0-0.16","16830","List2B","white","woman","","","","null","","","","","","","","",""
"null","<img src=""stim_listB/seduce3.gif""style=""height:400px;""></stim_listB>","","html-keyboard-response","291","825744","0.0-17.0-1.16","16830","List2B","white","woman","","","","null","","","","","","","","",""
"null","is seducing","","html-keyboard-response","292","827760","0.0-17.0-2.16","16830","List2B","white","woman","","","","null","","","","","","","","",""
"6365.299999952316","","","survey-text","293","834128","0.0-17.0-3.16","16830","List2B","white","woman","","","","","{""Q0"":""fred is being seduced by kate""}","<img src=""stim_listB/seduce3.gif""style=""height:400px;""></stim_listB>","is seducing","","","","","",""
"null","<div style=""font-size:60px;"">+</div>","","html-keyboard-response","294","834634","0.0-17.0-0.17","16830","List2B","white","woman","","","","null","","","","","","","","",""
"null","<img src=""stim_listB/look4.gif""style=""height:400px;""></stim_listB>","","html-keyboard-response","295","836650","0.0-17.0-1.17","16830","List2B","white","woman","","","","null","","","","","","","","",""
"null","is being looked at by","","html-keyboard-response","296","838664","0.0-17.0-2.17","16830","List2B","white","woman","","","","null","","","","","","","","",""
"4205.899999976158","","","survey-text","297","842871","0.0-17.0-3.17","16830","List2B","white","woman","","","","","{""Q0"":""mike is being looked at by kate""}","<img src=""stim_listB/look4.gif""style=""height:400px;""></stim_listB>","is being looked at by","","","","","",""
"null","<div style=""font-size:60px;"">+</div>","","html-keyboard-response","298","843381","0.0-17.0-0.18","16830","List2B","white","woman","","","","null","","","","","","","","",""
"null","<img src=""stim_listB/look2.gif""style=""height:400px;""></stim_listB>","","html-keyboard-response","299","845387","0.0-17.0-1.18","16830","List2B","white","woman","","","","null","","","","","","","","",""
"null","is being looked at by","","html-keyboard-response","300","847388","0.0-17.0-2.18","16830","List2B","white","woman","","","","null","","","","","","","","",""
"4168.700000047684","","","survey-text","301","851558","0.0-17.0-3.18","16830","List2B","white","woman","","","","","{""Q0"":""jane is being looked at by dave""}","<img src=""stim_listB/look2.gif""style=""height:400px;""></stim_listB>","is being looked at by","","","","","",""
"null","<div style=""font-size:60px;"">+</div>","","html-keyboard-response","302","852068","0.0-17.0-0.19","16830","List2B","white","woman","","","","null","","","","","","","","",""
"null","<img src=""stim_listB/greet7.gif""style=""height:400px;""></stim_listB>","","html-keyboard-response","303","854070","0.0-17.0-1.19","16830","List2B","white","woman","","","","null","","","","","","","","",""
"null","is greeting","","html-keyboard-response","304","856078","0.0-17.0-2.19","16830","List2B","white","woman","","","","null","","","","","","","","",""
"2434.7999999523163","","","survey-text","305","858515","0.0-17.0-3.19","16830","List2B","white","woman","","","","","{""Q0"":""jane is greeting beth""}","<img src=""stim_listB/greet7.gif""style=""height:400px;""></stim_listB>","is greeting","","","","","",""
"2221.1999999284744","<img src='img/portrait_matrix_list2.jpg' style='width:900px;height:500px;''></img><p>If you have memorised all the portraits and names and are ready to start, press Continue.</p><p><strong>Please note: Your memory of these faces will be tested 4 times during this experiment.</strong></p>","0","html-button-response","306","860737","0.0-18.0-0.0","16830","List2B","white","woman","","","","","","","","","","","","",""
"1653","<img src=""portrait/WW2.jpg""style=""height:400px;""></img>","3","html-button-response","307","863393","0.0-18.0-1.0","16830","List2B","white","woman","","true","3","","","","","","","","","",""
"null","CORRECT","","html-keyboard-response","308","864909","0.0-18.0-2.0-0.0","16830","List2B","white","woman","","","","null","","","","","","","","",""
"2322.7999999523163","<img src=""portrait/WM2.jpg""style=""height:400px;""></img>","7","html-button-response","309","867233","0.0-18.0-4.0","16830","List2B","white","woman","","true","7","","","","","","","","","",""
"null","CORRECT","","html-keyboard-response","310","868740","0.0-18.0-5.0-0.0","16830","List2B","white","woman","","","","null","","","","","","","","",""
"1427.5999999046326","<img src=""portrait/BW1.jpg""style=""height:400px;""></img>","0","html-button-response","311","870169","0.0-18.0-7.0","16830","List2B","white","woman","","true","0","","","","","","","","","",""
"null","CORRECT","","html-keyboard-response","312","871701","0.0-18.0-8.0-0.0","16830","List2B","white","woman","","","","null","","","","","","","","",""
"1570.3999999761581","<img src=""portrait/WW1.jpg""style=""height:400px;""></img>","1","html-button-response","313","873273","0.0-18.0-10.0","16830","List2B","white","woman","","true","1","","","","","","","","","",""
"null","CORRECT","","html-keyboard-response","314","874791","0.0-18.0-11.0-0.0","16830","List2B","white","woman","","","","null","","","","","","","","",""
"1744.7999999523163","<img src=""portrait/BM2.jpg""style=""height:400px;""></img>","5","html-button-response","315","876537","0.0-18.0-13.0","16830","List2B","white","woman","","true","5","","","","","","","","","",""
"null","CORRECT","","html-keyboard-response","316","878065","0.0-18.0-14.0-0.0","16830","List2B","white","woman","","","","null","","","","","","","","",""
"1630.5999999046326","<img src=""portrait/BW2.jpg""style=""height:400px;""></img>","2","html-button-response","317","879697","0.0-18.0-16.0","16830","List2B","white","woman","","true","2","","","","","","","","","",""
"null","CORRECT","","html-keyboard-response","318","881215","0.0-18.0-17.0-0.0","16830","List2B","white","woman","","","","null","","","","","","","","",""
"2952.6999999284744","<img src=""portrait/WM1.jpg""style=""height:400px;""></img>","6","html-button-response","319","884170","0.0-18.0-19.0","16830","List2B","white","woman","","true","6","","","","","","","","","",""
"null","CORRECT","","html-keyboard-response","320","885682","0.0-18.0-20.0-0.0","16830","List2B","white","woman","","","","null","","","","","","","","",""
"1365.7000000476837","<img src=""portrait/BM1.jpg""style=""height:400px;""></img>","4","html-button-response","321","887049","0.0-18.0-22.0","16830","List2B","white","woman","","true","4","","","","","","","","","",""
"null","CORRECT","","html-keyboard-response","322","888568","0.0-18.0-23.0-0.0","16830","List2B","white","woman","","","","null","","","","","","","","",""
"1119.5","<p>You got 8 out of 8 right first time. Press Continue.</p>","0","html-button-response","323","889689","0.0-18.0-25.0","16830","List2B","white","woman","","","","","","","","","","","","",""
"null","<div style=""font-size:60px;"">+</div>","","html-keyboard-response","324","891214","0.0-19.0-0.0","16830","List2B","white","woman","","","","null","","","","","","","","",""
"null","<img src=""stim_listB/challenge4.gif""style=""height:400px;""></stim_listB>","","html-keyboard-response","325","893221","0.0-19.0-1.0","16830","List2B","white","woman","","","","null","","","","","","","","",""
"null","is being challenged by","","html-keyboard-response","326","895225","0.0-19.0-2.0","16830","List2B","white","woman","","","","null","","","","","","","","",""
"4243.799999952316","","","survey-text","327","899470","0.0-19.0-3.0","16830","List2B","white","woman","","","","","{""Q0"":""kate is being challenged by fred""}","<img src=""stim_listB/challenge4.gif""style=""height:400px;""></stim_listB>","is being challenged by","","","","","",""
"null","<div style=""font-size:60px;"">+</div>","","html-keyboard-response","328","899986","0.0-19.0-0.1","16830","List2B","white","woman","","","","null","","","","","","","","",""
"null","<img src=""stim_listB/copy2.gif""style=""height:400px;""></stim_listB>","","html-keyboard-response","329","902000","0.0-19.0-1.1","16830","List2B","white","woman","","","","null","","","","","","","","",""
"null","is being copied by","","html-keyboard-response","330","904012","0.0-19.0-2.1","16830","List2B","white","woman","","","","null","","","","","","","","",""
"3489","","","survey-text","331","907503","0.0-19.0-3.1","16830","List2B","white","woman","","","","","{""Q0"":""luke is being copied by jane""}","<img src=""stim_listB/copy2.gif""style=""height:400px;""></stim_listB>","is being copied by","","","","","",""
"null","<div style=""font-size:60px;"">+</div>","","html-keyboard-response","332","908003","0.0-19.0-0.2","16830","List2B","white","woman","","","","null","","","","","","","","",""
"null","<img src=""stim_listB/greet5.gif""style=""height:400px;""></stim_listB>","","html-keyboard-response","333","910012","0.0-19.0-1.2","16830","List2B","white","woman","","","","null","","","","","","","","",""
"null","is greeting","","html-keyboard-response","334","912023","0.0-19.0-2.2","16830","List2B","white","woman","","","","null","","","","","","","","",""
"4192.600000023842","","","survey-text","335","916217","0.0-19.0-3.2","16830","List2B","white","woman","","","","","{""Q0"":""fred is greeting dave""}","<img src=""stim_listB/greet5.gif""style=""height:400px;""></stim_listB>","is greeting","","","","","",""
"null","<div style=""font-size:60px;"">+</div>","","html-keyboard-response","336","916729","0.0-19.0-0.3","16830","List2B","white","woman","","","","null","","","","","","","","",""
"null","<img src=""stim_listB/greet6.gif""style=""height:400px;""></stim_listB>","","html-keyboard-response","337","918746","0.0-19.0-1.3","16830","List2B","white","woman","","","","null","","","","","","","","",""
"null","is being greeted by","","html-keyboard-response","338","920748","0.0-19.0-2.3","16830","List2B","white","woman","","","","null","","","","","","","","",""
"12476.5","","","survey-text","339","933227","0.0-19.0-3.3","16830","List2B","white","woman","","","","","{""Q0"":""luke is being greeted by mike""}","<img src=""stim_listB/greet6.gif""style=""height:400px;""></stim_listB>","is being greeted by","","","","","",""
"null","<div style=""font-size:60px;"">+</div>","","html-keyboard-response","340","933736","0.0-19.0-0.4","16830","List2B","white","woman","","","","null","","","","","","","","",""
"null","<img src=""stim_listB/seduce8.gif""style=""height:400px;""></stim_listB>","","html-keyboard-response","341","935738","0.0-19.0-1.4","16830","List2B","white","woman","","","","null","","","","","","","","",""
"null","is being seduced by","","html-keyboard-response","342","937753","0.0-19.0-2.4","16830","List2B","white","woman","","","","null","","","","","","","","",""
"4798.699999928474","","","survey-text","343","942554","0.0-19.0-3.4","16830","List2B","white","woman","","","","","{""Q0"":""jane is being seduced by beth""}","<img src=""stim_listB/seduce8.gif""style=""height:400px;""></stim_listB>","is being seduced by","","","","","",""
"null","<div style=""font-size:60px;"">+</div>","","html-keyboard-response","344","943057","0.0-19.0-0.5","16830","List2B","white","woman","","","","null","","","","","","","","",""
"null","<img src=""stim_listB/look8.gif""style=""height:400px;""></stim_listB>","","html-keyboard-response","345","945073","0.0-19.0-1.5","16830","List2B","white","woman","","","","null","","","","","","","","",""
"null","is being looked at by","","html-keyboard-response","346","947075","0.0-19.0-2.5","16830","List2B","white","woman","","","","null","","","","","","","","",""
"3207.7999999523163","","","survey-text","347","950284","0.0-19.0-3.5","16830","List2B","white","woman","","","","","{""Q0"":""kate is being looked at by jane""}","<img src=""stim_listB/look8.gif""style=""height:400px;""></stim_listB>","is being looked at by","","","","","",""
"null","<div style=""font-size:60px;"">+</div>","","html-keyboard-response","348","950794","0.0-19.0-0.6","16830","List2B","white","woman","","","","null","","","","","","","","",""
"null","<img src=""stim_listB/kiss4.gif""style=""height:400px;""></stim_listB>","","html-keyboard-response","349","952797","0.0-19.0-1.6","16830","List2B","white","woman","","","","null","","","","","","","","",""
"null","is being kissed by","","html-keyboard-response","350","954806","0.0-19.0-2.6","16830","List2B","white","woman","","","","null","","","","","","","","",""
"3772.5","","","survey-text","351","958580","0.0-19.0-3.6","16830","List2B","white","woman","","","","","{""Q0"":""mike is being kissed by kate""}","<img src=""stim_listB/kiss4.gif""style=""height:400px;""></stim_listB>","is being kissed by","","","","","",""
"null","<div style=""font-size:60px;"">+</div>","","html-keyboard-response","352","959095","0.0-19.0-0.7","16830","List2B","white","woman","","","","null","","","","","","","","",""
"null","<img src=""stim_listB/oppose7.gif""style=""height:400px;""></stim_listB>","","html-keyboard-response","353","961098","0.0-19.0-1.7","16830","List2B","white","woman","","","","null","","","","","","","","",""
"null","is opposing","","html-keyboard-response","354","963099","0.0-19.0-2.7","16830","List2B","white","woman","","","","null","","","","","","","","",""
"2787.2999999523163","","","survey-text","355","965888","0.0-19.0-3.7","16830","List2B","white","woman","","","","","{""Q0"":""jane is opposing kate""}","<img src=""stim_listB/oppose7.gif""style=""height:400px;""></stim_listB>","is opposing","","","","","",""
"null","<div style=""font-size:60px;"">+</div>","","html-keyboard-response","356","966398","0.0-19.0-0.8","16830","List2B","white","woman","","","","null","","","","","","","","",""
"null","<img src=""stim_listB/challenge8.gif""style=""height:400px;""></stim_listB>","","html-keyboard-response","357","968400","0.0-19.0-1.8","16830","List2B","white","woman","","","","null","","","","","","","","",""
"null","is being challenged by","","html-keyboard-response","358","970410","0.0-19.0-2.8","16830","List2B","white","woman","","","","null","","","","","","","","",""
"3519","","","survey-text","359","973930","0.0-19.0-3.8","16830","List2B","white","woman","","","","","{""Q0"":""kate is being challenged by ruth""}","<img src=""stim_listB/challenge8.gif""style=""height:400px;""></stim_listB>","is being challenged by","","","","","",""
"null","<div style=""font-size:60px;"">+</div>","","html-keyboard-response","360","974436","0.0-19.0-0.9","16830","List2B","white","woman","","","","null","","","","","","","","",""
"null","<img src=""stim_listB/shout6.gif""style=""height:400px;""></stim_listB>","","html-keyboard-response","361","976442","0.0-19.0-1.9","16830","List2B","white","woman","","","","null","","","","","","","","",""
"null","is being shouted at by","","html-keyboard-response","362","978456","0.0-19.0-2.9","16830","List2B","white","woman","","","","null","","","","","","","","",""
"3829","","","survey-text","363","982287","0.0-19.0-3.9","16830","List2B","white","woman","","","","","{""Q0"":""mike is being shouted at by dave""}","<img src=""stim_listB/shout6.gif""style=""height:400px;""></stim_listB>","is being shouted at by","","","","","",""
"null","<div style=""font-size:60px;"">+</div>","","html-keyboard-response","364","982791","0.0-19.0-0.10","16830","List2B","white","woman","","","","null","","","","","","","","",""
"null","<img src=""stim_listB/challenge6.gif""style=""height:400px;""></stim_listB>","","html-keyboard-response","365","984806","0.0-19.0-1.10","16830","List2B","white","woman","","","","null","","","","","","","","",""
"null","is being challenged by","","html-keyboard-response","366","986821","0.0-19.0-2.10","16830","List2B","white","woman","","","","null","","","","","","","","",""
"97291.10000002384","","","survey-text","367","1084113","0.0-19.0-3.10","16830","List2B","white","woman","","","","","{""Q0"":""luke is looking at mike""}","<img src=""stim_listB/challenge6.gif""style=""height:400px;""></stim_listB>","is being challenged by","","","","","",""
"null","<div style=""font-size:60px;"">+</div>","","html-keyboard-response","368","1084627","0.0-19.0-0.11","16830","List2B","white","woman","","","","null","","","","","","","","",""
"null","<img src=""stim_listB/touch7.gif""style=""height:400px;""></stim_listB>","","html-keyboard-response","369","1086635","0.0-19.0-1.11","16830","List2B","white","woman","","","","null","","","","","","","","",""
"null","is touching","","html-keyboard-response","370","1088645","0.0-19.0-2.11","16830","List2B","white","woman","","","","null","","","","","","","","",""
"3920.2999999523163","","","survey-text","371","1092567","0.0-19.0-3.11","16830","List2B","white","woman","","","","","{""Q0"":""kate is touching jane""}","<img src=""stim_listB/touch7.gif""style=""height:400px;""></stim_listB>","is touching","","","","","",""
"null","<div style=""font-size:60px;"">+</div>","","html-keyboard-response","372","1093069","0.0-19.0-0.12","16830","List2B","white","woman","","","","null","","","","","","","","",""
"null","<img src=""stim_listB/hug5.gif""style=""height:400px;""></stim_listB>","","html-keyboard-response","373","1095083","0.0-19.0-1.12","16830","List2B","white","woman","","","","null","","","","","","","","",""
"null","is hugging","","html-keyboard-response","374","1097084","0.0-19.0-2.12","16830","List2B","white","woman","","","","null","","","","","","","","",""
"2274.2000000476837","","","survey-text","375","1099361","0.0-19.0-3.12","16830","List2B","white","woman","","","","","{""Q0"":""fred is hugging luke""}","<img src=""stim_listB/hug5.gif""style=""height:400px;""></stim_listB>","is hugging","","","","","",""
"null","<div style=""font-size:60px;"">+</div>","","html-keyboard-response","376","1099877","0.0-19.0-0.13","16830","List2B","white","woman","","","","null","","","","","","","","",""
"null","<img src=""stim_listB/seduce4.gif""style=""height:400px;""></stim_listB>","","html-keyboard-response","377","1101892","0.0-19.0-1.13","16830","List2B","white","woman","","","","null","","","","","","","","",""
"null","is being seduced by","","html-keyboard-response","378","1103893","0.0-19.0-2.13","16830","List2B","white","woman","","","","null","","","","","","","","",""
"3771.9000000953674","","","survey-text","379","1107667","0.0-19.0-3.13","16830","List2B","white","woman","","","","","{""Q0"":""mike is being seduced by beth""}","<img src=""stim_listB/seduce4.gif""style=""height:400px;""></stim_listB>","is being seduced by","","","","","",""
"null","<div style=""font-size:60px;"">+</div>","","html-keyboard-response","380","1108170","0.0-19.0-0.14","16830","List2B","white","woman","","","","null","","","","","","","","",""
"null","<img src=""stim_listB/kiss3.gif""style=""height:400px;""></stim_listB>","","html-keyboard-response","381","1110187","0.0-19.0-1.14","16830","List2B","white","woman","","","","null","","","","","","","","",""
"null","is kissing","","html-keyboard-response","382","1112197","0.0-19.0-2.14","16830","List2B","white","woman","","","","null","","","","","","","","",""
"2573.6999999284744","","","survey-text","383","1114772","0.0-19.0-3.14","16830","List2B","white","woman","","","","","{""Q0"":""beth is kissing fred""}","<img src=""stim_listB/kiss3.gif""style=""height:400px;""></stim_listB>","is kissing","","","","","",""
"null","<div style=""font-size:60px;"">+</div>","","html-keyboard-response","384","1115281","0.0-19.0-0.15","16830","List2B","white","woman","","","","null","","","","","","","","",""
"null","<img src=""stim_listB/kiss2.gif""style=""height:400px;""></stim_listB>","","html-keyboard-response","385","1117288","0.0-19.0-1.15","16830","List2B","white","woman","","","","null","","","","","","","","",""
"null","is being kissed by","","html-keyboard-response","386","1119291","0.0-19.0-2.15","16830","List2B","white","woman","","","","null","","","","","","","","",""
"2923.600000023842","","","survey-text","387","1122216","0.0-19.0-3.15","16830","List2B","white","woman","","","","","{""Q0"":""jane is being kissed by dave""}","<img src=""stim_listB/kiss2.gif""style=""height:400px;""></stim_listB>","is being kissed by","","","","","",""
"null","<div style=""font-size:60px;"">+</div>","","html-keyboard-response","388","1122724","0.0-19.0-0.16","16830","List2B","white","woman","","","","null","","","","","","","","",""
"null","<img src=""stim_listB/kiss8.gif""style=""height:400px;""></stim_listB>","","html-keyboard-response","389","1124741","0.0-19.0-1.16","16830","List2B","white","woman","","","","null","","","","","","","","",""
"null","is being kissed by","","html-keyboard-response","390","1126745","0.0-19.0-2.16","16830","List2B","white","woman","","","","null","","","","","","","","",""
"2969.100000023842","","","survey-text","391","1129717","0.0-19.0-3.16","16830","List2B","white","woman","","","","","{""Q0"":""jane is being kissed by kate""}","<img src=""stim_listB/kiss8.gif""style=""height:400px;""></stim_listB>","is being kissed by","","","","","",""
"null","<div style=""font-size:60px;"">+</div>","","html-keyboard-response","392","1130233","0.0-19.0-0.17","16830","List2B","white","woman","","","","null","","","","","","","","",""
"null","<img src=""stim_listB/shout5.gif""style=""height:400px;""></stim_listB>","","html-keyboard-response","393","1132244","0.0-19.0-1.17","16830","List2B","white","woman","","","","null","","","","","","","","",""
"null","is shouting at","","html-keyboard-response","394","1134259","0.0-19.0-2.17","16830","List2B","white","woman","","","","null","","","","","","","","",""
"2538.0999999046326","","","survey-text","395","1136799","0.0-19.0-3.17","16830","List2B","white","woman","","","","","{""Q0"":""luke is shouting at fred""}","<img src=""stim_listB/shout5.gif""style=""height:400px;""></stim_listB>","is shouting at","","","","","",""
"null","<div style=""font-size:60px;"">+</div>","","html-keyboard-response","396","1137313","0.0-19.0-0.18","16830","List2B","white","woman","","","","null","","","","","","","","",""
"null","<img src=""stim_listB/shout3.gif""style=""height:400px;""></stim_listB>","","html-keyboard-response","397","1139315","0.0-19.0-1.18","16830","List2B","white","woman","","","","null","","","","","","","","",""
"null","is shouting at","","html-keyboard-response","398","1141321","0.0-19.0-2.18","16830","List2B","white","woman","","","","null","","","","","","","","",""
"2586.7999999523163","","","survey-text","399","1143909","0.0-19.0-3.18","16830","List2B","white","woman","","","","","{""Q0"":""beth is shouting at fred""}","<img src=""stim_listB/shout3.gif""style=""height:400px;""></stim_listB>","is shouting at","","","","","",""
"null","<div style=""font-size:60px;"">+</div>","","html-keyboard-response","400","1144416","0.0-19.0-0.19","16830","List2B","white","woman","","","","null","","","","","","","","",""
"null","<img src=""stim_listB/seduce6.gif""style=""height:400px;""></stim_listB>","","html-keyboard-response","401","1146422","0.0-19.0-1.19","16830","List2B","white","woman","","","","null","","","","","","","","",""
"null","is being seduced by","","html-keyboard-response","402","1148424","0.0-19.0-2.19","16830","List2B","white","woman","","","","null","","","","","","","","",""
"4082.899999976158","","","survey-text","403","1152509","0.0-19.0-3.19","16830","List2B","white","woman","","","","","{""Q0"":""dave is being seduced by fred""}","<img src=""stim_listB/seduce6.gif""style=""height:400px;""></stim_listB>","is being seduced by","","","","","",""
"2258.899999976158","<p>Thank you for completing that task.</p><p>The final part of this session is a questionnaire that will take about 4 minutes.</p><p>Press Continue.</p>","0","html-button-response","404","1154769","0.0-20.0","16830","List2B","white","woman","","","","","","","","","","","","",""
"21188","","","survey-text","405","1176961","0.0-21.0","16830","List2B","white","woman","","","","","{""Q0"":""26"",""Q1"":""English"",""Q2"":""English"",""Q3"":""USA"",""Q4"":""American"",""Q5"":""White"",""Q6"":""Female""}","","","demographics","","","","",""
"2766.899999976158","<p>Have you lived in the USA for the last 5 years or more?</p>","0","html-button-response","406","1179729","0.0-22.0","16830","List2B","white","woman","","","","","","","","fiveyears","","","","",""
"2080.2000000476837","<p>Move the slider to show the extent to which you agree with the following statements.</p>","0","html-button-response","407","1182817","0.0-23.0","16830","List2B","white","woman","","","","","","","","","","","","",""
"3652.600000023842","","","html-slider-response","408","1187473","0.0-24.0-0.0-0.0","16830","List2B","white","woman","","","","","","","","survey_gender","100","","","I consider myself a highly empathetic person.","filler"
"3295.2000000476837","","","html-slider-response","409","1190769","0.0-24.0-0.0-0.1","16830","List2B","white","woman","","","","","","","","survey_gender","16","","","Routine is not important to me.","filler"
"5103.099999904633","","","html-slider-response","410","1195873","0.0-24.0-0.0-0.2","16830","List2B","white","woman","","","","","","","","survey_gender","20","","","I often think about the fact that I am my gender.","often"
"3886.899999976158","","","html-slider-response","411","1199761","0.0-24.0-0.0-0.3","16830","List2B","white","woman","","","","","","","","survey_gender","55","","","People of my gender are very similar to each other.","verysimilar"
"3806.600000023842","","","html-slider-response","412","1203569","0.0-24.0-0.0-0.4","16830","List2B","white","woman","","","","","","","","survey_gender","88","","","The fact that I am my gender is an important part of my identity.","identity"
"1991.1000000238419","","","html-slider-response","413","1205561","0.0-24.0-0.0-0.5","16830","List2B","white","woman","","","","","","","","survey_gender","67","","","I feel a bond with my friends.","filler"
"2615.2999999523163","","","html-slider-response","414","1208177","0.0-24.0-0.0-0.6","16830","List2B","white","woman","","","","","","","","survey_gender","55","","","I would say I am an animal person.","filler"
"2015.1000000238419","","","html-slider-response","415","1210193","0.0-24.0-0.0-0.7","16830","List2B","white","woman","","","","","","","","survey_gender","60","","","I have a lot in common with my friends.","filler"
"2991.2000000476837","","","html-slider-response","416","1213186","0.0-24.0-0.0-0.8","16830","List2B","white","woman","","","","","","","","survey_gender","65","","","My friends understand me.","filler"
"4822.300000071526","","","html-slider-response","417","1218009","0.0-24.0-0.0-0.9","16830","List2B","white","woman","","","","","","","","survey_gender","65","","","People of my gender have a lot in common with each other.","common"
"2127.1999999284744","","","html-slider-response","418","1220137","0.0-24.0-0.0-0.10","16830","List2B","white","woman","","","","","","","","survey_gender","73","","","My friends have a lot in common with each other.","filler"
"5095.399999976158","","","html-slider-response","419","1225233","0.0-24.0-0.0-0.11","16830","List2B","white","woman","","","","","","","","survey_gender","100","","","Being around my friends gives me a good feeling.","filler"
"4758.5","","","html-slider-response","420","1229993","0.0-24.0-0.0-0.12","16830","List2B","white","woman","","","","","","","","survey_gender","51","","","Being my gender is an important part of how I see myself.","important"
"2767.399999976158","","","html-slider-response","421","1232762","0.0-24.0-0.0-0.13","16830","List2B","white","woman","","","","","","","","survey_gender","93","","","I feel solidarity with my gender.","solidarity"
"2711.2000000476837","","","html-slider-response","422","1235473","0.0-24.0-0.0-0.14","16830","List2B","white","woman","","","","","","","","survey_gender","87","","","I often think about my actions.","filler"
"3486.899999976158","","","html-slider-response","423","1238961","0.0-24.0-0.0-0.15","16830","List2B","white","woman","","","","","","","","survey_gender","74","","","Being my gender gives me a good feeling.","feeling"
"4222.600000023842","","","html-slider-response","424","1243185","0.0-24.0-0.0-0.16","16830","List2B","white","woman","","","","","","","","survey_gender","100","","","I think that my gender has a lot to be proud of.","proud"
"2399","","","html-slider-response","425","1245585","0.0-24.0-0.0-0.17","16830","List2B","white","woman","","","","","","","","survey_gender","76","","","It is pleasant to be my gender.","pleasant"
"3639.5","","","html-slider-response","426","1249225","0.0-24.0-0.0-0.18","16830","List2B","white","woman","","","","","","","","survey_gender","95","","","It is not always easy for people to know what I am thinking.","filler"
"2199","","","html-slider-response","427","1251425","0.0-24.0-0.0-0.19","16830","List2B","white","woman","","","","","","","","survey_gender","58","","","I feel a bond with my gender.","bond"
"1830.9000000953674","","","html-slider-response","428","1253257","0.0-24.0-0.0-0.20","16830","List2B","white","woman","","","","","","","","survey_gender","88","","","I feel solidarity with my friends.","filler"
"1824.1000000238419","","","html-slider-response","429","1255082","0.0-24.0-0.0-0.21","16830","List2B","white","woman","","","","","","","","survey_gender","67","","","I am glad to be my gender.","glad"
"4622.399999976158","","","html-slider-response","430","1259705","0.0-24.0-0.0-0.22","16830","List2B","white","woman","","","","","","","","survey_gender","57","","","I have a lot in common with the average person of my gender.","average"
"2103.100000023842","","","html-slider-response","431","1261809","0.0-24.0-0.0-0.23","16830","List2B","white","woman","","","","","","","","survey_gender","72","","","I am similar to the average person of my gender.","similar"
"2295.399999976158","","","html-slider-response","432","1264105","0.0-24.0-0.0-0.24","16830","List2B","white","woman","","","","","","","","survey_gender","68","","","Most of the friends in my life are very similar to me.","filler"
"3831.600000023842","","","html-slider-response","433","1267938","0.0-24.0-0.0-0.25","16830","List2B","white","woman","","","","","","","","survey_gender","100","","","I am glad to have the friends that I have.","filler"
"4846.899999976158","","","html-slider-response","434","1272785","0.0-24.0-0.0-0.26","16830","List2B","white","woman","","","","","","","","survey_gender","34","","","Family is not more important to me than friendship.","filler"
"8710.799999952316","","","html-slider-response","435","1281497","0.0-24.0-0.0-0.27","16830","List2B","white","woman","","","","","","","","survey_gender","64","","","I feel committed to my gender.","committed"
"145358.89999997616","","","html-slider-response","436","1426857","0.0-24.0-1.0-0.0","16830","List2B","white","woman","","","","","","","","survey_race","41","","","The fact that I am my race is an important part of my identity.","identity"
"3302.899999976158","","","html-slider-response","437","1430161","0.0-24.0-1.0-0.1","16830","List2B","white","woman","","","","","","","","survey_race","34","","","I enjoy being in large groups.","filler"
"3575.0999999046326","","","html-slider-response","438","1433737","0.0-24.0-1.0-0.2","16830","List2B","white","woman","","","","","","","","survey_race","33","","","Being my race gives me a good feeling.","feeling"
"4591.300000071526","","","html-slider-response","439","1438329","0.0-24.0-1.0-0.3","16830","List2B","white","woman","","","","","","","","survey_race","49","","","I feel solidarity with my race.","solidarity"
"5007","","","html-slider-response","440","1443337","0.0-24.0-1.0-0.4","16830","List2B","white","woman","","","","","","","","survey_race","38","","","Getting older does not worry me.","filler"
"2790.600000023842","","","html-slider-response","441","1446129","0.0-24.0-1.0-0.5","16830","List2B","white","woman","","","","","","","","survey_race","20","","","I consider myself an extrovert.","filler"
"3071.5","","","html-slider-response","442","1449201","0.0-24.0-1.0-0.6","16830","List2B","white","woman","","","","","","","","survey_race","72","","","I have a lot in common with people of a similar age to me.","filler"
"3014.899999976158","","","html-slider-response","443","1452217","0.0-24.0-1.0-0.7","16830","List2B","white","woman","","","","","","","","survey_race","41","","","My age is not an important part of who I am.","filler"
"3166.899999976158","","","html-slider-response","444","1455385","0.0-24.0-1.0-0.8","16830","List2B","white","woman","","","","","","","","survey_race","40","","","I think that my race has a lot to be proud of.","proud"
"2767","","","html-slider-response","445","1458153","0.0-24.0-1.0-0.9","16830","List2B","white","woman","","","","","","","","survey_race","62","","","I often think about the fact that I am my race.","often"
"3046.9000000953674","","","html-slider-response","446","1461201","0.0-24.0-1.0-0.10","16830","List2B","white","woman","","","","","","","","survey_race","91","","","I feel a bond with people the same age as me.","filler"
"2679.399999976158","","","html-slider-response","447","1463881","0.0-24.0-1.0-0.11","16830","List2B","white","woman","","","","","","","","survey_race","55","","","I am glad to be my age.","filler"
"2766.899999976158","","","html-slider-response","448","1466649","0.0-24.0-1.0-0.12","16830","List2B","white","woman","","","","","","","","survey_race","71","","","People my age have a lot in common with each other.","filler"
"3767","","","html-slider-response","449","1470417","0.0-24.0-1.0-0.13","16830","List2B","white","woman","","","","","","","","survey_race","61","","","People of my race have a lot in common with each other.","common"
"2159.100000023842","","","html-slider-response","450","1472577","0.0-24.0-1.0-0.14","16830","List2B","white","woman","","","","","","","","survey_race","48","","","I am glad to be my race.","glad"
"2095","","","html-slider-response","451","1474673","0.0-24.0-1.0-0.15","16830","List2B","white","woman","","","","","","","","survey_race","39","","","I feel a bond with my race.","bond"
"3383.3000000715256","","","html-slider-response","452","1478057","0.0-24.0-1.0-0.16","16830","List2B","white","woman","","","","","","","","survey_race","74","","","I am glad to be the age I am.","filler"
"2494.899999976158","","","html-slider-response","453","1480553","0.0-24.0-1.0-0.17","16830","List2B","white","woman","","","","","","","","survey_race","57","","","I often think about the fact that I am my age.","filler"
"4663.300000071526","","","html-slider-response","454","1485216","0.0-24.0-1.0-0.18","16830","List2B","white","woman","","","","","","","","survey_race","84","","","I feel solidarity with people the same age as me.","filler"
"4294.799999952316","","","html-slider-response","455","1489512","0.0-24.0-1.0-0.19","16830","List2B","white","woman","","","","","","","","survey_race","62","","","I have a lot in common with the average person of my race.","average"
"2191.2000000476837","","","html-slider-response","456","1491705","0.0-24.0-1.0-0.20","16830","List2B","white","woman","","","","","","","","survey_race","81","","","I consider myself an introvert.","filler"
"5135.299999952316","","","html-slider-response","457","1496841","0.0-24.0-1.0-0.21","16830","List2B","white","woman","","","","","","","","survey_race","70","","","People of my race are very similar to each other.","verysimilar"
"3726.600000023842","","","html-slider-response","458","1500568","0.0-24.0-1.0-0.22","16830","List2B","white","woman","","","","","","","","survey_race","60","","","I am similar to the average person of my race.","similar"
"2862.7999999523163","","","html-slider-response","459","1503432","0.0-24.0-1.0-0.23","16830","List2B","white","woman","","","","","","","","survey_race","43","","","Being my age gives me a good feeling.","filler"
"3614.899999976158","","","html-slider-response","460","1507048","0.0-24.0-1.0-0.24","16830","List2B","white","woman","","","","","","","","survey_race","76","","","It is pleasant to be my race.","pleasant"
"5678.599999904633","","","html-slider-response","461","1512728","0.0-24.0-1.0-0.25","16830","List2B","white","woman","","","","","","","","survey_race","29","","","Being my race is an important part of how I see myself.","important"
"2358.8000000715256","","","html-slider-response","462","1515088","0.0-24.0-1.0-0.26","16830","List2B","white","woman","","","","","","","","survey_race","41","","","I feel committed to my race.","committed"
"4127.200000047684","","","html-slider-response","463","1519216","0.0-24.0-1.0-0.27","16830","List2B","white","woman","","","","","","","","survey_race","35","","","The older I get, the wiser I feel.","filler"
"6982.400000095367","","","survey-text","464","1526201","0.0-25.0","16830","List2B","white","woman","","","","","{""Q0"":""60fd0efdef17b6e07389abe0""}","","","worker_id","","","","",""
"13136.099999904633","","","external-html","465","1539529","0.0-26.0","16830","List2B","white","woman","debrief.html","","","","","","","","","","","",""
