rt,stimulus,button_pressed,trial_type,trial_index,time_elapsed,internal_node_id,subject,list,ppt_race,ppt_gender,url,first_guess,correct,key_press,responses,image_type,phrase_type,test_part,response,stimulus1,stimulus2,question_type,survey_item
38739.3,Welcome to the experiment. Press Continue to begin.,0,html-button-response,0,38746,0.0-0.0,16863,List1A,black,man,,,,,,,,,,,,,
7346.5,,,external-html,1,47661,0.0-1.0,16863,List1A,black,man,consent.html,,,,,,,,,,,,
14023.6,"<p>On the next page, you will see portraits of 8 people and their names.</p><p>Your first task is to take a few minutes to memorise the names of these people.</p><p>You will have to recall their names during the rest of the experiment, so it is</p><p>essential that you try to memorise these people and their names as best as you can.</p><br><p><strong>You will then be tested on your memory of these names and portraits.</strong></p><br><p>The experiment will start after you have completed this memory test.</p><br><p>Ready?</p>",0,html-button-response,2,61686,0.0-2.0,16863,List1A,black,man,,,,,,,,,,,,,
41910,"<img src='img/portrait_matrix_list1.jpg' style='width:900px;height:500px;''></img><p>If you have memorised all the portraits and names and are ready to start, press Continue.</p><p><strong>Please note: Your memory of these faces will be tested 4 times during this experiment.</strong></p>",0,html-button-response,3,104600,0.0-3.0-0.0,16863,List1A,black,man,,,,,,,,,,,,,
9973.7,"<img src=""portrait/WM1.jpg""style=""height:400px;""></img>",6,html-button-response,4,115577,0.0-3.0-1.0,16863,List1A,black,man,,TRUE,6,,,,,,,,,,
null,CORRECT,,html-keyboard-response,5,117083,0.0-3.0-2.0-0.0,16863,List1A,black,man,,,,null,,,,,,,,,
4722,"<img src=""portrait/BM1.jpg""style=""height:400px;""></img>",4,html-button-response,6,121807,0.0-3.0-4.0,16863,List1A,black,man,,TRUE,4,,,,,,,,,,
null,CORRECT,,html-keyboard-response,7,123312,0.0-3.0-5.0-0.0,16863,List1A,black,man,,,,null,,,,,,,,,
8271.4,"<img src=""portrait/BM2.jpg""style=""height:400px;""></img>",5,html-button-response,8,131585,0.0-3.0-7.0,16863,List1A,black,man,,TRUE,5,,,,,,,,,,
null,CORRECT,,html-keyboard-response,9,133090,0.0-3.0-8.0-0.0,16863,List1A,black,man,,,,null,,,,,,,,,
6573.5,"<img src=""portrait/BW1.jpg""style=""height:400px;""></img>",3,html-button-response,10,139665,0.0-3.0-10.0,16863,List1A,black,man,,TRUE,0,,,,,,,,,,
8366.1,"<img src=""portrait/BW1.jpg""style=""height:400px;""></img>",0,html-button-response,11,149034,0.0-3.0-12.0-0.0,16863,List1A,black,man,,FALSE,0,,,,,,,,,,
null,CORRECT,,html-keyboard-response,12,150537,0.0-3.0-12.0-1.0-0.0,16863,List1A,black,man,,,,null,,,,,,,,,
3967,"<img src=""portrait/WW1.jpg""style=""height:400px;""></img>",1,html-button-response,13,154506,0.0-3.0-13.0,16863,List1A,black,man,,TRUE,1,,,,,,,,,,
null,CORRECT,,html-keyboard-response,14,156010,0.0-3.0-14.0-0.0,16863,List1A,black,man,,,,null,,,,,,,,,
6321.1,"<img src=""portrait/WM2.jpg""style=""height:400px;""></img>",7,html-button-response,15,162333,0.0-3.0-16.0,16863,List1A,black,man,,TRUE,7,,,,,,,,,,
null,CORRECT,,html-keyboard-response,16,163837,0.0-3.0-17.0-0.0,16863,List1A,black,man,,,,null,,,,,,,,,
3081.6,"<img src=""portrait/WW2.jpg""style=""height:400px;""></img>",2,html-button-response,17,166920,0.0-3.0-19.0,16863,List1A,black,man,,TRUE,3,,,,,,,,,,
3031.2,"<img src=""portrait/WW2.jpg""style=""height:400px;""></img>",3,html-button-response,18,170954,0.0-3.0-21.0-0.0,16863,List1A,black,man,,FALSE,3,,,,,,,,,,
null,CORRECT,,html-keyboard-response,19,172457,0.0-3.0-21.0-1.0-0.0,16863,List1A,black,man,,,,null,,,,,,,,,
8527.3,"<img src=""portrait/BW2.jpg""style=""height:400px;""></img>",2,html-button-response,20,180987,0.0-3.0-22.0,16863,List1A,black,man,,TRUE,2,,,,,,,,,,
null,CORRECT,,html-keyboard-response,21,182490,0.0-3.0-23.0-0.0,16863,List1A,black,man,,,,null,,,,,,,,,
4213.6,<p>You got 6 out of 8 right first time. Press Continue.</p>,0,html-button-response,22,186705,0.0-3.0-25.0,16863,List1A,black,man,,,,,,,,,,,,,
4657.6,"As you did not score 100%, the memory game will repeat. Press Continue.",0,html-button-response,23,192366,0.0-3.0-26.0-0.0,16863,List1A,black,man,,,,,,,,,,,,,
11259.2,"<img src='img/portrait_matrix_list1.jpg' style='width:900px;height:500px;''></img><p>If you have memorised all the portraits and names and are ready to start, press Continue.</p><p><strong>Please note: Your memory of these faces will be tested 4 times during this experiment.</strong></p>",0,html-button-response,24,204629,0.0-3.1-0.1,16863,List1A,black,man,,,,,,,,,,,,,
6793.8,"<img src=""portrait/WM1.jpg""style=""height:400px;""></img>",6,html-button-response,25,212427,0.0-3.1-1.1,16863,List1A,black,man,,TRUE,6,,,,,,,,,,
null,CORRECT,,html-keyboard-response,26,213930,0.0-3.1-2.1-0.1,16863,List1A,black,man,,,,null,,,,,,,,,
4658,"<img src=""portrait/BM1.jpg""style=""height:400px;""></img>",4,html-button-response,27,218590,0.0-3.1-4.1,16863,List1A,black,man,,TRUE,4,,,,,,,,,,
null,CORRECT,,html-keyboard-response,28,220094,0.0-3.1-5.1-0.1,16863,List1A,black,man,,,,null,,,,,,,,,
5374.6,"<img src=""portrait/BM2.jpg""style=""height:400px;""></img>",5,html-button-response,29,225470,0.0-3.1-7.1,16863,List1A,black,man,,TRUE,5,,,,,,,,,,
null,CORRECT,,html-keyboard-response,30,226974,0.0-3.1-8.1-0.1,16863,List1A,black,man,,,,null,,,,,,,,,
9707.8,"<img src=""portrait/BW1.jpg""style=""height:400px;""></img>",0,html-button-response,31,236684,0.0-3.1-10.1,16863,List1A,black,man,,TRUE,0,,,,,,,,,,
null,CORRECT,,html-keyboard-response,32,238188,0.0-3.1-11.1-0.1,16863,List1A,black,man,,,,null,,,,,,,,,
8573.8,"<img src=""portrait/WW1.jpg""style=""height:400px;""></img>",1,html-button-response,33,246764,0.0-3.1-13.1,16863,List1A,black,man,,TRUE,1,,,,,,,,,,
null,CORRECT,,html-keyboard-response,34,248266,0.0-3.1-14.1-0.1,16863,List1A,black,man,,,,null,,,,,,,,,
2597.8,"<img src=""portrait/WM2.jpg""style=""height:400px;""></img>",7,html-button-response,35,250866,0.0-3.1-16.1,16863,List1A,black,man,,TRUE,7,,,,,,,,,,
null,CORRECT,,html-keyboard-response,36,252370,0.0-3.1-17.1-0.1,16863,List1A,black,man,,,,null,,,,,,,,,
4335.3,"<img src=""portrait/WW2.jpg""style=""height:400px;""></img>",3,html-button-response,37,256707,0.0-3.1-19.1,16863,List1A,black,man,,TRUE,3,,,,,,,,,,
null,CORRECT,,html-keyboard-response,38,258211,0.0-3.1-20.1-0.1,16863,List1A,black,man,,,,null,,,,,,,,,
9491.6,"<img src=""portrait/BW2.jpg""style=""height:400px;""></img>",2,html-button-response,39,267704,0.0-3.1-22.1,16863,List1A,black,man,,TRUE,2,,,,,,,,,,
null,CORRECT,,html-keyboard-response,40,269207,0.0-3.1-23.1-0.1,16863,List1A,black,man,,,,null,,,,,,,,,
2370,<p>You got 8 out of 8 right first time. Press Continue.</p>,0,html-button-response,41,271579,0.0-3.1-25.1,16863,List1A,black,man,,,,,,,,,,,,,
52304.4,"<p>In this experiment, you will view photographs of the people from the memory game interacting.</p><p>By using the <strong>exact</strong> phrase given <i>after</i> the photograph appears and recalling the correct names of the people in the photographs, form a sentence describing the interaction. You do not need to capitalise names.</p><p>Type your answer in the space provided. Please complete every sentence before moving onto the next trial.</p><p>You will only have a few seconds to memorise each given photograph and phrase before you can respond, so try your best to focus.</p><p>An example is given below. Press 'Continue' when you are ready.</p><img src='img/speaking_example.jpg' style='width:800px;height:460px;''></img>",0,html-button-response,42,324886,0.0-4.0,16863,List1A,black,man,,,,,,,,,,,,,
3397.3,"<p>Before the experiment starts, you will watch two example trials. Press 'Continue'.</p>",0,html-button-response,43,329287,0.0-5.0,16863,List1A,black,man,,,,,,,,,,,,,
null,<img src='img/play_eg.gif' style='height:400px;''></img>,,html-keyboard-response,44,332289,0.0-6.0,16863,List1A,black,man,,,,null,,,,,,,,,
null,<p>is playing with</p>,,html-keyboard-response,45,334291,0.0-7.0,16863,List1A,black,man,,,,null,,,,,,,,,
13324.7,<p><b>Answer:</b> kate is playing with beth</p>,0,html-button-response,46,347617,0.0-8.0,16863,List1A,black,man,,,,,,,,,,,,,
null,<img src='img/dance_eg.gif' style='height:400px;''></img>,,html-keyboard-response,47,350620,0.0-9.0,16863,List1A,black,man,,,,null,,,,,,,,,
null,<p>is being entertained by</p>,,html-keyboard-response,48,352623,0.0-10.0,16863,List1A,black,man,,,,null,,,,,,,,,
4680.2,<p><b>Answer:</b> luke is being entertained by dave</p>,0,html-button-response,49,357304,0.0-11.0,16863,List1A,black,man,,,,,,,,,,,,,
12665.3,"<p>Ready to start the experiment?</p><br><p><strong>Remember to describe the picture using a full sentence,</strong></p><p><strong>that combines the names of the people with the <i>exact</i> phrase given.</strong></p><p><strong>To receive full payment you must do this correctly.</strong></p><p><strong> You do not need to capitalise names or use punctuation.</strong></p><br><p>Press 'Continue' to begin.</p>",0,html-button-response,50,370972,0.0-12.0,16863,List1A,black,man,,,,,,,,,,,,,
null,"<div style=""font-size:60px;"">+</div>",,html-keyboard-response,51,372476,0.0-13.0-0.0,16863,List1A,black,man,,,,null,,,,,,,,,
null,"<img src=""stim_listA/seduce1.gif""style=""height:400px;""></stim_listA>",,html-keyboard-response,52,374480,0.0-13.0-1.0,16863,List1A,black,man,,,,null,,,,,,,,,
null,is seducing,,html-keyboard-response,53,376481,0.0-13.0-2.0,16863,List1A,black,man,,,,null,,,,,,,,,
19411.7,,,survey-text,54,395900,0.0-13.0-3.0,16863,List1A,black,man,,,,,"{""Q0"":""fred is talking with  kate""}","<img src=""stim_listA/seduce1.gif""style=""height:400px;""></stim_listA>",is seducing,,,,,,
null,"<div style=""font-size:60px;"">+</div>",,html-keyboard-response,55,396403,0.0-13.0-0.1,16863,List1A,black,man,,,,null,,,,,,,,,
null,"<img src=""stim_listA/shout7.gif""style=""height:400px;""></stim_listA>",,html-keyboard-response,56,398405,0.0-13.0-1.1,16863,List1A,black,man,,,,null,,,,,,,,,
null,is shouting at,,html-keyboard-response,57,400407,0.0-13.0-2.1,16863,List1A,black,man,,,,null,,,,,,,,,
13559.2,,,survey-text,58,413973,0.0-13.0-3.1,16863,List1A,black,man,,,,,"{""Q0"":""kath is arguing with ruth""}","<img src=""stim_listA/shout7.gif""style=""height:400px;""></stim_listA>",is shouting at,,,,,,
null,"<div style=""font-size:60px;"">+</div>",,html-keyboard-response,59,414475,0.0-13.0-0.2,16863,List1A,black,man,,,,null,,,,,,,,,
null,"<img src=""stim_listA/look8.gif""style=""height:400px;""></stim_listA>",,html-keyboard-response,60,416481,0.0-13.0-1.2,16863,List1A,black,man,,,,null,,,,,,,,,
null,is being looked at by,,html-keyboard-response,61,418482,0.0-13.0-2.2,16863,List1A,black,man,,,,null,,,,,,,,,
20047.3,,,survey-text,62,438538,0.0-13.0-3.2,16863,List1A,black,man,,,,,"{""Q0"":""jane is talking to kate""}","<img src=""stim_listA/look8.gif""style=""height:400px;""></stim_listA>",is being looked at by,,,,,,
null,"<div style=""font-size:60px;"">+</div>",,html-keyboard-response,63,439041,0.0-13.0-0.3,16863,List1A,black,man,,,,null,,,,,,,,,
null,"<img src=""stim_listA/oppose3.gif""style=""height:400px;""></stim_listA>",,html-keyboard-response,64,441044,0.0-13.0-1.3,16863,List1A,black,man,,,,null,,,,,,,,,
null,is opposing,,html-keyboard-response,65,443045,0.0-13.0-2.3,16863,List1A,black,man,,,,null,,,,,,,,,
14938.8,,,survey-text,66,457991,0.0-13.0-3.3,16863,List1A,black,man,,,,,"{""Q0"":""dave is boxing with ruth""}","<img src=""stim_listA/oppose3.gif""style=""height:400px;""></stim_listA>",is opposing,,,,,,
null,"<div style=""font-size:60px;"">+</div>",,html-keyboard-response,67,458494,0.0-13.0-0.4,16863,List1A,black,man,,,,null,,,,,,,,,
null,"<img src=""stim_listA/kiss3.gif""style=""height:400px;""></stim_listA>",,html-keyboard-response,68,460497,0.0-13.0-1.4,16863,List1A,black,man,,,,null,,,,,,,,,
null,is kissing,,html-keyboard-response,69,462498,0.0-13.0-2.4,16863,List1A,black,man,,,,null,,,,,,,,,
8766.9,,,survey-text,70,471272,0.0-13.0-3.4,16863,List1A,black,man,,,,,"{""Q0"":""luke is kissing ruth""}","<img src=""stim_listA/kiss3.gif""style=""height:400px;""></stim_listA>",is kissing,,,,,,
null,"<div style=""font-size:60px;"">+</div>",,html-keyboard-response,71,471775,0.0-13.0-0.5,16863,List1A,black,man,,,,null,,,,,,,,,
null,"<img src=""stim_listA/kiss2.gif""style=""height:400px;""></stim_listA>",,html-keyboard-response,72,473777,0.0-13.0-1.5,16863,List1A,black,man,,,,null,,,,,,,,,
null,is being kissed by,,html-keyboard-response,73,475780,0.0-13.0-2.5,16863,List1A,black,man,,,,null,,,,,,,,,
11361.5,,,survey-text,74,487148,0.0-13.0-3.5,16863,List1A,black,man,,,,,"{""Q0"":""mike is kissing kate""}","<img src=""stim_listA/kiss2.gif""style=""height:400px;""></stim_listA>",is being kissed by,,,,,,
null,"<div style=""font-size:60px;"">+</div>",,html-keyboard-response,75,487651,0.0-13.0-0.6,16863,List1A,black,man,,,,null,,,,,,,,,
null,"<img src=""stim_listA/hug2.gif""style=""height:400px;""></stim_listA>",,html-keyboard-response,76,489655,0.0-13.0-1.6,16863,List1A,black,man,,,,null,,,,,,,,,
null,is being hugged by,,html-keyboard-response,77,491657,0.0-13.0-2.6,16863,List1A,black,man,,,,null,,,,,,,,,
10397.3,,,survey-text,78,502061,0.0-13.0-3.6,16863,List1A,black,man,,,,,"{""Q0"":""mike is hugging kate""}","<img src=""stim_listA/hug2.gif""style=""height:400px;""></stim_listA>",is being hugged by,,,,,,
null,"<div style=""font-size:60px;"">+</div>",,html-keyboard-response,79,502564,0.0-13.0-0.7,16863,List1A,black,man,,,,null,,,,,,,,,
null,"<img src=""stim_listA/kiss1.gif""style=""height:400px;""></stim_listA>",,html-keyboard-response,80,504567,0.0-13.0-1.7,16863,List1A,black,man,,,,null,,,,,,,,,
null,is kissing,,html-keyboard-response,81,506569,0.0-13.0-2.7,16863,List1A,black,man,,,,null,,,,,,,,,
8200.3,,,survey-text,82,514775,0.0-13.0-3.7,16863,List1A,black,man,,,,,"{""Q0"":""fred is kissing beth""}","<img src=""stim_listA/kiss1.gif""style=""height:400px;""></stim_listA>",is kissing,,,,,,
null,"<div style=""font-size:60px;"">+</div>",,html-keyboard-response,83,515279,0.0-13.0-0.8,16863,List1A,black,man,,,,null,,,,,,,,,
null,"<img src=""stim_listA/oppose4.gif""style=""height:400px;""></stim_listA>",,html-keyboard-response,84,517282,0.0-13.0-1.8,16863,List1A,black,man,,,,null,,,,,,,,,
null,is being opposed by,,html-keyboard-response,85,519284,0.0-13.0-2.8,16863,List1A,black,man,,,,null,,,,,,,,,
9589.4,,,survey-text,86,528878,0.0-13.0-3.8,16863,List1A,black,man,,,,,"{""Q0"":""luke is talking to ruth""}","<img src=""stim_listA/oppose4.gif""style=""height:400px;""></stim_listA>",is being opposed by,,,,,,
null,"<div style=""font-size:60px;"">+</div>",,html-keyboard-response,87,529380,0.0-13.0-0.9,16863,List1A,black,man,,,,null,,,,,,,,,
null,"<img src=""stim_listA/shout2.gif""style=""height:400px;""></stim_listA>",,html-keyboard-response,88,531383,0.0-13.0-1.9,16863,List1A,black,man,,,,null,,,,,,,,,
null,is being shouted at by,,html-keyboard-response,89,533386,0.0-13.0-2.9,16863,List1A,black,man,,,,null,,,,,,,,,
10589.8,,,survey-text,90,543983,0.0-13.0-3.9,16863,List1A,black,man,,,,,"{""Q0"":""mike is arguing with kate""}","<img src=""stim_listA/shout2.gif""style=""height:400px;""></stim_listA>",is being shouted at by,,,,,,
null,"<div style=""font-size:60px;"">+</div>",,html-keyboard-response,91,544486,0.0-13.0-0.10,16863,List1A,black,man,,,,null,,,,,,,,,
null,"<img src=""stim_listA/copy6.gif""style=""height:400px;""></stim_listA>",,html-keyboard-response,92,546489,0.0-13.0-1.10,16863,List1A,black,man,,,,null,,,,,,,,,
null,is being copied by,,html-keyboard-response,93,548491,0.0-13.0-2.10,16863,List1A,black,man,,,,null,,,,,,,,,
12039.4,,,survey-text,94,560539,0.0-13.0-3.10,16863,List1A,black,man,,,,,"{""Q0"":""dave and fred is talking""}","<img src=""stim_listA/copy6.gif""style=""height:400px;""></stim_listA>",is being copied by,,,,,,
null,"<div style=""font-size:60px;"">+</div>",,html-keyboard-response,95,561041,0.0-13.0-0.11,16863,List1A,black,man,,,,null,,,,,,,,,
null,"<img src=""stim_listA/shout1.gif""style=""height:400px;""></stim_listA>",,html-keyboard-response,96,563044,0.0-13.0-1.11,16863,List1A,black,man,,,,null,,,,,,,,,
null,is shouting at,,html-keyboard-response,97,565047,0.0-13.0-2.11,16863,List1A,black,man,,,,null,,,,,,,,,
7394.2,,,survey-text,98,572448,0.0-13.0-3.11,16863,List1A,black,man,,,,,"{""Q0"":""ruth and fred is arguing""}","<img src=""stim_listA/shout1.gif""style=""height:400px;""></stim_listA>",is shouting at,,,,,,
null,"<div style=""font-size:60px;"">+</div>",,html-keyboard-response,99,572951,0.0-13.0-0.12,16863,List1A,black,man,,,,null,,,,,,,,,
null,"<img src=""stim_listA/touch7.gif""style=""height:400px;""></stim_listA>",,html-keyboard-response,100,574953,0.0-13.0-1.12,16863,List1A,black,man,,,,null,,,,,,,,,
null,is touching,,html-keyboard-response,101,576955,0.0-13.0-2.12,16863,List1A,black,man,,,,null,,,,,,,,,
17832.4,,,survey-text,102,594796,0.0-13.0-3.12,16863,List1A,black,man,,,,,"{""Q0"":""jane and kate is talking""}","<img src=""stim_listA/touch7.gif""style=""height:400px;""></stim_listA>",is touching,,,,,,
null,"<div style=""font-size:60px;"">+</div>",,html-keyboard-response,103,595299,0.0-13.0-0.13,16863,List1A,black,man,,,,null,,,,,,,,,
null,"<img src=""stim_listA/shout4.gif""style=""height:400px;""></stim_listA>",,html-keyboard-response,104,597302,0.0-13.0-1.13,16863,List1A,black,man,,,,null,,,,,,,,,
null,is being shouted at by,,html-keyboard-response,105,599305,0.0-13.0-2.13,16863,List1A,black,man,,,,null,,,,,,,,,
15194,,,survey-text,106,614507,0.0-13.0-3.13,16863,List1A,black,man,,,,,"{""Q0"":""jane and dave is talking""}","<img src=""stim_listA/shout4.gif""style=""height:400px;""></stim_listA>",is being shouted at by,,,,,,
null,"<div style=""font-size:60px;"">+</div>",,html-keyboard-response,107,615009,0.0-13.0-0.14,16863,List1A,black,man,,,,null,,,,,,,,,
null,"<img src=""stim_listA/greet1.gif""style=""height:400px;""></stim_listA>",,html-keyboard-response,108,617012,0.0-13.0-1.14,16863,List1A,black,man,,,,null,,,,,,,,,
null,is greeting,,html-keyboard-response,109,619015,0.0-13.0-2.14,16863,List1A,black,man,,,,null,,,,,,,,,
16264.5,,,survey-text,110,635286,0.0-13.0-3.14,16863,List1A,black,man,,,,,"{""Q0"":""Mike and beth is saying goodbye""}","<img src=""stim_listA/greet1.gif""style=""height:400px;""></stim_listA>",is greeting,,,,,,
null,"<div style=""font-size:60px;"">+</div>",,html-keyboard-response,111,635794,0.0-13.0-0.15,16863,List1A,black,man,,,,null,,,,,,,,,
null,"<img src=""stim_listA/hug1.gif""style=""height:400px;""></stim_listA>",,html-keyboard-response,112,637798,0.0-13.0-1.15,16863,List1A,black,man,,,,null,,,,,,,,,
null,is hugging,,html-keyboard-response,113,639799,0.0-13.0-2.15,16863,List1A,black,man,,,,null,,,,,,,,,
8904.7,,,survey-text,114,648711,0.0-13.0-3.15,16863,List1A,black,man,,,,,"{""Q0"":""fred and beth is hugginh""}","<img src=""stim_listA/hug1.gif""style=""height:400px;""></stim_listA>",is hugging,,,,,,
null,"<div style=""font-size:60px;"">+</div>",,html-keyboard-response,115,649214,0.0-13.0-0.16,16863,List1A,black,man,,,,null,,,,,,,,,
null,"<img src=""stim_listA/look2.gif""style=""height:400px;""></stim_listA>",,html-keyboard-response,116,651217,0.0-13.0-1.16,16863,List1A,black,man,,,,null,,,,,,,,,
null,is being looked at by,,html-keyboard-response,117,653217,0.0-13.0-2.16,16863,List1A,black,man,,,,null,,,,,,,,,
18037.1,,,survey-text,118,671261,0.0-13.0-3.16,16863,List1A,black,man,,,,,"{""Q0"":""mike and kate is talking""}","<img src=""stim_listA/look2.gif""style=""height:400px;""></stim_listA>",is being looked at by,,,,,,
null,"<div style=""font-size:60px;"">+</div>",,html-keyboard-response,119,671764,0.0-13.0-0.17,16863,List1A,black,man,,,,null,,,,,,,,,
null,"<img src=""stim_listA/oppose1.gif""style=""height:400px;""></stim_listA>",,html-keyboard-response,120,673767,0.0-13.0-1.17,16863,List1A,black,man,,,,null,,,,,,,,,
null,is opposing,,html-keyboard-response,121,675769,0.0-13.0-2.17,16863,List1A,black,man,,,,null,,,,,,,,,
18442.2,,,survey-text,122,694218,0.0-13.0-3.17,16863,List1A,black,man,,,,,"{""Q0"":""kate and mike is fighting""}","<img src=""stim_listA/oppose1.gif""style=""height:400px;""></stim_listA>",is opposing,,,,,,
null,"<div style=""font-size:60px;"">+</div>",,html-keyboard-response,123,694722,0.0-13.0-0.18,16863,List1A,black,man,,,,null,,,,,,,,,
null,"<img src=""stim_listA/challenge2.gif""style=""height:400px;""></stim_listA>",,html-keyboard-response,124,696725,0.0-13.0-1.18,16863,List1A,black,man,,,,null,,,,,,,,,
null,is being challenged by,,html-keyboard-response,125,698727,0.0-13.0-2.18,16863,List1A,black,man,,,,null,,,,,,,,,
8905.5,,,survey-text,126,707639,0.0-13.0-3.18,16863,List1A,black,man,,,,,"{""Q0"":""fred and kate is talking""}","<img src=""stim_listA/challenge2.gif""style=""height:400px;""></stim_listA>",is being challenged by,,,,,,
null,"<div style=""font-size:60px;"">+</div>",,html-keyboard-response,127,708142,0.0-13.0-0.19,16863,List1A,black,man,,,,null,,,,,,,,,
null,"<img src=""stim_listA/hug3.gif""style=""height:400px;""></stim_listA>",,html-keyboard-response,128,710145,0.0-13.0-1.19,16863,List1A,black,man,,,,null,,,,,,,,,
null,is hugging,,html-keyboard-response,129,712147,0.0-13.0-2.19,16863,List1A,black,man,,,,null,,,,,,,,,
10847.2,,,survey-text,130,723000,0.0-13.0-3.19,16863,List1A,black,man,,,,,"{""Q0"":""ruth and luke is hugging""}","<img src=""stim_listA/hug3.gif""style=""height:400px;""></stim_listA>",is hugging,,,,,,
9111.5,"<img src='img/portrait_matrix_list1.jpg' style='width:900px;height:500px;''></img><p>If you have memorised all the portraits and names and are ready to start, press Continue.</p><p><strong>Please note: Your memory of these faces will be tested 4 times during this experiment.</strong></p>",0,html-button-response,131,732114,0.0-14.0-0.0,16863,List1A,black,man,,,,,,,,,,,,,
4983.8,"<img src=""portrait/BW1.jpg""style=""height:400px;""></img>",0,html-button-response,132,738100,0.0-14.0-1.0,16863,List1A,black,man,,TRUE,0,,,,,,,,,,
null,CORRECT,,html-keyboard-response,133,739604,0.0-14.0-2.0-0.0,16863,List1A,black,man,,,,null,,,,,,,,,
5057.8,"<img src=""portrait/WW1.jpg""style=""height:400px;""></img>",1,html-button-response,134,744664,0.0-14.0-4.0,16863,List1A,black,man,,TRUE,1,,,,,,,,,,
null,CORRECT,,html-keyboard-response,135,746168,0.0-14.0-5.0-0.0,16863,List1A,black,man,,,,null,,,,,,,,,
7812.3,"<img src=""portrait/BW2.jpg""style=""height:400px;""></img>",2,html-button-response,136,753982,0.0-14.0-7.0,16863,List1A,black,man,,TRUE,2,,,,,,,,,,
null,CORRECT,,html-keyboard-response,137,755486,0.0-14.0-8.0-0.0,16863,List1A,black,man,,,,null,,,,,,,,,
7233.1,"<img src=""portrait/BM2.jpg""style=""height:400px;""></img>",5,html-button-response,138,762721,0.0-14.0-10.0,16863,List1A,black,man,,TRUE,5,,,,,,,,,,
null,CORRECT,,html-keyboard-response,139,764226,0.0-14.0-11.0-0.0,16863,List1A,black,man,,,,null,,,,,,,,,
2949.1,"<img src=""portrait/BM1.jpg""style=""height:400px;""></img>",4,html-button-response,140,767177,0.0-14.0-13.0,16863,List1A,black,man,,TRUE,4,,,,,,,,,,
null,CORRECT,,html-keyboard-response,141,768682,0.0-14.0-14.0-0.0,16863,List1A,black,man,,,,null,,,,,,,,,
3375.4,"<img src=""portrait/WW2.jpg""style=""height:400px;""></img>",3,html-button-response,142,772060,0.0-14.0-16.0,16863,List1A,black,man,,TRUE,3,,,,,,,,,,
null,CORRECT,,html-keyboard-response,143,773564,0.0-14.0-17.0-0.0,16863,List1A,black,man,,,,null,,,,,,,,,
2748.7,"<img src=""portrait/WM2.jpg""style=""height:400px;""></img>",7,html-button-response,144,776315,0.0-14.0-19.0,16863,List1A,black,man,,TRUE,7,,,,,,,,,,
null,CORRECT,,html-keyboard-response,145,777818,0.0-14.0-20.0-0.0,16863,List1A,black,man,,,,null,,,,,,,,,
3363.1,"<img src=""portrait/WM1.jpg""style=""height:400px;""></img>",6,html-button-response,146,781183,0.0-14.0-22.0,16863,List1A,black,man,,TRUE,6,,,,,,,,,,
null,CORRECT,,html-keyboard-response,147,782688,0.0-14.0-23.0-0.0,16863,List1A,black,man,,,,null,,,,,,,,,
3523.1,<p>You got 8 out of 8 right first time. Press Continue.</p>,0,html-button-response,148,786213,0.0-14.0-25.0,16863,List1A,black,man,,,,,,,,,,,,,
null,"<div style=""font-size:60px;"">+</div>",,html-keyboard-response,149,787717,0.0-15.0-0.0,16863,List1A,black,man,,,,null,,,,,,,,,
null,"<img src=""stim_listA/hug6.gif""style=""height:400px;""></stim_listA>",,html-keyboard-response,150,789720,0.0-15.0-1.0,16863,List1A,black,man,,,,null,,,,,,,,,
null,is being hugged by,,html-keyboard-response,151,791722,0.0-15.0-2.0,16863,List1A,black,man,,,,null,,,,,,,,,
12561,,,survey-text,152,804290,0.0-15.0-3.0,16863,List1A,black,man,,,,,"{""Q0"":""dave and fred is hugging""}","<img src=""stim_listA/hug6.gif""style=""height:400px;""></stim_listA>",is being hugged by,,,,,,
null,"<div style=""font-size:60px;"">+</div>",,html-keyboard-response,153,804793,0.0-15.0-0.1,16863,List1A,black,man,,,,null,,,,,,,,,
null,"<img src=""stim_listA/greet3.gif""style=""height:400px;""></stim_listA>",,html-keyboard-response,154,806797,0.0-15.0-1.1,16863,List1A,black,man,,,,null,,,,,,,,,
null,is greeting,,html-keyboard-response,155,808799,0.0-15.0-2.1,16863,List1A,black,man,,,,null,,,,,,,,,
15601.9,,,survey-text,156,824408,0.0-15.0-3.1,16863,List1A,black,man,,,,,"{""Q0"":""ruth and dave is waveing bye""}","<img src=""stim_listA/greet3.gif""style=""height:400px;""></stim_listA>",is greeting,,,,,,
null,"<div style=""font-size:60px;"">+</div>",,html-keyboard-response,157,824911,0.0-15.0-0.2,16863,List1A,black,man,,,,null,,,,,,,,,
null,"<img src=""stim_listA/seduce8.gif""style=""height:400px;""></stim_listA>",,html-keyboard-response,158,826914,0.0-15.0-1.2,16863,List1A,black,man,,,,null,,,,,,,,,
null,is being seduced by,,html-keyboard-response,159,828915,0.0-15.0-2.2,16863,List1A,black,man,,,,null,,,,,,,,,
8980.3,,,survey-text,160,837902,0.0-15.0-3.2,16863,List1A,black,man,,,,,"{""Q0"":""kate and ruth is talking""}","<img src=""stim_listA/seduce8.gif""style=""height:400px;""></stim_listA>",is being seduced by,,,,,,
null,"<div style=""font-size:60px;"">+</div>",,html-keyboard-response,161,838404,0.0-15.0-0.3,16863,List1A,black,man,,,,null,,,,,,,,,
null,"<img src=""stim_listA/hug7.gif""style=""height:400px;""></stim_listA>",,html-keyboard-response,162,840407,0.0-15.0-1.3,16863,List1A,black,man,,,,null,,,,,,,,,
null,is hugging,,html-keyboard-response,163,842408,0.0-15.0-2.3,16863,List1A,black,man,,,,null,,,,,,,,,
9224.5,,,survey-text,164,851640,0.0-15.0-3.3,16863,List1A,black,man,,,,,"{""Q0"":""beth and ruth is hugging""}","<img src=""stim_listA/hug7.gif""style=""height:400px;""></stim_listA>",is hugging,,,,,,
null,"<div style=""font-size:60px;"">+</div>",,html-keyboard-response,165,852143,0.0-15.0-0.4,16863,List1A,black,man,,,,null,,,,,,,,,
null,"<img src=""stim_listA/copy8.gif""style=""height:400px;""></stim_listA>",,html-keyboard-response,166,854145,0.0-15.0-1.4,16863,List1A,black,man,,,,null,,,,,,,,,
null,is being copied by,,html-keyboard-response,167,856147,0.0-15.0-2.4,16863,List1A,black,man,,,,null,,,,,,,,,
11241.3,,,survey-text,168,867395,0.0-15.0-3.4,16863,List1A,black,man,,,,,"{""Q0"":""jane and beth is agreeing""}","<img src=""stim_listA/copy8.gif""style=""height:400px;""></stim_listA>",is being copied by,,,,,,
null,"<div style=""font-size:60px;"">+</div>",,html-keyboard-response,169,867897,0.0-15.0-0.5,16863,List1A,black,man,,,,null,,,,,,,,,
null,"<img src=""stim_listA/touch3.gif""style=""height:400px;""></stim_listA>",,html-keyboard-response,170,869900,0.0-15.0-1.5,16863,List1A,black,man,,,,null,,,,,,,,,
null,is touching,,html-keyboard-response,171,871902,0.0-15.0-2.5,16863,List1A,black,man,,,,null,,,,,,,,,
13464.2,,,survey-text,172,885373,0.0-15.0-3.5,16863,List1A,black,man,,,,,"{""Q0"":""dave and ruth is talking""}","<img src=""stim_listA/touch3.gif""style=""height:400px;""></stim_listA>",is touching,,,,,,
null,"<div style=""font-size:60px;"">+</div>",,html-keyboard-response,173,885877,0.0-15.0-0.6,16863,List1A,black,man,,,,null,,,,,,,,,
null,"<img src=""stim_listA/hug5.gif""style=""height:400px;""></stim_listA>",,html-keyboard-response,174,887881,0.0-15.0-1.6,16863,List1A,black,man,,,,null,,,,,,,,,
null,is hugging,,html-keyboard-response,175,889884,0.0-15.0-2.6,16863,List1A,black,man,,,,null,,,,,,,,,
12734.1,,,survey-text,176,902625,0.0-15.0-3.6,16863,List1A,black,man,,,,,"{""Q0"":""luke and fred is hugging""}","<img src=""stim_listA/hug5.gif""style=""height:400px;""></stim_listA>",is hugging,,,,,,
null,"<div style=""font-size:60px;"">+</div>",,html-keyboard-response,177,903128,0.0-15.0-0.7,16863,List1A,black,man,,,,null,,,,,,,,,
null,"<img src=""stim_listA/seduce4.gif""style=""height:400px;""></stim_listA>",,html-keyboard-response,178,905131,0.0-15.0-1.7,16863,List1A,black,man,,,,null,,,,,,,,,
null,is being seduced by,,html-keyboard-response,179,907134,0.0-15.0-2.7,16863,List1A,black,man,,,,null,,,,,,,,,
10921.4,,,survey-text,180,918062,0.0-15.0-3.7,16863,List1A,black,man,,,,,"{""Q0"":""e and ruth is talking""}","<img src=""stim_listA/seduce4.gif""style=""height:400px;""></stim_listA>",is being seduced by,,,,,,
null,"<div style=""font-size:60px;"">+</div>",,html-keyboard-response,181,918565,0.0-15.0-0.8,16863,List1A,black,man,,,,null,,,,,,,,,
null,"<img src=""stim_listA/seduce5.gif""style=""height:400px;""></stim_listA>",,html-keyboard-response,182,920570,0.0-15.0-1.8,16863,List1A,black,man,,,,null,,,,,,,,,
null,is seducing,,html-keyboard-response,183,922573,0.0-15.0-2.8,16863,List1A,black,man,,,,null,,,,,,,,,
9729,,,survey-text,184,932309,0.0-15.0-3.8,16863,List1A,black,man,,,,,"{""Q0"":""dave and fred is agreeing ""}","<img src=""stim_listA/seduce5.gif""style=""height:400px;""></stim_listA>",is seducing,,,,,,
null,"<div style=""font-size:60px;"">+</div>",,html-keyboard-response,185,932812,0.0-15.0-0.9,16863,List1A,black,man,,,,null,,,,,,,,,
null,"<img src=""stim_listA/copy3.gif""style=""height:400px;""></stim_listA>",,html-keyboard-response,186,934816,0.0-15.0-1.9,16863,List1A,black,man,,,,null,,,,,,,,,
null,is copying,,html-keyboard-response,187,936818,0.0-15.0-2.9,16863,List1A,black,man,,,,null,,,,,,,,,
8467.5,,,survey-text,188,945293,0.0-15.0-3.9,16863,List1A,black,man,,,,,"{""Q0"":""dave and ruth is agreeing""}","<img src=""stim_listA/copy3.gif""style=""height:400px;""></stim_listA>",is copying,,,,,,
null,"<div style=""font-size:60px;"">+</div>",,html-keyboard-response,189,945795,0.0-15.0-0.10,16863,List1A,black,man,,,,null,,,,,,,,,
null,"<img src=""stim_listA/copy1.gif""style=""height:400px;""></stim_listA>",,html-keyboard-response,190,947798,0.0-15.0-1.10,16863,List1A,black,man,,,,null,,,,,,,,,
null,is copying,,html-keyboard-response,191,949800,0.0-15.0-2.10,16863,List1A,black,man,,,,null,,,,,,,,,
8884.9,,,survey-text,192,958690,0.0-15.0-3.10,16863,List1A,black,man,,,,,"{""Q0"":""mike and kate is agreeing""}","<img src=""stim_listA/copy1.gif""style=""height:400px;""></stim_listA>",is copying,,,,,,
null,"<div style=""font-size:60px;"">+</div>",,html-keyboard-response,193,959193,0.0-15.0-0.11,16863,List1A,black,man,,,,null,,,,,,,,,
null,"<img src=""stim_listA/oppose5.gif""style=""height:400px;""></stim_listA>",,html-keyboard-response,194,961196,0.0-15.0-1.11,16863,List1A,black,man,,,,null,,,,,,,,,
null,is opposing,,html-keyboard-response,195,963198,0.0-15.0-2.11,16863,List1A,black,man,,,,null,,,,,,,,,
10976.8,,,survey-text,196,974181,0.0-15.0-3.11,16863,List1A,black,man,,,,,"{""Q0"":""mike and dave is fighting""}","<img src=""stim_listA/oppose5.gif""style=""height:400px;""></stim_listA>",is opposing,,,,,,
null,"<div style=""font-size:60px;"">+</div>",,html-keyboard-response,197,974684,0.0-15.0-0.12,16863,List1A,black,man,,,,null,,,,,,,,,
null,"<img src=""stim_listA/oppose6.gif""style=""height:400px;""></stim_listA>",,html-keyboard-response,198,976686,0.0-15.0-1.12,16863,List1A,black,man,,,,null,,,,,,,,,
null,is being opposed by,,html-keyboard-response,199,978690,0.0-15.0-2.12,16863,List1A,black,man,,,,null,,,,,,,,,
7005.2,,,survey-text,200,985702,0.0-15.0-3.12,16863,List1A,black,man,,,,,"{""Q0"":""luke and fred is boxing""}","<img src=""stim_listA/oppose6.gif""style=""height:400px;""></stim_listA>",is being opposed by,,,,,,
null,"<div style=""font-size:60px;"">+</div>",,html-keyboard-response,201,986206,0.0-15.0-0.13,16863,List1A,black,man,,,,null,,,,,,,,,
null,"<img src=""stim_listA/touch2.gif""style=""height:400px;""></stim_listA>",,html-keyboard-response,202,988209,0.0-15.0-1.13,16863,List1A,black,man,,,,null,,,,,,,,,
null,is being touched by,,html-keyboard-response,203,990211,0.0-15.0-2.13,16863,List1A,black,man,,,,null,,,,,,,,,
8654.9,,,survey-text,204,998872,0.0-15.0-3.13,16863,List1A,black,man,,,,,"{""Q0"":""fred and beth is clappimng""}","<img src=""stim_listA/touch2.gif""style=""height:400px;""></stim_listA>",is being touched by,,,,,,
null,"<div style=""font-size:60px;"">+</div>",,html-keyboard-response,205,999376,0.0-15.0-0.14,16863,List1A,black,man,,,,null,,,,,,,,,
null,"<img src=""stim_listA/shout5.gif""style=""height:400px;""></stim_listA>",,html-keyboard-response,206,1001379,0.0-15.0-1.14,16863,List1A,black,man,,,,null,,,,,,,,,
null,is shouting at,,html-keyboard-response,207,1003381,0.0-15.0-2.14,16863,List1A,black,man,,,,null,,,,,,,,,
7468.3,,,survey-text,208,1010857,0.0-15.0-3.14,16863,List1A,black,man,,,,,"{""Q0"":""ke and fred is arguing""}","<img src=""stim_listA/shout5.gif""style=""height:400px;""></stim_listA>",is shouting at,,,,,,
null,"<div style=""font-size:60px;"">+</div>",,html-keyboard-response,209,1011361,0.0-15.0-0.15,16863,List1A,black,man,,,,null,,,,,,,,,
null,"<img src=""stim_listA/greet5.gif""style=""height:400px;""></stim_listA>",,html-keyboard-response,210,1013364,0.0-15.0-1.15,16863,List1A,black,man,,,,null,,,,,,,,,
null,is greeting,,html-keyboard-response,211,1015365,0.0-15.0-2.15,16863,List1A,black,man,,,,null,,,,,,,,,
11798.4,,,survey-text,212,1027171,0.0-15.0-3.15,16863,List1A,black,man,,,,,"{""Q0"":""uke and mike is saying bye bye""}","<img src=""stim_listA/greet5.gif""style=""height:400px;""></stim_listA>",is greeting,,,,,,
null,"<div style=""font-size:60px;"">+</div>",,html-keyboard-response,213,1027674,0.0-15.0-0.16,16863,List1A,black,man,,,,null,,,,,,,,,
null,"<img src=""stim_listA/greet2.gif""style=""height:400px;""></stim_listA>",,html-keyboard-response,214,1029678,0.0-15.0-1.16,16863,List1A,black,man,,,,null,,,,,,,,,
null,is being greeted by,,html-keyboard-response,215,1031680,0.0-15.0-2.16,16863,List1A,black,man,,,,null,,,,,,,,,
9419,,,survey-text,216,1041106,0.0-15.0-3.16,16863,List1A,black,man,,,,,"{""Q0"":""fed and kate is talking""}","<img src=""stim_listA/greet2.gif""style=""height:400px;""></stim_listA>",is being greeted by,,,,,,
null,"<div style=""font-size:60px;"">+</div>",,html-keyboard-response,217,1041609,0.0-15.0-0.17,16863,List1A,black,man,,,,null,,,,,,,,,
null,"<img src=""stim_listA/copy2.gif""style=""height:400px;""></stim_listA>",,html-keyboard-response,218,1043612,0.0-15.0-1.17,16863,List1A,black,man,,,,null,,,,,,,,,
null,is being copied by,,html-keyboard-response,219,1045615,0.0-15.0-2.17,16863,List1A,black,man,,,,null,,,,,,,,,
9273.8,,,survey-text,220,1054896,0.0-15.0-3.17,16863,List1A,black,man,,,,,"{""Q0"":""fred and kate is beggingh""}","<img src=""stim_listA/copy2.gif""style=""height:400px;""></stim_listA>",is being copied by,,,,,,
null,"<div style=""font-size:60px;"">+</div>",,html-keyboard-response,221,1055399,0.0-15.0-0.18,16863,List1A,black,man,,,,null,,,,,,,,,
null,"<img src=""stim_listA/kiss8.gif""style=""height:400px;""></stim_listA>",,html-keyboard-response,222,1057402,0.0-15.0-1.18,16863,List1A,black,man,,,,null,,,,,,,,,
null,is being kissed by,,html-keyboard-response,223,1059405,0.0-15.0-2.18,16863,List1A,black,man,,,,null,,,,,,,,,
10474.1,,,survey-text,224,1069886,0.0-15.0-3.18,16863,List1A,black,man,,,,,"{""Q0"":""jane and kate is kissing""}","<img src=""stim_listA/kiss8.gif""style=""height:400px;""></stim_listA>",is being kissed by,,,,,,
null,"<div style=""font-size:60px;"">+</div>",,html-keyboard-response,225,1070389,0.0-15.0-0.19,16863,List1A,black,man,,,,null,,,,,,,,,
null,"<img src=""stim_listA/touch5.gif""style=""height:400px;""></stim_listA>",,html-keyboard-response,226,1072392,0.0-15.0-1.19,16863,List1A,black,man,,,,null,,,,,,,,,
null,is touching,,html-keyboard-response,227,1074395,0.0-15.0-2.19,16863,List1A,black,man,,,,null,,,,,,,,,
10328.7,,,survey-text,228,1084732,0.0-15.0-3.19,16863,List1A,black,man,,,,,"{""Q0"":""dave and mike is agreeing""}","<img src=""stim_listA/touch5.gif""style=""height:400px;""></stim_listA>",is touching,,,,,,
17423,"<img src='img/portrait_matrix_list1.jpg' style='width:900px;height:500px;''></img><p>If you have memorised all the portraits and names and are ready to start, press Continue.</p><p><strong>Please note: Your memory of these faces will be tested 4 times during this experiment.</strong></p>",0,html-button-response,229,1102157,0.0-16.0-0.0,16863,List1A,black,man,,,,,,,,,,,,,
5245.5,"<img src=""portrait/WW1.jpg""style=""height:400px;""></img>",1,html-button-response,230,1108407,0.0-16.0-1.0,16863,List1A,black,man,,TRUE,1,,,,,,,,,,
null,CORRECT,,html-keyboard-response,231,1109910,0.0-16.0-2.0-0.0,16863,List1A,black,man,,,,null,,,,,,,,,
1790.1,"<img src=""portrait/WM2.jpg""style=""height:400px;""></img>",7,html-button-response,232,1111702,0.0-16.0-4.0,16863,List1A,black,man,,TRUE,7,,,,,,,,,,
null,CORRECT,,html-keyboard-response,233,1113205,0.0-16.0-5.0-0.0,16863,List1A,black,man,,,,null,,,,,,,,,
5284.3,"<img src=""portrait/BW1.jpg""style=""height:400px;""></img>",0,html-button-response,234,1118492,0.0-16.0-7.0,16863,List1A,black,man,,TRUE,0,,,,,,,,,,
null,CORRECT,,html-keyboard-response,235,1119995,0.0-16.0-8.0-0.0,16863,List1A,black,man,,,,null,,,,,,,,,
2016.2,"<img src=""portrait/BM1.jpg""style=""height:400px;""></img>",4,html-button-response,236,1122013,0.0-16.0-10.0,16863,List1A,black,man,,TRUE,4,,,,,,,,,,
null,CORRECT,,html-keyboard-response,237,1123516,0.0-16.0-11.0-0.0,16863,List1A,black,man,,,,null,,,,,,,,,
4402.2,"<img src=""portrait/BW2.jpg""style=""height:400px;""></img>",2,html-button-response,238,1127920,0.0-16.0-13.0,16863,List1A,black,man,,TRUE,2,,,,,,,,,,
null,CORRECT,,html-keyboard-response,239,1129425,0.0-16.0-14.0-0.0,16863,List1A,black,man,,,,null,,,,,,,,,
4452.2,"<img src=""portrait/WW2.jpg""style=""height:400px;""></img>",3,html-button-response,240,1133879,0.0-16.0-16.0,16863,List1A,black,man,,TRUE,3,,,,,,,,,,
null,CORRECT,,html-keyboard-response,241,1135382,0.0-16.0-17.0-0.0,16863,List1A,black,man,,,,null,,,,,,,,,
3190.4,"<img src=""portrait/WM1.jpg""style=""height:400px;""></img>",6,html-button-response,242,1138574,0.0-16.0-19.0,16863,List1A,black,man,,TRUE,6,,,,,,,,,,
null,CORRECT,,html-keyboard-response,243,1140078,0.0-16.0-20.0-0.0,16863,List1A,black,man,,,,null,,,,,,,,,
2855.1,"<img src=""portrait/BM2.jpg""style=""height:400px;""></img>",5,html-button-response,244,1142935,0.0-16.0-22.0,16863,List1A,black,man,,TRUE,5,,,,,,,,,,
null,CORRECT,,html-keyboard-response,245,1144439,0.0-16.0-23.0-0.0,16863,List1A,black,man,,,,null,,,,,,,,,
1714.2,<p>You got 8 out of 8 right first time. Press Continue.</p>,0,html-button-response,246,1146155,0.0-16.0-25.0,16863,List1A,black,man,,,,,,,,,,,,,
null,"<div style=""font-size:60px;"">+</div>",,html-keyboard-response,247,1147659,0.0-17.0-0.0,16863,List1A,black,man,,,,null,,,,,,,,,
null,"<img src=""stim_listA/oppose7.gif""style=""height:400px;""></stim_listA>",,html-keyboard-response,248,1149662,0.0-17.0-1.0,16863,List1A,black,man,,,,null,,,,,,,,,
null,is opposing,,html-keyboard-response,249,1151664,0.0-17.0-2.0,16863,List1A,black,man,,,,null,,,,,,,,,
16745.5,,,survey-text,250,1168417,0.0-17.0-3.0,16863,List1A,black,man,,,,,"{""Q0"":""jane and kate is boxing""}","<img src=""stim_listA/oppose7.gif""style=""height:400px;""></stim_listA>",is opposing,,,,,,
null,"<div style=""font-size:60px;"">+</div>",,html-keyboard-response,251,1168919,0.0-17.0-0.1,16863,List1A,black,man,,,,null,,,,,,,,,
null,"<img src=""stim_listA/greet7.gif""style=""height:400px;""></stim_listA>",,html-keyboard-response,252,1170922,0.0-17.0-1.1,16863,List1A,black,man,,,,null,,,,,,,,,
null,is greeting,,html-keyboard-response,253,1172925,0.0-17.0-2.1,16863,List1A,black,man,,,,null,,,,,,,,,
12346.9,,,survey-text,254,1185279,0.0-17.0-3.1,16863,List1A,black,man,,,,,"{""Q0"":""uth and kate is agreeing""}","<img src=""stim_listA/greet7.gif""style=""height:400px;""></stim_listA>",is greeting,,,,,,
null,"<div style=""font-size:60px;"">+</div>",,html-keyboard-response,255,1185783,0.0-17.0-0.2,16863,List1A,black,man,,,,null,,,,,,,,,
null,"<img src=""stim_listA/copy5.gif""style=""height:400px;""></stim_listA>",,html-keyboard-response,256,1187786,0.0-17.0-1.2,16863,List1A,black,man,,,,null,,,,,,,,,
null,is copying,,html-keyboard-response,257,1189788,0.0-17.0-2.2,16863,List1A,black,man,,,,null,,,,,,,,,
9374.7,,,survey-text,258,1199170,0.0-17.0-3.2,16863,List1A,black,man,,,,,"{""Q0"":""luke and mike is begging""}","<img src=""stim_listA/copy5.gif""style=""height:400px;""></stim_listA>",is copying,,,,,,
null,"<div style=""font-size:60px;"">+</div>",,html-keyboard-response,259,1199684,0.0-17.0-0.3,16863,List1A,black,man,,,,null,,,,,,,,,
null,"<img src=""stim_listA/look1.gif""style=""height:400px;""></stim_listA>",,html-keyboard-response,260,1201687,0.0-17.0-1.3,16863,List1A,black,man,,,,null,,,,,,,,,
null,is looking at,,html-keyboard-response,261,1203689,0.0-17.0-2.3,16863,List1A,black,man,,,,null,,,,,,,,,
12714.7,,,survey-text,262,1216411,0.0-17.0-3.3,16863,List1A,black,man,,,,,"{""Q0"":""fred is looking at beth""}","<img src=""stim_listA/look1.gif""style=""height:400px;""></stim_listA>",is looking at,,,,,,
null,"<div style=""font-size:60px;"">+</div>",,html-keyboard-response,263,1216914,0.0-17.0-0.4,16863,List1A,black,man,,,,null,,,,,,,,,
null,"<img src=""stim_listA/look4.gif""style=""height:400px;""></stim_listA>",,html-keyboard-response,264,1218917,0.0-17.0-1.4,16863,List1A,black,man,,,,null,,,,,,,,,
null,is being looked at by,,html-keyboard-response,265,1220920,0.0-17.0-2.4,16863,List1A,black,man,,,,null,,,,,,,,,
17383.4,,,survey-text,266,1238310,0.0-17.0-3.4,16863,List1A,black,man,,,,,"{""Q0"":""dave is being looked at by kate""}","<img src=""stim_listA/look4.gif""style=""height:400px;""></stim_listA>",is being looked at by,,,,,,
null,"<div style=""font-size:60px;"">+</div>",,html-keyboard-response,267,1238813,0.0-17.0-0.5,16863,List1A,black,man,,,,null,,,,,,,,,
null,"<img src=""stim_listA/greet8.gif""style=""height:400px;""></stim_listA>",,html-keyboard-response,268,1240817,0.0-17.0-1.5,16863,List1A,black,man,,,,null,,,,,,,,,
null,is being greeted by,,html-keyboard-response,269,1242819,0.0-17.0-2.5,16863,List1A,black,man,,,,null,,,,,,,,,
20245.2,,,survey-text,270,1263072,0.0-17.0-3.5,16863,List1A,black,man,,,,,"{""Q0"":""dave is being greeted by beth""}","<img src=""stim_listA/greet8.gif""style=""height:400px;""></stim_listA>",is being greeted by,,,,,,
null,"<div style=""font-size:60px;"">+</div>",,html-keyboard-response,271,1263575,0.0-17.0-0.6,16863,List1A,black,man,,,,null,,,,,,,,,
null,"<img src=""stim_listA/shout8.gif""style=""height:400px;""></stim_listA>",,html-keyboard-response,272,1265578,0.0-17.0-1.6,16863,List1A,black,man,,,,null,,,,,,,,,
null,is being shouted at by,,html-keyboard-response,273,1267581,0.0-17.0-2.6,16863,List1A,black,man,,,,null,,,,,,,,,
22155.2,,,survey-text,274,1289743,0.0-17.0-3.6,16863,List1A,black,man,,,,,"{""Q0"":""jane is being shouted at by kate""}","<img src=""stim_listA/shout8.gif""style=""height:400px;""></stim_listA>",is being shouted at by,,,,,,
null,"<div style=""font-size:60px;"">+</div>",,html-keyboard-response,275,1290245,0.0-17.0-0.7,16863,List1A,black,man,,,,null,,,,,,,,,
null,"<img src=""stim_listA/seduce3.gif""style=""height:400px;""></stim_listA>",,html-keyboard-response,276,1292247,0.0-17.0-1.7,16863,List1A,black,man,,,,null,,,,,,,,,
null,is seducing,,html-keyboard-response,277,1294249,0.0-17.0-2.7,16863,List1A,black,man,,,,null,,,,,,,,,
33197.6,,,survey-text,278,1327461,0.0-17.0-3.7,16863,List1A,black,man,,,,,"{""Q0"":""luke is seduing jane""}","<img src=""stim_listA/seduce3.gif""style=""height:400px;""></stim_listA>",is seducing,,,,,,
null,"<div style=""font-size:60px;"">+</div>",,html-keyboard-response,279,1327964,0.0-17.0-0.8,16863,List1A,black,man,,,,null,,,,,,,,,
null,"<img src=""stim_listA/shout3.gif""style=""height:400px;""></stim_listA>",,html-keyboard-response,280,1329966,0.0-17.0-1.8,16863,List1A,black,man,,,,null,,,,,,,,,
null,is shouting at,,html-keyboard-response,281,1331968,0.0-17.0-2.8,16863,List1A,black,man,,,,null,,,,,,,,,
9225.5,,,survey-text,282,1341200,0.0-17.0-3.8,16863,List1A,black,man,,,,,"{""Q0"":""ruth is shouting at luke""}","<img src=""stim_listA/shout3.gif""style=""height:400px;""></stim_listA>",is shouting at,,,,,,
null,"<div style=""font-size:60px;"">+</div>",,html-keyboard-response,283,1341702,0.0-17.0-0.9,16863,List1A,black,man,,,,null,,,,,,,,,
null,"<img src=""stim_listA/hug8.gif""style=""height:400px;""></stim_listA>",,html-keyboard-response,284,1343704,0.0-17.0-1.9,16863,List1A,black,man,,,,null,,,,,,,,,
null,is being hugged by,,html-keyboard-response,285,1345706,0.0-17.0-2.9,16863,List1A,black,man,,,,null,,,,,,,,,
13073.5,,,survey-text,286,1358789,0.0-17.0-3.9,16863,List1A,black,man,,,,,"{""Q0"":""kate is being hugged by jane""}","<img src=""stim_listA/hug8.gif""style=""height:400px;""></stim_listA>",is being hugged by,,,,,,
null,"<div style=""font-size:60px;"">+</div>",,html-keyboard-response,287,1359291,0.0-17.0-0.10,16863,List1A,black,man,,,,null,,,,,,,,,
null,"<img src=""stim_listA/hug4.gif""style=""height:400px;""></stim_listA>",,html-keyboard-response,288,1361293,0.0-17.0-1.10,16863,List1A,black,man,,,,null,,,,,,,,,
null,is being hugged by,,html-keyboard-response,289,1363294,0.0-17.0-2.10,16863,List1A,black,man,,,,null,,,,,,,,,
13570.9,,,survey-text,290,1376873,0.0-17.0-3.10,16863,List1A,black,man,,,,,"{""Q0"":""jane is being hugged by dave""}","<img src=""stim_listA/hug4.gif""style=""height:400px;""></stim_listA>",is being hugged by,,,,,,
null,"<div style=""font-size:60px;"">+</div>",,html-keyboard-response,291,1377375,0.0-17.0-0.11,16863,List1A,black,man,,,,null,,,,,,,,,
null,"<img src=""stim_listA/touch8.gif""style=""height:400px;""></stim_listA>",,html-keyboard-response,292,1379378,0.0-17.0-1.11,16863,List1A,black,man,,,,null,,,,,,,,,
null,is being touched by,,html-keyboard-response,293,1381381,0.0-17.0-2.11,16863,List1A,black,man,,,,null,,,,,,,,,
11652.1,,,survey-text,294,1393040,0.0-17.0-3.11,16863,List1A,black,man,,,,,"{""Q0"":""beth is being touched by ruth""}","<img src=""stim_listA/touch8.gif""style=""height:400px;""></stim_listA>",is being touched by,,,,,,
null,"<div style=""font-size:60px;"">+</div>",,html-keyboard-response,295,1393542,0.0-17.0-0.12,16863,List1A,black,man,,,,null,,,,,,,,,
null,"<img src=""stim_listA/kiss5.gif""style=""height:400px;""></stim_listA>",,html-keyboard-response,296,1395545,0.0-17.0-1.12,16863,List1A,black,man,,,,null,,,,,,,,,
null,is kissing,,html-keyboard-response,297,1397547,0.0-17.0-2.12,16863,List1A,black,man,,,,null,,,,,,,,,
7606.9,,,survey-text,298,1405162,0.0-17.0-3.12,16863,List1A,black,man,,,,,"{""Q0"":""fred is kissing luke""}","<img src=""stim_listA/kiss5.gif""style=""height:400px;""></stim_listA>",is kissing,,,,,,
null,"<div style=""font-size:60px;"">+</div>",,html-keyboard-response,299,1405665,0.0-17.0-0.13,16863,List1A,black,man,,,,null,,,,,,,,,
null,"<img src=""stim_listA/copy7.gif""style=""height:400px;""></stim_listA>",,html-keyboard-response,300,1407668,0.0-17.0-1.13,16863,List1A,black,man,,,,null,,,,,,,,,
null,is copying,,html-keyboard-response,301,1409670,0.0-17.0-2.13,16863,List1A,black,man,,,,null,,,,,,,,,
10579.7,,,survey-text,302,1420256,0.0-17.0-3.13,16863,List1A,black,man,,,,,"{""Q0"":""ruth is copying beth""}","<img src=""stim_listA/copy7.gif""style=""height:400px;""></stim_listA>",is copying,,,,,,
null,"<div style=""font-size:60px;"">+</div>",,html-keyboard-response,303,1420758,0.0-17.0-0.14,16863,List1A,black,man,,,,null,,,,,,,,,
null,"<img src=""stim_listA/touch4.gif""style=""height:400px;""></stim_listA>",,html-keyboard-response,304,1422761,0.0-17.0-1.14,16863,List1A,black,man,,,,null,,,,,,,,,
null,is being touched by,,html-keyboard-response,305,1424764,0.0-17.0-2.14,16863,List1A,black,man,,,,null,,,,,,,,,
10579.8,,,survey-text,306,1435351,0.0-17.0-3.14,16863,List1A,black,man,,,,,"{""Q0"":""ruth is being touched by luke""}","<img src=""stim_listA/touch4.gif""style=""height:400px;""></stim_listA>",is being touched by,,,,,,
null,"<div style=""font-size:60px;"">+</div>",,html-keyboard-response,307,1435861,0.0-17.0-0.15,16863,List1A,black,man,,,,null,,,,,,,,,
null,"<img src=""stim_listA/shout6.gif""style=""height:400px;""></stim_listA>",,html-keyboard-response,308,1437864,0.0-17.0-1.15,16863,List1A,black,man,,,,null,,,,,,,,,
null,is being shouted at by,,html-keyboard-response,309,1439867,0.0-17.0-2.15,16863,List1A,black,man,,,,null,,,,,,,,,
13940.6,,,survey-text,310,1453815,0.0-17.0-3.15,16863,List1A,black,man,,,,,"{""Q0"":""mike is shouted at by dave""}","<img src=""stim_listA/shout6.gif""style=""height:400px;""></stim_listA>",is being shouted at by,,,,,,
null,"<div style=""font-size:60px;"">+</div>",,html-keyboard-response,311,1454317,0.0-17.0-0.16,16863,List1A,black,man,,,,null,,,,,,,,,
null,"<img src=""stim_listA/kiss6.gif""style=""height:400px;""></stim_listA>",,html-keyboard-response,312,1456320,0.0-17.0-1.16,16863,List1A,black,man,,,,null,,,,,,,,,
null,is being kissed by,,html-keyboard-response,313,1458323,0.0-17.0-2.16,16863,List1A,black,man,,,,null,,,,,,,,,
11045.2,,,survey-text,314,1469375,0.0-17.0-3.16,16863,List1A,black,man,,,,,"{""Q0"":""mike is being kissed by dave""}","<img src=""stim_listA/kiss6.gif""style=""height:400px;""></stim_listA>",is being kissed by,,,,,,
null,"<div style=""font-size:60px;"">+</div>",,html-keyboard-response,315,1469878,0.0-17.0-0.17,16863,List1A,black,man,,,,null,,,,,,,,,
null,"<img src=""stim_listA/challenge3.gif""style=""height:400px;""></stim_listA>",,html-keyboard-response,316,1471881,0.0-17.0-1.17,16863,List1A,black,man,,,,null,,,,,,,,,
null,is challenging,,html-keyboard-response,317,1473883,0.0-17.0-2.17,16863,List1A,black,man,,,,null,,,,,,,,,
11804.6,,,survey-text,318,1485695,0.0-17.0-3.17,16863,List1A,black,man,,,,,"{""Q0"":""dave is challenging ruth""}","<img src=""stim_listA/challenge3.gif""style=""height:400px;""></stim_listA>",is challenging,,,,,,
null,"<div style=""font-size:60px;"">+</div>",,html-keyboard-response,319,1486366,0.0-17.0-0.18,16863,List1A,black,man,,,,null,,,,,,,,,
null,"<img src=""stim_listA/look5.gif""style=""height:400px;""></stim_listA>",,html-keyboard-response,320,1488383,0.0-17.0-1.18,16863,List1A,black,man,,,,null,,,,,,,,,
null,is looking at,,html-keyboard-response,321,1490384,0.0-17.0-2.18,16863,List1A,black,man,,,,null,,,,,,,,,
11143.6,,,survey-text,322,1501534,0.0-17.0-3.18,16863,List1A,black,man,,,,,"{""Q0"":""fred is looking at luke""}","<img src=""stim_listA/look5.gif""style=""height:400px;""></stim_listA>",is looking at,,,,,,
null,"<div style=""font-size:60px;"">+</div>",,html-keyboard-response,323,1502037,0.0-17.0-0.19,16863,List1A,black,man,,,,null,,,,,,,,,
null,"<img src=""stim_listA/look6.gif""style=""height:400px;""></stim_listA>",,html-keyboard-response,324,1504039,0.0-17.0-1.19,16863,List1A,black,man,,,,null,,,,,,,,,
null,is being looked at by,,html-keyboard-response,325,1506041,0.0-17.0-2.19,16863,List1A,black,man,,,,null,,,,,,,,,
11307.3,,,survey-text,326,1517356,0.0-17.0-3.19,16863,List1A,black,man,,,,,"{""Q0"":""mike is being looked at by dave""}","<img src=""stim_listA/look6.gif""style=""height:400px;""></stim_listA>",is being looked at by,,,,,,
10526.1,"<img src='img/portrait_matrix_list1.jpg' style='width:900px;height:500px;''></img><p>If you have memorised all the portraits and names and are ready to start, press Continue.</p><p><strong>Please note: Your memory of these faces will be tested 4 times during this experiment.</strong></p>",0,html-button-response,327,1527884,0.0-18.0-0.0,16863,List1A,black,man,,,,,,,,,,,,,
3798.3,"<img src=""portrait/WM1.jpg""style=""height:400px;""></img>",6,html-button-response,328,1532687,0.0-18.0-1.0,16863,List1A,black,man,,TRUE,6,,,,,,,,,,
null,CORRECT,,html-keyboard-response,329,1534191,0.0-18.0-2.0-0.0,16863,List1A,black,man,,,,null,,,,,,,,,
4526.9,"<img src=""portrait/BM2.jpg""style=""height:400px;""></img>",5,html-button-response,330,1538720,0.0-18.0-4.0,16863,List1A,black,man,,TRUE,5,,,,,,,,,,
null,CORRECT,,html-keyboard-response,331,1540225,0.0-18.0-5.0-0.0,16863,List1A,black,man,,,,null,,,,,,,,,
6369.5,"<img src=""portrait/BW1.jpg""style=""height:400px;""></img>",0,html-button-response,332,1546596,0.0-18.0-7.0,16863,List1A,black,man,,TRUE,0,,,,,,,,,,
null,CORRECT,,html-keyboard-response,333,1548099,0.0-18.0-8.0-0.0,16863,List1A,black,man,,,,null,,,,,,,,,
1883.5,"<img src=""portrait/WM2.jpg""style=""height:400px;""></img>",7,html-button-response,334,1549984,0.0-18.0-10.0,16863,List1A,black,man,,TRUE,7,,,,,,,,,,
null,CORRECT,,html-keyboard-response,335,1551489,0.0-18.0-11.0-0.0,16863,List1A,black,man,,,,null,,,,,,,,,
5927.2,"<img src=""portrait/WW2.jpg""style=""height:400px;""></img>",3,html-button-response,336,1557418,0.0-18.0-13.0,16863,List1A,black,man,,TRUE,3,,,,,,,,,,
null,CORRECT,,html-keyboard-response,337,1558922,0.0-18.0-14.0-0.0,16863,List1A,black,man,,,,null,,,,,,,,,
2993.7,"<img src=""portrait/WW1.jpg""style=""height:400px;""></img>",1,html-button-response,338,1561918,0.0-18.0-16.0,16863,List1A,black,man,,TRUE,1,,,,,,,,,,
null,CORRECT,,html-keyboard-response,339,1563422,0.0-18.0-17.0-0.0,16863,List1A,black,man,,,,null,,,,,,,,,
2587.2,"<img src=""portrait/BM1.jpg""style=""height:400px;""></img>",4,html-button-response,340,1566011,0.0-18.0-19.0,16863,List1A,black,man,,TRUE,4,,,,,,,,,,
null,CORRECT,,html-keyboard-response,341,1567515,0.0-18.0-20.0-0.0,16863,List1A,black,man,,,,null,,,,,,,,,
5857,"<img src=""portrait/BW2.jpg""style=""height:400px;""></img>",2,html-button-response,342,1573373,0.0-18.0-22.0,16863,List1A,black,man,,TRUE,2,,,,,,,,,,
null,CORRECT,,html-keyboard-response,343,1574877,0.0-18.0-23.0-0.0,16863,List1A,black,man,,,,null,,,,,,,,,
1387,<p>You got 8 out of 8 right first time. Press Continue.</p>,0,html-button-response,344,1576266,0.0-18.0-25.0,16863,List1A,black,man,,,,,,,,,,,,,
null,"<div style=""font-size:60px;"">+</div>",,html-keyboard-response,345,1577771,0.0-19.0-0.0,16863,List1A,black,man,,,,null,,,,,,,,,
null,"<img src=""stim_listA/seduce6.gif""style=""height:400px;""></stim_listA>",,html-keyboard-response,346,1579773,0.0-19.0-1.0,16863,List1A,black,man,,,,null,,,,,,,,,
null,is being seduced by,,html-keyboard-response,347,1581776,0.0-19.0-2.0,16863,List1A,black,man,,,,null,,,,,,,,,
14326.9,,,survey-text,348,1596110,0.0-19.0-3.0,16863,List1A,black,man,,,,,"{""Q0"":""luke is b eing seduce by mike""}","<img src=""stim_listA/seduce6.gif""style=""height:400px;""></stim_listA>",is being seduced by,,,,,,
null,"<div style=""font-size:60px;"">+</div>",,html-keyboard-response,349,1596612,0.0-19.0-0.1,16863,List1A,black,man,,,,null,,,,,,,,,
null,"<img src=""stim_listA/seduce2.gif""style=""height:400px;""></stim_listA>",,html-keyboard-response,350,1598615,0.0-19.0-1.1,16863,List1A,black,man,,,,null,,,,,,,,,
null,is being seduced by,,html-keyboard-response,351,1600617,0.0-19.0-2.1,16863,List1A,black,man,,,,null,,,,,,,,,
11980.8,,,survey-text,352,1612605,0.0-19.0-3.1,16863,List1A,black,man,,,,,"{""Q0"":""beth is being seduced by mike""}","<img src=""stim_listA/seduce2.gif""style=""height:400px;""></stim_listA>",is being seduced by,,,,,,
null,"<div style=""font-size:60px;"">+</div>",,html-keyboard-response,353,1613108,0.0-19.0-0.2,16863,List1A,black,man,,,,null,,,,,,,,,
null,"<img src=""stim_listA/challenge5.gif""style=""height:400px;""></stim_listA>",,html-keyboard-response,354,1615112,0.0-19.0-1.2,16863,List1A,black,man,,,,null,,,,,,,,,
null,is challenging,,html-keyboard-response,355,1617114,0.0-19.0-2.2,16863,List1A,black,man,,,,null,,,,,,,,,
8369.6,,,survey-text,356,1625491,0.0-19.0-3.2,16863,List1A,black,man,,,,,"{""Q0"":""luke is challenge mike""}","<img src=""stim_listA/challenge5.gif""style=""height:400px;""></stim_listA>",is challenging,,,,,,
null,"<div style=""font-size:60px;"">+</div>",,html-keyboard-response,357,1625994,0.0-19.0-0.3,16863,List1A,black,man,,,,null,,,,,,,,,
null,"<img src=""stim_listA/oppose2.gif""style=""height:400px;""></stim_listA>",,html-keyboard-response,358,1627996,0.0-19.0-1.3,16863,List1A,black,man,,,,null,,,,,,,,,
null,is being opposed by,,html-keyboard-response,359,1629998,0.0-19.0-2.3,16863,List1A,black,man,,,,null,,,,,,,,,
9459.9,,,survey-text,360,1639464,0.0-19.0-3.3,16863,List1A,black,man,,,,,"{""Q0"":""fred is being opposed by beth""}","<img src=""stim_listA/oppose2.gif""style=""height:400px;""></stim_listA>",is being opposed by,,,,,,
null,"<div style=""font-size:60px;"">+</div>",,html-keyboard-response,361,1639967,0.0-19.0-0.4,16863,List1A,black,man,,,,null,,,,,,,,,
null,"<img src=""stim_listA/kiss4.gif""style=""height:400px;""></stim_listA>",,html-keyboard-response,362,1641970,0.0-19.0-1.4,16863,List1A,black,man,,,,null,,,,,,,,,
null,is being kissed by,,html-keyboard-response,363,1643973,0.0-19.0-2.4,16863,List1A,black,man,,,,null,,,,,,,,,
12952.6,,,survey-text,364,1656933,0.0-19.0-3.4,16863,List1A,black,man,,,,,"{""Q0"":""dave is kissing jane""}","<img src=""stim_listA/kiss4.gif""style=""height:400px;""></stim_listA>",is being kissed by,,,,,,
null,"<div style=""font-size:60px;"">+</div>",,html-keyboard-response,365,1657434,0.0-19.0-0.5,16863,List1A,black,man,,,,null,,,,,,,,,
null,"<img src=""stim_listA/look3.gif""style=""height:400px;""></stim_listA>",,html-keyboard-response,366,1659438,0.0-19.0-1.5,16863,List1A,black,man,,,,null,,,,,,,,,
null,is looking at,,html-keyboard-response,367,1661440,0.0-19.0-2.5,16863,List1A,black,man,,,,null,,,,,,,,,
9201.6,,,survey-text,368,1670646,0.0-19.0-3.5,16863,List1A,black,man,,,,,"{""Q0"":""ruth is looking at luke""}","<img src=""stim_listA/look3.gif""style=""height:400px;""></stim_listA>",is looking at,,,,,,
null,"<div style=""font-size:60px;"">+</div>",,html-keyboard-response,369,1671149,0.0-19.0-0.6,16863,List1A,black,man,,,,null,,,,,,,,,
null,"<img src=""stim_listA/kiss7.gif""style=""height:400px;""></stim_listA>",,html-keyboard-response,370,1673151,0.0-19.0-1.6,16863,List1A,black,man,,,,null,,,,,,,,,
null,is kissing,,html-keyboard-response,371,1675153,0.0-19.0-2.6,16863,List1A,black,man,,,,null,,,,,,,,,
8149,,,survey-text,372,1683309,0.0-19.0-3.6,16863,List1A,black,man,,,,,"{""Q0"":""ruth is kissing beth""}","<img src=""stim_listA/kiss7.gif""style=""height:400px;""></stim_listA>",is kissing,,,,,,
null,"<div style=""font-size:60px;"">+</div>",,html-keyboard-response,373,1683824,0.0-19.0-0.7,16863,List1A,black,man,,,,null,,,,,,,,,
null,"<img src=""stim_listA/challenge1.gif""style=""height:400px;""></stim_listA>",,html-keyboard-response,374,1685827,0.0-19.0-1.7,16863,List1A,black,man,,,,null,,,,,,,,,
null,is challenging,,html-keyboard-response,375,1687829,0.0-19.0-2.7,16863,List1A,black,man,,,,null,,,,,,,,,
8134.6,,,survey-text,376,1695970,0.0-19.0-3.7,16863,List1A,black,man,,,,,"{""Q0"":""mike is challenge beth""}","<img src=""stim_listA/challenge1.gif""style=""height:400px;""></stim_listA>",is challenging,,,,,,
null,"<div style=""font-size:60px;"">+</div>",,html-keyboard-response,377,1696473,0.0-19.0-0.8,16863,List1A,black,man,,,,null,,,,,,,,,
null,"<img src=""stim_listA/challenge7.gif""style=""height:400px;""></stim_listA>",,html-keyboard-response,378,1698476,0.0-19.0-1.8,16863,List1A,black,man,,,,null,,,,,,,,,
null,is challenging,,html-keyboard-response,379,1700479,0.0-19.0-2.8,16863,List1A,black,man,,,,null,,,,,,,,,
10723.1,,,survey-text,380,1711206,0.0-19.0-3.8,16863,List1A,black,man,,,,,"{""Q0"":""kate is challeng ruth""}","<img src=""stim_listA/challenge7.gif""style=""height:400px;""></stim_listA>",is challenging,,,,,,
null,"<div style=""font-size:60px;"">+</div>",,html-keyboard-response,381,1711711,0.0-19.0-0.9,16863,List1A,black,man,,,,null,,,,,,,,,
null,"<img src=""stim_listA/challenge6.gif""style=""height:400px;""></stim_listA>",,html-keyboard-response,382,1713714,0.0-19.0-1.9,16863,List1A,black,man,,,,null,,,,,,,,,
null,is being challenged by,,html-keyboard-response,383,1715717,0.0-19.0-2.9,16863,List1A,black,man,,,,null,,,,,,,,,
14023.4,,,survey-text,384,1729747,0.0-19.0-3.9,16863,List1A,black,man,,,,,"{""Q0"":""fred is being challenge by dave""}","<img src=""stim_listA/challenge6.gif""style=""height:400px;""></stim_listA>",is being challenged by,,,,,,
null,"<div style=""font-size:60px;"">+</div>",,html-keyboard-response,385,1730255,0.0-19.0-0.10,16863,List1A,black,man,,,,null,,,,,,,,,
null,"<img src=""stim_listA/touch6.gif""style=""height:400px;""></stim_listA>",,html-keyboard-response,386,1732259,0.0-19.0-1.10,16863,List1A,black,man,,,,null,,,,,,,,,
null,is being touched by,,html-keyboard-response,387,1734262,0.0-19.0-2.10,16863,List1A,black,man,,,,null,,,,,,,,,
9097.9,,,survey-text,388,1743366,0.0-19.0-3.10,16863,List1A,black,man,,,,,"{""Q0"":""fred is being touched by luke""}","<img src=""stim_listA/touch6.gif""style=""height:400px;""></stim_listA>",is being touched by,,,,,,
null,"<div style=""font-size:60px;"">+</div>",,html-keyboard-response,389,1743869,0.0-19.0-0.11,16863,List1A,black,man,,,,null,,,,,,,,,
null,"<img src=""stim_listA/challenge4.gif""style=""height:400px;""></stim_listA>",,html-keyboard-response,390,1745871,0.0-19.0-1.11,16863,List1A,black,man,,,,null,,,,,,,,,
null,is being challenged by,,html-keyboard-response,391,1747873,0.0-19.0-2.11,16863,List1A,black,man,,,,null,,,,,,,,,
58995.3,,,survey-text,392,1806875,0.0-19.0-3.11,16863,List1A,black,man,,,,,"{""Q0"":""luke is challeng jane""}","<img src=""stim_listA/challenge4.gif""style=""height:400px;""></stim_listA>",is being challenged by,,,,,,
null,"<div style=""font-size:60px;"">+</div>",,html-keyboard-response,393,1807378,0.0-19.0-0.12,16863,List1A,black,man,,,,null,,,,,,,,,
null,"<img src=""stim_listA/seduce7.gif""style=""height:400px;""></stim_listA>",,html-keyboard-response,394,1809381,0.0-19.0-1.12,16863,List1A,black,man,,,,null,,,,,,,,,
null,is seducing,,html-keyboard-response,395,1811383,0.0-19.0-2.12,16863,List1A,black,man,,,,null,,,,,,,,,
11138.7,,,survey-text,396,1822530,0.0-19.0-3.12,16863,List1A,black,man,,,,,"{""Q0"":""kate is seducing ruth""}","<img src=""stim_listA/seduce7.gif""style=""height:400px;""></stim_listA>",is seducing,,,,,,
null,"<div style=""font-size:60px;"">+</div>",,html-keyboard-response,397,1823033,0.0-19.0-0.13,16863,List1A,black,man,,,,null,,,,,,,,,
null,"<img src=""stim_listA/copy4.gif""style=""height:400px;""></stim_listA>",,html-keyboard-response,398,1825036,0.0-19.0-1.13,16863,List1A,black,man,,,,null,,,,,,,,,
null,is being copied by,,html-keyboard-response,399,1827038,0.0-19.0-2.13,16863,List1A,black,man,,,,null,,,,,,,,,
12548.5,,,survey-text,400,1839591,0.0-19.0-3.13,16863,List1A,black,man,,,,,"{""Q0"":""jane is being copied by luke""}","<img src=""stim_listA/copy4.gif""style=""height:400px;""></stim_listA>",is being copied by,,,,,,
null,"<div style=""font-size:60px;"">+</div>",,html-keyboard-response,401,1840094,0.0-19.0-0.14,16863,List1A,black,man,,,,null,,,,,,,,,
null,"<img src=""stim_listA/greet4.gif""style=""height:400px;""></stim_listA>",,html-keyboard-response,402,1842097,0.0-19.0-1.14,16863,List1A,black,man,,,,null,,,,,,,,,
null,is being greeted by,,html-keyboard-response,403,1844098,0.0-19.0-2.14,16863,List1A,black,man,,,,null,,,,,,,,,
10816.5,,,survey-text,404,1854922,0.0-19.0-3.14,16863,List1A,black,man,,,,,"{""Q0"":""jane is being greeted by luke""}","<img src=""stim_listA/greet4.gif""style=""height:400px;""></stim_listA>",is being greeted by,,,,,,
null,"<div style=""font-size:60px;"">+</div>",,html-keyboard-response,405,1855424,0.0-19.0-0.15,16863,List1A,black,man,,,,null,,,,,,,,,
null,"<img src=""stim_listA/look7.gif""style=""height:400px;""></stim_listA>",,html-keyboard-response,406,1857427,0.0-19.0-1.15,16863,List1A,black,man,,,,null,,,,,,,,,
null,is looking at,,html-keyboard-response,407,1859429,0.0-19.0-2.15,16863,List1A,black,man,,,,null,,,,,,,,,
9859.8,,,survey-text,408,1869295,0.0-19.0-3.15,16863,List1A,black,man,,,,,"{""Q0"":""ruth is looking at beth""}","<img src=""stim_listA/look7.gif""style=""height:400px;""></stim_listA>",is looking at,,,,,,
null,"<div style=""font-size:60px;"">+</div>",,html-keyboard-response,409,1869798,0.0-19.0-0.16,16863,List1A,black,man,,,,null,,,,,,,,,
null,"<img src=""stim_listA/greet6.gif""style=""height:400px;""></stim_listA>",,html-keyboard-response,410,1871801,0.0-19.0-1.16,16863,List1A,black,man,,,,null,,,,,,,,,
null,is being greeted by,,html-keyboard-response,411,1873803,0.0-19.0-2.16,16863,List1A,black,man,,,,null,,,,,,,,,
10656,,,survey-text,412,1884466,0.0-19.0-3.16,16863,List1A,black,man,,,,,"{""Q0"":""fred is being greeted by dave""}","<img src=""stim_listA/greet6.gif""style=""height:400px;""></stim_listA>",is being greeted by,,,,,,
null,"<div style=""font-size:60px;"">+</div>",,html-keyboard-response,413,1884970,0.0-19.0-0.17,16863,List1A,black,man,,,,null,,,,,,,,,
null,"<img src=""stim_listA/oppose8.gif""style=""height:400px;""></stim_listA>",,html-keyboard-response,414,1886973,0.0-19.0-1.17,16863,List1A,black,man,,,,null,,,,,,,,,
null,is being opposed by,,html-keyboard-response,415,1888975,0.0-19.0-2.17,16863,List1A,black,man,,,,null,,,,,,,,,
12682.3,,,survey-text,416,1901666,0.0-19.0-3.17,16863,List1A,black,man,,,,,"{""Q0"":""ruth is being opposed by beth""}","<img src=""stim_listA/oppose8.gif""style=""height:400px;""></stim_listA>",is being opposed by,,,,,,
null,"<div style=""font-size:60px;"">+</div>",,html-keyboard-response,417,1902168,0.0-19.0-0.18,16863,List1A,black,man,,,,null,,,,,,,,,
null,"<img src=""stim_listA/challenge8.gif""style=""height:400px;""></stim_listA>",,html-keyboard-response,418,1904172,0.0-19.0-1.18,16863,List1A,black,man,,,,null,,,,,,,,,
null,is being challenged by,,html-keyboard-response,419,1906173,0.0-19.0-2.18,16863,List1A,black,man,,,,null,,,,,,,,,
12650.6,,,survey-text,420,1918832,0.0-19.0-3.18,16863,List1A,black,man,,,,,"{""Q0"":""ruth is being challenged by beth""}","<img src=""stim_listA/challenge8.gif""style=""height:400px;""></stim_listA>",is being challenged by,,,,,,
null,"<div style=""font-size:60px;"">+</div>",,html-keyboard-response,421,1919334,0.0-19.0-0.19,16863,List1A,black,man,,,,null,,,,,,,,,
null,"<img src=""stim_listA/touch1.gif""style=""height:400px;""></stim_listA>",,html-keyboard-response,422,1921336,0.0-19.0-1.19,16863,List1A,black,man,,,,null,,,,,,,,,
null,is touching,,html-keyboard-response,423,1923339,0.0-19.0-2.19,16863,List1A,black,man,,,,null,,,,,,,,,
16890.2,,,survey-text,424,1940237,0.0-19.0-3.19,16863,List1A,black,man,,,,,"{""Q0"":""mike is touching kate""}","<img src=""stim_listA/touch1.gif""style=""height:400px;""></stim_listA>",is touching,,,,,,
4579.5,<p>Thank you for completing that task.</p><p>The final part of this session is a questionnaire that will take about 4 minutes.</p><p>Press Continue.</p>,0,html-button-response,425,1944819,0.0-20.0,16863,List1A,black,man,,,,,,,,,,,,,
45453.9,,,survey-text,426,1991289,0.0-21.0,16863,List1A,black,man,,,,,"{""Q0"":""64"",""Q1"":""english"",""Q2"":""english"",""Q3"":""United States"",""Q4"":""american"",""Q5"":""black"",""Q6"":""male""}",,,demographics,,,,,
2821.7,<p>Have you lived in the USA for the last 5 years or more?</p>,0,html-button-response,427,1994115,0.0-22.0,16863,List1A,black,man,,,,,,,,fiveyears,,,,,
4001.3,<p>Move the slider to show the extent to which you agree with the following statements.</p>,0,html-button-response,428,1999119,0.0-23.0,16863,List1A,black,man,,,,,,,,,,,,,
10905.4,,,html-slider-response,429,2011035,0.0-24.0-0.0-0.0,16863,List1A,black,man,,,,,,,,survey_gender,83,,,People of my gender have a lot in common with each other.,common
4578.1,,,html-slider-response,430,2015616,0.0-24.0-0.0-0.1,16863,List1A,black,man,,,,,,,,survey_gender,56,,,I feel a bond with my gender.,bond
6041.3,,,html-slider-response,431,2021659,0.0-24.0-0.0-0.2,16863,List1A,black,man,,,,,,,,survey_gender,100,,,I am glad to be my gender.,glad
4750.3,,,html-slider-response,432,2026411,0.0-24.0-0.0-0.3,16863,List1A,black,man,,,,,,,,survey_gender,100,,,Being my gender is an important part of how I see myself.,important
5528,,,html-slider-response,433,2031941,0.0-24.0-0.0-0.4,16863,List1A,black,man,,,,,,,,survey_gender,73,,,My friends understand me.,filler
9089,,,html-slider-response,434,2041032,0.0-24.0-0.0-0.5,16863,List1A,black,man,,,,,,,,survey_gender,18,,,I am similar to the average person of my gender.,similar
5194.5,,,html-slider-response,435,2046228,0.0-24.0-0.0-0.6,16863,List1A,black,man,,,,,,,,survey_gender,40,,,I would say I am an animal person.,filler
6802.6,,,html-slider-response,436,2053033,0.0-24.0-0.0-0.7,16863,List1A,black,man,,,,,,,,survey_gender,0,,,Family is not more important to me than friendship.,filler
4775.6,,,html-slider-response,437,2057811,0.0-24.0-0.0-0.8,16863,List1A,black,man,,,,,,,,survey_gender,100,,,I feel committed to my gender.,committed
5969.8,,,html-slider-response,438,2063783,0.0-24.0-0.0-0.9,16863,List1A,black,man,,,,,,,,survey_gender,75,,,My friends have a lot in common with each other.,filler
3647.5,,,html-slider-response,439,2067432,0.0-24.0-0.0-0.10,16863,List1A,black,man,,,,,,,,survey_gender,100,,,I feel a bond with my friends.,filler
4643.7,,,html-slider-response,440,2072078,0.0-24.0-0.0-0.11,16863,List1A,black,man,,,,,,,,survey_gender,100,,,It is pleasant to be my gender.,pleasant
7377,,,html-slider-response,441,2079457,0.0-24.0-0.0-0.12,16863,List1A,black,man,,,,,,,,survey_gender,100,,,It is not always easy for people to know what I am thinking.,filler
8067,,,html-slider-response,442,2087526,0.0-24.0-0.0-0.13,16863,List1A,black,man,,,,,,,,survey_gender,54,,,Most of the friends in my life are very similar to me.,filler
5667.4,,,html-slider-response,443,2093195,0.0-24.0-0.0-0.14,16863,List1A,black,man,,,,,,,,survey_gender,78,,,I have a lot in common with the average person of my gender.,average
4482.7,,,html-slider-response,444,2097681,0.0-24.0-0.0-0.15,16863,List1A,black,man,,,,,,,,survey_gender,83,,,Being around my friends gives me a good feeling.,filler
5325.7,,,html-slider-response,445,2103008,0.0-24.0-0.0-0.16,16863,List1A,black,man,,,,,,,,survey_gender,96,,,I often think about my actions.,filler
4942.3,,,html-slider-response,446,2107953,0.0-24.0-0.0-0.17,16863,List1A,black,man,,,,,,,,survey_gender,83,,,People of my gender are very similar to each other.,verysimilar
4397.7,,,html-slider-response,447,2112352,0.0-24.0-0.0-0.18,16863,List1A,black,man,,,,,,,,survey_gender,100,,,Being my gender gives me a good feeling.,feeling
6543.9,,,html-slider-response,448,2118898,0.0-24.0-0.0-0.19,16863,List1A,black,man,,,,,,,,survey_gender,100,,,The fact that I am my gender is an important part of my identity.,identity
7104.7,,,html-slider-response,449,2126005,0.0-24.0-0.0-0.20,16863,List1A,black,man,,,,,,,,survey_gender,0,,,I often think about the fact that I am my gender.,often
5637.6,,,html-slider-response,450,2131645,0.0-24.0-0.0-0.21,16863,List1A,black,man,,,,,,,,survey_gender,93,,,I am glad to have the friends that I have.,filler
3692.6,,,html-slider-response,451,2135339,0.0-24.0-0.0-0.22,16863,List1A,black,man,,,,,,,,survey_gender,80,,,I feel solidarity with my friends.,filler
4872,,,html-slider-response,452,2140213,0.0-24.0-0.0-0.23,16863,List1A,black,man,,,,,,,,survey_gender,100,,,I consider myself a highly empathetic person.,filler
4635.7,,,html-slider-response,453,2144850,0.0-24.0-0.0-0.24,16863,List1A,black,man,,,,,,,,survey_gender,77,,,I feel solidarity with my gender.,solidarity
5824.2,,,html-slider-response,454,2150677,0.0-24.0-0.0-0.25,16863,List1A,black,man,,,,,,,,survey_gender,8,,,Routine is not important to me.,filler
6107.8,,,html-slider-response,455,2156787,0.0-24.0-0.0-0.26,16863,List1A,black,man,,,,,,,,survey_gender,87,,,I have a lot in common with my friends.,filler
6873.1,,,html-slider-response,456,2163662,0.0-24.0-0.0-0.27,16863,List1A,black,man,,,,,,,,survey_gender,85,,,I think that my gender has a lot to be proud of.,proud
4694.8,,,html-slider-response,457,2168359,0.0-24.0-1.0-0.0,16863,List1A,black,man,,,,,,,,survey_race,100,,,I feel committed to my race.,committed
4145.8,,,html-slider-response,458,2172506,0.0-24.0-1.0-0.1,16863,List1A,black,man,,,,,,,,survey_race,89,,,Being my race gives me a good feeling.,feeling
3924.5,,,html-slider-response,459,2176433,0.0-24.0-1.0-0.2,16863,List1A,black,man,,,,,,,,survey_race,100,,,I am glad to be my age.,filler
6334.3,,,html-slider-response,460,2182769,0.0-24.0-1.0-0.3,16863,List1A,black,man,,,,,,,,survey_race,21,,,It is pleasant to be my race.,pleasant
4643.4,,,html-slider-response,461,2187415,0.0-24.0-1.0-0.4,16863,List1A,black,man,,,,,,,,survey_race,100,,,Being my race is an important part of how I see myself.,important
6997.6,,,html-slider-response,462,2194414,0.0-24.0-1.0-0.5,16863,List1A,black,man,,,,,,,,survey_race,100,,,I am glad to be my race.,glad
8264.4,,,html-slider-response,463,2202680,0.0-24.0-1.0-0.6,16863,List1A,black,man,,,,,,,,survey_race,96,,,People my age have a lot in common with each other.,filler
5058.7,,,html-slider-response,464,2207741,0.0-24.0-1.0-0.7,16863,List1A,black,man,,,,,,,,survey_race,100,,,"The older I get, the wiser I feel.",filler
5929.9,,,html-slider-response,465,2213673,0.0-24.0-1.0-0.8,16863,List1A,black,man,,,,,,,,survey_race,19,,,My age is not an important part of who I am.,filler
6575.2,,,html-slider-response,466,2220251,0.0-24.0-1.0-0.9,16863,List1A,black,man,,,,,,,,survey_race,96,,,I have a lot in common with people of a similar age to me.,filler
5360.8,,,html-slider-response,467,2225613,0.0-24.0-1.0-0.10,16863,List1A,black,man,,,,,,,,survey_race,82,,,I consider myself an introvert.,filler
6000.9,,,html-slider-response,468,2231616,0.0-24.0-1.0-0.11,16863,List1A,black,man,,,,,,,,survey_race,7,,,I am glad to be the age I am.,filler
5750.1,,,html-slider-response,469,2237368,0.0-24.0-1.0-0.12,16863,List1A,black,man,,,,,,,,survey_race,90,,,I am similar to the average person of my race.,similar
4164.3,,,html-slider-response,470,2241535,0.0-24.0-1.0-0.13,16863,List1A,black,man,,,,,,,,survey_race,100,,,I feel solidarity with my race.,solidarity
4226,,,html-slider-response,471,2245763,0.0-24.0-1.0-0.14,16863,List1A,black,man,,,,,,,,survey_race,24,,,Being my age gives me a good feeling.,filler
6212.8,,,html-slider-response,472,2251977,0.0-24.0-1.0-0.15,16863,List1A,black,man,,,,,,,,survey_race,0,,,I enjoy being in large groups.,filler
5134.4,,,html-slider-response,473,2257114,0.0-24.0-1.0-0.16,16863,List1A,black,man,,,,,,,,survey_race,7,,,I feel a bond with people the same age as me.,filler
4523.3,,,html-slider-response,474,2261639,0.0-24.0-1.0-0.17,16863,List1A,black,man,,,,,,,,survey_race,10,,,I feel solidarity with people the same age as me.,filler
3702.1,,,html-slider-response,475,2265343,0.0-24.0-1.0-0.18,16863,List1A,black,man,,,,,,,,survey_race,100,,,I feel a bond with my race.,bond
5214.2,,,html-slider-response,476,2270559,0.0-24.0-1.0-0.19,16863,List1A,black,man,,,,,,,,survey_race,100,,,The fact that I am my race is an important part of my identity.,identity
4584.7,,,html-slider-response,477,2275146,0.0-24.0-1.0-0.20,16863,List1A,black,man,,,,,,,,survey_race,52,,,People of my race are very similar to each other.,verysimilar
4459.2,,,html-slider-response,478,2279607,0.0-24.0-1.0-0.21,16863,List1A,black,man,,,,,,,,survey_race,100,,,I think that my race has a lot to be proud of.,proud
4346.8,,,html-slider-response,479,2283956,0.0-24.0-1.0-0.22,16863,List1A,black,man,,,,,,,,survey_race,100,,,I often think about the fact that I am my race.,often
7437.2,,,html-slider-response,480,2291396,0.0-24.0-1.0-0.23,16863,List1A,black,man,,,,,,,,survey_race,64,,,I consider myself an extrovert.,filler
4770.8,,,html-slider-response,481,2296169,0.0-24.0-1.0-0.24,16863,List1A,black,man,,,,,,,,survey_race,88,,,People of my race have a lot in common with each other.,common
4669.8,,,html-slider-response,482,2300840,0.0-24.0-1.0-0.25,16863,List1A,black,man,,,,,,,,survey_race,17,,,Getting older does not worry me.,filler
5204.6,,,html-slider-response,483,2306047,0.0-24.0-1.0-0.26,16863,List1A,black,man,,,,,,,,survey_race,84,,,I often think about the fact that I am my age.,filler
5037.6,,,html-slider-response,484,2311086,0.0-24.0-1.0-0.27,16863,List1A,black,man,,,,,,,,survey_race,90,,,I have a lot in common with the average person of my race.,average
29574,,,survey-text,485,2340667,0.0-25.0,16863,List1A,black,man,,,,,"{""Q0"":""ccc""}",,,worker_id,,,,,
42736.5,,,external-html,486,2383888,0.0-26.0,16863,List1A,black,man,debrief.html,,,,,,,,,,,,
