rt,stimulus,button_pressed,trial_type,trial_index,time_elapsed,internal_node_id,subject,list,ppt_race,ppt_gender,url,first_guess,correct,key_press,responses,image_type,phrase_type,test_part,response,stimulus1,stimulus2,question_type,survey_item
3479.2,Welcome to the experiment. Press Continue to begin.,0,html-button-response,0,3488,0.0-0.0,16972,List2A,black,man,,,,,,,,,,,,,
6962.5,,,external-html,1,11631,0.0-1.0,16972,List2A,black,man,consent.html,,,,,,,,,,,,
6500.7,"<p>On the next page, you will see portraits of 8 people and their names.</p><p>Your first task is to take a few minutes to memorise the names of these people.</p><p>You will have to recall their names during the rest of the experiment, so it is</p><p>essential that you try to memorise these people and their names as best as you can.</p><br><p><strong>You will then be tested on your memory of these names and portraits.</strong></p><br><p>The experiment will start after you have completed this memory test.</p><br><p>Ready?</p>",0,html-button-response,2,18135,0.0-2.0,16972,List2A,black,man,,,,,,,,,,,,,
23080.3,"<img src='img/portrait_matrix_list2.jpg' style='width:900px;height:500px;''></img><p>If you have memorised all the portraits and names and are ready to start, press Continue.</p><p><strong>Please note: Your memory of these faces will be tested 4 times during this experiment.</strong></p>",0,html-button-response,3,42229,0.0-3.0-0.0,16972,List2A,black,man,,,,,,,,,,,,,
5645.2,"<img src=""portrait/BW1.jpg""style=""height:400px;""></img>",0,html-button-response,4,48884,0.0-3.0-1.0,16972,List2A,black,man,,TRUE,0,,,,,,,,,,
null,CORRECT,,html-keyboard-response,5,50392,0.0-3.0-2.0-0.0,16972,List2A,black,man,,,,null,,,,,,,,,
5125.6,"<img src=""portrait/BM1.jpg""style=""height:400px;""></img>",4,html-button-response,6,55520,0.0-3.0-4.0,16972,List2A,black,man,,TRUE,4,,,,,,,,,,
null,CORRECT,,html-keyboard-response,7,57025,0.0-3.0-5.0-0.0,16972,List2A,black,man,,,,null,,,,,,,,,
4373.6,"<img src=""portrait/WW2.jpg""style=""height:400px;""></img>",3,html-button-response,8,61400,0.0-3.0-7.0,16972,List2A,black,man,,TRUE,3,,,,,,,,,,
null,CORRECT,,html-keyboard-response,9,62903,0.0-3.0-8.0-0.0,16972,List2A,black,man,,,,null,,,,,,,,,
5690.5,"<img src=""portrait/WM2.jpg""style=""height:400px;""></img>",7,html-button-response,10,68597,0.0-3.0-10.0,16972,List2A,black,man,,TRUE,7,,,,,,,,,,
null,CORRECT,,html-keyboard-response,11,70100,0.0-3.0-11.0-0.0,16972,List2A,black,man,,,,null,,,,,,,,,
5060,"<img src=""portrait/BM2.jpg""style=""height:400px;""></img>",5,html-button-response,12,75162,0.0-3.0-13.0,16972,List2A,black,man,,TRUE,5,,,,,,,,,,
null,CORRECT,,html-keyboard-response,13,76666,0.0-3.0-14.0-0.0,16972,List2A,black,man,,,,null,,,,,,,,,
4242.6,"<img src=""portrait/WW1.jpg""style=""height:400px;""></img>",1,html-button-response,14,80912,0.0-3.0-16.0,16972,List2A,black,man,,TRUE,1,,,,,,,,,,
null,CORRECT,,html-keyboard-response,15,82415,0.0-3.0-17.0-0.0,16972,List2A,black,man,,,,null,,,,,,,,,
3890.1,"<img src=""portrait/BW2.jpg""style=""height:400px;""></img>",2,html-button-response,16,86307,0.0-3.0-19.0,16972,List2A,black,man,,TRUE,2,,,,,,,,,,
null,CORRECT,,html-keyboard-response,17,87810,0.0-3.0-20.0-0.0,16972,List2A,black,man,,,,null,,,,,,,,,
4331.8,"<img src=""portrait/WM1.jpg""style=""height:400px;""></img>",6,html-button-response,18,92145,0.0-3.0-22.0,16972,List2A,black,man,,TRUE,6,,,,,,,,,,
null,CORRECT,,html-keyboard-response,19,93648,0.0-3.0-23.0-0.0,16972,List2A,black,man,,,,null,,,,,,,,,
2117.6,<p>You got 8 out of 8 right first time. Press Continue.</p>,0,html-button-response,20,95771,0.0-3.0-25.0,16972,List2A,black,man,,,,,,,,,,,,,
48896.6,"<p>In this experiment, you will view photographs of the people from the memory game interacting.</p><p>By using the <strong>exact</strong> phrase given <i>after</i> the photograph appears and recalling the correct names of the people in the photographs, form a sentence describing the interaction. You do not need to capitalise names.</p><p>Type your answer in the space provided. Please complete every sentence before moving onto the next trial.</p><p>You will only have a few seconds to memorise each given photograph and phrase before you can respond, so try your best to focus.</p><p>An example is given below. Press 'Continue' when you are ready.</p><img src='img/speaking_example.jpg' style='width:800px;height:460px;''></img>",0,html-button-response,21,145673,0.0-4.0,16972,List2A,black,man,,,,,,,,,,,,,
3083.6,"<p>Before the experiment starts, you will watch two example trials. Press 'Continue'.</p>",0,html-button-response,22,149760,0.0-5.0,16972,List2A,black,man,,,,,,,,,,,,,
null,<img src='img/play_eg.gif' style='height:400px;''></img>,,html-keyboard-response,23,152765,0.0-6.0,16972,List2A,black,man,,,,null,,,,,,,,,
null,<p>is playing with</p>,,html-keyboard-response,24,154767,0.0-7.0,16972,List2A,black,man,,,,null,,,,,,,,,
9319.8,<p><b>Answer:</b> jane is playing with ruth</p>,0,html-button-response,25,164088,0.0-8.0,16972,List2A,black,man,,,,,,,,,,,,,
null,<img src='img/dance_eg.gif' style='height:400px;''></img>,,html-keyboard-response,26,167092,0.0-9.0,16972,List2A,black,man,,,,null,,,,,,,,,
null,<p>is being entertained by</p>,,html-keyboard-response,27,169096,0.0-10.0,16972,List2A,black,man,,,,null,,,,,,,,,
4432.8,<p><b>Answer:</b> fred is being entertained by mike</p>,0,html-button-response,28,173530,0.0-11.0,16972,List2A,black,man,,,,,,,,,,,,,
11335.6,"<p>Ready to start the experiment?</p><br><p><strong>Remember to describe the picture using a full sentence,</strong></p><p><strong>that combines the names of the people with the <i>exact</i> phrase given.</strong></p><p><strong>To receive full payment you must do this correctly.</strong></p><p><strong> You do not need to capitalise names or use punctuation.</strong></p><br><p>Press 'Continue' to begin.</p>",0,html-button-response,29,185868,0.0-12.0,16972,List2A,black,man,,,,,,,,,,,,,
null,"<div style=""font-size:60px;"">+</div>",,html-keyboard-response,30,187372,0.0-13.0-0.0,16972,List2A,black,man,,,,null,,,,,,,,,
null,"<img src=""stim_listA/kiss5.gif""style=""height:400px;""></stim_listA>",,html-keyboard-response,31,189374,0.0-13.0-1.0,16972,List2A,black,man,,,,null,,,,,,,,,
null,is kissing,,html-keyboard-response,32,191376,0.0-13.0-2.0,16972,List2A,black,man,,,,null,,,,,,,,,
20980,,,survey-text,33,212363,0.0-13.0-3.0,16972,List2A,black,man,,,,,"{""Q0"":""fred is kissing luke""}","<img src=""stim_listA/kiss5.gif""style=""height:400px;""></stim_listA>",is kissing,,,,,,
null,"<div style=""font-size:60px;"">+</div>",,html-keyboard-response,34,212867,0.0-13.0-0.1,16972,List2A,black,man,,,,null,,,,,,,,,
null,"<img src=""stim_listA/seduce3.gif""style=""height:400px;""></stim_listA>",,html-keyboard-response,35,214869,0.0-13.0-1.1,16972,List2A,black,man,,,,null,,,,,,,,,
null,is seducing,,html-keyboard-response,36,216871,0.0-13.0-2.1,16972,List2A,black,man,,,,null,,,,,,,,,
18720.8,,,survey-text,37,235600,0.0-13.0-3.1,16972,List2A,black,man,,,,,"{""Q0"":""Fred is seducing Kate""}","<img src=""stim_listA/seduce3.gif""style=""height:400px;""></stim_listA>",is seducing,,,,,,
null,"<div style=""font-size:60px;"">+</div>",,html-keyboard-response,38,236106,0.0-13.0-0.2,16972,List2A,black,man,,,,null,,,,,,,,,
null,"<img src=""stim_listA/greet4.gif""style=""height:400px;""></stim_listA>",,html-keyboard-response,39,238110,0.0-13.0-1.2,16972,List2A,black,man,,,,null,,,,,,,,,
null,is being greeted by,,html-keyboard-response,40,240111,0.0-13.0-2.2,16972,List2A,black,man,,,,null,,,,,,,,,
13492.7,,,survey-text,41,253614,0.0-13.0-3.2,16972,List2A,black,man,,,,,"{""Q0"":""Fred is with Kate""}","<img src=""stim_listA/greet4.gif""style=""height:400px;""></stim_listA>",is being greeted by,,,,,,
null,"<div style=""font-size:60px;"">+</div>",,html-keyboard-response,42,254117,0.0-13.0-0.3,16972,List2A,black,man,,,,null,,,,,,,,,
null,"<img src=""stim_listA/touch4.gif""style=""height:400px;""></stim_listA>",,html-keyboard-response,43,256120,0.0-13.0-1.3,16972,List2A,black,man,,,,null,,,,,,,,,
null,is being touched by,,html-keyboard-response,44,258121,0.0-13.0-2.3,16972,List2A,black,man,,,,null,,,,,,,,,
21391,,,survey-text,45,279519,0.0-13.0-3.3,16972,List2A,black,man,,,,,"{""Q0"":""Beth is being touched by Fred""}","<img src=""stim_listA/touch4.gif""style=""height:400px;""></stim_listA>",is being touched by,,,,,,
null,"<div style=""font-size:60px;"">+</div>",,html-keyboard-response,46,280024,0.0-13.0-0.4,16972,List2A,black,man,,,,null,,,,,,,,,
null,"<img src=""stim_listA/oppose2.gif""style=""height:400px;""></stim_listA>",,html-keyboard-response,47,282027,0.0-13.0-1.4,16972,List2A,black,man,,,,null,,,,,,,,,
null,is being opposed by,,html-keyboard-response,48,284029,0.0-13.0-2.4,16972,List2A,black,man,,,,null,,,,,,,,,
15858.6,,,survey-text,49,299893,0.0-13.0-3.4,16972,List2A,black,man,,,,,"{""Q0"":""Luke is being opposed by Ruth""}","<img src=""stim_listA/oppose2.gif""style=""height:400px;""></stim_listA>",is being opposed by,,,,,,
null,"<div style=""font-size:60px;"">+</div>",,html-keyboard-response,50,300396,0.0-13.0-0.5,16972,List2A,black,man,,,,null,,,,,,,,,
null,"<img src=""stim_listA/oppose6.gif""style=""height:400px;""></stim_listA>",,html-keyboard-response,51,302400,0.0-13.0-1.5,16972,List2A,black,man,,,,null,,,,,,,,,
null,is being opposed by,,html-keyboard-response,52,304402,0.0-13.0-2.5,16972,List2A,black,man,,,,null,,,,,,,,,
14476.8,,,survey-text,53,318883,0.0-13.0-3.5,16972,List2A,black,man,,,,,"{""Q0"":""Luke is being opposed by fred""}","<img src=""stim_listA/oppose6.gif""style=""height:400px;""></stim_listA>",is being opposed by,,,,,,
null,"<div style=""font-size:60px;"">+</div>",,html-keyboard-response,54,319385,0.0-13.0-0.6,16972,List2A,black,man,,,,null,,,,,,,,,
null,"<img src=""stim_listA/hug7.gif""style=""height:400px;""></stim_listA>",,html-keyboard-response,55,321387,0.0-13.0-1.6,16972,List2A,black,man,,,,null,,,,,,,,,
null,is hugging,,html-keyboard-response,56,323390,0.0-13.0-2.6,16972,List2A,black,man,,,,null,,,,,,,,,
14170.2,,,survey-text,57,337565,0.0-13.0-3.6,16972,List2A,black,man,,,,,"{""Q0"":""Beth is playing with Ruth""}","<img src=""stim_listA/hug7.gif""style=""height:400px;""></stim_listA>",is hugging,,,,,,
null,"<div style=""font-size:60px;"">+</div>",,html-keyboard-response,58,338077,0.0-13.0-0.7,16972,List2A,black,man,,,,null,,,,,,,,,
null,"<img src=""stim_listA/hug1.gif""style=""height:400px;""></stim_listA>",,html-keyboard-response,59,340079,0.0-13.0-1.7,16972,List2A,black,man,,,,null,,,,,,,,,
null,is hugging,,html-keyboard-response,60,342081,0.0-13.0-2.7,16972,List2A,black,man,,,,null,,,,,,,,,
12179.8,,,survey-text,61,354264,0.0-13.0-3.7,16972,List2A,black,man,,,,,"{""Q0"":""Ruth is hugging Luke""}","<img src=""stim_listA/hug1.gif""style=""height:400px;""></stim_listA>",is hugging,,,,,,
null,"<div style=""font-size:60px;"">+</div>",,html-keyboard-response,62,354767,0.0-13.0-0.8,16972,List2A,black,man,,,,null,,,,,,,,,
null,"<img src=""stim_listA/challenge3.gif""style=""height:400px;""></stim_listA>",,html-keyboard-response,63,356770,0.0-13.0-1.8,16972,List2A,black,man,,,,null,,,,,,,,,
null,is challenging,,html-keyboard-response,64,358773,0.0-13.0-2.8,16972,List2A,black,man,,,,null,,,,,,,,,
12590.8,,,survey-text,65,371369,0.0-13.0-3.8,16972,List2A,black,man,,,,,"{""Q0"":""Mike is challenging Beth""}","<img src=""stim_listA/challenge3.gif""style=""height:400px;""></stim_listA>",is challenging,,,,,,
null,"<div style=""font-size:60px;"">+</div>",,html-keyboard-response,66,371874,0.0-13.0-0.9,16972,List2A,black,man,,,,null,,,,,,,,,
null,"<img src=""stim_listA/seduce5.gif""style=""height:400px;""></stim_listA>",,html-keyboard-response,67,373876,0.0-13.0-1.9,16972,List2A,black,man,,,,null,,,,,,,,,
null,is seducing,,html-keyboard-response,68,375882,0.0-13.0-2.9,16972,List2A,black,man,,,,null,,,,,,,,,
20655.7,,,survey-text,69,396542,0.0-13.0-3.9,16972,List2A,black,man,,,,,"{""Q0"":""Mike is friendly with Luke""}","<img src=""stim_listA/seduce5.gif""style=""height:400px;""></stim_listA>",is seducing,,,,,,
null,"<div style=""font-size:60px;"">+</div>",,html-keyboard-response,70,397044,0.0-13.0-0.10,16972,List2A,black,man,,,,null,,,,,,,,,
null,"<img src=""stim_listA/oppose3.gif""style=""height:400px;""></stim_listA>",,html-keyboard-response,71,399049,0.0-13.0-1.10,16972,List2A,black,man,,,,null,,,,,,,,,
null,is opposing,,html-keyboard-response,72,401050,0.0-13.0-2.10,16972,List2A,black,man,,,,null,,,,,,,,,
13016.6,,,survey-text,73,414073,0.0-13.0-3.10,16972,List2A,black,man,,,,,"{""Q0"":""Mike is opposing Kate""}","<img src=""stim_listA/oppose3.gif""style=""height:400px;""></stim_listA>",is opposing,,,,,,
null,"<div style=""font-size:60px;"">+</div>",,html-keyboard-response,74,414578,0.0-13.0-0.11,16972,List2A,black,man,,,,null,,,,,,,,,
null,"<img src=""stim_listA/look8.gif""style=""height:400px;""></stim_listA>",,html-keyboard-response,75,416580,0.0-13.0-1.11,16972,List2A,black,man,,,,null,,,,,,,,,
null,is being looked at by,,html-keyboard-response,76,418582,0.0-13.0-2.11,16972,List2A,black,man,,,,null,,,,,,,,,
17438.8,,,survey-text,77,436025,0.0-13.0-3.11,16972,List2A,black,man,,,,,"{""Q0"":""Jane is being looked at by Kate""}","<img src=""stim_listA/look8.gif""style=""height:400px;""></stim_listA>",is being looked at by,,,,,,
null,"<div style=""font-size:60px;"">+</div>",,html-keyboard-response,78,436528,0.0-13.0-0.12,16972,List2A,black,man,,,,null,,,,,,,,,
null,"<img src=""stim_listA/greet6.gif""style=""height:400px;""></stim_listA>",,html-keyboard-response,79,438531,0.0-13.0-1.12,16972,List2A,black,man,,,,null,,,,,,,,,
null,is being greeted by,,html-keyboard-response,80,440532,0.0-13.0-2.12,16972,List2A,black,man,,,,null,,,,,,,,,
11487.7,,,survey-text,81,452026,0.0-13.0-3.12,16972,List2A,black,man,,,,,"{""Q0"":""Luke is being greeted by Mike""}","<img src=""stim_listA/greet6.gif""style=""height:400px;""></stim_listA>",is being greeted by,,,,,,
null,"<div style=""font-size:60px;"">+</div>",,html-keyboard-response,82,452531,0.0-13.0-0.13,16972,List2A,black,man,,,,null,,,,,,,,,
null,"<img src=""stim_listA/look2.gif""style=""height:400px;""></stim_listA>",,html-keyboard-response,83,454534,0.0-13.0-1.13,16972,List2A,black,man,,,,null,,,,,,,,,
null,is being looked at by,,html-keyboard-response,84,456536,0.0-13.0-2.13,16972,List2A,black,man,,,,null,,,,,,,,,
20247.1,,,survey-text,85,476786,0.0-13.0-3.13,16972,List2A,black,man,,,,,"{""Q0"":""Dave is being looked at by Jane""}","<img src=""stim_listA/look2.gif""style=""height:400px;""></stim_listA>",is being looked at by,,,,,,
null,"<div style=""font-size:60px;"">+</div>",,html-keyboard-response,86,477299,0.0-13.0-0.14,16972,List2A,black,man,,,,null,,,,,,,,,
null,"<img src=""stim_listA/greet8.gif""style=""height:400px;""></stim_listA>",,html-keyboard-response,87,479302,0.0-13.0-1.14,16972,List2A,black,man,,,,null,,,,,,,,,
null,is being greeted by,,html-keyboard-response,88,481304,0.0-13.0-2.14,16972,List2A,black,man,,,,null,,,,,,,,,
21603.8,,,survey-text,89,502913,0.0-13.0-3.14,16972,List2A,black,man,,,,,"{""Q0"":""Ruth is being greeted by Jane""}","<img src=""stim_listA/greet8.gif""style=""height:400px;""></stim_listA>",is being greeted by,,,,,,
null,"<div style=""font-size:60px;"">+</div>",,html-keyboard-response,90,503416,0.0-13.0-0.15,16972,List2A,black,man,,,,null,,,,,,,,,
null,"<img src=""stim_listA/look4.gif""style=""height:400px;""></stim_listA>",,html-keyboard-response,91,505420,0.0-13.0-1.15,16972,List2A,black,man,,,,null,,,,,,,,,
null,is being looked at by,,html-keyboard-response,92,507422,0.0-13.0-2.15,16972,List2A,black,man,,,,null,,,,,,,,,
13961.3,,,survey-text,93,521400,0.0-13.0-3.15,16972,List2A,black,man,,,,,"{""Q0"":""Mike is being looked at by Kate""}","<img src=""stim_listA/look4.gif""style=""height:400px;""></stim_listA>",is being looked at by,,,,,,
null,"<div style=""font-size:60px;"">+</div>",,html-keyboard-response,94,521903,0.0-13.0-0.16,16972,List2A,black,man,,,,null,,,,,,,,,
null,"<img src=""stim_listA/shout6.gif""style=""height:400px;""></stim_listA>",,html-keyboard-response,95,523907,0.0-13.0-1.16,16972,List2A,black,man,,,,null,,,,,,,,,
null,is being shouted at by,,html-keyboard-response,96,525910,0.0-13.0-2.16,16972,List2A,black,man,,,,null,,,,,,,,,
14964,,,survey-text,97,540882,0.0-13.0-3.16,16972,List2A,black,man,,,,,"{""Q0"":""Dave is being shouted at by Mike""}","<img src=""stim_listA/shout6.gif""style=""height:400px;""></stim_listA>",is being shouted at by,,,,,,
null,"<div style=""font-size:60px;"">+</div>",,html-keyboard-response,98,541385,0.0-13.0-0.17,16972,List2A,black,man,,,,null,,,,,,,,,
null,"<img src=""stim_listA/copy6.gif""style=""height:400px;""></stim_listA>",,html-keyboard-response,99,543388,0.0-13.0-1.17,16972,List2A,black,man,,,,null,,,,,,,,,
null,is being copied by,,html-keyboard-response,100,545390,0.0-13.0-2.17,16972,List2A,black,man,,,,null,,,,,,,,,
15474.1,,,survey-text,101,560869,0.0-13.0-3.17,16972,List2A,black,man,,,,,"{""Q0"":""Luke is being copied by Mike""}","<img src=""stim_listA/copy6.gif""style=""height:400px;""></stim_listA>",is being copied by,,,,,,
null,"<div style=""font-size:60px;"">+</div>",,html-keyboard-response,102,561372,0.0-13.0-0.18,16972,List2A,black,man,,,,null,,,,,,,,,
null,"<img src=""stim_listA/seduce2.gif""style=""height:400px;""></stim_listA>",,html-keyboard-response,103,563378,0.0-13.0-1.18,16972,List2A,black,man,,,,null,,,,,,,,,
null,is being seduced by,,html-keyboard-response,104,565380,0.0-13.0-2.18,16972,List2A,black,man,,,,null,,,,,,,,,
32480.2,,,survey-text,105,597865,0.0-13.0-3.18,16972,List2A,black,man,,,,,"{""Q0"":""Dave is being seduced at by Ruth""}","<img src=""stim_listA/seduce2.gif""style=""height:400px;""></stim_listA>",is being seduced by,,,,,,
null,"<div style=""font-size:60px;"">+</div>",,html-keyboard-response,106,598368,0.0-13.0-0.19,16972,List2A,black,man,,,,null,,,,,,,,,
null,"<img src=""stim_listA/kiss6.gif""style=""height:400px;""></stim_listA>",,html-keyboard-response,107,600371,0.0-13.0-1.19,16972,List2A,black,man,,,,null,,,,,,,,,
null,is being kissed by,,html-keyboard-response,108,602374,0.0-13.0-2.19,16972,List2A,black,man,,,,null,,,,,,,,,
27074.5,,,survey-text,109,629457,0.0-13.0-3.19,16972,List2A,black,man,,,,,"{""Q0"":""Dave is being kissed by Mike""}","<img src=""stim_listA/kiss6.gif""style=""height:400px;""></stim_listA>",is being kissed by,,,,,,
26184.3,"<img src='img/portrait_matrix_list2.jpg' style='width:900px;height:500px;''></img><p>If you have memorised all the portraits and names and are ready to start, press Continue.</p><p><strong>Please note: Your memory of these faces will be tested 4 times during this experiment.</strong></p>",0,html-button-response,110,655646,0.0-14.0-0.0,16972,List2A,black,man,,,,,,,,,,,,,
7681.7,"<img src=""portrait/WM2.jpg""style=""height:400px;""></img>",7,html-button-response,111,664331,0.0-14.0-1.0,16972,List2A,black,man,,TRUE,7,,,,,,,,,,
null,CORRECT,,html-keyboard-response,112,665835,0.0-14.0-2.0-0.0,16972,List2A,black,man,,,,null,,,,,,,,,
4128,"<img src=""portrait/BM1.jpg""style=""height:400px;""></img>",4,html-button-response,113,669968,0.0-14.0-4.0,16972,List2A,black,man,,TRUE,4,,,,,,,,,,
null,CORRECT,,html-keyboard-response,114,671471,0.0-14.0-5.0-0.0,16972,List2A,black,man,,,,null,,,,,,,,,
6641.6,"<img src=""portrait/WM1.jpg""style=""height:400px;""></img>",6,html-button-response,115,678117,0.0-14.0-7.0,16972,List2A,black,man,,TRUE,6,,,,,,,,,,
null,CORRECT,,html-keyboard-response,116,679620,0.0-14.0-8.0-0.0,16972,List2A,black,man,,,,null,,,,,,,,,
3931.2,"<img src=""portrait/BM2.jpg""style=""height:400px;""></img>",5,html-button-response,117,683556,0.0-14.0-10.0,16972,List2A,black,man,,TRUE,5,,,,,,,,,,
null,CORRECT,,html-keyboard-response,118,685059,0.0-14.0-11.0-0.0,16972,List2A,black,man,,,,null,,,,,,,,,
4662.3,"<img src=""portrait/WW2.jpg""style=""height:400px;""></img>",3,html-button-response,119,689726,0.0-14.0-13.0,16972,List2A,black,man,,TRUE,3,,,,,,,,,,
null,CORRECT,,html-keyboard-response,120,691228,0.0-14.0-14.0-0.0,16972,List2A,black,man,,,,null,,,,,,,,,
3658.1,"<img src=""portrait/BW2.jpg""style=""height:400px;""></img>",2,html-button-response,121,694889,0.0-14.0-16.0,16972,List2A,black,man,,TRUE,2,,,,,,,,,,
null,CORRECT,,html-keyboard-response,122,696393,0.0-14.0-17.0-0.0,16972,List2A,black,man,,,,null,,,,,,,,,
11020.7,"<img src=""portrait/BW1.jpg""style=""height:400px;""></img>",0,html-button-response,123,707416,0.0-14.0-19.0,16972,List2A,black,man,,TRUE,0,,,,,,,,,,
null,CORRECT,,html-keyboard-response,124,708920,0.0-14.0-20.0-0.0,16972,List2A,black,man,,,,null,,,,,,,,,
8494.7,"<img src=""portrait/WW1.jpg""style=""height:400px;""></img>",1,html-button-response,125,717417,0.0-14.0-22.0,16972,List2A,black,man,,TRUE,1,,,,,,,,,,
null,CORRECT,,html-keyboard-response,126,718921,0.0-14.0-23.0-0.0,16972,List2A,black,man,,,,null,,,,,,,,,
4258.6,<p>You got 8 out of 8 right first time. Press Continue.</p>,0,html-button-response,127,723183,0.0-14.0-25.0,16972,List2A,black,man,,,,,,,,,,,,,
null,"<div style=""font-size:60px;"">+</div>",,html-keyboard-response,128,724687,0.0-15.0-0.0,16972,List2A,black,man,,,,null,,,,,,,,,
null,"<img src=""stim_listA/touch6.gif""style=""height:400px;""></stim_listA>",,html-keyboard-response,129,726693,0.0-15.0-1.0,16972,List2A,black,man,,,,null,,,,,,,,,
null,is being touched by,,html-keyboard-response,130,728696,0.0-15.0-2.0,16972,List2A,black,man,,,,null,,,,,,,,,
37954.2,,,survey-text,131,766657,0.0-15.0-3.0,16972,List2A,black,man,,,,,"{""Q0"":""Beth is being touched by Mike""}","<img src=""stim_listA/touch6.gif""style=""height:400px;""></stim_listA>",is being touched by,,,,,,
null,"<div style=""font-size:60px;"">+</div>",,html-keyboard-response,132,767161,0.0-15.0-0.1,16972,List2A,black,man,,,,null,,,,,,,,,
null,"<img src=""stim_listA/shout1.gif""style=""height:400px;""></stim_listA>",,html-keyboard-response,133,769165,0.0-15.0-1.1,16972,List2A,black,man,,,,null,,,,,,,,,
null,is shouting at,,html-keyboard-response,134,771168,0.0-15.0-2.1,16972,List2A,black,man,,,,null,,,,,,,,,
39341.7,,,survey-text,135,810518,0.0-15.0-3.1,16972,List2A,black,man,,,,,"{""Q0"":""Luke is shouting at Ruth""}","<img src=""stim_listA/shout1.gif""style=""height:400px;""></stim_listA>",is shouting at,,,,,,
null,"<div style=""font-size:60px;"">+</div>",,html-keyboard-response,136,811036,0.0-15.0-0.2,16972,List2A,black,man,,,,null,,,,,,,,,
null,"<img src=""stim_listA/copy8.gif""style=""height:400px;""></stim_listA>",,html-keyboard-response,137,813062,0.0-15.0-1.2,16972,List2A,black,man,,,,null,,,,,,,,,
null,is being copied by,,html-keyboard-response,138,815064,0.0-15.0-2.2,16972,List2A,black,man,,,,null,,,,,,,,,
18046.8,,,survey-text,139,833115,0.0-15.0-3.2,16972,List2A,black,man,,,,,"{""Q0"":""Kate is being copied by Ruth""}","<img src=""stim_listA/copy8.gif""style=""height:400px;""></stim_listA>",is being copied by,,,,,,
null,"<div style=""font-size:60px;"">+</div>",,html-keyboard-response,140,833624,0.0-15.0-0.3,16972,List2A,black,man,,,,null,,,,,,,,,
null,"<img src=""stim_listA/kiss7.gif""style=""height:400px;""></stim_listA>",,html-keyboard-response,141,835630,0.0-15.0-1.3,16972,List2A,black,man,,,,null,,,,,,,,,
null,is kissing,,html-keyboard-response,142,837637,0.0-15.0-2.3,16972,List2A,black,man,,,,null,,,,,,,,,
21066.6,,,survey-text,143,858711,0.0-15.0-3.3,16972,List2A,black,man,,,,,"{""Q0"":""Beth is kissing Ruth""}","<img src=""stim_listA/kiss7.gif""style=""height:400px;""></stim_listA>",is kissing,,,,,,
null,"<div style=""font-size:60px;"">+</div>",,html-keyboard-response,144,859219,0.0-15.0-0.4,16972,List2A,black,man,,,,null,,,,,,,,,
null,"<img src=""stim_listA/oppose8.gif""style=""height:400px;""></stim_listA>",,html-keyboard-response,145,861229,0.0-15.0-1.4,16972,List2A,black,man,,,,null,,,,,,,,,
null,is being opposed by,,html-keyboard-response,146,863236,0.0-15.0-2.4,16972,List2A,black,man,,,,null,,,,,,,,,
20118.8,,,survey-text,147,883361,0.0-15.0-3.4,16972,List2A,black,man,,,,,"{""Q0"":""Beth is being opposed by Ruth""}","<img src=""stim_listA/oppose8.gif""style=""height:400px;""></stim_listA>",is being opposed by,,,,,,
null,"<div style=""font-size:60px;"">+</div>",,html-keyboard-response,148,883869,0.0-15.0-0.5,16972,List2A,black,man,,,,null,,,,,,,,,
null,"<img src=""stim_listA/challenge2.gif""style=""height:400px;""></stim_listA>",,html-keyboard-response,149,885877,0.0-15.0-1.5,16972,List2A,black,man,,,,null,,,,,,,,,
null,is being challenged by,,html-keyboard-response,150,887880,0.0-15.0-2.5,16972,List2A,black,man,,,,null,,,,,,,,,
20650.7,,,survey-text,151,908536,0.0-15.0-3.5,16972,List2A,black,man,,,,,"{""Q0"":""Jane is being challenged at by Luke""}","<img src=""stim_listA/challenge2.gif""style=""height:400px;""></stim_listA>",is being challenged by,,,,,,
null,"<div style=""font-size:60px;"">+</div>",,html-keyboard-response,152,909046,0.0-15.0-0.6,16972,List2A,black,man,,,,null,,,,,,,,,
null,"<img src=""stim_listA/copy3.gif""style=""height:400px;""></stim_listA>",,html-keyboard-response,153,911051,0.0-15.0-1.6,16972,List2A,black,man,,,,null,,,,,,,,,
null,is copying,,html-keyboard-response,154,913063,0.0-15.0-2.6,16972,List2A,black,man,,,,null,,,,,,,,,
12991.7,,,survey-text,155,926061,0.0-15.0-3.6,16972,List2A,black,man,,,,,"{""Q0"":""Mike is copying Beth""}","<img src=""stim_listA/copy3.gif""style=""height:400px;""></stim_listA>",is copying,,,,,,
null,"<div style=""font-size:60px;"">+</div>",,html-keyboard-response,156,926567,0.0-15.0-0.7,16972,List2A,black,man,,,,null,,,,,,,,,
null,"<img src=""stim_listA/touch8.gif""style=""height:400px;""></stim_listA>",,html-keyboard-response,157,928579,0.0-15.0-1.7,16972,List2A,black,man,,,,null,,,,,,,,,
null,is being touched by,,html-keyboard-response,158,930584,0.0-15.0-2.7,16972,List2A,black,man,,,,null,,,,,,,,,
11630.4,,,survey-text,159,942218,0.0-15.0-3.7,16972,List2A,black,man,,,,,"{""Q0"":""Beth is being touched by Ruth""}","<img src=""stim_listA/touch8.gif""style=""height:400px;""></stim_listA>",is being touched by,,,,,,
null,"<div style=""font-size:60px;"">+</div>",,html-keyboard-response,160,942724,0.0-15.0-0.8,16972,List2A,black,man,,,,null,,,,,,,,,
null,"<img src=""stim_listA/shout2.gif""style=""height:400px;""></stim_listA>",,html-keyboard-response,161,944733,0.0-15.0-1.8,16972,List2A,black,man,,,,null,,,,,,,,,
null,is being shouted at by,,html-keyboard-response,162,946737,0.0-15.0-2.8,16972,List2A,black,man,,,,null,,,,,,,,,
15841.2,,,survey-text,163,962584,0.0-15.0-3.8,16972,List2A,black,man,,,,,"{""Q0"":""Jane is being shouted by Dave""}","<img src=""stim_listA/shout2.gif""style=""height:400px;""></stim_listA>",is being shouted at by,,,,,,
null,"<div style=""font-size:60px;"">+</div>",,html-keyboard-response,164,963096,0.0-15.0-0.9,16972,List2A,black,man,,,,null,,,,,,,,,
null,"<img src=""stim_listA/copy4.gif""style=""height:400px;""></stim_listA>",,html-keyboard-response,165,965109,0.0-15.0-1.9,16972,List2A,black,man,,,,null,,,,,,,,,
null,is being copied by,,html-keyboard-response,166,967119,0.0-15.0-2.9,16972,List2A,black,man,,,,null,,,,,,,,,
12146.3,,,survey-text,167,979273,0.0-15.0-3.9,16972,List2A,black,man,,,,,"{""Q0"":""Kate is being copied by Fred""}","<img src=""stim_listA/copy4.gif""style=""height:400px;""></stim_listA>",is being copied by,,,,,,
null,"<div style=""font-size:60px;"">+</div>",,html-keyboard-response,168,979786,0.0-15.0-0.10,16972,List2A,black,man,,,,null,,,,,,,,,
null,"<img src=""stim_listA/challenge7.gif""style=""height:400px;""></stim_listA>",,html-keyboard-response,169,981794,0.0-15.0-1.10,16972,List2A,black,man,,,,null,,,,,,,,,
null,is challenging,,html-keyboard-response,170,983802,0.0-15.0-2.10,16972,List2A,black,man,,,,null,,,,,,,,,
19554,,,survey-text,171,1003364,0.0-15.0-3.10,16972,List2A,black,man,,,,,"{""Q0"":""Beth is challenging Jane""}","<img src=""stim_listA/challenge7.gif""style=""height:400px;""></stim_listA>",is challenging,,,,,,
null,"<div style=""font-size:60px;"">+</div>",,html-keyboard-response,172,1003876,0.0-15.0-0.11,16972,List2A,black,man,,,,null,,,,,,,,,
null,"<img src=""stim_listA/kiss1.gif""style=""height:400px;""></stim_listA>",,html-keyboard-response,173,1005886,0.0-15.0-1.11,16972,List2A,black,man,,,,null,,,,,,,,,
null,is kissing,,html-keyboard-response,174,1007891,0.0-15.0-2.11,16972,List2A,black,man,,,,null,,,,,,,,,
8989.7,,,survey-text,175,1016889,0.0-15.0-3.11,16972,List2A,black,man,,,,,"{""Q0"":""Luke is kissing Ruth""}","<img src=""stim_listA/kiss1.gif""style=""height:400px;""></stim_listA>",is kissing,,,,,,
null,"<div style=""font-size:60px;"">+</div>",,html-keyboard-response,176,1017409,0.0-15.0-0.12,16972,List2A,black,man,,,,null,,,,,,,,,
null,"<img src=""stim_listA/touch7.gif""style=""height:400px;""></stim_listA>",,html-keyboard-response,177,1019420,0.0-15.0-1.12,16972,List2A,black,man,,,,null,,,,,,,,,
null,is touching,,html-keyboard-response,178,1021432,0.0-15.0-2.12,16972,List2A,black,man,,,,null,,,,,,,,,
10649.3,,,survey-text,179,1032090,0.0-15.0-3.12,16972,List2A,black,man,,,,,"{""Q0"":""Kate is touching Jane""}","<img src=""stim_listA/touch7.gif""style=""height:400px;""></stim_listA>",is touching,,,,,,
null,"<div style=""font-size:60px;"">+</div>",,html-keyboard-response,180,1032600,0.0-15.0-0.13,16972,List2A,black,man,,,,null,,,,,,,,,
null,"<img src=""stim_listA/look6.gif""style=""height:400px;""></stim_listA>",,html-keyboard-response,181,1034609,0.0-15.0-1.13,16972,List2A,black,man,,,,null,,,,,,,,,
null,is being looked at by,,html-keyboard-response,182,1036614,0.0-15.0-2.13,16972,List2A,black,man,,,,null,,,,,,,,,
10944,,,survey-text,183,1047564,0.0-15.0-3.13,16972,List2A,black,man,,,,,"{""Q0"":""Mike is being looked at by Dave""}","<img src=""stim_listA/look6.gif""style=""height:400px;""></stim_listA>",is being looked at by,,,,,,
null,"<div style=""font-size:60px;"">+</div>",,html-keyboard-response,184,1048072,0.0-15.0-0.14,16972,List2A,black,man,,,,null,,,,,,,,,
null,"<img src=""stim_listA/challenge6.gif""style=""height:400px;""></stim_listA>",,html-keyboard-response,185,1050079,0.0-15.0-1.14,16972,List2A,black,man,,,,null,,,,,,,,,
null,is being challenged by,,html-keyboard-response,186,1052084,0.0-15.0-2.14,16972,List2A,black,man,,,,null,,,,,,,,,
21215.6,,,survey-text,187,1073306,0.0-15.0-3.14,16972,List2A,black,man,,,,,"{""Q0"":""Luke is being challenged by Mike""}","<img src=""stim_listA/challenge6.gif""style=""height:400px;""></stim_listA>",is being challenged by,,,,,,
null,"<div style=""font-size:60px;"">+</div>",,html-keyboard-response,188,1073809,0.0-15.0-0.15,16972,List2A,black,man,,,,null,,,,,,,,,
null,"<img src=""stim_listA/copy7.gif""style=""height:400px;""></stim_listA>",,html-keyboard-response,189,1075820,0.0-15.0-1.15,16972,List2A,black,man,,,,null,,,,,,,,,
null,is copying,,html-keyboard-response,190,1077824,0.0-15.0-2.15,16972,List2A,black,man,,,,null,,,,,,,,,
15841.1,,,survey-text,191,1093673,0.0-15.0-3.15,16972,List2A,black,man,,,,,"{""Q0"":""Beth is copying Jane""}","<img src=""stim_listA/copy7.gif""style=""height:400px;""></stim_listA>",is copying,,,,,,
null,"<div style=""font-size:60px;"">+</div>",,html-keyboard-response,192,1094182,0.0-15.0-0.16,16972,List2A,black,man,,,,null,,,,,,,,,
null,"<img src=""stim_listA/hug4.gif""style=""height:400px;""></stim_listA>",,html-keyboard-response,193,1096190,0.0-15.0-1.16,16972,List2A,black,man,,,,null,,,,,,,,,
null,is being hugged by,,html-keyboard-response,194,1098199,0.0-15.0-2.16,16972,List2A,black,man,,,,null,,,,,,,,,
18138.3,,,survey-text,195,1116344,0.0-15.0-3.16,16972,List2A,black,man,,,,,"{""Q0"":""Mike is being hugged by Jane""}","<img src=""stim_listA/hug4.gif""style=""height:400px;""></stim_listA>",is being hugged by,,,,,,
null,"<div style=""font-size:60px;"">+</div>",,html-keyboard-response,196,1116849,0.0-15.0-0.17,16972,List2A,black,man,,,,null,,,,,,,,,
null,"<img src=""stim_listA/hug2.gif""style=""height:400px;""></stim_listA>",,html-keyboard-response,197,1118856,0.0-15.0-1.17,16972,List2A,black,man,,,,null,,,,,,,,,
null,is being hugged by,,html-keyboard-response,198,1120862,0.0-15.0-2.17,16972,List2A,black,man,,,,null,,,,,,,,,
12101.9,,,survey-text,199,1132971,0.0-15.0-3.17,16972,List2A,black,man,,,,,"{""Q0"":""Dave is being hugged by Jane""}","<img src=""stim_listA/hug2.gif""style=""height:400px;""></stim_listA>",is being hugged by,,,,,,
null,"<div style=""font-size:60px;"">+</div>",,html-keyboard-response,200,1133480,0.0-15.0-0.18,16972,List2A,black,man,,,,null,,,,,,,,,
null,"<img src=""stim_listA/greet5.gif""style=""height:400px;""></stim_listA>",,html-keyboard-response,201,1135493,0.0-15.0-1.18,16972,List2A,black,man,,,,null,,,,,,,,,
null,is greeting,,html-keyboard-response,202,1137501,0.0-15.0-2.18,16972,List2A,black,man,,,,null,,,,,,,,,
10139.3,,,survey-text,203,1147651,0.0-15.0-3.18,16972,List2A,black,man,,,,,"{""Q0"":""Fred is greeting Dave""}","<img src=""stim_listA/greet5.gif""style=""height:400px;""></stim_listA>",is greeting,,,,,,
null,"<div style=""font-size:60px;"">+</div>",,html-keyboard-response,204,1148158,0.0-15.0-0.19,16972,List2A,black,man,,,,null,,,,,,,,,
null,"<img src=""stim_listA/kiss2.gif""style=""height:400px;""></stim_listA>",,html-keyboard-response,205,1150165,0.0-15.0-1.19,16972,List2A,black,man,,,,null,,,,,,,,,
null,is being kissed by,,html-keyboard-response,206,1152170,0.0-15.0-2.19,16972,List2A,black,man,,,,null,,,,,,,,,
10985.1,,,survey-text,207,1163161,0.0-15.0-3.19,16972,List2A,black,man,,,,,"{""Q0"":""Dave is being kissed by Jane""}","<img src=""stim_listA/kiss2.gif""style=""height:400px;""></stim_listA>",is being kissed by,,,,,,
3818.8,"<img src='img/portrait_matrix_list2.jpg' style='width:900px;height:500px;''></img><p>If you have memorised all the portraits and names and are ready to start, press Continue.</p><p><strong>Please note: Your memory of these faces will be tested 4 times during this experiment.</strong></p>",0,html-button-response,208,1166983,0.0-16.0-0.0,16972,List2A,black,man,,,,,,,,,,,,,
7315.8,"<img src=""portrait/WM1.jpg""style=""height:400px;""></img>",6,html-button-response,209,1175306,0.0-16.0-1.0,16972,List2A,black,man,,TRUE,6,,,,,,,,,,
null,CORRECT,,html-keyboard-response,210,1176814,0.0-16.0-2.0-0.0,16972,List2A,black,man,,,,null,,,,,,,,,
6869.7,"<img src=""portrait/BW1.jpg""style=""height:400px;""></img>",0,html-button-response,211,1183687,0.0-16.0-4.0,16972,List2A,black,man,,TRUE,0,,,,,,,,,,
null,CORRECT,,html-keyboard-response,212,1185208,0.0-16.0-5.0-0.0,16972,List2A,black,man,,,,null,,,,,,,,,
3157,"<img src=""portrait/WM2.jpg""style=""height:400px;""></img>",7,html-button-response,213,1188369,0.0-16.0-7.0,16972,List2A,black,man,,TRUE,7,,,,,,,,,,
null,CORRECT,,html-keyboard-response,214,1189892,0.0-16.0-8.0-0.0,16972,List2A,black,man,,,,null,,,,,,,,,
5144.4,"<img src=""portrait/WW1.jpg""style=""height:400px;""></img>",1,html-button-response,215,1195041,0.0-16.0-10.0,16972,List2A,black,man,,TRUE,1,,,,,,,,,,
null,CORRECT,,html-keyboard-response,216,1196559,0.0-16.0-11.0-0.0,16972,List2A,black,man,,,,null,,,,,,,,,
2654.6,"<img src=""portrait/BM1.jpg""style=""height:400px;""></img>",4,html-button-response,217,1199217,0.0-16.0-13.0,16972,List2A,black,man,,TRUE,4,,,,,,,,,,
null,CORRECT,,html-keyboard-response,218,1200730,0.0-16.0-14.0-0.0,16972,List2A,black,man,,,,null,,,,,,,,,
2597.9,"<img src=""portrait/WW2.jpg""style=""height:400px;""></img>",3,html-button-response,219,1203333,0.0-16.0-16.0,16972,List2A,black,man,,TRUE,3,,,,,,,,,,
null,CORRECT,,html-keyboard-response,220,1204851,0.0-16.0-17.0-0.0,16972,List2A,black,man,,,,null,,,,,,,,,
2734.1,"<img src=""portrait/BM2.jpg""style=""height:400px;""></img>",5,html-button-response,221,1207589,0.0-16.0-19.0,16972,List2A,black,man,,TRUE,5,,,,,,,,,,
null,CORRECT,,html-keyboard-response,222,1209109,0.0-16.0-20.0-0.0,16972,List2A,black,man,,,,null,,,,,,,,,
2031.5,"<img src=""portrait/BW2.jpg""style=""height:400px;""></img>",2,html-button-response,223,1211145,0.0-16.0-22.0,16972,List2A,black,man,,TRUE,2,,,,,,,,,,
null,CORRECT,,html-keyboard-response,224,1212659,0.0-16.0-23.0-0.0,16972,List2A,black,man,,,,null,,,,,,,,,
2337.6,<p>You got 8 out of 8 right first time. Press Continue.</p>,0,html-button-response,225,1214999,0.0-16.0-25.0,16972,List2A,black,man,,,,,,,,,,,,,
null,"<div style=""font-size:60px;"">+</div>",,html-keyboard-response,226,1216515,0.0-17.0-0.0,16972,List2A,black,man,,,,null,,,,,,,,,
null,"<img src=""stim_listA/shout7.gif""style=""height:400px;""></stim_listA>",,html-keyboard-response,227,1218521,0.0-17.0-1.0,16972,List2A,black,man,,,,null,,,,,,,,,
null,is shouting at,,html-keyboard-response,228,1220532,0.0-17.0-2.0,16972,List2A,black,man,,,,null,,,,,,,,,
9723.5,,,survey-text,229,1230263,0.0-17.0-3.0,16972,List2A,black,man,,,,,"{""Q0"":""Beth is shouting at Ruth""}","<img src=""stim_listA/shout7.gif""style=""height:400px;""></stim_listA>",is shouting at,,,,,,
null,"<div style=""font-size:60px;"">+</div>",,html-keyboard-response,230,1230778,0.0-17.0-0.1,16972,List2A,black,man,,,,null,,,,,,,,,
null,"<img src=""stim_listA/touch2.gif""style=""height:400px;""></stim_listA>",,html-keyboard-response,231,1232784,0.0-17.0-1.1,16972,List2A,black,man,,,,null,,,,,,,,,
null,is being touched by,,html-keyboard-response,232,1234792,0.0-17.0-2.1,16972,List2A,black,man,,,,null,,,,,,,,,
13354.8,,,survey-text,233,1248151,0.0-17.0-3.1,16972,List2A,black,man,,,,,"{""Q0"":""Luke is being touched by Ruth""}","<img src=""stim_listA/touch2.gif""style=""height:400px;""></stim_listA>",is being touched by,,,,,,
null,"<div style=""font-size:60px;"">+</div>",,html-keyboard-response,234,1248660,0.0-17.0-0.2,16972,List2A,black,man,,,,null,,,,,,,,,
null,"<img src=""stim_listA/shout8.gif""style=""height:400px;""></stim_listA>",,html-keyboard-response,235,1250668,0.0-17.0-1.2,16972,List2A,black,man,,,,null,,,,,,,,,
null,is being shouted at by,,html-keyboard-response,236,1252672,0.0-17.0-2.2,16972,List2A,black,man,,,,null,,,,,,,,,
21178.5,,,survey-text,237,1273856,0.0-17.0-3.2,16972,List2A,black,man,,,,,"{""Q0"":""Kate is being shouted at by Jane""}","<img src=""stim_listA/shout8.gif""style=""height:400px;""></stim_listA>",is being shouted at by,,,,,,
null,"<div style=""font-size:60px;"">+</div>",,html-keyboard-response,238,1274364,0.0-17.0-0.3,16972,List2A,black,man,,,,null,,,,,,,,,
null,"<img src=""stim_listA/touch1.gif""style=""height:400px;""></stim_listA>",,html-keyboard-response,239,1276368,0.0-17.0-1.3,16972,List2A,black,man,,,,null,,,,,,,,,
null,is touching,,html-keyboard-response,240,1278373,0.0-17.0-2.3,16972,List2A,black,man,,,,null,,,,,,,,,
225042.5,,,survey-text,241,1503423,0.0-17.0-3.3,16972,List2A,black,man,,,,,"{""Q0"":""Dave is touched by Jane""}","<img src=""stim_listA/touch1.gif""style=""height:400px;""></stim_listA>",is touching,,,,,,
null,"<div style=""font-size:60px;"">+</div>",,html-keyboard-response,242,1503935,0.0-17.0-0.4,16972,List2A,black,man,,,,null,,,,,,,,,
null,"<img src=""stim_listA/greet7.gif""style=""height:400px;""></stim_listA>",,html-keyboard-response,243,1505944,0.0-17.0-1.4,16972,List2A,black,man,,,,null,,,,,,,,,
null,is greeting,,html-keyboard-response,244,1507952,0.0-17.0-2.4,16972,List2A,black,man,,,,null,,,,,,,,,
12172.7,,,survey-text,245,1520131,0.0-17.0-3.4,16972,List2A,black,man,,,,,"{""Q0"":""Jane is greeting Beth""}","<img src=""stim_listA/greet7.gif""style=""height:400px;""></stim_listA>",is greeting,,,,,,
null,"<div style=""font-size:60px;"">+</div>",,html-keyboard-response,246,1520636,0.0-17.0-0.5,16972,List2A,black,man,,,,null,,,,,,,,,
null,"<img src=""stim_listA/look3.gif""style=""height:400px;""></stim_listA>",,html-keyboard-response,247,1522642,0.0-17.0-1.5,16972,List2A,black,man,,,,null,,,,,,,,,
null,is looking at,,html-keyboard-response,248,1524651,0.0-17.0-2.5,16972,List2A,black,man,,,,null,,,,,,,,,
9404.5,,,survey-text,249,1534062,0.0-17.0-3.5,16972,List2A,black,man,,,,,"{""Q0"":""Fred is looking at Beth""}","<img src=""stim_listA/look3.gif""style=""height:400px;""></stim_listA>",is looking at,,,,,,
null,"<div style=""font-size:60px;"">+</div>",,html-keyboard-response,250,1534575,0.0-17.0-0.6,16972,List2A,black,man,,,,null,,,,,,,,,
null,"<img src=""stim_listA/challenge5.gif""style=""height:400px;""></stim_listA>",,html-keyboard-response,251,1536588,0.0-17.0-1.6,16972,List2A,black,man,,,,null,,,,,,,,,
null,is challenging,,html-keyboard-response,252,1538599,0.0-17.0-2.6,16972,List2A,black,man,,,,null,,,,,,,,,
10751.2,,,survey-text,253,1549356,0.0-17.0-3.6,16972,List2A,black,man,,,,,"{""Q0"":""Dave is challenging Fred""}","<img src=""stim_listA/challenge5.gif""style=""height:400px;""></stim_listA>",is challenging,,,,,,
null,"<div style=""font-size:60px;"">+</div>",,html-keyboard-response,254,1549860,0.0-17.0-0.7,16972,List2A,black,man,,,,null,,,,,,,,,
null,"<img src=""stim_listA/seduce8.gif""style=""height:400px;""></stim_listA>",,html-keyboard-response,255,1551869,0.0-17.0-1.7,16972,List2A,black,man,,,,null,,,,,,,,,
null,is being seduced by,,html-keyboard-response,256,1553871,0.0-17.0-2.7,16972,List2A,black,man,,,,null,,,,,,,,,
17619.5,,,survey-text,257,1571497,0.0-17.0-3.7,16972,List2A,black,man,,,,,"{""Q0"":""Beth is being seduced by Jane""}","<img src=""stim_listA/seduce8.gif""style=""height:400px;""></stim_listA>",is being seduced by,,,,,,
null,"<div style=""font-size:60px;"">+</div>",,html-keyboard-response,258,1572001,0.0-17.0-0.8,16972,List2A,black,man,,,,null,,,,,,,,,
null,"<img src=""stim_listA/look5.gif""style=""height:400px;""></stim_listA>",,html-keyboard-response,259,1574011,0.0-17.0-1.8,16972,List2A,black,man,,,,null,,,,,,,,,
null,is looking at,,html-keyboard-response,260,1576021,0.0-17.0-2.8,16972,List2A,black,man,,,,null,,,,,,,,,
7997.6,,,survey-text,261,1584024,0.0-17.0-3.8,16972,List2A,black,man,,,,,"{""Q0"":""Mike is looking at Fred""}","<img src=""stim_listA/look5.gif""style=""height:400px;""></stim_listA>",is looking at,,,,,,
null,"<div style=""font-size:60px;"">+</div>",,html-keyboard-response,262,1584527,0.0-17.0-0.9,16972,List2A,black,man,,,,null,,,,,,,,,
null,"<img src=""stim_listA/hug6.gif""style=""height:400px;""></stim_listA>",,html-keyboard-response,263,1586540,0.0-17.0-1.9,16972,List2A,black,man,,,,null,,,,,,,,,
null,is being hugged by,,html-keyboard-response,264,1588547,0.0-17.0-2.9,16972,List2A,black,man,,,,null,,,,,,,,,
29495.4,,,survey-text,265,1618048,0.0-17.0-3.9,16972,List2A,black,man,,,,,"{""Q0"":""Mike is being hugged at Dave""}","<img src=""stim_listA/hug6.gif""style=""height:400px;""></stim_listA>",is being hugged by,,,,,,
null,"<div style=""font-size:60px;"">+</div>",,html-keyboard-response,266,1618551,0.0-17.0-0.10,16972,List2A,black,man,,,,null,,,,,,,,,
null,"<img src=""stim_listA/hug3.gif""style=""height:400px;""></stim_listA>",,html-keyboard-response,267,1620561,0.0-17.0-1.10,16972,List2A,black,man,,,,null,,,,,,,,,
null,is hugging,,html-keyboard-response,268,1622566,0.0-17.0-2.10,16972,List2A,black,man,,,,null,,,,,,,,,
7711.5,,,survey-text,269,1630288,0.0-17.0-3.10,16972,List2A,black,man,,,,,"{""Q0"":""Fred is hugging Beth""}","<img src=""stim_listA/hug3.gif""style=""height:400px;""></stim_listA>",is hugging,,,,,,
null,"<div style=""font-size:60px;"">+</div>",,html-keyboard-response,270,1630805,0.0-17.0-0.11,16972,List2A,black,man,,,,null,,,,,,,,,
null,"<img src=""stim_listA/hug5.gif""style=""height:400px;""></stim_listA>",,html-keyboard-response,271,1632818,0.0-17.0-1.11,16972,List2A,black,man,,,,null,,,,,,,,,
null,is hugging,,html-keyboard-response,272,1634823,0.0-17.0-2.11,16972,List2A,black,man,,,,null,,,,,,,,,
19237.3,,,survey-text,273,1654067,0.0-17.0-3.11,16972,List2A,black,man,,,,,"{""Q0"":""Luke is hugging Fred""}","<img src=""stim_listA/hug5.gif""style=""height:400px;""></stim_listA>",is hugging,,,,,,
null,"<div style=""font-size:60px;"">+</div>",,html-keyboard-response,274,1654570,0.0-17.0-0.12,16972,List2A,black,man,,,,null,,,,,,,,,
null,"<img src=""stim_listA/seduce6.gif""style=""height:400px;""></stim_listA>",,html-keyboard-response,275,1656579,0.0-17.0-1.12,16972,List2A,black,man,,,,null,,,,,,,,,
null,is being seduced by,,html-keyboard-response,276,1658591,0.0-17.0-2.12,16972,List2A,black,man,,,,null,,,,,,,,,
11421.7,,,survey-text,277,1670019,0.0-17.0-3.12,16972,List2A,black,man,,,,,"{""Q0"":""Fred is being seduced by Dave""}","<img src=""stim_listA/seduce6.gif""style=""height:400px;""></stim_listA>",is being seduced by,,,,,,
null,"<div style=""font-size:60px;"">+</div>",,html-keyboard-response,278,1670525,0.0-17.0-0.13,16972,List2A,black,man,,,,null,,,,,,,,,
null,"<img src=""stim_listA/oppose1.gif""style=""height:400px;""></stim_listA>",,html-keyboard-response,279,1672544,0.0-17.0-1.13,16972,List2A,black,man,,,,null,,,,,,,,,
null,is opposing,,html-keyboard-response,280,1674555,0.0-17.0-2.13,16972,List2A,black,man,,,,null,,,,,,,,,
14525.3,,,survey-text,281,1689087,0.0-17.0-3.13,16972,List2A,black,man,,,,,"{""Q0"":""Jane is opposing Dave""}","<img src=""stim_listA/oppose1.gif""style=""height:400px;""></stim_listA>",is opposing,,,,,,
null,"<div style=""font-size:60px;"">+</div>",,html-keyboard-response,282,1689599,0.0-17.0-0.14,16972,List2A,black,man,,,,null,,,,,,,,,
null,"<img src=""stim_listA/greet3.gif""style=""height:400px;""></stim_listA>",,html-keyboard-response,283,1691609,0.0-17.0-1.14,16972,List2A,black,man,,,,null,,,,,,,,,
null,is greeting,,html-keyboard-response,284,1693620,0.0-17.0-2.14,16972,List2A,black,man,,,,null,,,,,,,,,
13475.2,,,survey-text,285,1707103,0.0-17.0-3.14,16972,List2A,black,man,,,,,"{""Q0"":""Mike is greeted by Beth""}","<img src=""stim_listA/greet3.gif""style=""height:400px;""></stim_listA>",is greeting,,,,,,
null,"<div style=""font-size:60px;"">+</div>",,html-keyboard-response,286,1707621,0.0-17.0-0.15,16972,List2A,black,man,,,,null,,,,,,,,,
null,"<img src=""stim_listA/shout5.gif""style=""height:400px;""></stim_listA>",,html-keyboard-response,287,1709627,0.0-17.0-1.15,16972,List2A,black,man,,,,null,,,,,,,,,
null,is shouting at,,html-keyboard-response,288,1711633,0.0-17.0-2.15,16972,List2A,black,man,,,,null,,,,,,,,,
54804.1,,,survey-text,289,1766443,0.0-17.0-3.15,16972,List2A,black,man,,,,,"{""Q0"":""Luke is shouted at by Fred""}","<img src=""stim_listA/shout5.gif""style=""height:400px;""></stim_listA>",is shouting at,,,,,,
null,"<div style=""font-size:60px;"">+</div>",,html-keyboard-response,290,1766948,0.0-17.0-0.16,16972,List2A,black,man,,,,null,,,,,,,,,
null,"<img src=""stim_listA/oppose5.gif""style=""height:400px;""></stim_listA>",,html-keyboard-response,291,1768953,0.0-17.0-1.16,16972,List2A,black,man,,,,null,,,,,,,,,
null,is opposing,,html-keyboard-response,292,1770956,0.0-17.0-2.16,16972,List2A,black,man,,,,null,,,,,,,,,
8903.2,,,survey-text,293,1779866,0.0-17.0-3.16,16972,List2A,black,man,,,,,"{""Q0"":""Dave is opposing Mike""}","<img src=""stim_listA/oppose5.gif""style=""height:400px;""></stim_listA>",is opposing,,,,,,
null,"<div style=""font-size:60px;"">+</div>",,html-keyboard-response,294,1780370,0.0-17.0-0.17,16972,List2A,black,man,,,,null,,,,,,,,,
null,"<img src=""stim_listA/challenge4.gif""style=""height:400px;""></stim_listA>",,html-keyboard-response,295,1782372,0.0-17.0-1.17,16972,List2A,black,man,,,,null,,,,,,,,,
null,is being challenged by,,html-keyboard-response,296,1784375,0.0-17.0-2.17,16972,List2A,black,man,,,,null,,,,,,,,,
16520.9,,,survey-text,297,1800906,0.0-17.0-3.17,16972,List2A,black,man,,,,,"{""Q0"":""Fred is being challenged by Kate""}","<img src=""stim_listA/challenge4.gif""style=""height:400px;""></stim_listA>",is being challenged by,,,,,,
null,"<div style=""font-size:60px;"">+</div>",,html-keyboard-response,298,1801411,0.0-17.0-0.18,16972,List2A,black,man,,,,null,,,,,,,,,
null,"<img src=""stim_listA/touch5.gif""style=""height:400px;""></stim_listA>",,html-keyboard-response,299,1803415,0.0-17.0-1.18,16972,List2A,black,man,,,,null,,,,,,,,,
null,is touching,,html-keyboard-response,300,1805433,0.0-17.0-2.18,16972,List2A,black,man,,,,null,,,,,,,,,
8903.8,,,survey-text,301,1814343,0.0-17.0-3.18,16972,List2A,black,man,,,,,"{""Q0"":""Mike is touching dave""}","<img src=""stim_listA/touch5.gif""style=""height:400px;""></stim_listA>",is touching,,,,,,
null,"<div style=""font-size:60px;"">+</div>",,html-keyboard-response,302,1814846,0.0-17.0-0.19,16972,List2A,black,man,,,,null,,,,,,,,,
null,"<img src=""stim_listA/seduce1.gif""style=""height:400px;""></stim_listA>",,html-keyboard-response,303,1816849,0.0-17.0-1.19,16972,List2A,black,man,,,,null,,,,,,,,,
null,is seducing,,html-keyboard-response,304,1818855,0.0-17.0-2.19,16972,List2A,black,man,,,,null,,,,,,,,,
17768.8,,,survey-text,305,1836630,0.0-17.0-3.19,16972,List2A,black,man,,,,,"{""Q0"":""Luke is seducing jane""}","<img src=""stim_listA/seduce1.gif""style=""height:400px;""></stim_listA>",is seducing,,,,,,
2697.8,"<img src='img/portrait_matrix_list2.jpg' style='width:900px;height:500px;''></img><p>If you have memorised all the portraits and names and are ready to start, press Continue.</p><p><strong>Please note: Your memory of these faces will be tested 4 times during this experiment.</strong></p>",0,html-button-response,306,1839333,0.0-18.0-0.0,16972,List2A,black,man,,,,,,,,,,,,,
2841.3,"<img src=""portrait/BM2.jpg""style=""height:400px;""></img>",5,html-button-response,307,1843177,0.0-18.0-1.0,16972,List2A,black,man,,TRUE,5,,,,,,,,,,
null,CORRECT,,html-keyboard-response,308,1844680,0.0-18.0-2.0-0.0,16972,List2A,black,man,,,,null,,,,,,,,,
1940.6,"<img src=""portrait/BM1.jpg""style=""height:400px;""></img>",4,html-button-response,309,1846624,0.0-18.0-4.0,16972,List2A,black,man,,TRUE,4,,,,,,,,,,
null,CORRECT,,html-keyboard-response,310,1848128,0.0-18.0-5.0-0.0,16972,List2A,black,man,,,,null,,,,,,,,,
2412.3,"<img src=""portrait/WM2.jpg""style=""height:400px;""></img>",7,html-button-response,311,1850544,0.0-18.0-7.0,16972,List2A,black,man,,TRUE,7,,,,,,,,,,
null,CORRECT,,html-keyboard-response,312,1852047,0.0-18.0-8.0-0.0,16972,List2A,black,man,,,,null,,,,,,,,,
2857.7,"<img src=""portrait/WW1.jpg""style=""height:400px;""></img>",1,html-button-response,313,1854907,0.0-18.0-10.0,16972,List2A,black,man,,TRUE,1,,,,,,,,,,
null,CORRECT,,html-keyboard-response,314,1856412,0.0-18.0-11.0-0.0,16972,List2A,black,man,,,,null,,,,,,,,,
2939.2,"<img src=""portrait/BW2.jpg""style=""height:400px;""></img>",2,html-button-response,315,1859355,0.0-18.0-13.0,16972,List2A,black,man,,TRUE,2,,,,,,,,,,
null,CORRECT,,html-keyboard-response,316,1860859,0.0-18.0-14.0-0.0,16972,List2A,black,man,,,,null,,,,,,,,,
2236.5,"<img src=""portrait/BW1.jpg""style=""height:400px;""></img>",0,html-button-response,317,1863098,0.0-18.0-16.0,16972,List2A,black,man,,TRUE,0,,,,,,,,,,
null,CORRECT,,html-keyboard-response,318,1864601,0.0-18.0-17.0-0.0,16972,List2A,black,man,,,,null,,,,,,,,,
2772.8,"<img src=""portrait/WW2.jpg""style=""height:400px;""></img>",3,html-button-response,319,1867376,0.0-18.0-19.0,16972,List2A,black,man,,TRUE,3,,,,,,,,,,
null,CORRECT,,html-keyboard-response,320,1868879,0.0-18.0-20.0-0.0,16972,List2A,black,man,,,,null,,,,,,,,,
2629.8,"<img src=""portrait/WM1.jpg""style=""height:400px;""></img>",6,html-button-response,321,1871513,0.0-18.0-22.0,16972,List2A,black,man,,TRUE,6,,,,,,,,,,
null,CORRECT,,html-keyboard-response,322,1873018,0.0-18.0-23.0-0.0,16972,List2A,black,man,,,,null,,,,,,,,,
1917.7,<p>You got 8 out of 8 right first time. Press Continue.</p>,0,html-button-response,323,1874939,0.0-18.0-25.0,16972,List2A,black,man,,,,,,,,,,,,,
null,"<div style=""font-size:60px;"">+</div>",,html-keyboard-response,324,1876444,0.0-19.0-0.0,16972,List2A,black,man,,,,null,,,,,,,,,
null,"<img src=""stim_listA/copy5.gif""style=""height:400px;""></stim_listA>",,html-keyboard-response,325,1878448,0.0-19.0-1.0,16972,List2A,black,man,,,,null,,,,,,,,,
null,is copying,,html-keyboard-response,326,1880450,0.0-19.0-2.0,16972,List2A,black,man,,,,null,,,,,,,,,
9348,,,survey-text,327,1889804,0.0-19.0-3.0,16972,List2A,black,man,,,,,"{""Q0"":""Fred is copying dave""}","<img src=""stim_listA/copy5.gif""style=""height:400px;""></stim_listA>",is copying,,,,,,
null,"<div style=""font-size:60px;"">+</div>",,html-keyboard-response,328,1890306,0.0-19.0-0.1,16972,List2A,black,man,,,,null,,,,,,,,,
null,"<img src=""stim_listA/copy2.gif""style=""height:400px;""></stim_listA>",,html-keyboard-response,329,1892315,0.0-19.0-1.1,16972,List2A,black,man,,,,null,,,,,,,,,
null,is being copied by,,html-keyboard-response,330,1894318,0.0-19.0-2.1,16972,List2A,black,man,,,,null,,,,,,,,,
12585.8,,,survey-text,331,1906910,0.0-19.0-3.1,16972,List2A,black,man,,,,,"{""Q0"":""Luke is being copied by Jane""}","<img src=""stim_listA/copy2.gif""style=""height:400px;""></stim_listA>",is being copied by,,,,,,
null,"<div style=""font-size:60px;"">+</div>",,html-keyboard-response,332,1907413,0.0-19.0-0.2,16972,List2A,black,man,,,,null,,,,,,,,,
null,"<img src=""stim_listA/touch3.gif""style=""height:400px;""></stim_listA>",,html-keyboard-response,333,1909417,0.0-19.0-1.2,16972,List2A,black,man,,,,null,,,,,,,,,
null,is touching,,html-keyboard-response,334,1911418,0.0-19.0-2.2,16972,List2A,black,man,,,,null,,,,,,,,,
7694.6,,,survey-text,335,1919123,0.0-19.0-3.2,16972,List2A,black,man,,,,,"{""Q0"":""mike is touching kate""}","<img src=""stim_listA/touch3.gif""style=""height:400px;""></stim_listA>",is touching,,,,,,
null,"<div style=""font-size:60px;"">+</div>",,html-keyboard-response,336,1919625,0.0-19.0-0.3,16972,List2A,black,man,,,,null,,,,,,,,,
null,"<img src=""stim_listA/copy1.gif""style=""height:400px;""></stim_listA>",,html-keyboard-response,337,1921631,0.0-19.0-1.3,16972,List2A,black,man,,,,null,,,,,,,,,
null,is copying,,html-keyboard-response,338,1923633,0.0-19.0-2.3,16972,List2A,black,man,,,,null,,,,,,,,,
9185.9,,,survey-text,339,1932825,0.0-19.0-3.3,16972,List2A,black,man,,,,,"{""Q0"":""Ruth is copying Dave""}","<img src=""stim_listA/copy1.gif""style=""height:400px;""></stim_listA>",is copying,,,,,,
null,"<div style=""font-size:60px;"">+</div>",,html-keyboard-response,340,1933331,0.0-19.0-0.4,16972,List2A,black,man,,,,null,,,,,,,,,
null,"<img src=""stim_listA/look1.gif""style=""height:400px;""></stim_listA>",,html-keyboard-response,341,1935340,0.0-19.0-1.4,16972,List2A,black,man,,,,null,,,,,,,,,
null,is looking at,,html-keyboard-response,342,1937349,0.0-19.0-2.4,16972,List2A,black,man,,,,null,,,,,,,,,
9299.6,,,survey-text,343,1946656,0.0-19.0-3.4,16972,List2A,black,man,,,,,"{""Q0"":""Ruth is looking at luke""}","<img src=""stim_listA/look1.gif""style=""height:400px;""></stim_listA>",is looking at,,,,,,
null,"<div style=""font-size:60px;"">+</div>",,html-keyboard-response,344,1947169,0.0-19.0-0.5,16972,List2A,black,man,,,,null,,,,,,,,,
null,"<img src=""stim_listA/challenge1.gif""style=""height:400px;""></stim_listA>",,html-keyboard-response,345,1949188,0.0-19.0-1.5,16972,List2A,black,man,,,,null,,,,,,,,,
null,is challenging,,html-keyboard-response,346,1951193,0.0-19.0-2.5,16972,List2A,black,man,,,,null,,,,,,,,,
137113.3,,,survey-text,347,2088315,0.0-19.0-3.5,16972,List2A,black,man,,,,,"{""Q0"":""Dave is challenging ruth""}","<img src=""stim_listA/challenge1.gif""style=""height:400px;""></stim_listA>",is challenging,,,,,,
null,"<div style=""font-size:60px;"">+</div>",,html-keyboard-response,348,2088820,0.0-19.0-0.6,16972,List2A,black,man,,,,null,,,,,,,,,
null,"<img src=""stim_listA/oppose7.gif""style=""height:400px;""></stim_listA>",,html-keyboard-response,349,2090829,0.0-19.0-1.6,16972,List2A,black,man,,,,null,,,,,,,,,
null,is opposing,,html-keyboard-response,350,2092835,0.0-19.0-2.6,16972,List2A,black,man,,,,null,,,,,,,,,
14118.9,,,survey-text,351,2106963,0.0-19.0-3.6,16972,List2A,black,man,,,,,"{""Q0"":""Jane is opposing kate""}","<img src=""stim_listA/oppose7.gif""style=""height:400px;""></stim_listA>",is opposing,,,,,,
null,"<div style=""font-size:60px;"">+</div>",,html-keyboard-response,352,2107481,0.0-19.0-0.7,16972,List2A,black,man,,,,null,,,,,,,,,
null,"<img src=""stim_listA/kiss8.gif""style=""height:400px;""></stim_listA>",,html-keyboard-response,353,2109499,0.0-19.0-1.7,16972,List2A,black,man,,,,null,,,,,,,,,
null,is being kissed by,,html-keyboard-response,354,2111515,0.0-19.0-2.7,16972,List2A,black,man,,,,null,,,,,,,,,
12136.6,,,survey-text,355,2123660,0.0-19.0-3.7,16972,List2A,black,man,,,,,"{""Q0"":""Kate is being kissed by jane""}","<img src=""stim_listA/kiss8.gif""style=""height:400px;""></stim_listA>",is being kissed by,,,,,,
null,"<div style=""font-size:60px;"">+</div>",,html-keyboard-response,356,2124171,0.0-19.0-0.8,16972,List2A,black,man,,,,null,,,,,,,,,
null,"<img src=""stim_listA/challenge8.gif""style=""height:400px;""></stim_listA>",,html-keyboard-response,357,2126174,0.0-19.0-1.8,16972,List2A,black,man,,,,null,,,,,,,,,
null,is being challenged by,,html-keyboard-response,358,2128191,0.0-19.0-2.8,16972,List2A,black,man,,,,null,,,,,,,,,
13553.9,,,survey-text,359,2141752,0.0-19.0-3.8,16972,List2A,black,man,,,,,"{""Q0"":""Ruth is being challenged by kate""}","<img src=""stim_listA/challenge8.gif""style=""height:400px;""></stim_listA>",is being challenged by,,,,,,
null,"<div style=""font-size:60px;"">+</div>",,html-keyboard-response,360,2142265,0.0-19.0-0.9,16972,List2A,black,man,,,,null,,,,,,,,,
null,"<img src=""stim_listA/seduce7.gif""style=""height:400px;""></stim_listA>",,html-keyboard-response,361,2144270,0.0-19.0-1.9,16972,List2A,black,man,,,,null,,,,,,,,,
null,is seducing,,html-keyboard-response,362,2146277,0.0-19.0-2.9,16972,List2A,black,man,,,,null,,,,,,,,,
9866.3,,,survey-text,363,2156150,0.0-19.0-3.9,16972,List2A,black,man,,,,,"{""Q0"":""Ruth is seducing jane""}","<img src=""stim_listA/seduce7.gif""style=""height:400px;""></stim_listA>",is seducing,,,,,,
null,"<div style=""font-size:60px;"">+</div>",,html-keyboard-response,364,2156652,0.0-19.0-0.10,16972,List2A,black,man,,,,null,,,,,,,,,
null,"<img src=""stim_listA/seduce4.gif""style=""height:400px;""></stim_listA>",,html-keyboard-response,365,2158660,0.0-19.0-1.10,16972,List2A,black,man,,,,null,,,,,,,,,
null,is being seduced by,,html-keyboard-response,366,2160666,0.0-19.0-2.10,16972,List2A,black,man,,,,null,,,,,,,,,
10728.8,,,survey-text,367,2171400,0.0-19.0-3.10,16972,List2A,black,man,,,,,"{""Q0"":""Mike is being seduced by beth""}","<img src=""stim_listA/seduce4.gif""style=""height:400px;""></stim_listA>",is being seduced by,,,,,,
null,"<div style=""font-size:60px;"">+</div>",,html-keyboard-response,368,2171908,0.0-19.0-0.11,16972,List2A,black,man,,,,null,,,,,,,,,
null,"<img src=""stim_listA/kiss4.gif""style=""height:400px;""></stim_listA>",,html-keyboard-response,369,2173921,0.0-19.0-1.11,16972,List2A,black,man,,,,null,,,,,,,,,
null,is being kissed by,,html-keyboard-response,370,2175924,0.0-19.0-2.11,16972,List2A,black,man,,,,null,,,,,,,,,
11022.6,,,survey-text,371,2186954,0.0-19.0-3.11,16972,List2A,black,man,,,,,"{""Q0"":""mike is being kissed by kate""}","<img src=""stim_listA/kiss4.gif""style=""height:400px;""></stim_listA>",is being kissed by,,,,,,
null,"<div style=""font-size:60px;"">+</div>",,html-keyboard-response,372,2187461,0.0-19.0-0.12,16972,List2A,black,man,,,,null,,,,,,,,,
null,"<img src=""stim_listA/hug8.gif""style=""height:400px;""></stim_listA>",,html-keyboard-response,373,2189469,0.0-19.0-1.12,16972,List2A,black,man,,,,null,,,,,,,,,
null,is being hugged by,,html-keyboard-response,374,2191478,0.0-19.0-2.12,16972,List2A,black,man,,,,null,,,,,,,,,
11765.6,,,survey-text,375,2203252,0.0-19.0-3.12,16972,List2A,black,man,,,,,"{""Q0"":""jane is being hugged by kate""}","<img src=""stim_listA/hug8.gif""style=""height:400px;""></stim_listA>",is being hugged by,,,,,,
null,"<div style=""font-size:60px;"">+</div>",,html-keyboard-response,376,2203764,0.0-19.0-0.13,16972,List2A,black,man,,,,null,,,,,,,,,
null,"<img src=""stim_listA/greet2.gif""style=""height:400px;""></stim_listA>",,html-keyboard-response,377,2205777,0.0-19.0-1.13,16972,List2A,black,man,,,,null,,,,,,,,,
null,is being greeted by,,html-keyboard-response,378,2207780,0.0-19.0-2.13,16972,List2A,black,man,,,,null,,,,,,,,,
11626.9,,,survey-text,379,2219414,0.0-19.0-3.13,16972,List2A,black,man,,,,,"{""Q0"":""luke is being greeted by jane""}","<img src=""stim_listA/greet2.gif""style=""height:400px;""></stim_listA>",is being greeted by,,,,,,
null,"<div style=""font-size:60px;"">+</div>",,html-keyboard-response,380,2219926,0.0-19.0-0.14,16972,List2A,black,man,,,,null,,,,,,,,,
null,"<img src=""stim_listA/shout3.gif""style=""height:400px;""></stim_listA>",,html-keyboard-response,381,2221933,0.0-19.0-1.14,16972,List2A,black,man,,,,null,,,,,,,,,
null,is shouting at,,html-keyboard-response,382,2223940,0.0-19.0-2.14,16972,List2A,black,man,,,,null,,,,,,,,,
8130.9,,,survey-text,383,2232077,0.0-19.0-3.14,16972,List2A,black,man,,,,,"{""Q0"":""beth is shouting at fred""}","<img src=""stim_listA/shout3.gif""style=""height:400px;""></stim_listA>",is shouting at,,,,,,
null,"<div style=""font-size:60px;"">+</div>",,html-keyboard-response,384,2232586,0.0-19.0-0.15,16972,List2A,black,man,,,,null,,,,,,,,,
null,"<img src=""stim_listA/kiss3.gif""style=""height:400px;""></stim_listA>",,html-keyboard-response,385,2234596,0.0-19.0-1.15,16972,List2A,black,man,,,,null,,,,,,,,,
null,is kissing,,html-keyboard-response,386,2236604,0.0-19.0-2.15,16972,List2A,black,man,,,,null,,,,,,,,,
7832.1,,,survey-text,387,2244441,0.0-19.0-3.15,16972,List2A,black,man,,,,,"{""Q0"":""beth is kissing fred""}","<img src=""stim_listA/kiss3.gif""style=""height:400px;""></stim_listA>",is kissing,,,,,,
null,"<div style=""font-size:60px;"">+</div>",,html-keyboard-response,388,2244950,0.0-19.0-0.16,16972,List2A,black,man,,,,null,,,,,,,,,
null,"<img src=""stim_listA/oppose4.gif""style=""height:400px;""></stim_listA>",,html-keyboard-response,389,2246955,0.0-19.0-1.16,16972,List2A,black,man,,,,null,,,,,,,,,
null,is being opposed by,,html-keyboard-response,390,2248966,0.0-19.0-2.16,16972,List2A,black,man,,,,null,,,,,,,,,
13169.6,,,survey-text,391,2262147,0.0-19.0-3.16,16972,List2A,black,man,,,,,"{""Q0"":""beth is being opposed by fred""}","<img src=""stim_listA/oppose4.gif""style=""height:400px;""></stim_listA>",is being opposed by,,,,,,
null,"<div style=""font-size:60px;"">+</div>",,html-keyboard-response,392,2262656,0.0-19.0-0.17,16972,List2A,black,man,,,,null,,,,,,,,,
null,"<img src=""stim_listA/greet1.gif""style=""height:400px;""></stim_listA>",,html-keyboard-response,393,2264660,0.0-19.0-1.17,16972,List2A,black,man,,,,null,,,,,,,,,
null,is greeting,,html-keyboard-response,394,2266666,0.0-19.0-2.17,16972,List2A,black,man,,,,null,,,,,,,,,
8656.6,,,survey-text,395,2275328,0.0-19.0-3.17,16972,List2A,black,man,,,,,"{""Q0"":""ruth is greeting dave""}","<img src=""stim_listA/greet1.gif""style=""height:400px;""></stim_listA>",is greeting,,,,,,
null,"<div style=""font-size:60px;"">+</div>",,html-keyboard-response,396,2275834,0.0-19.0-0.18,16972,List2A,black,man,,,,null,,,,,,,,,
null,"<img src=""stim_listA/look7.gif""style=""height:400px;""></stim_listA>",,html-keyboard-response,397,2277839,0.0-19.0-1.18,16972,List2A,black,man,,,,null,,,,,,,,,
null,is looking at,,html-keyboard-response,398,2279845,0.0-19.0-2.18,16972,List2A,black,man,,,,null,,,,,,,,,
8506.7,,,survey-text,399,2288358,0.0-19.0-3.18,16972,List2A,black,man,,,,,"{""Q0"":""Beth is looking at ruth""}","<img src=""stim_listA/look7.gif""style=""height:400px;""></stim_listA>",is looking at,,,,,,
null,"<div style=""font-size:60px;"">+</div>",,html-keyboard-response,400,2288869,0.0-19.0-0.19,16972,List2A,black,man,,,,null,,,,,,,,,
null,"<img src=""stim_listA/shout4.gif""style=""height:400px;""></stim_listA>",,html-keyboard-response,401,2290881,0.0-19.0-1.19,16972,List2A,black,man,,,,null,,,,,,,,,
null,is being shouted at by,,html-keyboard-response,402,2292885,0.0-19.0-2.19,16972,List2A,black,man,,,,null,,,,,,,,,
13592,,,survey-text,403,2306485,0.0-19.0-3.19,16972,List2A,black,man,,,,,"{""Q0"":""mike is being shouted at by kate""}","<img src=""stim_listA/shout4.gif""style=""height:400px;""></stim_listA>",is being shouted at by,,,,,,
3639.6,<p>Thank you for completing that task.</p><p>The final part of this session is a questionnaire that will take about 4 minutes.</p><p>Press Continue.</p>,0,html-button-response,404,2310131,0.0-20.0,16972,List2A,black,man,,,,,,,,,,,,,
27193.3,,,survey-text,405,2338357,0.0-21.0,16972,List2A,black,man,,,,,"{""Q0"":""35"",""Q1"":""english"",""Q2"":""english"",""Q3"":""USA"",""Q4"":""NIGERIA"",""Q5"":""AFRICAN"",""Q6"":""MALE""}",,,demographics,,,,,
2990.9,<p>Have you lived in the USA for the last 5 years or more?</p>,0,html-button-response,406,2341356,0.0-22.0,16972,List2A,black,man,,,,,,,,fiveyears,,,,,
3464.6,<p>Move the slider to show the extent to which you agree with the following statements.</p>,0,html-button-response,407,2345836,0.0-23.0,16972,List2A,black,man,,,,,,,,,,,,,
9124,,,html-slider-response,408,2355971,0.0-24.0-0.0-0.0,16972,List2A,black,man,,,,,,,,survey_race,71,,,"The older I get, the wiser I feel.",filler
22264.8,,,html-slider-response,409,2378240,0.0-24.0-0.0-0.1,16972,List2A,black,man,,,,,,,,survey_race,69,,,I often think about the fact that I am my race.,often
4998.1,,,html-slider-response,410,2383241,0.0-24.0-0.0-0.2,16972,List2A,black,man,,,,,,,,survey_race,79,,,I feel a bond with people the same age as me.,filler
7089.8,,,html-slider-response,411,2390336,0.0-24.0-0.0-0.3,16972,List2A,black,man,,,,,,,,survey_race,46,,,I am glad to be my age.,filler
5962.8,,,html-slider-response,412,2396304,0.0-24.0-0.0-0.4,16972,List2A,black,man,,,,,,,,survey_race,36,,,Getting older does not worry me.,filler
4198,,,html-slider-response,413,2400511,0.0-24.0-0.0-0.5,16972,List2A,black,man,,,,,,,,survey_race,66,,,I consider myself an introvert.,filler
10597.3,,,html-slider-response,414,2411115,0.0-24.0-0.0-0.6,16972,List2A,black,man,,,,,,,,survey_race,67,,,I feel solidarity with people the same age as me.,filler
6148.4,,,html-slider-response,415,2417270,0.0-24.0-0.0-0.7,16972,List2A,black,man,,,,,,,,survey_race,41,,,My age is not an important part of who I am.,filler
18692.6,,,html-slider-response,416,2435968,0.0-24.0-0.0-0.8,16972,List2A,black,man,,,,,,,,survey_race,73,,,It is pleasant to be my race.,pleasant
4131.7,,,html-slider-response,417,2440105,0.0-24.0-0.0-0.9,16972,List2A,black,man,,,,,,,,survey_race,78,,,Being my race gives me a good feeling.,feeling
3446.5,,,html-slider-response,418,2443557,0.0-24.0-0.0-0.10,16972,List2A,black,man,,,,,,,,survey_race,65,,,I enjoy being in large groups.,filler
5156.7,,,html-slider-response,419,2448717,0.0-24.0-0.0-0.11,16972,List2A,black,man,,,,,,,,survey_race,73,,,I have a lot in common with people of a similar age to me.,filler
4676.5,,,html-slider-response,420,2453398,0.0-24.0-0.0-0.12,16972,List2A,black,man,,,,,,,,survey_race,80,,,I feel committed to my race.,committed
4737.7,,,html-slider-response,421,2458139,0.0-24.0-0.0-0.13,16972,List2A,black,man,,,,,,,,survey_race,43,,,People of my race are very similar to each other.,verysimilar
4201.7,,,html-slider-response,422,2462346,0.0-24.0-0.0-0.14,16972,List2A,black,man,,,,,,,,survey_race,32,,,I consider myself an extrovert.,filler
3783.4,,,html-slider-response,423,2466134,0.0-24.0-0.0-0.15,16972,List2A,black,man,,,,,,,,survey_race,73,,,I feel solidarity with my race.,solidarity
5014.2,,,html-slider-response,424,2471152,0.0-24.0-0.0-0.16,16972,List2A,black,man,,,,,,,,survey_race,78,,,The fact that I am my race is an important part of my identity.,identity
5562.1,,,html-slider-response,425,2476719,0.0-24.0-0.0-0.17,16972,List2A,black,man,,,,,,,,survey_race,78,,,Being my race is an important part of how I see myself.,important
6795.2,,,html-slider-response,426,2483519,0.0-24.0-0.0-0.18,16972,List2A,black,man,,,,,,,,survey_race,48,,,Being my age gives me a good feeling.,filler
7163.1,,,html-slider-response,427,2490687,0.0-24.0-0.0-0.19,16972,List2A,black,man,,,,,,,,survey_race,52,,,I have a lot in common with the average person of my race.,average
8778.8,,,html-slider-response,428,2499472,0.0-24.0-0.0-0.20,16972,List2A,black,man,,,,,,,,survey_race,100,,,I think that my race has a lot to be proud of.,proud
7389.5,,,html-slider-response,429,2506868,0.0-24.0-0.0-0.21,16972,List2A,black,man,,,,,,,,survey_race,50,,,People of my race have a lot in common with each other.,common
4725.7,,,html-slider-response,430,2511602,0.0-24.0-0.0-0.22,16972,List2A,black,man,,,,,,,,survey_race,44,,,I am glad to be the age I am.,filler
5452.1,,,html-slider-response,431,2517058,0.0-24.0-0.0-0.23,16972,List2A,black,man,,,,,,,,survey_race,55,,,I am similar to the average person of my race.,similar
7510,,,html-slider-response,432,2524574,0.0-24.0-0.0-0.24,16972,List2A,black,man,,,,,,,,survey_race,64,,,I often think about the fact that I am my age.,filler
4647.7,,,html-slider-response,433,2529227,0.0-24.0-0.0-0.25,16972,List2A,black,man,,,,,,,,survey_race,80,,,I am glad to be my race.,glad
5746.4,,,html-slider-response,434,2534978,0.0-24.0-0.0-0.26,16972,List2A,black,man,,,,,,,,survey_race,81,,,I feel a bond with my race.,bond
5522.4,,,html-slider-response,435,2540504,0.0-24.0-0.0-0.27,16972,List2A,black,man,,,,,,,,survey_race,47,,,People my age have a lot in common with each other.,filler
6012.5,,,html-slider-response,436,2546523,0.0-24.0-1.0-0.0,16972,List2A,black,man,,,,,,,,survey_gender,82,,,The fact that I am my gender is an important part of my identity.,identity
5583.9,,,html-slider-response,437,2552111,0.0-24.0-1.0-0.1,16972,List2A,black,man,,,,,,,,survey_gender,35,,,Routine is not important to me.,filler
5617.5,,,html-slider-response,438,2557733,0.0-24.0-1.0-0.2,16972,List2A,black,man,,,,,,,,survey_gender,7,,,I would say I am an animal person.,filler
7489.4,,,html-slider-response,439,2565228,0.0-24.0-1.0-0.3,16972,List2A,black,man,,,,,,,,survey_gender,73,,,Being my gender gives me a good feeling.,feeling
9531.5,,,html-slider-response,440,2574764,0.0-24.0-1.0-0.4,16972,List2A,black,man,,,,,,,,survey_gender,64,,,Most of the friends in my life are very similar to me.,filler
4302.8,,,html-slider-response,441,2579072,0.0-24.0-1.0-0.5,16972,List2A,black,man,,,,,,,,survey_gender,78,,,Being around my friends gives me a good feeling.,filler
9299.3,,,html-slider-response,442,2588377,0.0-24.0-1.0-0.6,16972,List2A,black,man,,,,,,,,survey_gender,24,,,People of my gender are very similar to each other.,verysimilar
3397.8,,,html-slider-response,443,2591780,0.0-24.0-1.0-0.7,16972,List2A,black,man,,,,,,,,survey_gender,67,,,I often think about my actions.,filler
4936.3,,,html-slider-response,444,2596721,0.0-24.0-1.0-0.8,16972,List2A,black,man,,,,,,,,survey_gender,32,,,I feel a bond with my gender.,bond
5440.6,,,html-slider-response,445,2602168,0.0-24.0-1.0-0.9,16972,List2A,black,man,,,,,,,,survey_gender,78,,,I feel a bond with my friends.,filler
6891.2,,,html-slider-response,446,2609064,0.0-24.0-1.0-0.10,16972,List2A,black,man,,,,,,,,survey_gender,63,,,I often think about the fact that I am my gender.,often
4459.8,,,html-slider-response,447,2613529,0.0-24.0-1.0-0.11,16972,List2A,black,man,,,,,,,,survey_gender,22,,,I feel solidarity with my gender.,solidarity
3659.7,,,html-slider-response,448,2617193,0.0-24.0-1.0-0.12,16972,List2A,black,man,,,,,,,,survey_gender,73,,,I consider myself a highly empathetic person.,filler
5097.1,,,html-slider-response,449,2622293,0.0-24.0-1.0-0.13,16972,List2A,black,man,,,,,,,,survey_gender,25,,,People of my gender have a lot in common with each other.,common
15957,,,html-slider-response,450,2638254,0.0-24.0-1.0-0.14,16972,List2A,black,man,,,,,,,,survey_gender,35,,,Family is not more important to me than friendship.,filler
5057.6,,,html-slider-response,451,2643317,0.0-24.0-1.0-0.15,16972,List2A,black,man,,,,,,,,survey_gender,83,,,I am glad to have the friends that I have.,filler
6255.7,,,html-slider-response,452,2649577,0.0-24.0-1.0-0.16,16972,List2A,black,man,,,,,,,,survey_gender,74,,,Being my gender is an important part of how I see myself.,important
7885.2,,,html-slider-response,453,2657467,0.0-24.0-1.0-0.17,16972,List2A,black,man,,,,,,,,survey_gender,77,,,I feel solidarity with my friends.,filler
6375.5,,,html-slider-response,454,2663847,0.0-24.0-1.0-0.18,16972,List2A,black,man,,,,,,,,survey_gender,45,,,My friends have a lot in common with each other.,filler
4201.6,,,html-slider-response,455,2668054,0.0-24.0-1.0-0.19,16972,List2A,black,man,,,,,,,,survey_gender,54,,,I have a lot in common with my friends.,filler
5938.5,,,html-slider-response,456,2673998,0.0-24.0-1.0-0.20,16972,List2A,black,man,,,,,,,,survey_gender,46,,,I am similar to the average person of my gender.,similar
7515.1,,,html-slider-response,457,2681517,0.0-24.0-1.0-0.21,16972,List2A,black,man,,,,,,,,survey_gender,85,,,I feel committed to my gender.,committed
10471.5,,,html-slider-response,458,2691994,0.0-24.0-1.0-0.22,16972,List2A,black,man,,,,,,,,survey_gender,37,,,It is not always easy for people to know what I am thinking.,filler
4652.9,,,html-slider-response,459,2696652,0.0-24.0-1.0-0.23,16972,List2A,black,man,,,,,,,,survey_gender,68,,,It is pleasant to be my gender.,pleasant
5108.9,,,html-slider-response,460,2701764,0.0-24.0-1.0-0.24,16972,List2A,black,man,,,,,,,,survey_gender,37,,,I have a lot in common with the average person of my gender.,average
2680.1,,,html-slider-response,461,2704448,0.0-24.0-1.0-0.25,16972,List2A,black,man,,,,,,,,survey_gender,78,,,My friends understand me.,filler
2106.6,,,html-slider-response,462,2706558,0.0-24.0-1.0-0.26,16972,List2A,black,man,,,,,,,,survey_gender,80,,,I am glad to be my gender.,glad
3506.4,,,html-slider-response,463,2710069,0.0-24.0-1.0-0.27,16972,List2A,black,man,,,,,,,,survey_gender,86,,,I think that my gender has a lot to be proud of.,proud
4441,,,survey-text,464,2714520,0.0-25.0,16972,List2A,black,man,,,,,"{""Q0"":""ccc""}",,,worker_id,,,,,
9792.3,,,external-html,465,2724980,0.0-26.0,16972,List2A,black,man,debrief.html,,,,,,,,,,,,
