rt,stimulus,button_pressed,trial_type,trial_index,time_elapsed,internal_node_id,subject,list,ppt_race,ppt_gender,url,first_guess,correct,key_press,responses,image_type,phrase_type,test_part,response,stimulus1,stimulus2,question_type,survey_item
4104,Welcome to the experiment. Press Continue to begin.,0,html-button-response,0,4113,0.0-0.0,17210,List2A,white,man,,,,,,,,,,,,,
9104,,,external-html,1,14918,0.0-1.0,17210,List2A,white,man,consent.html,,,,,,,,,,,,
13691,"<p>On the next page, you will see portraits of 8 people and their names.</p><p>Your first task is to take a few minutes to memorise the names of these people.</p><p>You will have to recall their names during the rest of the experiment, so it is</p><p>essential that you try to memorise these people and their names as best as you can.</p><br><p><strong>You will then be tested on your memory of these names and portraits.</strong></p><br><p>The experiment will start after you have completed this memory test.</p><br><p>Ready?</p>",0,html-button-response,2,28613,0.0-2.0,17210,List2A,white,man,,,,,,,,,,,,,
135135,"<img src='img/portrait_matrix_list2.jpg' style='width:900px;height:500px;''></img><p>If you have memorised all the portraits and names and are ready to start, press Continue.</p><p><strong>Please note: Your memory of these faces will be tested 4 times during this experiment.</strong></p>",0,html-button-response,3,164759,0.0-3.0-0.0,17210,List2A,white,man,,,,,,,,,,,,,
15486,"<img src=""portrait/WM1.jpg""style=""height:400px;""></img>",6,html-button-response,4,181252,0.0-3.0-1.0,17210,List2A,white,man,,TRUE,6,,,,,,,,,,
null,CORRECT,,html-keyboard-response,5,182762,0.0-3.0-2.0-0.0,17210,List2A,white,man,,,,null,,,,,,,,,
10983,"<img src=""portrait/BW2.jpg""style=""height:400px;""></img>",2,html-button-response,6,193748,0.0-3.0-4.0,17210,List2A,white,man,,TRUE,2,,,,,,,,,,
null,CORRECT,,html-keyboard-response,7,195262,0.0-3.0-5.0-0.0,17210,List2A,white,man,,,,null,,,,,,,,,
18932,"<img src=""portrait/WM2.jpg""style=""height:400px;""></img>",7,html-button-response,8,214197,0.0-3.0-7.0,17210,List2A,white,man,,TRUE,7,,,,,,,,,,
null,CORRECT,,html-keyboard-response,9,215710,0.0-3.0-8.0-0.0,17210,List2A,white,man,,,,null,,,,,,,,,
33700,"<img src=""portrait/WW1.jpg""style=""height:400px;""></img>",1,html-button-response,10,249412,0.0-3.0-10.0,17210,List2A,white,man,,TRUE,1,,,,,,,,,,
null,CORRECT,,html-keyboard-response,11,250924,0.0-3.0-11.0-0.0,17210,List2A,white,man,,,,null,,,,,,,,,
26742,"<img src=""portrait/BM2.jpg""style=""height:400px;""></img>",1,html-button-response,12,277667,0.0-3.0-13.0,17210,List2A,white,man,,TRUE,5,,,,,,,,,,
3442,"<img src=""portrait/BM2.jpg""style=""height:400px;""></img>",5,html-button-response,13,282115,0.0-3.0-15.0-0.0,17210,List2A,white,man,,FALSE,5,,,,,,,,,,
null,CORRECT,,html-keyboard-response,14,283629,0.0-3.0-15.0-1.0-0.0,17210,List2A,white,man,,,,null,,,,,,,,,
19678,"<img src=""portrait/BW1.jpg""style=""height:400px;""></img>",4,html-button-response,15,303307,0.0-3.0-16.0,17210,List2A,white,man,,TRUE,0,,,,,,,,,,
2811,"<img src=""portrait/BW1.jpg""style=""height:400px;""></img>",0,html-button-response,16,307123,0.0-3.0-18.0-0.0,17210,List2A,white,man,,FALSE,0,,,,,,,,,,
null,CORRECT,,html-keyboard-response,17,308644,0.0-3.0-18.0-1.0-0.0,17210,List2A,white,man,,,,null,,,,,,,,,
41271,"<img src=""portrait/WW2.jpg""style=""height:400px;""></img>",3,html-button-response,18,349915,0.0-3.0-19.0,17210,List2A,white,man,,TRUE,3,,,,,,,,,,
null,CORRECT,,html-keyboard-response,19,351427,0.0-3.0-20.0-0.0,17210,List2A,white,man,,,,null,,,,,,,,,
12624,"<img src=""portrait/BM1.jpg""style=""height:400px;""></img>",4,html-button-response,20,364051,0.0-3.0-22.0,17210,List2A,white,man,,TRUE,4,,,,,,,,,,
null,CORRECT,,html-keyboard-response,21,365555,0.0-3.0-23.0-0.0,17210,List2A,white,man,,,,null,,,,,,,,,
2112,<p>You got 6 out of 8 right first time. Press Continue.</p>,0,html-button-response,22,367667,0.0-3.0-25.0,17210,List2A,white,man,,,,,,,,,,,,,
2553,"As you did not score 100%, the memory game will repeat. Press Continue.",0,html-button-response,23,371227,0.0-3.0-26.0-0.0,17210,List2A,white,man,,,,,,,,,,,,,
1593,"<img src='img/portrait_matrix_list2.jpg' style='width:900px;height:500px;''></img><p>If you have memorised all the portraits and names and are ready to start, press Continue.</p><p><strong>Please note: Your memory of these faces will be tested 4 times during this experiment.</strong></p>",0,html-button-response,24,373827,0.0-3.1-0.1,17210,List2A,white,man,,,,,,,,,,,,,
13824,"<img src=""portrait/WM1.jpg""style=""height:400px;""></img>",6,html-button-response,25,388659,0.0-3.1-1.1,17210,List2A,white,man,,TRUE,6,,,,,,,,,,
null,CORRECT,,html-keyboard-response,26,390179,0.0-3.1-2.1-0.1,17210,List2A,white,man,,,,null,,,,,,,,,
10517,"<img src=""portrait/BW2.jpg""style=""height:400px;""></img>",2,html-button-response,27,400696,0.0-3.1-4.1,17210,List2A,white,man,,TRUE,2,,,,,,,,,,
null,CORRECT,,html-keyboard-response,28,402208,0.0-3.1-5.1-0.1,17210,List2A,white,man,,,,null,,,,,,,,,
18499,"<img src=""portrait/WM2.jpg""style=""height:400px;""></img>",7,html-button-response,29,420707,0.0-3.1-7.1,17210,List2A,white,man,,TRUE,7,,,,,,,,,,
null,CORRECT,,html-keyboard-response,30,422220,0.0-3.1-8.1-0.1,17210,List2A,white,man,,,,null,,,,,,,,,
15352,"<img src=""portrait/WW1.jpg""style=""height:400px;""></img>",1,html-button-response,31,437572,0.0-3.1-10.1,17210,List2A,white,man,,TRUE,1,,,,,,,,,,
null,CORRECT,,html-keyboard-response,32,439086,0.0-3.1-11.1-0.1,17210,List2A,white,man,,,,null,,,,,,,,,
27854,"<img src=""portrait/BM2.jpg""style=""height:400px;""></img>",5,html-button-response,33,466940,0.0-3.1-13.1,17210,List2A,white,man,,TRUE,5,,,,,,,,,,
null,CORRECT,,html-keyboard-response,34,468452,0.0-3.1-14.1-0.1,17210,List2A,white,man,,,,null,,,,,,,,,
18451,"<img src=""portrait/BW1.jpg""style=""height:400px;""></img>",0,html-button-response,35,486903,0.0-3.1-16.1,17210,List2A,white,man,,TRUE,0,,,,,,,,,,
null,CORRECT,,html-keyboard-response,36,488407,0.0-3.1-17.1-0.1,17210,List2A,white,man,,,,null,,,,,,,,,
12188,"<img src=""portrait/WW2.jpg""style=""height:400px;""></img>",3,html-button-response,37,500595,0.0-3.1-19.1,17210,List2A,white,man,,TRUE,3,,,,,,,,,,
null,CORRECT,,html-keyboard-response,38,502107,0.0-3.1-20.1-0.1,17210,List2A,white,man,,,,null,,,,,,,,,
10224,"<img src=""portrait/BM1.jpg""style=""height:400px;""></img>",4,html-button-response,39,512331,0.0-3.1-22.1,17210,List2A,white,man,,TRUE,4,,,,,,,,,,
null,CORRECT,,html-keyboard-response,40,513836,0.0-3.1-23.1-0.1,17210,List2A,white,man,,,,null,,,,,,,,,
7427,<p>You got 8 out of 8 right first time. Press Continue.</p>,0,html-button-response,41,521263,0.0-3.1-25.1,17210,List2A,white,man,,,,,,,,,,,,,
57656,"<p>In this experiment, you will view photographs of the people from the memory game interacting.</p><p>By using the <strong>exact</strong> phrase given <i>after</i> the photograph appears and recalling the correct names of the people in the photographs, form a sentence describing the interaction. You do not need to capitalise names.</p><p>Type your answer in the space provided. Please complete every sentence before moving onto the next trial.</p><p>You will only have a few seconds to memorise each given photograph and phrase before you can respond, so try your best to focus.</p><p>An example is given below. Press 'Continue' when you are ready.</p><img src='img/speaking_example.jpg' style='width:800px;height:460px;''></img>",0,html-button-response,42,579923,0.0-4.0,17210,List2A,white,man,,,,,,,,,,,,,
5100,"<p>Before the experiment starts, you will watch two example trials. Press 'Continue'.</p>",0,html-button-response,43,586027,0.0-5.0,17210,List2A,white,man,,,,,,,,,,,,,
null,<img src='img/play_eg.gif' style='height:400px;''></img>,,html-keyboard-response,44,589035,0.0-6.0,17210,List2A,white,man,,,,null,,,,,,,,,
null,<p>is playing with</p>,,html-keyboard-response,45,591039,0.0-7.0,17210,List2A,white,man,,,,null,,,,,,,,,
3972,<p><b>Answer:</b> jane is playing with ruth</p>,0,html-button-response,46,595011,0.0-8.0,17210,List2A,white,man,,,,,,,,,,,,,
null,<img src='img/dance_eg.gif' style='height:400px;''></img>,,html-keyboard-response,47,598020,0.0-9.0,17210,List2A,white,man,,,,null,,,,,,,,,
null,<p>is being entertained by</p>,,html-keyboard-response,48,600025,0.0-10.0,17210,List2A,white,man,,,,null,,,,,,,,,
1490,<p><b>Answer:</b> fred is being entertained by mike</p>,0,html-button-response,49,601515,0.0-11.0,17210,List2A,white,man,,,,,,,,,,,,,
8829,"<p>Ready to start the experiment?</p><br><p><strong>Remember to describe the picture using a full sentence,</strong></p><p><strong>that combines the names of the people with the <i>exact</i> phrase given.</strong></p><p><strong>To receive full payment you must do this correctly.</strong></p><p><strong> You do not need to capitalise names or use punctuation.</strong></p><br><p>Press 'Continue' to begin.</p>",0,html-button-response,50,611355,0.0-12.0,17210,List2A,white,man,,,,,,,,,,,,,
null,"<div style=""font-size:60px;"">+</div>",,html-keyboard-response,51,612868,0.0-13.0-0.0,17210,List2A,white,man,,,,null,,,,,,,,,
null,"<img src=""stim_listA/seduce6.gif""style=""height:400px;""></stim_listA>",,html-keyboard-response,52,614870,0.0-13.0-1.0,17210,List2A,white,man,,,,null,,,,,,,,,
null,is being seduced by,,html-keyboard-response,53,616880,0.0-13.0-2.0,17210,List2A,white,man,,,,null,,,,,,,,,
41649,,,survey-text,54,658529,0.0-13.0-3.0,17210,List2A,white,man,,,,,"{""Q0"":""FRED is being seduced by DAVE""}","<img src=""stim_listA/seduce6.gif""style=""height:400px;""></stim_listA>",is being seduced by,,,,,,
null,"<div style=""font-size:60px;"">+</div>",,html-keyboard-response,55,659045,0.0-13.0-0.1,17210,List2A,white,man,,,,null,,,,,,,,,
null,"<img src=""stim_listA/hug2.gif""style=""height:400px;""></stim_listA>",,html-keyboard-response,56,661060,0.0-13.0-1.1,17210,List2A,white,man,,,,null,,,,,,,,,
null,is being hugged by,,html-keyboard-response,57,663063,0.0-13.0-2.1,17210,List2A,white,man,,,,null,,,,,,,,,
24876,,,survey-text,58,687939,0.0-13.0-3.1,17210,List2A,white,man,,,,,"{""Q0"":""DAVE is being hugged by JANE""}","<img src=""stim_listA/hug2.gif""style=""height:400px;""></stim_listA>",is being hugged by,,,,,,
null,"<div style=""font-size:60px;"">+</div>",,html-keyboard-response,59,688449,0.0-13.0-0.2,17210,List2A,white,man,,,,null,,,,,,,,,
null,"<img src=""stim_listA/shout4.gif""style=""height:400px;""></stim_listA>",,html-keyboard-response,60,690463,0.0-13.0-1.2,17210,List2A,white,man,,,,null,,,,,,,,,
null,is being shouted at by,,html-keyboard-response,61,692472,0.0-13.0-2.2,17210,List2A,white,man,,,,null,,,,,,,,,
50516,,,survey-text,62,742988,0.0-13.0-3.2,17210,List2A,white,man,,,,,"{""Q0"":""KATE is being shouted at by LUKE""}","<img src=""stim_listA/shout4.gif""style=""height:400px;""></stim_listA>",is being shouted at by,,,,,,
null,"<div style=""font-size:60px;"">+</div>",,html-keyboard-response,63,743499,0.0-13.0-0.3,17210,List2A,white,man,,,,null,,,,,,,,,
null,"<img src=""stim_listA/oppose8.gif""style=""height:400px;""></stim_listA>",,html-keyboard-response,64,745507,0.0-13.0-1.3,17210,List2A,white,man,,,,null,,,,,,,,,
null,is being opposed by,,html-keyboard-response,65,747511,0.0-13.0-2.3,17210,List2A,white,man,,,,null,,,,,,,,,
27620,,,survey-text,66,775131,0.0-13.0-3.3,17210,List2A,white,man,,,,,"{""Q0"":""BETH is playing with RUTH""}","<img src=""stim_listA/oppose8.gif""style=""height:400px;""></stim_listA>",is being opposed by,,,,,,
null,"<div style=""font-size:60px;"">+</div>",,html-keyboard-response,67,775641,0.0-13.0-0.4,17210,List2A,white,man,,,,null,,,,,,,,,
null,"<img src=""stim_listA/hug3.gif""style=""height:400px;""></stim_listA>",,html-keyboard-response,68,777648,0.0-13.0-1.4,17210,List2A,white,man,,,,null,,,,,,,,,
null,is hugging,,html-keyboard-response,69,779665,0.0-13.0-2.4,17210,List2A,white,man,,,,null,,,,,,,,,
18850,,,survey-text,70,798515,0.0-13.0-3.4,17210,List2A,white,man,,,,,"{""Q0"":""BETH is hugging FRED""}","<img src=""stim_listA/hug3.gif""style=""height:400px;""></stim_listA>",is hugging,,,,,,
null,"<div style=""font-size:60px;"">+</div>",,html-keyboard-response,71,799025,0.0-13.0-0.5,17210,List2A,white,man,,,,null,,,,,,,,,
null,"<img src=""stim_listA/look1.gif""style=""height:400px;""></stim_listA>",,html-keyboard-response,72,801039,0.0-13.0-1.5,17210,List2A,white,man,,,,null,,,,,,,,,
null,is looking at,,html-keyboard-response,73,803044,0.0-13.0-2.5,17210,List2A,white,man,,,,null,,,,,,,,,
14071,,,survey-text,74,817115,0.0-13.0-3.5,17210,List2A,white,man,,,,,"{""Q0"":""LUKE is looking at RUTH""}","<img src=""stim_listA/look1.gif""style=""height:400px;""></stim_listA>",is looking at,,,,,,
null,"<div style=""font-size:60px;"">+</div>",,html-keyboard-response,75,817621,0.0-13.0-0.6,17210,List2A,white,man,,,,null,,,,,,,,,
null,"<img src=""stim_listA/shout8.gif""style=""height:400px;""></stim_listA>",,html-keyboard-response,76,819622,0.0-13.0-1.6,17210,List2A,white,man,,,,null,,,,,,,,,
null,is being shouted at by,,html-keyboard-response,77,821625,0.0-13.0-2.6,17210,List2A,white,man,,,,null,,,,,,,,,
20262,,,survey-text,78,841887,0.0-13.0-3.6,17210,List2A,white,man,,,,,"{""Q0"":""JANE is being shouted at by KATE""}","<img src=""stim_listA/shout8.gif""style=""height:400px;""></stim_listA>",is being shouted at by,,,,,,
null,"<div style=""font-size:60px;"">+</div>",,html-keyboard-response,79,842404,0.0-13.0-0.7,17210,List2A,white,man,,,,null,,,,,,,,,
null,"<img src=""stim_listA/kiss7.gif""style=""height:400px;""></stim_listA>",,html-keyboard-response,80,844405,0.0-13.0-1.7,17210,List2A,white,man,,,,null,,,,,,,,,
null,is kissing,,html-keyboard-response,81,846409,0.0-13.0-2.7,17210,List2A,white,man,,,,null,,,,,,,,,
39633,,,survey-text,82,886042,0.0-13.0-3.7,17210,List2A,white,man,,,,,"{""Q0"":""KATE is kissing RUTH""}","<img src=""stim_listA/kiss7.gif""style=""height:400px;""></stim_listA>",is kissing,,,,,,
null,"<div style=""font-size:60px;"">+</div>",,html-keyboard-response,83,886552,0.0-13.0-0.8,17210,List2A,white,man,,,,null,,,,,,,,,
null,"<img src=""stim_listA/challenge7.gif""style=""height:400px;""></stim_listA>",,html-keyboard-response,84,888560,0.0-13.0-1.8,17210,List2A,white,man,,,,null,,,,,,,,,
null,is challenging,,html-keyboard-response,85,890572,0.0-13.0-2.8,17210,List2A,white,man,,,,null,,,,,,,,,
24134,,,survey-text,86,914706,0.0-13.0-3.8,17210,List2A,white,man,,,,,"{""Q0"":""JANE is challenging BETH""}","<img src=""stim_listA/challenge7.gif""style=""height:400px;""></stim_listA>",is challenging,,,,,,
null,"<div style=""font-size:60px;"">+</div>",,html-keyboard-response,87,915208,0.0-13.0-0.9,17210,List2A,white,man,,,,null,,,,,,,,,
null,"<img src=""stim_listA/shout3.gif""style=""height:400px;""></stim_listA>",,html-keyboard-response,88,917214,0.0-13.0-1.9,17210,List2A,white,man,,,,null,,,,,,,,,
null,is shouting at,,html-keyboard-response,89,919222,0.0-13.0-2.9,17210,List2A,white,man,,,,null,,,,,,,,,
17460,,,survey-text,90,936682,0.0-13.0-3.9,17210,List2A,white,man,,,,,"{""Q0"":""BETH is shouting at FRED""}","<img src=""stim_listA/shout3.gif""style=""height:400px;""></stim_listA>",is shouting at,,,,,,
null,"<div style=""font-size:60px;"">+</div>",,html-keyboard-response,91,937185,0.0-13.0-0.10,17210,List2A,white,man,,,,null,,,,,,,,,
null,"<img src=""stim_listA/seduce2.gif""style=""height:400px;""></stim_listA>",,html-keyboard-response,92,939189,0.0-13.0-1.10,17210,List2A,white,man,,,,null,,,,,,,,,
null,is being seduced by,,html-keyboard-response,93,941193,0.0-13.0-2.10,17210,List2A,white,man,,,,null,,,,,,,,,
21102,,,survey-text,94,962295,0.0-13.0-3.10,17210,List2A,white,man,,,,,"{""Q0"":""RUTH is seducing DAVE""}","<img src=""stim_listA/seduce2.gif""style=""height:400px;""></stim_listA>",is being seduced by,,,,,,
null,"<div style=""font-size:60px;"">+</div>",,html-keyboard-response,95,962799,0.0-13.0-0.11,17210,List2A,white,man,,,,null,,,,,,,,,
null,"<img src=""stim_listA/copy6.gif""style=""height:400px;""></stim_listA>",,html-keyboard-response,96,964804,0.0-13.0-1.11,17210,List2A,white,man,,,,null,,,,,,,,,
null,is being copied by,,html-keyboard-response,97,966807,0.0-13.0-2.11,17210,List2A,white,man,,,,null,,,,,,,,,
17377,,,survey-text,98,984184,0.0-13.0-3.11,17210,List2A,white,man,,,,,"{""Q0"":""LUKE is being copied by MIKE""}","<img src=""stim_listA/copy6.gif""style=""height:400px;""></stim_listA>",is being copied by,,,,,,
null,"<div style=""font-size:60px;"">+</div>",,html-keyboard-response,99,984687,0.0-13.0-0.12,17210,List2A,white,man,,,,null,,,,,,,,,
null,"<img src=""stim_listA/challenge5.gif""style=""height:400px;""></stim_listA>",,html-keyboard-response,100,986703,0.0-13.0-1.12,17210,List2A,white,man,,,,null,,,,,,,,,
null,is challenging,,html-keyboard-response,101,988711,0.0-13.0-2.12,17210,List2A,white,man,,,,null,,,,,,,,,
18403,,,survey-text,102,1007114,0.0-13.0-3.12,17210,List2A,white,man,,,,,"{""Q0"":""DAVE is challenging FRED""}","<img src=""stim_listA/challenge5.gif""style=""height:400px;""></stim_listA>",is challenging,,,,,,
null,"<div style=""font-size:60px;"">+</div>",,html-keyboard-response,103,1007617,0.0-13.0-0.13,17210,List2A,white,man,,,,null,,,,,,,,,
null,"<img src=""stim_listA/look7.gif""style=""height:400px;""></stim_listA>",,html-keyboard-response,104,1009620,0.0-13.0-1.13,17210,List2A,white,man,,,,null,,,,,,,,,
null,is looking at,,html-keyboard-response,105,1011622,0.0-13.0-2.13,17210,List2A,white,man,,,,null,,,,,,,,,
29446,,,survey-text,106,1041068,0.0-13.0-3.13,17210,List2A,white,man,,,,,"{""Q0"":""BETH is looking RUTH""}","<img src=""stim_listA/look7.gif""style=""height:400px;""></stim_listA>",is looking at,,,,,,
null,"<div style=""font-size:60px;"">+</div>",,html-keyboard-response,107,1041568,0.0-13.0-0.14,17210,List2A,white,man,,,,null,,,,,,,,,
null,"<img src=""stim_listA/seduce8.gif""style=""height:400px;""></stim_listA>",,html-keyboard-response,108,1043583,0.0-13.0-1.14,17210,List2A,white,man,,,,null,,,,,,,,,
null,is being seduced by,,html-keyboard-response,109,1045592,0.0-13.0-2.14,17210,List2A,white,man,,,,null,,,,,,,,,
16945,,,survey-text,110,1062537,0.0-13.0-3.14,17210,List2A,white,man,,,,,"{""Q0"":""JANE is being seduced by KATE""}","<img src=""stim_listA/seduce8.gif""style=""height:400px;""></stim_listA>",is being seduced by,,,,,,
null,"<div style=""font-size:60px;"">+</div>",,html-keyboard-response,111,1063046,0.0-13.0-0.15,17210,List2A,white,man,,,,null,,,,,,,,,
null,"<img src=""stim_listA/hug7.gif""style=""height:400px;""></stim_listA>",,html-keyboard-response,112,1065054,0.0-13.0-1.15,17210,List2A,white,man,,,,null,,,,,,,,,
null,is hugging,,html-keyboard-response,113,1067063,0.0-13.0-2.15,17210,List2A,white,man,,,,null,,,,,,,,,
12653,,,survey-text,114,1079716,0.0-13.0-3.15,17210,List2A,white,man,,,,,"{""Q0"":""RUTH is hugging BETH""}","<img src=""stim_listA/hug7.gif""style=""height:400px;""></stim_listA>",is hugging,,,,,,
null,"<div style=""font-size:60px;"">+</div>",,html-keyboard-response,115,1080219,0.0-13.0-0.16,17210,List2A,white,man,,,,null,,,,,,,,,
null,"<img src=""stim_listA/challenge8.gif""style=""height:400px;""></stim_listA>",,html-keyboard-response,116,1082231,0.0-13.0-1.16,17210,List2A,white,man,,,,null,,,,,,,,,
null,is being challenged by,,html-keyboard-response,117,1084241,0.0-13.0-2.16,17210,List2A,white,man,,,,null,,,,,,,,,
24870,,,survey-text,118,1109111,0.0-13.0-3.16,17210,List2A,white,man,,,,,"{""Q0"":""KATE is being challenged by RUTH""}","<img src=""stim_listA/challenge8.gif""style=""height:400px;""></stim_listA>",is being challenged by,,,,,,
null,"<div style=""font-size:60px;"">+</div>",,html-keyboard-response,119,1109613,0.0-13.0-0.17,17210,List2A,white,man,,,,null,,,,,,,,,
null,"<img src=""stim_listA/oppose7.gif""style=""height:400px;""></stim_listA>",,html-keyboard-response,120,1111629,0.0-13.0-1.17,17210,List2A,white,man,,,,null,,,,,,,,,
null,is opposing,,html-keyboard-response,121,1113643,0.0-13.0-2.17,17210,List2A,white,man,,,,null,,,,,,,,,
14726,,,survey-text,122,1128369,0.0-13.0-3.17,17210,List2A,white,man,,,,,"{""Q0"":""JANE is opposing KATE""}","<img src=""stim_listA/oppose7.gif""style=""height:400px;""></stim_listA>",is opposing,,,,,,
null,"<div style=""font-size:60px;"">+</div>",,html-keyboard-response,123,1128879,0.0-13.0-0.18,17210,List2A,white,man,,,,null,,,,,,,,,
null,"<img src=""stim_listA/hug5.gif""style=""height:400px;""></stim_listA>",,html-keyboard-response,124,1130883,0.0-13.0-1.18,17210,List2A,white,man,,,,null,,,,,,,,,
null,is hugging,,html-keyboard-response,125,1132894,0.0-13.0-2.18,17210,List2A,white,man,,,,null,,,,,,,,,
14781,,,survey-text,126,1147675,0.0-13.0-3.18,17210,List2A,white,man,,,,,"{""Q0"":""FRED is hugging LUKE""}","<img src=""stim_listA/hug5.gif""style=""height:400px;""></stim_listA>",is hugging,,,,,,
null,"<div style=""font-size:60px;"">+</div>",,html-keyboard-response,127,1148179,0.0-13.0-0.19,17210,List2A,white,man,,,,null,,,,,,,,,
null,"<img src=""stim_listA/oppose5.gif""style=""height:400px;""></stim_listA>",,html-keyboard-response,128,1150194,0.0-13.0-1.19,17210,List2A,white,man,,,,null,,,,,,,,,
null,is opposing,,html-keyboard-response,129,1152197,0.0-13.0-2.19,17210,List2A,white,man,,,,null,,,,,,,,,
17845,,,survey-text,130,1170042,0.0-13.0-3.19,17210,List2A,white,man,,,,,"{""Q0"":""DAVE is opposing MIKE""}","<img src=""stim_listA/oppose5.gif""style=""height:400px;""></stim_listA>",is opposing,,,,,,
24809,"<img src='img/portrait_matrix_list2.jpg' style='width:900px;height:500px;''></img><p>If you have memorised all the portraits and names and are ready to start, press Continue.</p><p><strong>Please note: Your memory of these faces will be tested 4 times during this experiment.</strong></p>",0,html-button-response,131,1194851,0.0-14.0-0.0,17210,List2A,white,man,,,,,,,,,,,,,
5600,"<img src=""portrait/BM1.jpg""style=""height:400px;""></img>",4,html-button-response,132,1201451,0.0-14.0-1.0,17210,List2A,white,man,,TRUE,4,,,,,,,,,,
null,CORRECT,,html-keyboard-response,133,1202975,0.0-14.0-2.0-0.0,17210,List2A,white,man,,,,null,,,,,,,,,
3797,"<img src=""portrait/WM1.jpg""style=""height:400px;""></img>",6,html-button-response,134,1206772,0.0-14.0-4.0,17210,List2A,white,man,,TRUE,6,,,,,,,,,,
null,CORRECT,,html-keyboard-response,135,1208277,0.0-14.0-5.0-0.0,17210,List2A,white,man,,,,null,,,,,,,,,
3120,"<img src=""portrait/WW2.jpg""style=""height:400px;""></img>",3,html-button-response,136,1211405,0.0-14.0-7.0,17210,List2A,white,man,,TRUE,3,,,,,,,,,,
null,CORRECT,,html-keyboard-response,137,1212907,0.0-14.0-8.0-0.0,17210,List2A,white,man,,,,null,,,,,,,,,
4536,"<img src=""portrait/WM2.jpg""style=""height:400px;""></img>",7,html-button-response,138,1217443,0.0-14.0-10.0,17210,List2A,white,man,,TRUE,7,,,,,,,,,,
null,CORRECT,,html-keyboard-response,139,1218950,0.0-14.0-11.0-0.0,17210,List2A,white,man,,,,null,,,,,,,,,
4085,"<img src=""portrait/WW1.jpg""style=""height:400px;""></img>",1,html-button-response,140,1223035,0.0-14.0-13.0,17210,List2A,white,man,,TRUE,1,,,,,,,,,,
null,CORRECT,,html-keyboard-response,141,1224555,0.0-14.0-14.0-0.0,17210,List2A,white,man,,,,null,,,,,,,,,
3472,"<img src=""portrait/BW2.jpg""style=""height:400px;""></img>",2,html-button-response,142,1228027,0.0-14.0-16.0,17210,List2A,white,man,,TRUE,2,,,,,,,,,,
null,CORRECT,,html-keyboard-response,143,1229546,0.0-14.0-17.0-0.0,17210,List2A,white,man,,,,null,,,,,,,,,
5193,"<img src=""portrait/BW1.jpg""style=""height:400px;""></img>",0,html-button-response,144,1234739,0.0-14.0-19.0,17210,List2A,white,man,,TRUE,0,,,,,,,,,,
null,CORRECT,,html-keyboard-response,145,1236252,0.0-14.0-20.0-0.0,17210,List2A,white,man,,,,null,,,,,,,,,
8551,"<img src=""portrait/BM2.jpg""style=""height:400px;""></img>",5,html-button-response,146,1244803,0.0-14.0-22.0,17210,List2A,white,man,,TRUE,5,,,,,,,,,,
null,CORRECT,,html-keyboard-response,147,1246309,0.0-14.0-23.0-0.0,17210,List2A,white,man,,,,null,,,,,,,,,
1495,<p>You got 8 out of 8 right first time. Press Continue.</p>,0,html-button-response,148,1247804,0.0-14.0-25.0,17210,List2A,white,man,,,,,,,,,,,,,
null,"<div style=""font-size:60px;"">+</div>",,html-keyboard-response,149,1249310,0.0-15.0-0.0,17210,List2A,white,man,,,,null,,,,,,,,,
null,"<img src=""stim_listA/copy3.gif""style=""height:400px;""></stim_listA>",,html-keyboard-response,150,1251325,0.0-15.0-1.0,17210,List2A,white,man,,,,null,,,,,,,,,
null,is copying,,html-keyboard-response,151,1253329,0.0-15.0-2.0,17210,List2A,white,man,,,,null,,,,,,,,,
19282,,,survey-text,152,1272611,0.0-15.0-3.0,17210,List2A,white,man,,,,,"{""Q0"":""BETH is copying MIKE""}","<img src=""stim_listA/copy3.gif""style=""height:400px;""></stim_listA>",is copying,,,,,,
null,"<div style=""font-size:60px;"">+</div>",,html-keyboard-response,153,1273121,0.0-15.0-0.1,17210,List2A,white,man,,,,null,,,,,,,,,
null,"<img src=""stim_listA/seduce1.gif""style=""height:400px;""></stim_listA>",,html-keyboard-response,154,1275136,0.0-15.0-1.1,17210,List2A,white,man,,,,null,,,,,,,,,
null,is seducing,,html-keyboard-response,155,1277141,0.0-15.0-2.1,17210,List2A,white,man,,,,null,,,,,,,,,
16770,,,survey-text,156,1293911,0.0-15.0-3.1,17210,List2A,white,man,,,,,"{""Q0"":""JANE is seducing LUKE""}","<img src=""stim_listA/seduce1.gif""style=""height:400px;""></stim_listA>",is seducing,,,,,,
null,"<div style=""font-size:60px;"">+</div>",,html-keyboard-response,157,1294423,0.0-15.0-0.2,17210,List2A,white,man,,,,null,,,,,,,,,
null,"<img src=""stim_listA/oppose1.gif""style=""height:400px;""></stim_listA>",,html-keyboard-response,158,1296439,0.0-15.0-1.2,17210,List2A,white,man,,,,null,,,,,,,,,
null,is opposing,,html-keyboard-response,159,1298443,0.0-15.0-2.2,17210,List2A,white,man,,,,null,,,,,,,,,
17490,,,survey-text,160,1315933,0.0-15.0-3.2,17210,List2A,white,man,,,,,"{""Q0"":""JANE is opposing DAVE""}","<img src=""stim_listA/oppose1.gif""style=""height:400px;""></stim_listA>",is opposing,,,,,,
null,"<div style=""font-size:60px;"">+</div>",,html-keyboard-response,161,1316436,0.0-15.0-0.3,17210,List2A,white,man,,,,null,,,,,,,,,
null,"<img src=""stim_listA/kiss1.gif""style=""height:400px;""></stim_listA>",,html-keyboard-response,162,1318438,0.0-15.0-1.3,17210,List2A,white,man,,,,null,,,,,,,,,
null,is kissing,,html-keyboard-response,163,1320449,0.0-15.0-2.3,17210,List2A,white,man,,,,null,,,,,,,,,
20389,,,survey-text,164,1340838,0.0-15.0-3.3,17210,List2A,white,man,,,,,"{""Q0"":""RUTH is kissing LUKE""}","<img src=""stim_listA/kiss1.gif""style=""height:400px;""></stim_listA>",is kissing,,,,,,
null,"<div style=""font-size:60px;"">+</div>",,html-keyboard-response,165,1341341,0.0-15.0-0.4,17210,List2A,white,man,,,,null,,,,,,,,,
null,"<img src=""stim_listA/greet1.gif""style=""height:400px;""></stim_listA>",,html-keyboard-response,166,1343352,0.0-15.0-1.4,17210,List2A,white,man,,,,null,,,,,,,,,
null,is greeting,,html-keyboard-response,167,1345354,0.0-15.0-2.4,17210,List2A,white,man,,,,null,,,,,,,,,
10028,,,survey-text,168,1355382,0.0-15.0-3.4,17210,List2A,white,man,,,,,"{""Q0"":""DAVE is greeting RUTH""}","<img src=""stim_listA/greet1.gif""style=""height:400px;""></stim_listA>",is greeting,,,,,,
null,"<div style=""font-size:60px;"">+</div>",,html-keyboard-response,169,1355885,0.0-15.0-0.5,17210,List2A,white,man,,,,null,,,,,,,,,
null,"<img src=""stim_listA/shout6.gif""style=""height:400px;""></stim_listA>",,html-keyboard-response,170,1357893,0.0-15.0-1.5,17210,List2A,white,man,,,,null,,,,,,,,,
null,is being shouted at by,,html-keyboard-response,171,1359905,0.0-15.0-2.5,17210,List2A,white,man,,,,null,,,,,,,,,
19120,,,survey-text,172,1379025,0.0-15.0-3.5,17210,List2A,white,man,,,,,"{""Q0"":""DAVE is being shouted at by MIKE""}","<img src=""stim_listA/shout6.gif""style=""height:400px;""></stim_listA>",is being shouted at by,,,,,,
null,"<div style=""font-size:60px;"">+</div>",,html-keyboard-response,173,1379536,0.0-15.0-0.6,17210,List2A,white,man,,,,null,,,,,,,,,
null,"<img src=""stim_listA/oppose4.gif""style=""height:400px;""></stim_listA>",,html-keyboard-response,174,1381541,0.0-15.0-1.6,17210,List2A,white,man,,,,null,,,,,,,,,
null,is being opposed by,,html-keyboard-response,175,1383553,0.0-15.0-2.6,17210,List2A,white,man,,,,null,,,,,,,,,
15070,,,survey-text,176,1398623,0.0-15.0-3.6,17210,List2A,white,man,,,,,"{""Q0"":""BETH is being opposed by FRED""}","<img src=""stim_listA/oppose4.gif""style=""height:400px;""></stim_listA>",is being opposed by,,,,,,
null,"<div style=""font-size:60px;"">+</div>",,html-keyboard-response,177,1399137,0.0-15.0-0.7,17210,List2A,white,man,,,,null,,,,,,,,,
null,"<img src=""stim_listA/oppose3.gif""style=""height:400px;""></stim_listA>",,html-keyboard-response,178,1401153,0.0-15.0-1.7,17210,List2A,white,man,,,,null,,,,,,,,,
null,is opposing,,html-keyboard-response,179,1403164,0.0-15.0-2.7,17210,List2A,white,man,,,,null,,,,,,,,,
11304,,,survey-text,180,1414468,0.0-15.0-3.7,17210,List2A,white,man,,,,,"{""Q0"":""MIKE is opposing KATE""}","<img src=""stim_listA/oppose3.gif""style=""height:400px;""></stim_listA>",is opposing,,,,,,
null,"<div style=""font-size:60px;"">+</div>",,html-keyboard-response,181,1414981,0.0-15.0-0.8,17210,List2A,white,man,,,,null,,,,,,,,,
null,"<img src=""stim_listA/copy8.gif""style=""height:400px;""></stim_listA>",,html-keyboard-response,182,1416984,0.0-15.0-1.8,17210,List2A,white,man,,,,null,,,,,,,,,
null,is being copied by,,html-keyboard-response,183,1418987,0.0-15.0-2.8,17210,List2A,white,man,,,,null,,,,,,,,,
19688,,,survey-text,184,1438675,0.0-15.0-3.8,17210,List2A,white,man,,,,,"{""Q0"":""KATE is being copied by RUTH""}","<img src=""stim_listA/copy8.gif""style=""height:400px;""></stim_listA>",is being copied by,,,,,,
null,"<div style=""font-size:60px;"">+</div>",,html-keyboard-response,185,1439185,0.0-15.0-0.9,17210,List2A,white,man,,,,null,,,,,,,,,
null,"<img src=""stim_listA/greet7.gif""style=""height:400px;""></stim_listA>",,html-keyboard-response,186,1441197,0.0-15.0-1.9,17210,List2A,white,man,,,,null,,,,,,,,,
null,is greeting,,html-keyboard-response,187,1443203,0.0-15.0-2.9,17210,List2A,white,man,,,,null,,,,,,,,,
16839,,,survey-text,188,1460042,0.0-15.0-3.9,17210,List2A,white,man,,,,,"{""Q0"":""BETH is greeting JANE""}","<img src=""stim_listA/greet7.gif""style=""height:400px;""></stim_listA>",is greeting,,,,,,
null,"<div style=""font-size:60px;"">+</div>",,html-keyboard-response,189,1460544,0.0-15.0-0.10,17210,List2A,white,man,,,,null,,,,,,,,,
null,"<img src=""stim_listA/shout2.gif""style=""height:400px;""></stim_listA>",,html-keyboard-response,190,1462549,0.0-15.0-1.10,17210,List2A,white,man,,,,null,,,,,,,,,
null,is being shouted at by,,html-keyboard-response,191,1464552,0.0-15.0-2.10,17210,List2A,white,man,,,,null,,,,,,,,,
19280,,,survey-text,192,1483832,0.0-15.0-3.10,17210,List2A,white,man,,,,,"{""Q0"":""JANE is being shouted at by DAVE""}","<img src=""stim_listA/shout2.gif""style=""height:400px;""></stim_listA>",is being shouted at by,,,,,,
null,"<div style=""font-size:60px;"">+</div>",,html-keyboard-response,193,1484334,0.0-15.0-0.11,17210,List2A,white,man,,,,null,,,,,,,,,
null,"<img src=""stim_listA/look6.gif""style=""height:400px;""></stim_listA>",,html-keyboard-response,194,1486347,0.0-15.0-1.11,17210,List2A,white,man,,,,null,,,,,,,,,
null,is being looked at by,,html-keyboard-response,195,1488362,0.0-15.0-2.11,17210,List2A,white,man,,,,null,,,,,,,,,
21243,,,survey-text,196,1509605,0.0-15.0-3.11,17210,List2A,white,man,,,,,"{""Q0"":""DAVE is being looking at by MIKE""}","<img src=""stim_listA/look6.gif""style=""height:400px;""></stim_listA>",is being looked at by,,,,,,
null,"<div style=""font-size:60px;"">+</div>",,html-keyboard-response,197,1510110,0.0-15.0-0.12,17210,List2A,white,man,,,,null,,,,,,,,,
null,"<img src=""stim_listA/kiss8.gif""style=""height:400px;""></stim_listA>",,html-keyboard-response,198,1512119,0.0-15.0-1.12,17210,List2A,white,man,,,,null,,,,,,,,,
null,is being kissed by,,html-keyboard-response,199,1514129,0.0-15.0-2.12,17210,List2A,white,man,,,,null,,,,,,,,,
16856,,,survey-text,200,1530985,0.0-15.0-3.12,17210,List2A,white,man,,,,,"{""Q0"":""JANE is being kissed by KATE""}","<img src=""stim_listA/kiss8.gif""style=""height:400px;""></stim_listA>",is being kissed by,,,,,,
null,"<div style=""font-size:60px;"">+</div>",,html-keyboard-response,201,1531491,0.0-15.0-0.13,17210,List2A,white,man,,,,null,,,,,,,,,
null,"<img src=""stim_listA/challenge1.gif""style=""height:400px;""></stim_listA>",,html-keyboard-response,202,1533496,0.0-15.0-1.13,17210,List2A,white,man,,,,null,,,,,,,,,
null,is challenging,,html-keyboard-response,203,1535502,0.0-15.0-2.13,17210,List2A,white,man,,,,null,,,,,,,,,
21642,,,survey-text,204,1557144,0.0-15.0-3.13,17210,List2A,white,man,,,,,"{""Q0"":""DAVE is challenging RUTH""}","<img src=""stim_listA/challenge1.gif""style=""height:400px;""></stim_listA>",is challenging,,,,,,
null,"<div style=""font-size:60px;"">+</div>",,html-keyboard-response,205,1557646,0.0-15.0-0.14,17210,List2A,white,man,,,,null,,,,,,,,,
null,"<img src=""stim_listA/shout7.gif""style=""height:400px;""></stim_listA>",,html-keyboard-response,206,1559659,0.0-15.0-1.14,17210,List2A,white,man,,,,null,,,,,,,,,
null,is shouting at,,html-keyboard-response,207,1561662,0.0-15.0-2.14,17210,List2A,white,man,,,,null,,,,,,,,,
17077,,,survey-text,208,1578739,0.0-15.0-3.14,17210,List2A,white,man,,,,,"{""Q0"":""RUTH is shouting at BETH""}","<img src=""stim_listA/shout7.gif""style=""height:400px;""></stim_listA>",is shouting at,,,,,,
null,"<div style=""font-size:60px;"">+</div>",,html-keyboard-response,209,1579245,0.0-15.0-0.15,17210,List2A,white,man,,,,null,,,,,,,,,
null,"<img src=""stim_listA/kiss3.gif""style=""height:400px;""></stim_listA>",,html-keyboard-response,210,1581250,0.0-15.0-1.15,17210,List2A,white,man,,,,null,,,,,,,,,
null,is kissing,,html-keyboard-response,211,1583257,0.0-15.0-2.15,17210,List2A,white,man,,,,null,,,,,,,,,
8736,,,survey-text,212,1591993,0.0-15.0-3.15,17210,List2A,white,man,,,,,"{""Q0"":""DAVE is kissing BETH""}","<img src=""stim_listA/kiss3.gif""style=""height:400px;""></stim_listA>",is kissing,,,,,,
null,"<div style=""font-size:60px;"">+</div>",,html-keyboard-response,213,1592496,0.0-15.0-0.16,17210,List2A,white,man,,,,null,,,,,,,,,
null,"<img src=""stim_listA/hug8.gif""style=""height:400px;""></stim_listA>",,html-keyboard-response,214,1594497,0.0-15.0-1.16,17210,List2A,white,man,,,,null,,,,,,,,,
null,is being hugged by,,html-keyboard-response,215,1596508,0.0-15.0-2.16,17210,List2A,white,man,,,,null,,,,,,,,,
14815,,,survey-text,216,1611323,0.0-15.0-3.16,17210,List2A,white,man,,,,,"{""Q0"":""KATE is being hugged by JANE""}","<img src=""stim_listA/hug8.gif""style=""height:400px;""></stim_listA>",is being hugged by,,,,,,
null,"<div style=""font-size:60px;"">+</div>",,html-keyboard-response,217,1611826,0.0-15.0-0.17,17210,List2A,white,man,,,,null,,,,,,,,,
null,"<img src=""stim_listA/seduce5.gif""style=""height:400px;""></stim_listA>",,html-keyboard-response,218,1613831,0.0-15.0-1.17,17210,List2A,white,man,,,,null,,,,,,,,,
null,is seducing,,html-keyboard-response,219,1615846,0.0-15.0-2.17,17210,List2A,white,man,,,,null,,,,,,,,,
21594,,,survey-text,220,1637440,0.0-15.0-3.17,17210,List2A,white,man,,,,,"{""Q0"":""MIKE is seducing LUKE""}","<img src=""stim_listA/seduce5.gif""style=""height:400px;""></stim_listA>",is seducing,,,,,,
null,"<div style=""font-size:60px;"">+</div>",,html-keyboard-response,221,1637943,0.0-15.0-0.18,17210,List2A,white,man,,,,null,,,,,,,,,
null,"<img src=""stim_listA/greet2.gif""style=""height:400px;""></stim_listA>",,html-keyboard-response,222,1639958,0.0-15.0-1.18,17210,List2A,white,man,,,,null,,,,,,,,,
null,is being greeted by,,html-keyboard-response,223,1641963,0.0-15.0-2.18,17210,List2A,white,man,,,,null,,,,,,,,,
35527,,,survey-text,224,1677490,0.0-15.0-3.18,17210,List2A,white,man,,,,,"{""Q0"":""MIKE is being hugged by BETH""}","<img src=""stim_listA/greet2.gif""style=""height:400px;""></stim_listA>",is being greeted by,,,,,,
null,"<div style=""font-size:60px;"">+</div>",,html-keyboard-response,225,1677994,0.0-15.0-0.19,17210,List2A,white,man,,,,null,,,,,,,,,
null,"<img src=""stim_listA/greet8.gif""style=""height:400px;""></stim_listA>",,html-keyboard-response,226,1679997,0.0-15.0-1.19,17210,List2A,white,man,,,,null,,,,,,,,,
null,is being greeted by,,html-keyboard-response,227,1682010,0.0-15.0-2.19,17210,List2A,white,man,,,,null,,,,,,,,,
25769,,,survey-text,228,1707779,0.0-15.0-3.19,17210,List2A,white,man,,,,,"{""Q0"":""JANE is being greeted by BETH""}","<img src=""stim_listA/greet8.gif""style=""height:400px;""></stim_listA>",is being greeted by,,,,,,
21328,"<img src='img/portrait_matrix_list2.jpg' style='width:900px;height:500px;''></img><p>If you have memorised all the portraits and names and are ready to start, press Continue.</p><p><strong>Please note: Your memory of these faces will be tested 4 times during this experiment.</strong></p>",0,html-button-response,229,1729107,0.0-16.0-0.0,17210,List2A,white,man,,,,,,,,,,,,,
3916,"<img src=""portrait/WW1.jpg""style=""height:400px;""></img>",1,html-button-response,230,1734035,0.0-16.0-1.0,17210,List2A,white,man,,TRUE,1,,,,,,,,,,
null,CORRECT,,html-keyboard-response,231,1735546,0.0-16.0-2.0-0.0,17210,List2A,white,man,,,,null,,,,,,,,,
9953,"<img src=""portrait/BW1.jpg""style=""height:400px;""></img>",0,html-button-response,232,1745499,0.0-16.0-4.0,17210,List2A,white,man,,TRUE,0,,,,,,,,,,
null,CORRECT,,html-keyboard-response,233,1747003,0.0-16.0-5.0-0.0,17210,List2A,white,man,,,,null,,,,,,,,,
3497,"<img src=""portrait/WW2.jpg""style=""height:400px;""></img>",3,html-button-response,234,1750500,0.0-16.0-7.0,17210,List2A,white,man,,TRUE,3,,,,,,,,,,
null,CORRECT,,html-keyboard-response,235,1752005,0.0-16.0-8.0-0.0,17210,List2A,white,man,,,,null,,,,,,,,,
3582,"<img src=""portrait/BW2.jpg""style=""height:400px;""></img>",2,html-button-response,236,1755587,0.0-16.0-10.0,17210,List2A,white,man,,TRUE,2,,,,,,,,,,
null,CORRECT,,html-keyboard-response,237,1757101,0.0-16.0-11.0-0.0,17210,List2A,white,man,,,,null,,,,,,,,,
3311,"<img src=""portrait/BM1.jpg""style=""height:400px;""></img>",4,html-button-response,238,1760412,0.0-16.0-13.0,17210,List2A,white,man,,TRUE,4,,,,,,,,,,
null,CORRECT,,html-keyboard-response,239,1761927,0.0-16.0-14.0-0.0,17210,List2A,white,man,,,,null,,,,,,,,,
3764,"<img src=""portrait/WM2.jpg""style=""height:400px;""></img>",7,html-button-response,240,1765691,0.0-16.0-16.0,17210,List2A,white,man,,TRUE,7,,,,,,,,,,
null,CORRECT,,html-keyboard-response,241,1767203,0.0-16.0-17.0-0.0,17210,List2A,white,man,,,,null,,,,,,,,,
4432,"<img src=""portrait/BM2.jpg""style=""height:400px;""></img>",5,html-button-response,242,1771635,0.0-16.0-19.0,17210,List2A,white,man,,TRUE,5,,,,,,,,,,
null,CORRECT,,html-keyboard-response,243,1773141,0.0-16.0-20.0-0.0,17210,List2A,white,man,,,,null,,,,,,,,,
3174,"<img src=""portrait/WM1.jpg""style=""height:400px;""></img>",6,html-button-response,244,1776315,0.0-16.0-22.0,17210,List2A,white,man,,TRUE,6,,,,,,,,,,
null,CORRECT,,html-keyboard-response,245,1777819,0.0-16.0-23.0-0.0,17210,List2A,white,man,,,,null,,,,,,,,,
1640,<p>You got 8 out of 8 right first time. Press Continue.</p>,0,html-button-response,246,1779459,0.0-16.0-25.0,17210,List2A,white,man,,,,,,,,,,,,,
null,"<div style=""font-size:60px;"">+</div>",,html-keyboard-response,247,1780983,0.0-17.0-0.0,17210,List2A,white,man,,,,null,,,,,,,,,
null,"<img src=""stim_listA/copy1.gif""style=""height:400px;""></stim_listA>",,html-keyboard-response,248,1782998,0.0-17.0-1.0,17210,List2A,white,man,,,,null,,,,,,,,,
null,is copying,,html-keyboard-response,249,1785006,0.0-17.0-2.0,17210,List2A,white,man,,,,null,,,,,,,,,
26436,,,survey-text,250,1811442,0.0-17.0-3.0,17210,List2A,white,man,,,,,"{""Q0"":""DAVE is copying RUTH""}","<img src=""stim_listA/copy1.gif""style=""height:400px;""></stim_listA>",is copying,,,,,,
null,"<div style=""font-size:60px;"">+</div>",,html-keyboard-response,251,1811948,0.0-17.0-0.1,17210,List2A,white,man,,,,null,,,,,,,,,
null,"<img src=""stim_listA/greet4.gif""style=""height:400px;""></stim_listA>",,html-keyboard-response,252,1813953,0.0-17.0-1.1,17210,List2A,white,man,,,,null,,,,,,,,,
null,is being greeted by,,html-keyboard-response,253,1815960,0.0-17.0-2.1,17210,List2A,white,man,,,,null,,,,,,,,,
19497,,,survey-text,254,1835457,0.0-17.0-3.1,17210,List2A,white,man,,,,,"{""Q0"":""FRED is being greeted by KATE""}","<img src=""stim_listA/greet4.gif""style=""height:400px;""></stim_listA>",is being greeted by,,,,,,
null,"<div style=""font-size:60px;"">+</div>",,html-keyboard-response,255,1835968,0.0-17.0-0.2,17210,List2A,white,man,,,,null,,,,,,,,,
null,"<img src=""stim_listA/hug4.gif""style=""height:400px;""></stim_listA>",,html-keyboard-response,256,1837984,0.0-17.0-1.2,17210,List2A,white,man,,,,null,,,,,,,,,
null,is being hugged by,,html-keyboard-response,257,1839988,0.0-17.0-2.2,17210,List2A,white,man,,,,null,,,,,,,,,
29222,,,survey-text,258,1869210,0.0-17.0-3.2,17210,List2A,white,man,,,,,"{""Q0"":""MIKE is being hugged by KATE""}","<img src=""stim_listA/hug4.gif""style=""height:400px;""></stim_listA>",is being hugged by,,,,,,
null,"<div style=""font-size:60px;"">+</div>",,html-keyboard-response,259,1869712,0.0-17.0-0.3,17210,List2A,white,man,,,,null,,,,,,,,,
null,"<img src=""stim_listA/challenge2.gif""style=""height:400px;""></stim_listA>",,html-keyboard-response,260,1871718,0.0-17.0-1.3,17210,List2A,white,man,,,,null,,,,,,,,,
null,is being challenged by,,html-keyboard-response,261,1873731,0.0-17.0-2.3,17210,List2A,white,man,,,,null,,,,,,,,,
25697,,,survey-text,262,1899428,0.0-17.0-3.3,17210,List2A,white,man,,,,,"{""Q0"":""DAVE is being challenged by BETH""}","<img src=""stim_listA/challenge2.gif""style=""height:400px;""></stim_listA>",is being challenged by,,,,,,
null,"<div style=""font-size:60px;"">+</div>",,html-keyboard-response,263,1899928,0.0-17.0-0.4,17210,List2A,white,man,,,,null,,,,,,,,,
null,"<img src=""stim_listA/kiss4.gif""style=""height:400px;""></stim_listA>",,html-keyboard-response,264,1901930,0.0-17.0-1.4,17210,List2A,white,man,,,,null,,,,,,,,,
null,is being kissed by,,html-keyboard-response,265,1903933,0.0-17.0-2.4,17210,List2A,white,man,,,,null,,,,,,,,,
14882,,,survey-text,266,1918815,0.0-17.0-3.4,17210,List2A,white,man,,,,,"{""Q0"":""MIKE is being kissed KATE""}","<img src=""stim_listA/kiss4.gif""style=""height:400px;""></stim_listA>",is being kissed by,,,,,,
null,"<div style=""font-size:60px;"">+</div>",,html-keyboard-response,267,1919322,0.0-17.0-0.5,17210,List2A,white,man,,,,null,,,,,,,,,
null,"<img src=""stim_listA/kiss2.gif""style=""height:400px;""></stim_listA>",,html-keyboard-response,268,1921330,0.0-17.0-1.5,17210,List2A,white,man,,,,null,,,,,,,,,
null,is being kissed by,,html-keyboard-response,269,1923332,0.0-17.0-2.5,17210,List2A,white,man,,,,null,,,,,,,,,
23875,,,survey-text,270,1947207,0.0-17.0-3.5,17210,List2A,white,man,,,,,"{""Q0"":""JANE is being kissed by DAVE""}","<img src=""stim_listA/kiss2.gif""style=""height:400px;""></stim_listA>",is being kissed by,,,,,,
null,"<div style=""font-size:60px;"">+</div>",,html-keyboard-response,271,1947709,0.0-17.0-0.6,17210,List2A,white,man,,,,null,,,,,,,,,
null,"<img src=""stim_listA/look3.gif""style=""height:400px;""></stim_listA>",,html-keyboard-response,272,1949712,0.0-17.0-1.6,17210,List2A,white,man,,,,null,,,,,,,,,
null,is looking at,,html-keyboard-response,273,1951715,0.0-17.0-2.6,17210,List2A,white,man,,,,null,,,,,,,,,
11840,,,survey-text,274,1963555,0.0-17.0-3.6,17210,List2A,white,man,,,,,"{""Q0"":""FRED is looking at BETH""}","<img src=""stim_listA/look3.gif""style=""height:400px;""></stim_listA>",is looking at,,,,,,
null,"<div style=""font-size:60px;"">+</div>",,html-keyboard-response,275,1964065,0.0-17.0-0.7,17210,List2A,white,man,,,,null,,,,,,,,,
null,"<img src=""stim_listA/look4.gif""style=""height:400px;""></stim_listA>",,html-keyboard-response,276,1966069,0.0-17.0-1.7,17210,List2A,white,man,,,,null,,,,,,,,,
null,is being looked at by,,html-keyboard-response,277,1968081,0.0-17.0-2.7,17210,List2A,white,man,,,,null,,,,,,,,,
17333,,,survey-text,278,1985414,0.0-17.0-3.7,17210,List2A,white,man,,,,,"{""Q0"":""MIKE is being looked at by KATE""}","<img src=""stim_listA/look4.gif""style=""height:400px;""></stim_listA>",is being looked at by,,,,,,
null,"<div style=""font-size:60px;"">+</div>",,html-keyboard-response,279,1985925,0.0-17.0-0.8,17210,List2A,white,man,,,,null,,,,,,,,,
null,"<img src=""stim_listA/touch4.gif""style=""height:400px;""></stim_listA>",,html-keyboard-response,280,1987931,0.0-17.0-1.8,17210,List2A,white,man,,,,null,,,,,,,,,
null,is being touched by,,html-keyboard-response,281,1989942,0.0-17.0-2.8,17210,List2A,white,man,,,,null,,,,,,,,,
19178,,,survey-text,282,2009120,0.0-17.0-3.8,17210,List2A,white,man,,,,,"{""Q0"":""FRED is being touched by BETH""}","<img src=""stim_listA/touch4.gif""style=""height:400px;""></stim_listA>",is being touched by,,,,,,
null,"<div style=""font-size:60px;"">+</div>",,html-keyboard-response,283,2009621,0.0-17.0-0.9,17210,List2A,white,man,,,,null,,,,,,,,,
null,"<img src=""stim_listA/greet5.gif""style=""height:400px;""></stim_listA>",,html-keyboard-response,284,2011630,0.0-17.0-1.9,17210,List2A,white,man,,,,null,,,,,,,,,
null,is greeting,,html-keyboard-response,285,2013642,0.0-17.0-2.9,17210,List2A,white,man,,,,null,,,,,,,,,
10990,,,survey-text,286,2024632,0.0-17.0-3.9,17210,List2A,white,man,,,,,"{""Q0"":""FRED is greeting DAVE""}","<img src=""stim_listA/greet5.gif""style=""height:400px;""></stim_listA>",is greeting,,,,,,
null,"<div style=""font-size:60px;"">+</div>",,html-keyboard-response,287,2025142,0.0-17.0-0.10,17210,List2A,white,man,,,,null,,,,,,,,,
null,"<img src=""stim_listA/touch2.gif""style=""height:400px;""></stim_listA>",,html-keyboard-response,288,2027158,0.0-17.0-1.10,17210,List2A,white,man,,,,null,,,,,,,,,
null,is being touched by,,html-keyboard-response,289,2029173,0.0-17.0-2.10,17210,List2A,white,man,,,,null,,,,,,,,,
27590,,,survey-text,290,2056763,0.0-17.0-3.10,17210,List2A,white,man,,,,,"{""Q0"":""RUTH is being touched by LUKE""}","<img src=""stim_listA/touch2.gif""style=""height:400px;""></stim_listA>",is being touched by,,,,,,
null,"<div style=""font-size:60px;"">+</div>",,html-keyboard-response,291,2057274,0.0-17.0-0.11,17210,List2A,white,man,,,,null,,,,,,,,,
null,"<img src=""stim_listA/touch3.gif""style=""height:400px;""></stim_listA>",,html-keyboard-response,292,2059278,0.0-17.0-1.11,17210,List2A,white,man,,,,null,,,,,,,,,
null,is touching,,html-keyboard-response,293,2061286,0.0-17.0-2.11,17210,List2A,white,man,,,,null,,,,,,,,,
11053,,,survey-text,294,2072339,0.0-17.0-3.11,17210,List2A,white,man,,,,,"{""Q0"":""MIKE is touching KATE""}","<img src=""stim_listA/touch3.gif""style=""height:400px;""></stim_listA>",is touching,,,,,,
null,"<div style=""font-size:60px;"">+</div>",,html-keyboard-response,295,2072841,0.0-17.0-0.12,17210,List2A,white,man,,,,null,,,,,,,,,
null,"<img src=""stim_listA/touch5.gif""style=""height:400px;""></stim_listA>",,html-keyboard-response,296,2074858,0.0-17.0-1.12,17210,List2A,white,man,,,,null,,,,,,,,,
null,is touching,,html-keyboard-response,297,2076872,0.0-17.0-2.12,17210,List2A,white,man,,,,null,,,,,,,,,
14580,,,survey-text,298,2091452,0.0-17.0-3.12,17210,List2A,white,man,,,,,"{""Q0"":""DAVE is touching MIKE""}","<img src=""stim_listA/touch5.gif""style=""height:400px;""></stim_listA>",is touching,,,,,,
null,"<div style=""font-size:60px;"">+</div>",,html-keyboard-response,299,2091955,0.0-17.0-0.13,17210,List2A,white,man,,,,null,,,,,,,,,
null,"<img src=""stim_listA/shout1.gif""style=""height:400px;""></stim_listA>",,html-keyboard-response,300,2093958,0.0-17.0-1.13,17210,List2A,white,man,,,,null,,,,,,,,,
null,is shouting at,,html-keyboard-response,301,2095965,0.0-17.0-2.13,17210,List2A,white,man,,,,null,,,,,,,,,
11993,,,survey-text,302,2107958,0.0-17.0-3.13,17210,List2A,white,man,,,,,"{""Q0"":""RUTH is shouting at LUKE""}","<img src=""stim_listA/shout1.gif""style=""height:400px;""></stim_listA>",is shouting at,,,,,,
null,"<div style=""font-size:60px;"">+</div>",,html-keyboard-response,303,2108468,0.0-17.0-0.14,17210,List2A,white,man,,,,null,,,,,,,,,
null,"<img src=""stim_listA/touch7.gif""style=""height:400px;""></stim_listA>",,html-keyboard-response,304,2110473,0.0-17.0-1.14,17210,List2A,white,man,,,,null,,,,,,,,,
null,is touching,,html-keyboard-response,305,2112477,0.0-17.0-2.14,17210,List2A,white,man,,,,null,,,,,,,,,
11248,,,survey-text,306,2123725,0.0-17.0-3.14,17210,List2A,white,man,,,,,"{""Q0"":""KATE is touching JANE""}","<img src=""stim_listA/touch7.gif""style=""height:400px;""></stim_listA>",is touching,,,,,,
null,"<div style=""font-size:60px;"">+</div>",,html-keyboard-response,307,2124237,0.0-17.0-0.15,17210,List2A,white,man,,,,null,,,,,,,,,
null,"<img src=""stim_listA/copy7.gif""style=""height:400px;""></stim_listA>",,html-keyboard-response,308,2126240,0.0-17.0-1.15,17210,List2A,white,man,,,,null,,,,,,,,,
null,is copying,,html-keyboard-response,309,2128242,0.0-17.0-2.15,17210,List2A,white,man,,,,null,,,,,,,,,
10750,,,survey-text,310,2138992,0.0-17.0-3.15,17210,List2A,white,man,,,,,"{""Q0"":""JANE is copying BETH""}","<img src=""stim_listA/copy7.gif""style=""height:400px;""></stim_listA>",is copying,,,,,,
null,"<div style=""font-size:60px;"">+</div>",,html-keyboard-response,311,2139495,0.0-17.0-0.16,17210,List2A,white,man,,,,null,,,,,,,,,
null,"<img src=""stim_listA/greet6.gif""style=""height:400px;""></stim_listA>",,html-keyboard-response,312,2141505,0.0-17.0-1.16,17210,List2A,white,man,,,,null,,,,,,,,,
null,is being greeted by,,html-keyboard-response,313,2143509,0.0-17.0-2.16,17210,List2A,white,man,,,,null,,,,,,,,,
12586,,,survey-text,314,2156095,0.0-17.0-3.16,17210,List2A,white,man,,,,,"{""Q0"":""MIKE is being greeted by LUKE""}","<img src=""stim_listA/greet6.gif""style=""height:400px;""></stim_listA>",is being greeted by,,,,,,
null,"<div style=""font-size:60px;"">+</div>",,html-keyboard-response,315,2156605,0.0-17.0-0.17,17210,List2A,white,man,,,,null,,,,,,,,,
null,"<img src=""stim_listA/challenge6.gif""style=""height:400px;""></stim_listA>",,html-keyboard-response,316,2158608,0.0-17.0-1.17,17210,List2A,white,man,,,,null,,,,,,,,,
null,is being challenged by,,html-keyboard-response,317,2160623,0.0-17.0-2.17,17210,List2A,white,man,,,,null,,,,,,,,,
14257,,,survey-text,318,2174880,0.0-17.0-3.17,17210,List2A,white,man,,,,,"{""Q0"":""MIKE is being challenged by LUKE""}","<img src=""stim_listA/challenge6.gif""style=""height:400px;""></stim_listA>",is being challenged by,,,,,,
null,"<div style=""font-size:60px;"">+</div>",,html-keyboard-response,319,2175391,0.0-17.0-0.18,17210,List2A,white,man,,,,null,,,,,,,,,
null,"<img src=""stim_listA/seduce7.gif""style=""height:400px;""></stim_listA>",,html-keyboard-response,320,2177405,0.0-17.0-1.18,17210,List2A,white,man,,,,null,,,,,,,,,
null,is seducing,,html-keyboard-response,321,2179421,0.0-17.0-2.18,17210,List2A,white,man,,,,null,,,,,,,,,
9301,,,survey-text,322,2188722,0.0-17.0-3.18,17210,List2A,white,man,,,,,"{""Q0"":""KATE is seducing RUTH""}","<img src=""stim_listA/seduce7.gif""style=""height:400px;""></stim_listA>",is seducing,,,,,,
null,"<div style=""font-size:60px;"">+</div>",,html-keyboard-response,323,2189225,0.0-17.0-0.19,17210,List2A,white,man,,,,null,,,,,,,,,
null,"<img src=""stim_listA/touch1.gif""style=""height:400px;""></stim_listA>",,html-keyboard-response,324,2191238,0.0-17.0-1.19,17210,List2A,white,man,,,,null,,,,,,,,,
null,is touching,,html-keyboard-response,325,2193240,0.0-17.0-2.19,17210,List2A,white,man,,,,null,,,,,,,,,
11363,,,survey-text,326,2204603,0.0-17.0-3.19,17210,List2A,white,man,,,,,"{""Q0"":""JANE is touching DAVE""}","<img src=""stim_listA/touch1.gif""style=""height:400px;""></stim_listA>",is touching,,,,,,
31296,"<img src='img/portrait_matrix_list2.jpg' style='width:900px;height:500px;''></img><p>If you have memorised all the portraits and names and are ready to start, press Continue.</p><p><strong>Please note: Your memory of these faces will be tested 4 times during this experiment.</strong></p>",0,html-button-response,327,2235899,0.0-18.0-0.0,17210,List2A,white,man,,,,,,,,,,,,,
7213,"<img src=""portrait/BM2.jpg""style=""height:400px;""></img>",5,html-button-response,328,2244115,0.0-18.0-1.0,17210,List2A,white,man,,TRUE,5,,,,,,,,,,
null,CORRECT,,html-keyboard-response,329,2245620,0.0-18.0-2.0-0.0,17210,List2A,white,man,,,,null,,,,,,,,,
14519,"<img src=""portrait/BW2.jpg""style=""height:400px;""></img>",2,html-button-response,330,2260139,0.0-18.0-4.0,17210,List2A,white,man,,TRUE,2,,,,,,,,,,
null,CORRECT,,html-keyboard-response,331,2261648,0.0-18.0-5.0-0.0,17210,List2A,white,man,,,,null,,,,,,,,,
3676,"<img src=""portrait/WW1.jpg""style=""height:400px;""></img>",1,html-button-response,332,2265324,0.0-18.0-7.0,17210,List2A,white,man,,TRUE,1,,,,,,,,,,
null,CORRECT,,html-keyboard-response,333,2266827,0.0-18.0-8.0-0.0,17210,List2A,white,man,,,,null,,,,,,,,,
3171,"<img src=""portrait/WW2.jpg""style=""height:400px;""></img>",3,html-button-response,334,2269998,0.0-18.0-10.0,17210,List2A,white,man,,TRUE,3,,,,,,,,,,
null,CORRECT,,html-keyboard-response,335,2271503,0.0-18.0-11.0-0.0,17210,List2A,white,man,,,,null,,,,,,,,,
4924,"<img src=""portrait/BW1.jpg""style=""height:400px;""></img>",0,html-button-response,336,2276427,0.0-18.0-13.0,17210,List2A,white,man,,TRUE,0,,,,,,,,,,
null,CORRECT,,html-keyboard-response,337,2277935,0.0-18.0-14.0-0.0,17210,List2A,white,man,,,,null,,,,,,,,,
3461,"<img src=""portrait/WM1.jpg""style=""height:400px;""></img>",6,html-button-response,338,2281396,0.0-18.0-16.0,17210,List2A,white,man,,TRUE,6,,,,,,,,,,
null,CORRECT,,html-keyboard-response,339,2282909,0.0-18.0-17.0-0.0,17210,List2A,white,man,,,,null,,,,,,,,,
3518,"<img src=""portrait/BM1.jpg""style=""height:400px;""></img>",4,html-button-response,340,2286427,0.0-18.0-19.0,17210,List2A,white,man,,TRUE,4,,,,,,,,,,
null,CORRECT,,html-keyboard-response,341,2287933,0.0-18.0-20.0-0.0,17210,List2A,white,man,,,,null,,,,,,,,,
2726,"<img src=""portrait/WM2.jpg""style=""height:400px;""></img>",7,html-button-response,342,2290659,0.0-18.0-22.0,17210,List2A,white,man,,TRUE,7,,,,,,,,,,
null,CORRECT,,html-keyboard-response,343,2292182,0.0-18.0-23.0-0.0,17210,List2A,white,man,,,,null,,,,,,,,,
1805,<p>You got 8 out of 8 right first time. Press Continue.</p>,0,html-button-response,344,2293987,0.0-18.0-25.0,17210,List2A,white,man,,,,,,,,,,,,,
null,"<div style=""font-size:60px;"">+</div>",,html-keyboard-response,345,2295502,0.0-19.0-0.0,17210,List2A,white,man,,,,null,,,,,,,,,
null,"<img src=""stim_listA/hug1.gif""style=""height:400px;""></stim_listA>",,html-keyboard-response,346,2297516,0.0-19.0-1.0,17210,List2A,white,man,,,,null,,,,,,,,,
null,is hugging,,html-keyboard-response,347,2299519,0.0-19.0-2.0,17210,List2A,white,man,,,,null,,,,,,,,,
13918,,,survey-text,348,2313437,0.0-19.0-3.0,17210,List2A,white,man,,,,,"{""Q0"":""LUKE is hugging RUTH""}","<img src=""stim_listA/hug1.gif""style=""height:400px;""></stim_listA>",is hugging,,,,,,
null,"<div style=""font-size:60px;"">+</div>",,html-keyboard-response,349,2313945,0.0-19.0-0.1,17210,List2A,white,man,,,,null,,,,,,,,,
null,"<img src=""stim_listA/look2.gif""style=""height:400px;""></stim_listA>",,html-keyboard-response,350,2315951,0.0-19.0-1.1,17210,List2A,white,man,,,,null,,,,,,,,,
null,is being looked at by,,html-keyboard-response,351,2317963,0.0-19.0-2.1,17210,List2A,white,man,,,,null,,,,,,,,,
18848,,,survey-text,352,2336811,0.0-19.0-3.1,17210,List2A,white,man,,,,,"{""Q0"":""JANE is being looked at by DAVE""}","<img src=""stim_listA/look2.gif""style=""height:400px;""></stim_listA>",is being looked at by,,,,,,
null,"<div style=""font-size:60px;"">+</div>",,html-keyboard-response,353,2337315,0.0-19.0-0.2,17210,List2A,white,man,,,,null,,,,,,,,,
null,"<img src=""stim_listA/touch6.gif""style=""height:400px;""></stim_listA>",,html-keyboard-response,354,2339322,0.0-19.0-1.2,17210,List2A,white,man,,,,null,,,,,,,,,
null,is being touched by,,html-keyboard-response,355,2341323,0.0-19.0-2.2,17210,List2A,white,man,,,,null,,,,,,,,,
12712,,,survey-text,356,2354035,0.0-19.0-3.2,17210,List2A,white,man,,,,,"{""Q0"":""FRED is being touched by LUKE""}","<img src=""stim_listA/touch6.gif""style=""height:400px;""></stim_listA>",is being touched by,,,,,,
null,"<div style=""font-size:60px;"">+</div>",,html-keyboard-response,357,2354550,0.0-19.0-0.3,17210,List2A,white,man,,,,null,,,,,,,,,
null,"<img src=""stim_listA/copy4.gif""style=""height:400px;""></stim_listA>",,html-keyboard-response,358,2356562,0.0-19.0-1.3,17210,List2A,white,man,,,,null,,,,,,,,,
null,is being copied by,,html-keyboard-response,359,2358570,0.0-19.0-2.3,17210,List2A,white,man,,,,null,,,,,,,,,
14721,,,survey-text,360,2373291,0.0-19.0-3.3,17210,List2A,white,man,,,,,"{""Q0"":""FRED is being copied by KATE""}","<img src=""stim_listA/copy4.gif""style=""height:400px;""></stim_listA>",is being copied by,,,,,,
null,"<div style=""font-size:60px;"">+</div>",,html-keyboard-response,361,2373794,0.0-19.0-0.4,17210,List2A,white,man,,,,null,,,,,,,,,
null,"<img src=""stim_listA/oppose2.gif""style=""height:400px;""></stim_listA>",,html-keyboard-response,362,2375796,0.0-19.0-1.4,17210,List2A,white,man,,,,null,,,,,,,,,
null,is being opposed by,,html-keyboard-response,363,2377798,0.0-19.0-2.4,17210,List2A,white,man,,,,null,,,,,,,,,
12653,,,survey-text,364,2390451,0.0-19.0-3.4,17210,List2A,white,man,,,,,"{""Q0"":""RUTH is being opposed by LUKE""}","<img src=""stim_listA/oppose2.gif""style=""height:400px;""></stim_listA>",is being opposed by,,,,,,
null,"<div style=""font-size:60px;"">+</div>",,html-keyboard-response,365,2390961,0.0-19.0-0.5,17210,List2A,white,man,,,,null,,,,,,,,,
null,"<img src=""stim_listA/oppose6.gif""style=""height:400px;""></stim_listA>",,html-keyboard-response,366,2392963,0.0-19.0-1.5,17210,List2A,white,man,,,,null,,,,,,,,,
null,is being opposed by,,html-keyboard-response,367,2394969,0.0-19.0-2.5,17210,List2A,white,man,,,,null,,,,,,,,,
12626,,,survey-text,368,2407595,0.0-19.0-3.5,17210,List2A,white,man,,,,,"{""Q0"":""LUKE is being opposed by FRED""}","<img src=""stim_listA/oppose6.gif""style=""height:400px;""></stim_listA>",is being opposed by,,,,,,
null,"<div style=""font-size:60px;"">+</div>",,html-keyboard-response,369,2408097,0.0-19.0-0.6,17210,List2A,white,man,,,,null,,,,,,,,,
null,"<img src=""stim_listA/copy2.gif""style=""height:400px;""></stim_listA>",,html-keyboard-response,370,2410099,0.0-19.0-1.6,17210,List2A,white,man,,,,null,,,,,,,,,
null,is being copied by,,html-keyboard-response,371,2412101,0.0-19.0-2.6,17210,List2A,white,man,,,,null,,,,,,,,,
14854,,,survey-text,372,2426955,0.0-19.0-3.6,17210,List2A,white,man,,,,,"{""Q0"":""LUKE is being copied by JANE""}","<img src=""stim_listA/copy2.gif""style=""height:400px;""></stim_listA>",is being copied by,,,,,,
null,"<div style=""font-size:60px;"">+</div>",,html-keyboard-response,373,2427458,0.0-19.0-0.7,17210,List2A,white,man,,,,null,,,,,,,,,
null,"<img src=""stim_listA/copy5.gif""style=""height:400px;""></stim_listA>",,html-keyboard-response,374,2429461,0.0-19.0-1.7,17210,List2A,white,man,,,,null,,,,,,,,,
null,is copying,,html-keyboard-response,375,2431472,0.0-19.0-2.7,17210,List2A,white,man,,,,null,,,,,,,,,
12331,,,survey-text,376,2443803,0.0-19.0-3.7,17210,List2A,white,man,,,,,"{""Q0"":""FRED is copying DAVE""}","<img src=""stim_listA/copy5.gif""style=""height:400px;""></stim_listA>",is copying,,,,,,
null,"<div style=""font-size:60px;"">+</div>",,html-keyboard-response,377,2444308,0.0-19.0-0.8,17210,List2A,white,man,,,,null,,,,,,,,,
null,"<img src=""stim_listA/look8.gif""style=""height:400px;""></stim_listA>",,html-keyboard-response,378,2446310,0.0-19.0-1.8,17210,List2A,white,man,,,,null,,,,,,,,,
null,is being looked at by,,html-keyboard-response,379,2448315,0.0-19.0-2.8,17210,List2A,white,man,,,,null,,,,,,,,,
16832,,,survey-text,380,2465148,0.0-19.0-3.8,17210,List2A,white,man,,,,,"{""Q0"":""KATE is being looked at by JANE""}","<img src=""stim_listA/look8.gif""style=""height:400px;""></stim_listA>",is being looked at by,,,,,,
null,"<div style=""font-size:60px;"">+</div>",,html-keyboard-response,381,2465652,0.0-19.0-0.9,17210,List2A,white,man,,,,null,,,,,,,,,
null,"<img src=""stim_listA/touch8.gif""style=""height:400px;""></stim_listA>",,html-keyboard-response,382,2467657,0.0-19.0-1.9,17210,List2A,white,man,,,,null,,,,,,,,,
null,is being touched by,,html-keyboard-response,383,2469671,0.0-19.0-2.9,17210,List2A,white,man,,,,null,,,,,,,,,
15228,,,survey-text,384,2484899,0.0-19.0-3.9,17210,List2A,white,man,,,,,"{""Q0"":""BETH is being touched by RUTH""}","<img src=""stim_listA/touch8.gif""style=""height:400px;""></stim_listA>",is being touched by,,,,,,
null,"<div style=""font-size:60px;"">+</div>",,html-keyboard-response,385,2485412,0.0-19.0-0.10,17210,List2A,white,man,,,,null,,,,,,,,,
null,"<img src=""stim_listA/greet3.gif""style=""height:400px;""></stim_listA>",,html-keyboard-response,386,2487419,0.0-19.0-1.10,17210,List2A,white,man,,,,null,,,,,,,,,
null,is greeting,,html-keyboard-response,387,2489424,0.0-19.0-2.10,17210,List2A,white,man,,,,null,,,,,,,,,
9612,,,survey-text,388,2499044,0.0-19.0-3.10,17210,List2A,white,man,,,,,"{""Q0"":""MIKE is greeting BETH""}","<img src=""stim_listA/greet3.gif""style=""height:400px;""></stim_listA>",is greeting,,,,,,
null,"<div style=""font-size:60px;"">+</div>",,html-keyboard-response,389,2499558,0.0-19.0-0.11,17210,List2A,white,man,,,,null,,,,,,,,,
null,"<img src=""stim_listA/shout5.gif""style=""height:400px;""></stim_listA>",,html-keyboard-response,390,2501565,0.0-19.0-1.11,17210,List2A,white,man,,,,null,,,,,,,,,
null,is shouting at,,html-keyboard-response,391,2503568,0.0-19.0-2.11,17210,List2A,white,man,,,,null,,,,,,,,,
10284,,,survey-text,392,2513851,0.0-19.0-3.11,17210,List2A,white,man,,,,,"{""Q0"":""FRED is shouting at LUKE""}","<img src=""stim_listA/shout5.gif""style=""height:400px;""></stim_listA>",is shouting at,,,,,,
null,"<div style=""font-size:60px;"">+</div>",,html-keyboard-response,393,2514355,0.0-19.0-0.12,17210,List2A,white,man,,,,null,,,,,,,,,
null,"<img src=""stim_listA/seduce4.gif""style=""height:400px;""></stim_listA>",,html-keyboard-response,394,2516363,0.0-19.0-1.12,17210,List2A,white,man,,,,null,,,,,,,,,
null,is being seduced by,,html-keyboard-response,395,2518367,0.0-19.0-2.12,17210,List2A,white,man,,,,null,,,,,,,,,
16980,,,survey-text,396,2535347,0.0-19.0-3.12,17210,List2A,white,man,,,,,"{""Q0"":""MIKE is being seduced by KATE""}","<img src=""stim_listA/seduce4.gif""style=""height:400px;""></stim_listA>",is being seduced by,,,,,,
null,"<div style=""font-size:60px;"">+</div>",,html-keyboard-response,397,2535858,0.0-19.0-0.13,17210,List2A,white,man,,,,null,,,,,,,,,
null,"<img src=""stim_listA/look5.gif""style=""height:400px;""></stim_listA>",,html-keyboard-response,398,2537869,0.0-19.0-1.13,17210,List2A,white,man,,,,null,,,,,,,,,
null,is looking at,,html-keyboard-response,399,2539883,0.0-19.0-2.13,17210,List2A,white,man,,,,null,,,,,,,,,
13176,,,survey-text,400,2553059,0.0-19.0-3.13,17210,List2A,white,man,,,,,"{""Q0"":""FRED is looking at LUKE""}","<img src=""stim_listA/look5.gif""style=""height:400px;""></stim_listA>",is looking at,,,,,,
null,"<div style=""font-size:60px;"">+</div>",,html-keyboard-response,401,2553570,0.0-19.0-0.14,17210,List2A,white,man,,,,null,,,,,,,,,
null,"<img src=""stim_listA/kiss5.gif""style=""height:400px;""></stim_listA>",,html-keyboard-response,402,2555573,0.0-19.0-1.14,17210,List2A,white,man,,,,null,,,,,,,,,
null,is kissing,,html-keyboard-response,403,2557579,0.0-19.0-2.14,17210,List2A,white,man,,,,null,,,,,,,,,
10192,,,survey-text,404,2567771,0.0-19.0-3.14,17210,List2A,white,man,,,,,"{""Q0"":""FRED is kissing LUKE""}","<img src=""stim_listA/kiss5.gif""style=""height:400px;""></stim_listA>",is kissing,,,,,,
null,"<div style=""font-size:60px;"">+</div>",,html-keyboard-response,405,2568274,0.0-19.0-0.15,17210,List2A,white,man,,,,null,,,,,,,,,
null,"<img src=""stim_listA/challenge4.gif""style=""height:400px;""></stim_listA>",,html-keyboard-response,406,2570288,0.0-19.0-1.15,17210,List2A,white,man,,,,null,,,,,,,,,
null,is being challenged by,,html-keyboard-response,407,2572291,0.0-19.0-2.15,17210,List2A,white,man,,,,null,,,,,,,,,
17897,,,survey-text,408,2590188,0.0-19.0-3.15,17210,List2A,white,man,,,,,"{""Q0"":""FRED is being challenged by KATE""}","<img src=""stim_listA/challenge4.gif""style=""height:400px;""></stim_listA>",is being challenged by,,,,,,
null,"<div style=""font-size:60px;"">+</div>",,html-keyboard-response,409,2590690,0.0-19.0-0.16,17210,List2A,white,man,,,,null,,,,,,,,,
null,"<img src=""stim_listA/hug6.gif""style=""height:400px;""></stim_listA>",,html-keyboard-response,410,2592704,0.0-19.0-1.16,17210,List2A,white,man,,,,null,,,,,,,,,
null,is being hugged by,,html-keyboard-response,411,2594711,0.0-19.0-2.16,17210,List2A,white,man,,,,null,,,,,,,,,
14212,,,survey-text,412,2608923,0.0-19.0-3.16,17210,List2A,white,man,,,,,"{""Q0"":""MIKE is being hugged by DAVE""}","<img src=""stim_listA/hug6.gif""style=""height:400px;""></stim_listA>",is being hugged by,,,,,,
null,"<div style=""font-size:60px;"">+</div>",,html-keyboard-response,413,2609436,0.0-19.0-0.17,17210,List2A,white,man,,,,null,,,,,,,,,
null,"<img src=""stim_listA/seduce3.gif""style=""height:400px;""></stim_listA>",,html-keyboard-response,414,2611437,0.0-19.0-1.17,17210,List2A,white,man,,,,null,,,,,,,,,
null,is seducing,,html-keyboard-response,415,2613438,0.0-19.0-2.17,17210,List2A,white,man,,,,null,,,,,,,,,
13406,,,survey-text,416,2626844,0.0-19.0-3.17,17210,List2A,white,man,,,,,"{""Q0"":""FRED is seducing KATE""}","<img src=""stim_listA/seduce3.gif""style=""height:400px;""></stim_listA>",is seducing,,,,,,
null,"<div style=""font-size:60px;"">+</div>",,html-keyboard-response,417,2627355,0.0-19.0-0.18,17210,List2A,white,man,,,,null,,,,,,,,,
null,"<img src=""stim_listA/kiss6.gif""style=""height:400px;""></stim_listA>",,html-keyboard-response,418,2629363,0.0-19.0-1.18,17210,List2A,white,man,,,,null,,,,,,,,,
null,is being kissed by,,html-keyboard-response,419,2631370,0.0-19.0-2.18,17210,List2A,white,man,,,,null,,,,,,,,,
17494,,,survey-text,420,2648864,0.0-19.0-3.18,17210,List2A,white,man,,,,,"{""Q0"":""MIKE is being kissed by DAVE""}","<img src=""stim_listA/kiss6.gif""style=""height:400px;""></stim_listA>",is being kissed by,,,,,,
null,"<div style=""font-size:60px;"">+</div>",,html-keyboard-response,421,2649377,0.0-19.0-0.19,17210,List2A,white,man,,,,null,,,,,,,,,
null,"<img src=""stim_listA/challenge3.gif""style=""height:400px;""></stim_listA>",,html-keyboard-response,422,2651384,0.0-19.0-1.19,17210,List2A,white,man,,,,null,,,,,,,,,
null,is challenging,,html-keyboard-response,423,2653387,0.0-19.0-2.19,17210,List2A,white,man,,,,null,,,,,,,,,
11240,,,survey-text,424,2664627,0.0-19.0-3.19,17210,List2A,white,man,,,,,"{""Q0"":""MIKE is challenging BETH""}","<img src=""stim_listA/challenge3.gif""style=""height:400px;""></stim_listA>",is challenging,,,,,,
12168,<p>Thank you for completing that task.</p><p>The final part of this session is a questionnaire that will take about 4 minutes.</p><p>Press Continue.</p>,0,html-button-response,425,2676795,0.0-20.0,17210,List2A,white,man,,,,,,,,,,,,,
87992,,,survey-text,426,2765795,0.0-21.0,17210,List2A,white,man,,,,,"{""Q0"":""31"",""Q1"":""ENGLISH"",""Q2"":""ENGLISH"",""Q3"":""UNITED STATES OF AMERICA"",""Q4"":""AMERICAN"",""Q5"":""WHITE"",""Q6"":""MALE""}",,,demographics,,,,,
2089,<p>Have you lived in the USA for the last 5 years or more?</p>,0,html-button-response,427,2767892,0.0-22.0,17210,List2A,white,man,,,,,,,,fiveyears,,,,,
2523,<p>Move the slider to show the extent to which you agree with the following statements.</p>,0,html-button-response,428,2771420,0.0-23.0,17210,List2A,white,man,,,,,,,,,,,,,
2602,,,html-slider-response,429,2775035,0.0-24.0-0.0-0.0,17210,List2A,white,man,,,,,,,,survey_gender,100,,,I feel solidarity with my friends.,filler
2904,,,html-slider-response,430,2777939,0.0-24.0-0.0-0.1,17210,List2A,white,man,,,,,,,,survey_gender,100,,,My friends have a lot in common with each other.,filler
2768,,,html-slider-response,431,2780707,0.0-24.0-0.0-0.2,17210,List2A,white,man,,,,,,,,survey_gender,100,,,Most of the friends in my life are very similar to me.,filler
3472,,,html-slider-response,432,2784179,0.0-24.0-0.0-0.3,17210,List2A,white,man,,,,,,,,survey_gender,100,,,I often think about the fact that I am my gender.,often
3368,,,html-slider-response,433,2787547,0.0-24.0-0.0-0.4,17210,List2A,white,man,,,,,,,,survey_gender,100,,,I have a lot in common with the average person of my gender.,average
3409,,,html-slider-response,434,2790956,0.0-24.0-0.0-0.5,17210,List2A,white,man,,,,,,,,survey_gender,100,,,The fact that I am my gender is an important part of my identity.,identity
17415,,,html-slider-response,435,2808371,0.0-24.0-0.0-0.6,17210,List2A,white,man,,,,,,,,survey_gender,0,,,Family is not more important to me than friendship.,filler
10320,,,html-slider-response,436,2818691,0.0-24.0-0.0-0.7,17210,List2A,white,man,,,,,,,,survey_gender,84,,,It is not always easy for people to know what I am thinking.,filler
7736,,,html-slider-response,437,2826427,0.0-24.0-0.0-0.8,17210,List2A,white,man,,,,,,,,survey_gender,100,,,My friends understand me.,filler
7264,,,html-slider-response,438,2833691,0.0-24.0-0.0-0.9,17210,List2A,white,man,,,,,,,,survey_gender,100,,,I am similar to the average person of my gender.,similar
2624,,,html-slider-response,439,2836315,0.0-24.0-0.0-0.10,17210,List2A,white,man,,,,,,,,survey_gender,100,,,Being my gender is an important part of how I see myself.,important
2305,,,html-slider-response,440,2838620,0.0-24.0-0.0-0.11,17210,List2A,white,man,,,,,,,,survey_gender,100,,,I feel solidarity with my gender.,solidarity
2223,,,html-slider-response,441,2840843,0.0-24.0-0.0-0.12,17210,List2A,white,man,,,,,,,,survey_gender,99,,,Being my gender gives me a good feeling.,feeling
2336,,,html-slider-response,442,2843179,0.0-24.0-0.0-0.13,17210,List2A,white,man,,,,,,,,survey_gender,100,,,I feel committed to my gender.,committed
2624,,,html-slider-response,443,2845803,0.0-24.0-0.0-0.14,17210,List2A,white,man,,,,,,,,survey_gender,99,,,I often think about my actions.,filler
3816,,,html-slider-response,444,2849619,0.0-24.0-0.0-0.15,17210,List2A,white,man,,,,,,,,survey_gender,100,,,I consider myself a highly empathetic person.,filler
2408,,,html-slider-response,445,2852027,0.0-24.0-0.0-0.16,17210,List2A,white,man,,,,,,,,survey_gender,100,,,I feel a bond with my gender.,bond
3328,,,html-slider-response,446,2855355,0.0-24.0-0.0-0.17,17210,List2A,white,man,,,,,,,,survey_gender,100,,,People of my gender have a lot in common with each other.,common
2672,,,html-slider-response,447,2858027,0.0-24.0-0.0-0.18,17210,List2A,white,man,,,,,,,,survey_gender,100,,,Being around my friends gives me a good feeling.,filler
2274,,,html-slider-response,448,2860301,0.0-24.0-0.0-0.19,17210,List2A,white,man,,,,,,,,survey_gender,100,,,I am glad to be my gender.,glad
2110,,,html-slider-response,449,2862419,0.0-24.0-0.0-0.20,17210,List2A,white,man,,,,,,,,survey_gender,99,,,I feel a bond with my friends.,filler
2520,,,html-slider-response,450,2864939,0.0-24.0-0.0-0.21,17210,List2A,white,man,,,,,,,,survey_gender,11,,,Routine is not important to me.,filler
5808,,,html-slider-response,451,2870747,0.0-24.0-0.0-0.22,17210,List2A,white,man,,,,,,,,survey_gender,100,,,I am glad to have the friends that I have.,filler
3160,,,html-slider-response,452,2873907,0.0-24.0-0.0-0.23,17210,List2A,white,man,,,,,,,,survey_gender,99,,,I have a lot in common with my friends.,filler
4376,,,html-slider-response,453,2878283,0.0-24.0-0.0-0.24,17210,List2A,white,man,,,,,,,,survey_gender,100,,,It is pleasant to be my gender.,pleasant
3528,,,html-slider-response,454,2881811,0.0-24.0-0.0-0.25,17210,List2A,white,man,,,,,,,,survey_gender,100,,,People of my gender are very similar to each other.,verysimilar
9976,,,html-slider-response,455,2891787,0.0-24.0-0.0-0.26,17210,List2A,white,man,,,,,,,,survey_gender,0,,,I would say I am an animal person.,filler
5264,,,html-slider-response,456,2897051,0.0-24.0-0.0-0.27,17210,List2A,white,man,,,,,,,,survey_gender,100,,,I think that my gender has a lot to be proud of.,proud
7560,,,html-slider-response,457,2904611,0.0-24.0-1.0-0.0,17210,List2A,white,man,,,,,,,,survey_race,99,,,I have a lot in common with the average person of my race.,average
3080,,,html-slider-response,458,2907691,0.0-24.0-1.0-0.1,17210,List2A,white,man,,,,,,,,survey_race,100,,,"The older I get, the wiser I feel.",filler
8153,,,html-slider-response,459,2915844,0.0-24.0-1.0-0.2,17210,List2A,white,man,,,,,,,,survey_race,99,,,I feel solidarity with people the same age as me.,filler
3623,,,html-slider-response,460,2919467,0.0-24.0-1.0-0.3,17210,List2A,white,man,,,,,,,,survey_race,100,,,Being my race is an important part of how I see myself.,important
3248,,,html-slider-response,461,2922715,0.0-24.0-1.0-0.4,17210,List2A,white,man,,,,,,,,survey_race,99,,,Being my race gives me a good feeling.,feeling
5152,,,html-slider-response,462,2927867,0.0-24.0-1.0-0.5,17210,List2A,white,man,,,,,,,,survey_race,100,,,I think that my race has a lot to be proud of.,proud
3232,,,html-slider-response,463,2931099,0.0-24.0-1.0-0.6,17210,List2A,white,man,,,,,,,,survey_race,0,,,My age is not an important part of who I am.,filler
2320,,,html-slider-response,464,2933419,0.0-24.0-1.0-0.7,17210,List2A,white,man,,,,,,,,survey_race,100,,,I feel a bond with my race.,bond
2912,,,html-slider-response,465,2936331,0.0-24.0-1.0-0.8,17210,List2A,white,man,,,,,,,,survey_race,100,,,I am glad to be the age I am.,filler
2752,,,html-slider-response,466,2939083,0.0-24.0-1.0-0.9,17210,List2A,white,man,,,,,,,,survey_race,99,,,I am glad to be my age.,filler
2344,,,html-slider-response,467,2941427,0.0-24.0-1.0-0.10,17210,List2A,white,man,,,,,,,,survey_race,100,,,I enjoy being in large groups.,filler
2552,,,html-slider-response,468,2943979,0.0-24.0-1.0-0.11,17210,List2A,white,man,,,,,,,,survey_race,99,,,I am similar to the average person of my race.,similar
2617,,,html-slider-response,469,2946604,0.0-24.0-1.0-0.12,17210,List2A,white,man,,,,,,,,survey_race,99,,,Being my age gives me a good feeling.,filler
3255,,,html-slider-response,470,2949859,0.0-24.0-1.0-0.13,17210,List2A,white,man,,,,,,,,survey_race,4,,,Getting older does not worry me.,filler
2520,,,html-slider-response,471,2952379,0.0-24.0-1.0-0.14,17210,List2A,white,man,,,,,,,,survey_race,99,,,People of my race have a lot in common with each other.,common
2648,,,html-slider-response,472,2955027,0.0-24.0-1.0-0.15,17210,List2A,white,man,,,,,,,,survey_race,100,,,I feel a bond with people the same age as me.,filler
2489,,,html-slider-response,473,2957516,0.0-24.0-1.0-0.16,17210,List2A,white,man,,,,,,,,survey_race,100,,,I often think about the fact that I am my age.,filler
4439,,,html-slider-response,474,2961955,0.0-24.0-1.0-0.17,17210,List2A,white,man,,,,,,,,survey_race,0,,,I consider myself an introvert.,filler
2089,,,html-slider-response,475,2964044,0.0-24.0-1.0-0.18,17210,List2A,white,man,,,,,,,,survey_race,100,,,I often think about the fact that I am my race.,often
2111,,,html-slider-response,476,2966155,0.0-24.0-1.0-0.19,17210,List2A,white,man,,,,,,,,survey_race,99,,,I feel committed to my race.,committed
3128,,,html-slider-response,477,2969283,0.0-24.0-1.0-0.20,17210,List2A,white,man,,,,,,,,survey_race,73,,,I consider myself an extrovert.,filler
2224,,,html-slider-response,478,2971507,0.0-24.0-1.0-0.21,17210,List2A,white,man,,,,,,,,survey_race,100,,,I am glad to be my race.,glad
3591,,,html-slider-response,479,2975107,0.0-24.0-1.0-0.22,17210,List2A,white,man,,,,,,,,survey_race,99,,,The fact that I am my race is an important part of my identity.,identity
2464,,,html-slider-response,480,2977571,0.0-24.0-1.0-0.23,17210,List2A,white,man,,,,,,,,survey_race,100,,,I feel solidarity with my race.,solidarity
2481,,,html-slider-response,481,2980052,0.0-24.0-1.0-0.24,17210,List2A,white,man,,,,,,,,survey_race,100,,,People of my race are very similar to each other.,verysimilar
1751,,,html-slider-response,482,2981803,0.0-24.0-1.0-0.25,17210,List2A,white,man,,,,,,,,survey_race,99,,,People my age have a lot in common with each other.,filler
1616,,,html-slider-response,483,2983419,0.0-24.0-1.0-0.26,17210,List2A,white,man,,,,,,,,survey_race,99,,,It is pleasant to be my race.,pleasant
2040,,,html-slider-response,484,2985459,0.0-24.0-1.0-0.27,17210,List2A,white,man,,,,,,,,survey_race,100,,,I have a lot in common with people of a similar age to me.,filler
9033,,,survey-text,485,2994500,0.0-25.0,17210,List2A,white,man,,,,,"{""Q0"":""ccc""}",,,worker_id,,,,,
5870,,,external-html,486,3002683,0.0-26.0,17210,List2A,white,man,debrief.html,,,,,,,,,,,,
