"rt","stimulus","button_pressed","trial_type","trial_index","time_elapsed","internal_node_id","subject","list","ppt_race","ppt_gender","url","first_guess","correct","key_press","responses","image_type","phrase_type","test_part","response","stimulus1","stimulus2","question_type","survey_item"
"12673.5","Welcome to the experiment. Press Continue to begin.","0","html-button-response","0","12678","0.0-0.0","17750","List2A","white","woman","","","","","","","","","","","","",""
"5456.900000095367","","","external-html","1","19478","0.0-1.0","17750","List2A","white","woman","consent.html","","","","","","","","","","","",""
"6725.900000095367","<p>On the next page, you will see portraits of 8 people and their names.</p><p>Your first task is to take a few minutes to memorise the names of these people.</p><p>You will have to recall their names during the rest of the experiment, so it is</p><p>essential that you try to memorise these people and their names as best as you can.</p><br><p><strong>You will then be tested on your memory of these names and portraits.</strong></p><br><p>The experiment will start after you have completed this memory test.</p><br><p>Ready?</p>","0","html-button-response","2","26206","0.0-2.0","17750","List2A","white","woman","","","","","","","","","","","","",""
"48191.59999990463","<img src='img/portrait_matrix_list2.jpg' style='width:900px;height:500px;''></img><p>If you have memorised all the portraits and names and are ready to start, press Continue.</p><p><strong>Please note: Your memory of these faces will be tested 4 times during this experiment.</strong></p>","0","html-button-response","3","75400","0.0-3.0-0.0","17750","List2A","white","woman","","","","","","","","","","","","",""
"2299.399999856949","<img src=""portrait/WW1.jpg""style=""height:400px;""></img>","1","html-button-response","4","78706","0.0-3.0-1.0","17750","List2A","white","woman","","true","1","","","","","","","","","",""
"null","CORRECT","","html-keyboard-response","5","80212","0.0-3.0-2.0-0.0","17750","List2A","white","woman","","","","null","","","","","","","","",""
"2737.5999999046326","<img src=""portrait/BW1.jpg""style=""height:400px;""></img>","0","html-button-response","6","82952","0.0-3.0-4.0","17750","List2A","white","woman","","true","0","","","","","","","","","",""
"null","CORRECT","","html-keyboard-response","7","84459","0.0-3.0-5.0-0.0","17750","List2A","white","woman","","","","null","","","","","","","","",""
"4606.700000047684","<img src=""portrait/BM1.jpg""style=""height:400px;""></img>","4","html-button-response","8","89069","0.0-3.0-7.0","17750","List2A","white","woman","","true","4","","","","","","","","","",""
"null","CORRECT","","html-keyboard-response","9","90581","0.0-3.0-8.0-0.0","17750","List2A","white","woman","","","","null","","","","","","","","",""
"1636.7999999523163","<img src=""portrait/WW2.jpg""style=""height:400px;""></img>","3","html-button-response","10","92220","0.0-3.0-10.0","17750","List2A","white","woman","","true","3","","","","","","","","","",""
"null","CORRECT","","html-keyboard-response","11","93725","0.0-3.0-11.0-0.0","17750","List2A","white","woman","","","","null","","","","","","","","",""
"3161.399999856949","<img src=""portrait/WM2.jpg""style=""height:400px;""></img>","7","html-button-response","12","96890","0.0-3.0-13.0","17750","List2A","white","woman","","true","7","","","","","","","","","",""
"null","CORRECT","","html-keyboard-response","13","98397","0.0-3.0-14.0-0.0","17750","List2A","white","woman","","","","null","","","","","","","","",""
"2515.399999856949","<img src=""portrait/BM2.jpg""style=""height:400px;""></img>","5","html-button-response","14","100915","0.0-3.0-16.0","17750","List2A","white","woman","","true","5","","","","","","","","","",""
"null","CORRECT","","html-keyboard-response","15","102423","0.0-3.0-17.0-0.0","17750","List2A","white","woman","","","","null","","","","","","","","",""
"2078.0999999046326","<img src=""portrait/BW2.jpg""style=""height:400px;""></img>","2","html-button-response","16","104503","0.0-3.0-19.0","17750","List2A","white","woman","","true","2","","","","","","","","","",""
"null","CORRECT","","html-keyboard-response","17","106010","0.0-3.0-20.0-0.0","17750","List2A","white","woman","","","","null","","","","","","","","",""
"2660.5999999046326","<img src=""portrait/WM1.jpg""style=""height:400px;""></img>","6","html-button-response","18","108673","0.0-3.0-22.0","17750","List2A","white","woman","","true","6","","","","","","","","","",""
"null","CORRECT","","html-keyboard-response","19","110184","0.0-3.0-23.0-0.0","17750","List2A","white","woman","","","","null","","","","","","","","",""
"1248.2000000476837","<p>You got 8 out of 8 right first time. Press Continue.</p>","0","html-button-response","20","111435","0.0-3.0-25.0","17750","List2A","white","woman","","","","","","","","","","","","",""
"20527.800000190735","<p>In this experiment, you will view photographs of the people from the memory game interacting.</p><p>By using the <strong>exact</strong> phrase given <i>after</i> the photograph appears and recalling the correct names of the people in the photographs, form a sentence describing the interaction. You do not need to capitalise names.</p><p>Type your answer in the space provided. Please complete every sentence before moving onto the next trial.</p><p>You will only have a few seconds to memorise each given photograph and phrase before you can respond, so try your best to focus.</p><p>An example is given below. Press 'Continue' when you are ready.</p><img src='img/speaking_example.jpg' style='width:800px;height:460px;''></img>","0","html-button-response","21","132968","0.0-4.0","17750","List2A","white","woman","","","","","","","","","","","","",""
"2411.5999999046326","<p>Before the experiment starts, you will watch two example trials. Press 'Continue'.</p>","0","html-button-response","22","136385","0.0-5.0","17750","List2A","white","woman","","","","","","","","","","","","",""
"null","<img src='img/play_eg.gif' style='height:400px;''></img>","","html-keyboard-response","23","139390","0.0-6.0","17750","List2A","white","woman","","","","null","","","","","","","","",""
"null","<p>is playing with</p>","","html-keyboard-response","24","141394","0.0-7.0","17750","List2A","white","woman","","","","null","","","","","","","","",""
"1677.7999999523163","<p><b>Answer:</b> jane is playing with ruth</p>","0","html-button-response","25","143074","0.0-8.0","17750","List2A","white","woman","","","","","","","","","","","","",""
"null","<img src='img/dance_eg.gif' style='height:400px;''></img>","","html-keyboard-response","26","146078","0.0-9.0","17750","List2A","white","woman","","","","null","","","","","","","","",""
"null","<p>is being entertained by</p>","","html-keyboard-response","27","148081","0.0-10.0","17750","List2A","white","woman","","","","null","","","","","","","","",""
"962","<p><b>Answer:</b> fred is being entertained by mike</p>","0","html-button-response","28","149045","0.0-11.0","17750","List2A","white","woman","","","","","","","","","","","","",""
"1440.2999999523163","<p>Ready to start the experiment?</p><br><p><strong>Remember to describe the picture using a full sentence,</strong></p><p><strong>that combines the names of the people with the <i>exact</i> phrase given.</strong></p><p><strong>To receive full payment you must do this correctly.</strong></p><p><strong> You do not need to capitalise names or use punctuation.</strong></p><br><p>Press 'Continue' to begin.</p>","0","html-button-response","29","151493","0.0-12.0","17750","List2A","white","woman","","","","","","","","","","","","",""
"null","<div style=""font-size:60px;"">+</div>","","html-keyboard-response","30","153003","0.0-13.0-0.0","17750","List2A","white","woman","","","","null","","","","","","","","",""
"null","<img src=""stim_listA/shout3.gif""style=""height:400px;""></stim_listA>","","html-keyboard-response","31","155007","0.0-13.0-1.0","17750","List2A","white","woman","","","","null","","","","","","","","",""
"null","is shouting at","","html-keyboard-response","32","157009","0.0-13.0-2.0","17750","List2A","white","woman","","","","null","","","","","","","","",""
"5083.700000047684","","","survey-text","33","162097","0.0-13.0-3.0","17750","List2A","white","woman","","","","","{""Q0"":""fred is shouting at beth""}","<img src=""stim_listA/shout3.gif""style=""height:400px;""></stim_listA>","is shouting at","","","","","",""
"null","<div style=""font-size:60px;"">+</div>","","html-keyboard-response","34","162604","0.0-13.0-0.1","17750","List2A","white","woman","","","","null","","","","","","","","",""
"null","<img src=""stim_listA/touch7.gif""style=""height:400px;""></stim_listA>","","html-keyboard-response","35","164607","0.0-13.0-1.1","17750","List2A","white","woman","","","","null","","","","","","","","",""
"null","is touching","","html-keyboard-response","36","166609","0.0-13.0-2.1","17750","List2A","white","woman","","","","null","","","","","","","","",""
"6746.800000190735","","","survey-text","37","173360","0.0-13.0-3.1","17750","List2A","white","woman","","","","","{""Q0"":""jane is touching kate""}","<img src=""stim_listA/touch7.gif""style=""height:400px;""></stim_listA>","is touching","","","","","",""
"null","<div style=""font-size:60px;"">+</div>","","html-keyboard-response","38","173865","0.0-13.0-0.2","17750","List2A","white","woman","","","","null","","","","","","","","",""
"null","<img src=""stim_listA/shout2.gif""style=""height:400px;""></stim_listA>","","html-keyboard-response","39","175869","0.0-13.0-1.2","17750","List2A","white","woman","","","","null","","","","","","","","",""
"null","is being shouted at by","","html-keyboard-response","40","177871","0.0-13.0-2.2","17750","List2A","white","woman","","","","null","","","","","","","","",""
"4898.300000190735","","","survey-text","41","182773","0.0-13.0-3.2","17750","List2A","white","woman","","","","","{""Q0"":""jane is being shouted at by dave""}","<img src=""stim_listA/shout2.gif""style=""height:400px;""></stim_listA>","is being shouted at by","","","","","",""
"null","<div style=""font-size:60px;"">+</div>","","html-keyboard-response","42","183280","0.0-13.0-0.3","17750","List2A","white","woman","","","","null","","","","","","","","",""
"null","<img src=""stim_listA/copy3.gif""style=""height:400px;""></stim_listA>","","html-keyboard-response","43","185285","0.0-13.0-1.3","17750","List2A","white","woman","","","","null","","","","","","","","",""
"null","is copying","","html-keyboard-response","44","187292","0.0-13.0-2.3","17750","List2A","white","woman","","","","null","","","","","","","","",""
"4087.0999999046326","","","survey-text","45","191384","0.0-13.0-3.3","17750","List2A","white","woman","","","","","{""Q0"":""beth is copying mike""}","<img src=""stim_listA/copy3.gif""style=""height:400px;""></stim_listA>","is copying","","","","","",""
"null","<div style=""font-size:60px;"">+</div>","","html-keyboard-response","46","191887","0.0-13.0-0.4","17750","List2A","white","woman","","","","null","","","","","","","","",""
"null","<img src=""stim_listA/copy6.gif""style=""height:400px;""></stim_listA>","","html-keyboard-response","47","193890","0.0-13.0-1.4","17750","List2A","white","woman","","","","null","","","","","","","","",""
"null","is being copied by","","html-keyboard-response","48","195893","0.0-13.0-2.4","17750","List2A","white","woman","","","","null","","","","","","","","",""
"5242.100000143051","","","survey-text","49","201139","0.0-13.0-3.4","17750","List2A","white","woman","","","","","{""Q0"":""luke is being copied by mike""}","<img src=""stim_listA/copy6.gif""style=""height:400px;""></stim_listA>","is being copied by","","","","","",""
"null","<div style=""font-size:60px;"">+</div>","","html-keyboard-response","50","201643","0.0-13.0-0.5","17750","List2A","white","woman","","","","null","","","","","","","","",""
"null","<img src=""stim_listA/seduce1.gif""style=""height:400px;""></stim_listA>","","html-keyboard-response","51","203650","0.0-13.0-1.5","17750","List2A","white","woman","","","","null","","","","","","","","",""
"null","is seducing","","html-keyboard-response","52","205652","0.0-13.0-2.5","17750","List2A","white","woman","","","","null","","","","","","","","",""
"4872.5","","","survey-text","53","210529","0.0-13.0-3.5","17750","List2A","white","woman","","","","","{""Q0"":""jane is seducing luke""}","<img src=""stim_listA/seduce1.gif""style=""height:400px;""></stim_listA>","is seducing","","","","","",""
"null","<div style=""font-size:60px;"">+</div>","","html-keyboard-response","54","211033","0.0-13.0-0.6","17750","List2A","white","woman","","","","null","","","","","","","","",""
"null","<img src=""stim_listA/copy7.gif""style=""height:400px;""></stim_listA>","","html-keyboard-response","55","213038","0.0-13.0-1.6","17750","List2A","white","woman","","","","null","","","","","","","","",""
"null","is copying","","html-keyboard-response","56","215047","0.0-13.0-2.6","17750","List2A","white","woman","","","","null","","","","","","","","",""
"4724.899999856949","","","survey-text","57","219776","0.0-13.0-3.6","17750","List2A","white","woman","","","","","{""Q0"":""jane is copying beth""}","<img src=""stim_listA/copy7.gif""style=""height:400px;""></stim_listA>","is copying","","","","","",""
"null","<div style=""font-size:60px;"">+</div>","","html-keyboard-response","58","220281","0.0-13.0-0.7","17750","List2A","white","woman","","","","null","","","","","","","","",""
"null","<img src=""stim_listA/shout7.gif""style=""height:400px;""></stim_listA>","","html-keyboard-response","59","222288","0.0-13.0-1.7","17750","List2A","white","woman","","","","null","","","","","","","","",""
"null","is shouting at","","html-keyboard-response","60","224291","0.0-13.0-2.7","17750","List2A","white","woman","","","","null","","","","","","","","",""
"4012.899999856949","","","survey-text","61","228308","0.0-13.0-3.7","17750","List2A","white","woman","","","","","{""Q0"":""ruth is shouting at beth""}","<img src=""stim_listA/shout7.gif""style=""height:400px;""></stim_listA>","is shouting at","","","","","",""
"null","<div style=""font-size:60px;"">+</div>","","html-keyboard-response","62","228813","0.0-13.0-0.8","17750","List2A","white","woman","","","","null","","","","","","","","",""
"null","<img src=""stim_listA/oppose1.gif""style=""height:400px;""></stim_listA>","","html-keyboard-response","63","230823","0.0-13.0-1.8","17750","List2A","white","woman","","","","null","","","","","","","","",""
"null","is opposing","","html-keyboard-response","64","232826","0.0-13.0-2.8","17750","List2A","white","woman","","","","null","","","","","","","","",""
"3785.300000190735","","","survey-text","65","236615","0.0-13.0-3.8","17750","List2A","white","woman","","","","","{""Q0"":""jane is opposing dave""}","<img src=""stim_listA/oppose1.gif""style=""height:400px;""></stim_listA>","is opposing","","","","","",""
"null","<div style=""font-size:60px;"">+</div>","","html-keyboard-response","66","237119","0.0-13.0-0.9","17750","List2A","white","woman","","","","null","","","","","","","","",""
"null","<img src=""stim_listA/touch3.gif""style=""height:400px;""></stim_listA>","","html-keyboard-response","67","239122","0.0-13.0-1.9","17750","List2A","white","woman","","","","null","","","","","","","","",""
"null","is touching","","html-keyboard-response","68","241127","0.0-13.0-2.9","17750","List2A","white","woman","","","","null","","","","","","","","",""
"6194","","","survey-text","69","247325","0.0-13.0-3.9","17750","List2A","white","woman","","","","","{""Q0"":""mike is touching kate""}","<img src=""stim_listA/touch3.gif""style=""height:400px;""></stim_listA>","is touching","","","","","",""
"null","<div style=""font-size:60px;"">+</div>","","html-keyboard-response","70","247829","0.0-13.0-0.10","17750","List2A","white","woman","","","","null","","","","","","","","",""
"null","<img src=""stim_listA/greet8.gif""style=""height:400px;""></stim_listA>","","html-keyboard-response","71","249832","0.0-13.0-1.10","17750","List2A","white","woman","","","","null","","","","","","","","",""
"null","is being greeted by","","html-keyboard-response","72","251837","0.0-13.0-2.10","17750","List2A","white","woman","","","","null","","","","","","","","",""
"6920.700000047684","","","survey-text","73","258761","0.0-13.0-3.10","17750","List2A","white","woman","","","","","{""Q0"":""ruth is being greeted by kate""}","<img src=""stim_listA/greet8.gif""style=""height:400px;""></stim_listA>","is being greeted by","","","","","",""
"null","<div style=""font-size:60px;"">+</div>","","html-keyboard-response","74","259265","0.0-13.0-0.11","17750","List2A","white","woman","","","","null","","","","","","","","",""
"null","<img src=""stim_listA/touch2.gif""style=""height:400px;""></stim_listA>","","html-keyboard-response","75","261268","0.0-13.0-1.11","17750","List2A","white","woman","","","","null","","","","","","","","",""
"null","is being touched by","","html-keyboard-response","76","263270","0.0-13.0-2.11","17750","List2A","white","woman","","","","null","","","","","","","","",""
"5667.5","","","survey-text","77","268941","0.0-13.0-3.11","17750","List2A","white","woman","","","","","{""Q0"":""luke is being touched by ruth""}","<img src=""stim_listA/touch2.gif""style=""height:400px;""></stim_listA>","is being touched by","","","","","",""
"null","<div style=""font-size:60px;"">+</div>","","html-keyboard-response","78","269446","0.0-13.0-0.12","17750","List2A","white","woman","","","","null","","","","","","","","",""
"null","<img src=""stim_listA/kiss2.gif""style=""height:400px;""></stim_listA>","","html-keyboard-response","79","271449","0.0-13.0-1.12","17750","List2A","white","woman","","","","null","","","","","","","","",""
"null","is being kissed by","","html-keyboard-response","80","273451","0.0-13.0-2.12","17750","List2A","white","woman","","","","null","","","","","","","","",""
"5147.299999952316","","","survey-text","81","278602","0.0-13.0-3.12","17750","List2A","white","woman","","","","","{""Q0"":""jane is being kissed by dave""}","<img src=""stim_listA/kiss2.gif""style=""height:400px;""></stim_listA>","is being kissed by","","","","","",""
"null","<div style=""font-size:60px;"">+</div>","","html-keyboard-response","82","279107","0.0-13.0-0.13","17750","List2A","white","woman","","","","null","","","","","","","","",""
"null","<img src=""stim_listA/kiss1.gif""style=""height:400px;""></stim_listA>","","html-keyboard-response","83","281114","0.0-13.0-1.13","17750","List2A","white","woman","","","","null","","","","","","","","",""
"null","is kissing","","html-keyboard-response","84","283117","0.0-13.0-2.13","17750","List2A","white","woman","","","","null","","","","","","","","",""
"3536.300000190735","","","survey-text","85","286657","0.0-13.0-3.13","17750","List2A","white","woman","","","","","{""Q0"":""ruth is kissing luke""}","<img src=""stim_listA/kiss1.gif""style=""height:400px;""></stim_listA>","is kissing","","","","","",""
"null","<div style=""font-size:60px;"">+</div>","","html-keyboard-response","86","287159","0.0-13.0-0.14","17750","List2A","white","woman","","","","null","","","","","","","","",""
"null","<img src=""stim_listA/greet2.gif""style=""height:400px;""></stim_listA>","","html-keyboard-response","87","289165","0.0-13.0-1.14","17750","List2A","white","woman","","","","null","","","","","","","","",""
"null","is being greeted by","","html-keyboard-response","88","291169","0.0-13.0-2.14","17750","List2A","white","woman","","","","null","","","","","","","","",""
"5199.400000095367","","","survey-text","89","296372","0.0-13.0-3.14","17750","List2A","white","woman","","","","","{""Q0"":""jane is being greeted by luke""}","<img src=""stim_listA/greet2.gif""style=""height:400px;""></stim_listA>","is being greeted by","","","","","",""
"null","<div style=""font-size:60px;"">+</div>","","html-keyboard-response","90","296881","0.0-13.0-0.15","17750","List2A","white","woman","","","","null","","","","","","","","",""
"null","<img src=""stim_listA/touch1.gif""style=""height:400px;""></stim_listA>","","html-keyboard-response","91","298890","0.0-13.0-1.15","17750","List2A","white","woman","","","","null","","","","","","","","",""
"null","is touching","","html-keyboard-response","92","300898","0.0-13.0-2.15","17750","List2A","white","woman","","","","null","","","","","","","","",""
"3744.399999856949","","","survey-text","93","304647","0.0-13.0-3.15","17750","List2A","white","woman","","","","","{""Q0"":""dave is touching jane""}","<img src=""stim_listA/touch1.gif""style=""height:400px;""></stim_listA>","is touching","","","","","",""
"null","<div style=""font-size:60px;"">+</div>","","html-keyboard-response","94","305151","0.0-13.0-0.16","17750","List2A","white","woman","","","","null","","","","","","","","",""
"null","<img src=""stim_listA/seduce2.gif""style=""height:400px;""></stim_listA>","","html-keyboard-response","95","307156","0.0-13.0-1.16","17750","List2A","white","woman","","","","null","","","","","","","","",""
"null","is being seduced by","","html-keyboard-response","96","309162","0.0-13.0-2.16","17750","List2A","white","woman","","","","null","","","","","","","","",""
"4546.299999952316","","","survey-text","97","313712","0.0-13.0-3.16","17750","List2A","white","woman","","","","","{""Q0"":""ruth is being seduced by dave""}","<img src=""stim_listA/seduce2.gif""style=""height:400px;""></stim_listA>","is being seduced by","","","","","",""
"null","<div style=""font-size:60px;"">+</div>","","html-keyboard-response","98","314214","0.0-13.0-0.17","17750","List2A","white","woman","","","","null","","","","","","","","",""
"null","<img src=""stim_listA/oppose7.gif""style=""height:400px;""></stim_listA>","","html-keyboard-response","99","316223","0.0-13.0-1.17","17750","List2A","white","woman","","","","null","","","","","","","","",""
"null","is opposing","","html-keyboard-response","100","318226","0.0-13.0-2.17","17750","List2A","white","woman","","","","null","","","","","","","","",""
"3609.5","","","survey-text","101","321839","0.0-13.0-3.17","17750","List2A","white","woman","","","","","{""Q0"":""kate is opposing jane""}","<img src=""stim_listA/oppose7.gif""style=""height:400px;""></stim_listA>","is opposing","","","","","",""
"null","<div style=""font-size:60px;"">+</div>","","html-keyboard-response","102","322347","0.0-13.0-0.18","17750","List2A","white","woman","","","","null","","","","","","","","",""
"null","<img src=""stim_listA/shout4.gif""style=""height:400px;""></stim_listA>","","html-keyboard-response","103","324354","0.0-13.0-1.18","17750","List2A","white","woman","","","","null","","","","","","","","",""
"null","is being shouted at by","","html-keyboard-response","104","326356","0.0-13.0-2.18","17750","List2A","white","woman","","","","null","","","","","","","","",""
"5292.099999904633","","","survey-text","105","331652","0.0-13.0-3.18","17750","List2A","white","woman","","","","","{""Q0"":""kate is being shouted at by mike""}","<img src=""stim_listA/shout4.gif""style=""height:400px;""></stim_listA>","is being shouted at by","","","","","",""
"null","<div style=""font-size:60px;"">+</div>","","html-keyboard-response","106","332155","0.0-13.0-0.19","17750","List2A","white","woman","","","","null","","","","","","","","",""
"null","<img src=""stim_listA/look7.gif""style=""height:400px;""></stim_listA>","","html-keyboard-response","107","334160","0.0-13.0-1.19","17750","List2A","white","woman","","","","null","","","","","","","","",""
"null","is looking at","","html-keyboard-response","108","336162","0.0-13.0-2.19","17750","List2A","white","woman","","","","null","","","","","","","","",""
"4163.099999904633","","","survey-text","109","340329","0.0-13.0-3.19","17750","List2A","white","woman","","","","","{""Q0"":""ruth is looking at beth""}","<img src=""stim_listA/look7.gif""style=""height:400px;""></stim_listA>","is looking at","","","","","",""
"4773.099999904633","<img src='img/portrait_matrix_list2.jpg' style='width:900px;height:500px;''></img><p>If you have memorised all the portraits and names and are ready to start, press Continue.</p><p><strong>Please note: Your memory of these faces will be tested 4 times during this experiment.</strong></p>","0","html-button-response","110","345105","0.0-14.0-0.0","17750","List2A","white","woman","","","","","","","","","","","","",""
"2082.2999999523163","<img src=""portrait/BM2.jpg""style=""height:400px;""></img>","5","html-button-response","111","348191","0.0-14.0-1.0","17750","List2A","white","woman","","true","5","","","","","","","","","",""
"null","CORRECT","","html-keyboard-response","112","349699","0.0-14.0-2.0-0.0","17750","List2A","white","woman","","","","null","","","","","","","","",""
"1762.3000001907349","<img src=""portrait/BW1.jpg""style=""height:400px;""></img>","0","html-button-response","113","351465","0.0-14.0-4.0","17750","List2A","white","woman","","true","0","","","","","","","","","",""
"null","CORRECT","","html-keyboard-response","114","352971","0.0-14.0-5.0-0.0","17750","List2A","white","woman","","","","null","","","","","","","","",""
"1297.2000000476837","<img src=""portrait/BW2.jpg""style=""height:400px;""></img>","2","html-button-response","115","354271","0.0-14.0-7.0","17750","List2A","white","woman","","true","2","","","","","","","","","",""
"null","CORRECT","","html-keyboard-response","116","355783","0.0-14.0-8.0-0.0","17750","List2A","white","woman","","","","null","","","","","","","","",""
"1674.7999999523163","<img src=""portrait/WM2.jpg""style=""height:400px;""></img>","7","html-button-response","117","357461","0.0-14.0-10.0","17750","List2A","white","woman","","true","7","","","","","","","","","",""
"null","CORRECT","","html-keyboard-response","118","358969","0.0-14.0-11.0-0.0","17750","List2A","white","woman","","","","null","","","","","","","","",""
"2206.5","<img src=""portrait/WM1.jpg""style=""height:400px;""></img>","6","html-button-response","119","361179","0.0-14.0-13.0","17750","List2A","white","woman","","true","6","","","","","","","","","",""
"null","CORRECT","","html-keyboard-response","120","362690","0.0-14.0-14.0-0.0","17750","List2A","white","woman","","","","null","","","","","","","","",""
"2693.800000190735","<img src=""portrait/WW1.jpg""style=""height:400px;""></img>","1","html-button-response","121","365387","0.0-14.0-16.0","17750","List2A","white","woman","","true","1","","","","","","","","","",""
"null","CORRECT","","html-keyboard-response","122","366897","0.0-14.0-17.0-0.0","17750","List2A","white","woman","","","","null","","","","","","","","",""
"1564.5","<img src=""portrait/BM1.jpg""style=""height:400px;""></img>","4","html-button-response","123","368464","0.0-14.0-19.0","17750","List2A","white","woman","","true","4","","","","","","","","","",""
"null","CORRECT","","html-keyboard-response","124","369975","0.0-14.0-20.0-0.0","17750","List2A","white","woman","","","","null","","","","","","","","",""
"1577.4000000953674","<img src=""portrait/WW2.jpg""style=""height:400px;""></img>","3","html-button-response","125","371556","0.0-14.0-22.0","17750","List2A","white","woman","","true","3","","","","","","","","","",""
"null","CORRECT","","html-keyboard-response","126","373067","0.0-14.0-23.0-0.0","17750","List2A","white","woman","","","","null","","","","","","","","",""
"1783.7999999523163","<p>You got 8 out of 8 right first time. Press Continue.</p>","0","html-button-response","127","374854","0.0-14.0-25.0","17750","List2A","white","woman","","","","","","","","","","","","",""
"null","<div style=""font-size:60px;"">+</div>","","html-keyboard-response","128","376364","0.0-15.0-0.0","17750","List2A","white","woman","","","","null","","","","","","","","",""
"null","<img src=""stim_listA/greet7.gif""style=""height:400px;""></stim_listA>","","html-keyboard-response","129","378369","0.0-15.0-1.0","17750","List2A","white","woman","","","","null","","","","","","","","",""
"null","is greeting","","html-keyboard-response","130","380372","0.0-15.0-2.0","17750","List2A","white","woman","","","","null","","","","","","","","",""
"4481.099999904633","","","survey-text","131","384857","0.0-15.0-3.0","17750","List2A","white","woman","","","","","{""Q0"":""jane is greeting beth""}","<img src=""stim_listA/greet7.gif""style=""height:400px;""></stim_listA>","is greeting","","","","","",""
"null","<div style=""font-size:60px;"">+</div>","","html-keyboard-response","132","385362","0.0-15.0-0.1","17750","List2A","white","woman","","","","null","","","","","","","","",""
"null","<img src=""stim_listA/greet4.gif""style=""height:400px;""></stim_listA>","","html-keyboard-response","133","387370","0.0-15.0-1.1","17750","List2A","white","woman","","","","null","","","","","","","","",""
"null","is being greeted by","","html-keyboard-response","134","389372","0.0-15.0-2.1","17750","List2A","white","woman","","","","null","","","","","","","","",""
"7067.799999952316","","","survey-text","135","396444","0.0-15.0-3.1","17750","List2A","white","woman","","","","","{""Q0"":""fred is being greeted by kate""}","<img src=""stim_listA/greet4.gif""style=""height:400px;""></stim_listA>","is being greeted by","","","","","",""
"null","<div style=""font-size:60px;"">+</div>","","html-keyboard-response","136","396948","0.0-15.0-0.2","17750","List2A","white","woman","","","","null","","","","","","","","",""
"null","<img src=""stim_listA/challenge5.gif""style=""height:400px;""></stim_listA>","","html-keyboard-response","137","398956","0.0-15.0-1.2","17750","List2A","white","woman","","","","null","","","","","","","","",""
"null","is challenging","","html-keyboard-response","138","400959","0.0-15.0-2.2","17750","List2A","white","woman","","","","null","","","","","","","","",""
"4733.200000047684","","","survey-text","139","405754","0.0-15.0-3.2","17750","List2A","white","woman","","","","","{""Q0"":""dave is challenging fred""}","<img src=""stim_listA/challenge5.gif""style=""height:400px;""></stim_listA>","is challenging","","","","","",""
"null","<div style=""font-size:60px;"">+</div>","","html-keyboard-response","140","406259","0.0-15.0-0.3","17750","List2A","white","woman","","","","null","","","","","","","","",""
"null","<img src=""stim_listA/seduce4.gif""style=""height:400px;""></stim_listA>","","html-keyboard-response","141","408261","0.0-15.0-1.3","17750","List2A","white","woman","","","","null","","","","","","","","",""
"null","is being seduced by","","html-keyboard-response","142","410266","0.0-15.0-2.3","17750","List2A","white","woman","","","","null","","","","","","","","",""
"5594.5","","","survey-text","143","415865","0.0-15.0-3.3","17750","List2A","white","woman","","","","","{""Q0"":""beth is being seduced by mike""}","<img src=""stim_listA/seduce4.gif""style=""height:400px;""></stim_listA>","is being seduced by","","","","","",""
"null","<div style=""font-size:60px;"">+</div>","","html-keyboard-response","144","416369","0.0-15.0-0.4","17750","List2A","white","woman","","","","null","","","","","","","","",""
"null","<img src=""stim_listA/kiss6.gif""style=""height:400px;""></stim_listA>","","html-keyboard-response","145","418380","0.0-15.0-1.4","17750","List2A","white","woman","","","","null","","","","","","","","",""
"null","is being kissed by","","html-keyboard-response","146","420389","0.0-15.0-2.4","17750","List2A","white","woman","","","","null","","","","","","","","",""
"5047.600000143051","","","survey-text","147","425441","0.0-15.0-3.4","17750","List2A","white","woman","","","","","{""Q0"":""dave is being kissed by mike""}","<img src=""stim_listA/kiss6.gif""style=""height:400px;""></stim_listA>","is being kissed by","","","","","",""
"null","<div style=""font-size:60px;"">+</div>","","html-keyboard-response","148","425947","0.0-15.0-0.5","17750","List2A","white","woman","","","","null","","","","","","","","",""
"null","<img src=""stim_listA/challenge4.gif""style=""height:400px;""></stim_listA>","","html-keyboard-response","149","427958","0.0-15.0-1.5","17750","List2A","white","woman","","","","null","","","","","","","","",""
"null","is being challenged by","","html-keyboard-response","150","429965","0.0-15.0-2.5","17750","List2A","white","woman","","","","null","","","","","","","","",""
"6502.5","","","survey-text","151","436471","0.0-15.0-3.5","17750","List2A","white","woman","","","","","{""Q0"":""kate is being challenged by fred""}","<img src=""stim_listA/challenge4.gif""style=""height:400px;""></stim_listA>","is being challenged by","","","","","",""
"null","<div style=""font-size:60px;"">+</div>","","html-keyboard-response","152","436976","0.0-15.0-0.6","17750","List2A","white","woman","","","","null","","","","","","","","",""
"null","<img src=""stim_listA/challenge6.gif""style=""height:400px;""></stim_listA>","","html-keyboard-response","153","438981","0.0-15.0-1.6","17750","List2A","white","woman","","","","null","","","","","","","","",""
"null","is being challenged by","","html-keyboard-response","154","440987","0.0-15.0-2.6","17750","List2A","white","woman","","","","null","","","","","","","","",""
"7779.200000047684","","","survey-text","155","448770","0.0-15.0-3.6","17750","List2A","white","woman","","","","","{""Q0"":""mike is being challenged by luke""}","<img src=""stim_listA/challenge6.gif""style=""height:400px;""></stim_listA>","is being challenged by","","","","","",""
"null","<div style=""font-size:60px;"">+</div>","","html-keyboard-response","156","449276","0.0-15.0-0.7","17750","List2A","white","woman","","","","null","","","","","","","","",""
"null","<img src=""stim_listA/hug7.gif""style=""height:400px;""></stim_listA>","","html-keyboard-response","157","451279","0.0-15.0-1.7","17750","List2A","white","woman","","","","null","","","","","","","","",""
"null","is hugging","","html-keyboard-response","158","453282","0.0-15.0-2.7","17750","List2A","white","woman","","","","null","","","","","","","","",""
"5349.5","","","survey-text","159","458634","0.0-15.0-3.7","17750","List2A","white","woman","","","","","{""Q0"":""beth is hugging ruth""}","<img src=""stim_listA/hug7.gif""style=""height:400px;""></stim_listA>","is hugging","","","","","",""
"null","<div style=""font-size:60px;"">+</div>","","html-keyboard-response","160","459135","0.0-15.0-0.8","17750","List2A","white","woman","","","","null","","","","","","","","",""
"null","<img src=""stim_listA/seduce8.gif""style=""height:400px;""></stim_listA>","","html-keyboard-response","161","461141","0.0-15.0-1.8","17750","List2A","white","woman","","","","null","","","","","","","","",""
"null","is being seduced by","","html-keyboard-response","162","463146","0.0-15.0-2.8","17750","List2A","white","woman","","","","null","","","","","","","","",""
"7104.099999904633","","","survey-text","163","470254","0.0-15.0-3.8","17750","List2A","white","woman","","","","","{""Q0"":""beth is being seduced by jane""}","<img src=""stim_listA/seduce8.gif""style=""height:400px;""></stim_listA>","is being seduced by","","","","","",""
"null","<div style=""font-size:60px;"">+</div>","","html-keyboard-response","164","470762","0.0-15.0-0.9","17750","List2A","white","woman","","","","null","","","","","","","","",""
"null","<img src=""stim_listA/oppose5.gif""style=""height:400px;""></stim_listA>","","html-keyboard-response","165","472770","0.0-15.0-1.9","17750","List2A","white","woman","","","","null","","","","","","","","",""
"null","is opposing","","html-keyboard-response","166","474772","0.0-15.0-2.9","17750","List2A","white","woman","","","","null","","","","","","","","",""
"5462.299999952316","","","survey-text","167","480237","0.0-15.0-3.9","17750","List2A","white","woman","","","","","{""Q0"":""mike is opposing dave""}","<img src=""stim_listA/oppose5.gif""style=""height:400px;""></stim_listA>","is opposing","","","","","",""
"null","<div style=""font-size:60px;"">+</div>","","html-keyboard-response","168","480740","0.0-15.0-0.10","17750","List2A","white","woman","","","","null","","","","","","","","",""
"null","<img src=""stim_listA/look6.gif""style=""height:400px;""></stim_listA>","","html-keyboard-response","169","482746","0.0-15.0-1.10","17750","List2A","white","woman","","","","null","","","","","","","","",""
"null","is being looked at by","","html-keyboard-response","170","484749","0.0-15.0-2.10","17750","List2A","white","woman","","","","null","","","","","","","","",""
"7573","","","survey-text","171","492325","0.0-15.0-3.10","17750","List2A","white","woman","","","","","{""Q0"":""dave is being looked at by mike""}","<img src=""stim_listA/look6.gif""style=""height:400px;""></stim_listA>","is being looked at by","","","","","",""
"null","<div style=""font-size:60px;"">+</div>","","html-keyboard-response","172","492829","0.0-15.0-0.11","17750","List2A","white","woman","","","","null","","","","","","","","",""
"null","<img src=""stim_listA/look3.gif""style=""height:400px;""></stim_listA>","","html-keyboard-response","173","494836","0.0-15.0-1.11","17750","List2A","white","woman","","","","null","","","","","","","","",""
"null","is looking at","","html-keyboard-response","174","496837","0.0-15.0-2.11","17750","List2A","white","woman","","","","null","","","","","","","","",""
"4098.400000095367","","","survey-text","175","500940","0.0-15.0-3.11","17750","List2A","white","woman","","","","","{""Q0"":""beth is looking at fred""}","<img src=""stim_listA/look3.gif""style=""height:400px;""></stim_listA>","is looking at","","","","","",""
"null","<div style=""font-size:60px;"">+</div>","","html-keyboard-response","176","501444","0.0-15.0-0.12","17750","List2A","white","woman","","","","null","","","","","","","","",""
"null","<img src=""stim_listA/oppose3.gif""style=""height:400px;""></stim_listA>","","html-keyboard-response","177","503447","0.0-15.0-1.12","17750","List2A","white","woman","","","","null","","","","","","","","",""
"null","is opposing","","html-keyboard-response","178","505449","0.0-15.0-2.12","17750","List2A","white","woman","","","","null","","","","","","","","",""
"4372.100000143051","","","survey-text","179","509825","0.0-15.0-3.12","17750","List2A","white","woman","","","","","{""Q0"":""mike is opposing kate""}","<img src=""stim_listA/oppose3.gif""style=""height:400px;""></stim_listA>","is opposing","","","","","",""
"null","<div style=""font-size:60px;"">+</div>","","html-keyboard-response","180","510330","0.0-15.0-0.13","17750","List2A","white","woman","","","","null","","","","","","","","",""
"null","<img src=""stim_listA/challenge7.gif""style=""height:400px;""></stim_listA>","","html-keyboard-response","181","512336","0.0-15.0-1.13","17750","List2A","white","woman","","","","null","","","","","","","","",""
"null","is challenging","","html-keyboard-response","182","514338","0.0-15.0-2.13","17750","List2A","white","woman","","","","null","","","","","","","","",""
"4325.700000047684","","","survey-text","183","518668","0.0-15.0-3.13","17750","List2A","white","woman","","","","","{""Q0"":""jane is challenging beth""}","<img src=""stim_listA/challenge7.gif""style=""height:400px;""></stim_listA>","is challenging","","","","","",""
"null","<div style=""font-size:60px;"">+</div>","","html-keyboard-response","184","519171","0.0-15.0-0.14","17750","List2A","white","woman","","","","null","","","","","","","","",""
"null","<img src=""stim_listA/challenge1.gif""style=""height:400px;""></stim_listA>","","html-keyboard-response","185","521174","0.0-15.0-1.14","17750","List2A","white","woman","","","","null","","","","","","","","",""
"null","is challenging","","html-keyboard-response","186","523177","0.0-15.0-2.14","17750","List2A","white","woman","","","","null","","","","","","","","",""
"7421.400000095367","","","survey-text","187","530602","0.0-15.0-3.14","17750","List2A","white","woman","","","","","{""Q0"":""ruth is challenging dave""}","<img src=""stim_listA/challenge1.gif""style=""height:400px;""></stim_listA>","is challenging","","","","","",""
"null","<div style=""font-size:60px;"">+</div>","","html-keyboard-response","188","531106","0.0-15.0-0.15","17750","List2A","white","woman","","","","null","","","","","","","","",""
"null","<img src=""stim_listA/seduce6.gif""style=""height:400px;""></stim_listA>","","html-keyboard-response","189","533111","0.0-15.0-1.15","17750","List2A","white","woman","","","","null","","","","","","","","",""
"null","is being seduced by","","html-keyboard-response","190","535114","0.0-15.0-2.15","17750","List2A","white","woman","","","","null","","","","","","","","",""
"9363.5","","","survey-text","191","544481","0.0-15.0-3.15","17750","List2A","white","woman","","","","","{""Q0"":""dave is being seduced by fred""}","<img src=""stim_listA/seduce6.gif""style=""height:400px;""></stim_listA>","is being seduced by","","","","","",""
"null","<div style=""font-size:60px;"">+</div>","","html-keyboard-response","192","544987","0.0-15.0-0.16","17750","List2A","white","woman","","","","null","","","","","","","","",""
"null","<img src=""stim_listA/copy1.gif""style=""height:400px;""></stim_listA>","","html-keyboard-response","193","546996","0.0-15.0-1.16","17750","List2A","white","woman","","","","null","","","","","","","","",""
"null","is copying","","html-keyboard-response","194","548998","0.0-15.0-2.16","17750","List2A","white","woman","","","","null","","","","","","","","",""
"3563.4000000953674","","","survey-text","195","552566","0.0-15.0-3.16","17750","List2A","white","woman","","","","","{""Q0"":""ruth is copying dave""}","<img src=""stim_listA/copy1.gif""style=""height:400px;""></stim_listA>","is copying","","","","","",""
"null","<div style=""font-size:60px;"">+</div>","","html-keyboard-response","196","553071","0.0-15.0-0.17","17750","List2A","white","woman","","","","null","","","","","","","","",""
"null","<img src=""stim_listA/touch8.gif""style=""height:400px;""></stim_listA>","","html-keyboard-response","197","555081","0.0-15.0-1.17","17750","List2A","white","woman","","","","null","","","","","","","","",""
"null","is being touched by","","html-keyboard-response","198","557084","0.0-15.0-2.17","17750","List2A","white","woman","","","","null","","","","","","","","",""
"5791.400000095367","","","survey-text","199","562880","0.0-15.0-3.17","17750","List2A","white","woman","","","","","{""Q0"":""ruth is being touched by beth""}","<img src=""stim_listA/touch8.gif""style=""height:400px;""></stim_listA>","is being touched by","","","","","",""
"null","<div style=""font-size:60px;"">+</div>","","html-keyboard-response","200","563383","0.0-15.0-0.18","17750","List2A","white","woman","","","","null","","","","","","","","",""
"null","<img src=""stim_listA/kiss5.gif""style=""height:400px;""></stim_listA>","","html-keyboard-response","201","565389","0.0-15.0-1.18","17750","List2A","white","woman","","","","null","","","","","","","","",""
"null","is kissing","","html-keyboard-response","202","567391","0.0-15.0-2.18","17750","List2A","white","woman","","","","null","","","","","","","","",""
"5105.099999904633","","","survey-text","203","572501","0.0-15.0-3.18","17750","List2A","white","woman","","","","","{""Q0"":""luke is kissing fred""}","<img src=""stim_listA/kiss5.gif""style=""height:400px;""></stim_listA>","is kissing","","","","","",""
"null","<div style=""font-size:60px;"">+</div>","","html-keyboard-response","204","573004","0.0-15.0-0.19","17750","List2A","white","woman","","","","null","","","","","","","","",""
"null","<img src=""stim_listA/hug4.gif""style=""height:400px;""></stim_listA>","","html-keyboard-response","205","575010","0.0-15.0-1.19","17750","List2A","white","woman","","","","null","","","","","","","","",""
"null","is being hugged by","","html-keyboard-response","206","577013","0.0-15.0-2.19","17750","List2A","white","woman","","","","null","","","","","","","","",""
"7743.299999952316","","","survey-text","207","584760","0.0-15.0-3.19","17750","List2A","white","woman","","","","","{""Q0"":""kate is being hugged by mike""}","<img src=""stim_listA/hug4.gif""style=""height:400px;""></stim_listA>","is being hugged by","","","","","",""
"2775.600000143051","<img src='img/portrait_matrix_list2.jpg' style='width:900px;height:500px;''></img><p>If you have memorised all the portraits and names and are ready to start, press Continue.</p><p><strong>Please note: Your memory of these faces will be tested 4 times during this experiment.</strong></p>","0","html-button-response","208","587539","0.0-16.0-0.0","17750","List2A","white","woman","","","","","","","","","","","","",""
"2266.7000000476837","<img src=""portrait/WM2.jpg""style=""height:400px;""></img>","7","html-button-response","209","590816","0.0-16.0-1.0","17750","List2A","white","woman","","true","7","","","","","","","","","",""
"null","CORRECT","","html-keyboard-response","210","592323","0.0-16.0-2.0-0.0","17750","List2A","white","woman","","","","null","","","","","","","","",""
"2502.5","<img src=""portrait/BW2.jpg""style=""height:400px;""></img>","2","html-button-response","211","594829","0.0-16.0-4.0","17750","List2A","white","woman","","true","2","","","","","","","","","",""
"null","CORRECT","","html-keyboard-response","212","596334","0.0-16.0-5.0-0.0","17750","List2A","white","woman","","","","null","","","","","","","","",""
"2394.5","<img src=""portrait/WW1.jpg""style=""height:400px;""></img>","1","html-button-response","213","598732","0.0-16.0-7.0","17750","List2A","white","woman","","true","1","","","","","","","","","",""
"null","CORRECT","","html-keyboard-response","214","600241","0.0-16.0-8.0-0.0","17750","List2A","white","woman","","","","null","","","","","","","","",""
"4219.700000047684","<img src=""portrait/WW2.jpg""style=""height:400px;""></img>","3","html-button-response","215","604463","0.0-16.0-10.0","17750","List2A","white","woman","","true","3","","","","","","","","","",""
"null","CORRECT","","html-keyboard-response","216","605972","0.0-16.0-11.0-0.0","17750","List2A","white","woman","","","","null","","","","","","","","",""
"1574.9000000953674","<img src=""portrait/BM1.jpg""style=""height:400px;""></img>","4","html-button-response","217","607550","0.0-16.0-13.0","17750","List2A","white","woman","","true","4","","","","","","","","","",""
"null","CORRECT","","html-keyboard-response","218","609059","0.0-16.0-14.0-0.0","17750","List2A","white","woman","","","","null","","","","","","","","",""
"2388.100000143051","<img src=""portrait/WM1.jpg""style=""height:400px;""></img>","6","html-button-response","219","611451","0.0-16.0-16.0","17750","List2A","white","woman","","true","6","","","","","","","","","",""
"null","CORRECT","","html-keyboard-response","220","612961","0.0-16.0-17.0-0.0","17750","List2A","white","woman","","","","null","","","","","","","","",""
"3589.399999856949","<img src=""portrait/BW1.jpg""style=""height:400px;""></img>","0","html-button-response","221","616555","0.0-16.0-19.0","17750","List2A","white","woman","","true","0","","","","","","","","","",""
"null","CORRECT","","html-keyboard-response","222","618058","0.0-16.0-20.0-0.0","17750","List2A","white","woman","","","","null","","","","","","","","",""
"1735.2999999523163","<img src=""portrait/BM2.jpg""style=""height:400px;""></img>","5","html-button-response","223","619797","0.0-16.0-22.0","17750","List2A","white","woman","","true","5","","","","","","","","","",""
"null","CORRECT","","html-keyboard-response","224","621306","0.0-16.0-23.0-0.0","17750","List2A","white","woman","","","","null","","","","","","","","",""
"1199.7000000476837","<p>You got 8 out of 8 right first time. Press Continue.</p>","0","html-button-response","225","622509","0.0-16.0-25.0","17750","List2A","white","woman","","","","","","","","","","","","",""
"null","<div style=""font-size:60px;"">+</div>","","html-keyboard-response","226","624017","0.0-17.0-0.0","17750","List2A","white","woman","","","","null","","","","","","","","",""
"null","<img src=""stim_listA/greet1.gif""style=""height:400px;""></stim_listA>","","html-keyboard-response","227","626023","0.0-17.0-1.0","17750","List2A","white","woman","","","","null","","","","","","","","",""
"null","is greeting","","html-keyboard-response","228","628030","0.0-17.0-2.0","17750","List2A","white","woman","","","","null","","","","","","","","",""
"5479.5","","","survey-text","229","633514","0.0-17.0-3.0","17750","List2A","white","woman","","","","","{""Q0"":""jane is greeting dave""}","<img src=""stim_listA/greet1.gif""style=""height:400px;""></stim_listA>","is greeting","","","","","",""
"null","<div style=""font-size:60px;"">+</div>","","html-keyboard-response","230","634021","0.0-17.0-0.1","17750","List2A","white","woman","","","","null","","","","","","","","",""
"null","<img src=""stim_listA/look4.gif""style=""height:400px;""></stim_listA>","","html-keyboard-response","231","636027","0.0-17.0-1.1","17750","List2A","white","woman","","","","null","","","","","","","","",""
"null","is being looked at by","","html-keyboard-response","232","638030","0.0-17.0-2.1","17750","List2A","white","woman","","","","null","","","","","","","","",""
"4890.899999856949","","","survey-text","233","642925","0.0-17.0-3.1","17750","List2A","white","woman","","","","","{""Q0"":""kate is being looked at by mike""}","<img src=""stim_listA/look4.gif""style=""height:400px;""></stim_listA>","is being looked at by","","","","","",""
"null","<div style=""font-size:60px;"">+</div>","","html-keyboard-response","234","643428","0.0-17.0-0.2","17750","List2A","white","woman","","","","null","","","","","","","","",""
"null","<img src=""stim_listA/copy8.gif""style=""height:400px;""></stim_listA>","","html-keyboard-response","235","645433","0.0-17.0-1.2","17750","List2A","white","woman","","","","null","","","","","","","","",""
"null","is being copied by","","html-keyboard-response","236","647439","0.0-17.0-2.2","17750","List2A","white","woman","","","","null","","","","","","","","",""
"3774.7999999523163","","","survey-text","237","651219","0.0-17.0-3.2","17750","List2A","white","woman","","","","","{""Q0"":""ruth is being copied by kate""}","<img src=""stim_listA/copy8.gif""style=""height:400px;""></stim_listA>","is being copied by","","","","","",""
"null","<div style=""font-size:60px;"">+</div>","","html-keyboard-response","238","651723","0.0-17.0-0.3","17750","List2A","white","woman","","","","null","","","","","","","","",""
"null","<img src=""stim_listA/look2.gif""style=""height:400px;""></stim_listA>","","html-keyboard-response","239","653732","0.0-17.0-1.3","17750","List2A","white","woman","","","","null","","","","","","","","",""
"null","is being looked at by","","html-keyboard-response","240","655734","0.0-17.0-2.3","17750","List2A","white","woman","","","","null","","","","","","","","",""
"5630.700000047684","","","survey-text","241","661370","0.0-17.0-3.3","17750","List2A","white","woman","","","","","{""Q0"":""jane is being looked at by dave""}","<img src=""stim_listA/look2.gif""style=""height:400px;""></stim_listA>","is being looked at by","","","","","",""
"null","<div style=""font-size:60px;"">+</div>","","html-keyboard-response","242","661878","0.0-17.0-0.4","17750","List2A","white","woman","","","","null","","","","","","","","",""
"null","<img src=""stim_listA/shout6.gif""style=""height:400px;""></stim_listA>","","html-keyboard-response","243","663887","0.0-17.0-1.4","17750","List2A","white","woman","","","","null","","","","","","","","",""
"null","is being shouted at by","","html-keyboard-response","244","665892","0.0-17.0-2.4","17750","List2A","white","woman","","","","null","","","","","","","","",""
"7045.900000095367","","","survey-text","245","672940","0.0-17.0-3.4","17750","List2A","white","woman","","","","","{""Q0"":""mike is being shouted at by dave""}","<img src=""stim_listA/shout6.gif""style=""height:400px;""></stim_listA>","is being shouted at by","","","","","",""
"null","<div style=""font-size:60px;"">+</div>","","html-keyboard-response","246","673444","0.0-17.0-0.5","17750","List2A","white","woman","","","","null","","","","","","","","",""
"null","<img src=""stim_listA/copy2.gif""style=""height:400px;""></stim_listA>","","html-keyboard-response","247","675447","0.0-17.0-1.5","17750","List2A","white","woman","","","","null","","","","","","","","",""
"null","is being copied by","","html-keyboard-response","248","677449","0.0-17.0-2.5","17750","List2A","white","woman","","","","null","","","","","","","","",""
"4675.799999952316","","","survey-text","249","682128","0.0-17.0-3.5","17750","List2A","white","woman","","","","","{""Q0"":""jane is being copied at by luke""}","<img src=""stim_listA/copy2.gif""style=""height:400px;""></stim_listA>","is being copied by","","","","","",""
"null","<div style=""font-size:60px;"">+</div>","","html-keyboard-response","250","682635","0.0-17.0-0.6","17750","List2A","white","woman","","","","null","","","","","","","","",""
"null","<img src=""stim_listA/seduce3.gif""style=""height:400px;""></stim_listA>","","html-keyboard-response","251","684644","0.0-17.0-1.6","17750","List2A","white","woman","","","","null","","","","","","","","",""
"null","is seducing","","html-keyboard-response","252","686650","0.0-17.0-2.6","17750","List2A","white","woman","","","","null","","","","","","","","",""
"3677.5999999046326","","","survey-text","253","690331","0.0-17.0-3.6","17750","List2A","white","woman","","","","","{""Q0"":""kate is seducing fred""}","<img src=""stim_listA/seduce3.gif""style=""height:400px;""></stim_listA>","is seducing","","","","","",""
"null","<div style=""font-size:60px;"">+</div>","","html-keyboard-response","254","690837","0.0-17.0-0.7","17750","List2A","white","woman","","","","null","","","","","","","","",""
"null","<img src=""stim_listA/copy5.gif""style=""height:400px;""></stim_listA>","","html-keyboard-response","255","692846","0.0-17.0-1.7","17750","List2A","white","woman","","","","null","","","","","","","","",""
"null","is copying","","html-keyboard-response","256","694848","0.0-17.0-2.7","17750","List2A","white","woman","","","","null","","","","","","","","",""
"3969.9000000953674","","","survey-text","257","698822","0.0-17.0-3.7","17750","List2A","white","woman","","","","","{""Q0"":""fred is copying dave""}","<img src=""stim_listA/copy5.gif""style=""height:400px;""></stim_listA>","is copying","","","","","",""
"null","<div style=""font-size:60px;"">+</div>","","html-keyboard-response","258","699328","0.0-17.0-0.8","17750","List2A","white","woman","","","","null","","","","","","","","",""
"null","<img src=""stim_listA/look1.gif""style=""height:400px;""></stim_listA>","","html-keyboard-response","259","701331","0.0-17.0-1.8","17750","List2A","white","woman","","","","null","","","","","","","","",""
"null","is looking at","","html-keyboard-response","260","703333","0.0-17.0-2.8","17750","List2A","white","woman","","","","null","","","","","","","","",""
"5564.900000095367","","","survey-text","261","708901","0.0-17.0-3.8","17750","List2A","white","woman","","","","","{""Q0"":""jane is looking at luke""}","<img src=""stim_listA/look1.gif""style=""height:400px;""></stim_listA>","is looking at","","","","","",""
"null","<div style=""font-size:60px;"">+</div>","","html-keyboard-response","262","709405","0.0-17.0-0.9","17750","List2A","white","woman","","","","null","","","","","","","","",""
"null","<img src=""stim_listA/shout5.gif""style=""height:400px;""></stim_listA>","","html-keyboard-response","263","711408","0.0-17.0-1.9","17750","List2A","white","woman","","","","null","","","","","","","","",""
"null","is shouting at","","html-keyboard-response","264","713410","0.0-17.0-2.9","17750","List2A","white","woman","","","","null","","","","","","","","",""
"5047.299999952316","","","survey-text","265","718461","0.0-17.0-3.9","17750","List2A","white","woman","","","","","{""Q0"":""luke is shouting at fred""}","<img src=""stim_listA/shout5.gif""style=""height:400px;""></stim_listA>","is shouting at","","","","","",""
"null","<div style=""font-size:60px;"">+</div>","","html-keyboard-response","266","718965","0.0-17.0-0.10","17750","List2A","white","woman","","","","null","","","","","","","","",""
"null","<img src=""stim_listA/shout1.gif""style=""height:400px;""></stim_listA>","","html-keyboard-response","267","720968","0.0-17.0-1.10","17750","List2A","white","woman","","","","null","","","","","","","","",""
"null","is shouting at","","html-keyboard-response","268","722970","0.0-17.0-2.10","17750","List2A","white","woman","","","","null","","","","","","","","",""
"5292.200000047684","","","survey-text","269","728266","0.0-17.0-3.10","17750","List2A","white","woman","","","","","{""Q0"":""ruth is shouting at luke""}","<img src=""stim_listA/shout1.gif""style=""height:400px;""></stim_listA>","is shouting at","","","","","",""
"null","<div style=""font-size:60px;"">+</div>","","html-keyboard-response","270","728769","0.0-17.0-0.11","17750","List2A","white","woman","","","","null","","","","","","","","",""
"null","<img src=""stim_listA/touch6.gif""style=""height:400px;""></stim_listA>","","html-keyboard-response","271","730773","0.0-17.0-1.11","17750","List2A","white","woman","","","","null","","","","","","","","",""
"null","is being touched by","","html-keyboard-response","272","732777","0.0-17.0-2.11","17750","List2A","white","woman","","","","null","","","","","","","","",""
"4661.700000047684","","","survey-text","273","737442","0.0-17.0-3.11","17750","List2A","white","woman","","","","","{""Q0"":""luke is being touched by fred""}","<img src=""stim_listA/touch6.gif""style=""height:400px;""></stim_listA>","is being touched by","","","","","",""
"null","<div style=""font-size:60px;"">+</div>","","html-keyboard-response","274","737946","0.0-17.0-0.12","17750","List2A","white","woman","","","","null","","","","","","","","",""
"null","<img src=""stim_listA/hug1.gif""style=""height:400px;""></stim_listA>","","html-keyboard-response","275","739949","0.0-17.0-1.12","17750","List2A","white","woman","","","","null","","","","","","","","",""
"null","is hugging","","html-keyboard-response","276","741954","0.0-17.0-2.12","17750","List2A","white","woman","","","","null","","","","","","","","",""
"5347.5","","","survey-text","277","747305","0.0-17.0-3.12","17750","List2A","white","woman","","","","","{""Q0"":""luke is hugging ruth""}","<img src=""stim_listA/hug1.gif""style=""height:400px;""></stim_listA>","is hugging","","","","","",""
"null","<div style=""font-size:60px;"">+</div>","","html-keyboard-response","278","747809","0.0-17.0-0.13","17750","List2A","white","woman","","","","null","","","","","","","","",""
"null","<img src=""stim_listA/touch5.gif""style=""height:400px;""></stim_listA>","","html-keyboard-response","279","749819","0.0-17.0-1.13","17750","List2A","white","woman","","","","null","","","","","","","","",""
"null","is touching","","html-keyboard-response","280","751827","0.0-17.0-2.13","17750","List2A","white","woman","","","","null","","","","","","","","",""
"4545.200000047684","","","survey-text","281","756377","0.0-17.0-3.13","17750","List2A","white","woman","","","","","{""Q0"":""dave is touching mike""}","<img src=""stim_listA/touch5.gif""style=""height:400px;""></stim_listA>","is touching","","","","","",""
"null","<div style=""font-size:60px;"">+</div>","","html-keyboard-response","282","756882","0.0-17.0-0.14","17750","List2A","white","woman","","","","null","","","","","","","","",""
"null","<img src=""stim_listA/look5.gif""style=""height:400px;""></stim_listA>","","html-keyboard-response","283","758890","0.0-17.0-1.14","17750","List2A","white","woman","","","","null","","","","","","","","",""
"null","is looking at","","html-keyboard-response","284","760895","0.0-17.0-2.14","17750","List2A","white","woman","","","","null","","","","","","","","",""
"4058.0999999046326","","","survey-text","285","764957","0.0-17.0-3.14","17750","List2A","white","woman","","","","","{""Q0"":""luke is looking at fred""}","<img src=""stim_listA/look5.gif""style=""height:400px;""></stim_listA>","is looking at","","","","","",""
"null","<div style=""font-size:60px;"">+</div>","","html-keyboard-response","286","765463","0.0-17.0-0.15","17750","List2A","white","woman","","","","null","","","","","","","","",""
"null","<img src=""stim_listA/greet5.gif""style=""height:400px;""></stim_listA>","","html-keyboard-response","287","767472","0.0-17.0-1.15","17750","List2A","white","woman","","","","null","","","","","","","","",""
"null","is greeting","","html-keyboard-response","288","769480","0.0-17.0-2.15","17750","List2A","white","woman","","","","null","","","","","","","","",""
"4201.5","","","survey-text","289","773686","0.0-17.0-3.15","17750","List2A","white","woman","","","","","{""Q0"":""dave is greeting fred""}","<img src=""stim_listA/greet5.gif""style=""height:400px;""></stim_listA>","is greeting","","","","","",""
"null","<div style=""font-size:60px;"">+</div>","","html-keyboard-response","290","774192","0.0-17.0-0.16","17750","List2A","white","woman","","","","null","","","","","","","","",""
"null","<img src=""stim_listA/greet3.gif""style=""height:400px;""></stim_listA>","","html-keyboard-response","291","776202","0.0-17.0-1.16","17750","List2A","white","woman","","","","null","","","","","","","","",""
"null","is greeting","","html-keyboard-response","292","778209","0.0-17.0-2.16","17750","List2A","white","woman","","","","null","","","","","","","","",""
"4881.5","","","survey-text","293","783094","0.0-17.0-3.16","17750","List2A","white","woman","","","","","{""Q0"":""kate is greeting mike""}","<img src=""stim_listA/greet3.gif""style=""height:400px;""></stim_listA>","is greeting","","","","","",""
"null","<div style=""font-size:60px;"">+</div>","","html-keyboard-response","294","783603","0.0-17.0-0.17","17750","List2A","white","woman","","","","null","","","","","","","","",""
"null","<img src=""stim_listA/kiss8.gif""style=""height:400px;""></stim_listA>","","html-keyboard-response","295","785612","0.0-17.0-1.17","17750","List2A","white","woman","","","","null","","","","","","","","",""
"null","is being kissed by","","html-keyboard-response","296","787618","0.0-17.0-2.17","17750","List2A","white","woman","","","","null","","","","","","","","",""
"4672.599999904633","","","survey-text","297","792295","0.0-17.0-3.17","17750","List2A","white","woman","","","","","{""Q0"":""jane is being kissed by kate""}","<img src=""stim_listA/kiss8.gif""style=""height:400px;""></stim_listA>","is being kissed by","","","","","",""
"null","<div style=""font-size:60px;"">+</div>","","html-keyboard-response","298","792804","0.0-17.0-0.18","17750","List2A","white","woman","","","","null","","","","","","","","",""
"null","<img src=""stim_listA/copy4.gif""style=""height:400px;""></stim_listA>","","html-keyboard-response","299","794810","0.0-17.0-1.18","17750","List2A","white","woman","","","","null","","","","","","","","",""
"null","is being copied by","","html-keyboard-response","300","796813","0.0-17.0-2.18","17750","List2A","white","woman","","","","null","","","","","","","","",""
"6491.099999904633","","","survey-text","301","803308","0.0-17.0-3.18","17750","List2A","white","woman","","","","","{""Q0"":""kate is being copied by fred""}","<img src=""stim_listA/copy4.gif""style=""height:400px;""></stim_listA>","is being copied by","","","","","",""
"null","<div style=""font-size:60px;"">+</div>","","html-keyboard-response","302","803810","0.0-17.0-0.19","17750","List2A","white","woman","","","","null","","","","","","","","",""
"null","<img src=""stim_listA/oppose6.gif""style=""height:400px;""></stim_listA>","","html-keyboard-response","303","805813","0.0-17.0-1.19","17750","List2A","white","woman","","","","null","","","","","","","","",""
"null","is being opposed by","","html-keyboard-response","304","807815","0.0-17.0-2.19","17750","List2A","white","woman","","","","null","","","","","","","","",""
"7226.099999904633","","","survey-text","305","815045","0.0-17.0-3.19","17750","List2A","white","woman","","","","","{""Q0"":""fred is being opposed by luke""}","<img src=""stim_listA/oppose6.gif""style=""height:400px;""></stim_listA>","is being opposed by","","","","","",""
"1286.2999999523163","<img src='img/portrait_matrix_list2.jpg' style='width:900px;height:500px;''></img><p>If you have memorised all the portraits and names and are ready to start, press Continue.</p><p><strong>Please note: Your memory of these faces will be tested 4 times during this experiment.</strong></p>","0","html-button-response","306","816334","0.0-18.0-0.0","17750","List2A","white","woman","","","","","","","","","","","","",""
"2320.4000000953674","<img src=""portrait/WM1.jpg""style=""height:400px;""></img>","6","html-button-response","307","819661","0.0-18.0-1.0","17750","List2A","white","woman","","true","6","","","","","","","","","",""
"null","CORRECT","","html-keyboard-response","308","821172","0.0-18.0-2.0-0.0","17750","List2A","white","woman","","","","null","","","","","","","","",""
"4107.799999952316","<img src=""portrait/WW1.jpg""style=""height:400px;""></img>","1","html-button-response","309","825283","0.0-18.0-4.0","17750","List2A","white","woman","","true","1","","","","","","","","","",""
"null","CORRECT","","html-keyboard-response","310","826791","0.0-18.0-5.0-0.0","17750","List2A","white","woman","","","","null","","","","","","","","",""
"2111.2999999523163","<img src=""portrait/BM1.jpg""style=""height:400px;""></img>","4","html-button-response","311","828906","0.0-18.0-7.0","17750","List2A","white","woman","","true","4","","","","","","","","","",""
"null","CORRECT","","html-keyboard-response","312","830416","0.0-18.0-8.0-0.0","17750","List2A","white","woman","","","","null","","","","","","","","",""
"2712.5","<img src=""portrait/WM2.jpg""style=""height:400px;""></img>","7","html-button-response","313","833132","0.0-18.0-10.0","17750","List2A","white","woman","","true","7","","","","","","","","","",""
"null","CORRECT","","html-keyboard-response","314","834643","0.0-18.0-11.0-0.0","17750","List2A","white","woman","","","","null","","","","","","","","",""
"1438.6999998092651","<img src=""portrait/BW2.jpg""style=""height:400px;""></img>","2","html-button-response","315","836085","0.0-18.0-13.0","17750","List2A","white","woman","","true","2","","","","","","","","","",""
"null","CORRECT","","html-keyboard-response","316","837591","0.0-18.0-14.0-0.0","17750","List2A","white","woman","","","","null","","","","","","","","",""
"2901.5999999046326","<img src=""portrait/BM2.jpg""style=""height:400px;""></img>","5","html-button-response","317","840497","0.0-18.0-16.0","17750","List2A","white","woman","","true","5","","","","","","","","","",""
"null","CORRECT","","html-keyboard-response","318","842003","0.0-18.0-17.0-0.0","17750","List2A","white","woman","","","","null","","","","","","","","",""
"1780","<img src=""portrait/WW2.jpg""style=""height:400px;""></img>","3","html-button-response","319","843785","0.0-18.0-19.0","17750","List2A","white","woman","","true","3","","","","","","","","","",""
"null","CORRECT","","html-keyboard-response","320","845294","0.0-18.0-20.0-0.0","17750","List2A","white","woman","","","","null","","","","","","","","",""
"2319.2999999523163","<img src=""portrait/BW1.jpg""style=""height:400px;""></img>","0","html-button-response","321","847617","0.0-18.0-22.0","17750","List2A","white","woman","","true","0","","","","","","","","","",""
"null","CORRECT","","html-keyboard-response","322","849125","0.0-18.0-23.0-0.0","17750","List2A","white","woman","","","","null","","","","","","","","",""
"2335.100000143051","<p>You got 8 out of 8 right first time. Press Continue.</p>","0","html-button-response","323","851465","0.0-18.0-25.0","17750","List2A","white","woman","","","","","","","","","","","","",""
"null","<div style=""font-size:60px;"">+</div>","","html-keyboard-response","324","852974","0.0-19.0-0.0","17750","List2A","white","woman","","","","null","","","","","","","","",""
"null","<img src=""stim_listA/seduce5.gif""style=""height:400px;""></stim_listA>","","html-keyboard-response","325","854985","0.0-19.0-1.0","17750","List2A","white","woman","","","","null","","","","","","","","",""
"null","is seducing","","html-keyboard-response","326","856991","0.0-19.0-2.0","17750","List2A","white","woman","","","","null","","","","","","","","",""
"4134.299999952316","","","survey-text","327","861130","0.0-19.0-3.0","17750","List2A","white","woman","","","","","{""Q0"":""luke is seducing mike""}","<img src=""stim_listA/seduce5.gif""style=""height:400px;""></stim_listA>","is seducing","","","","","",""
"null","<div style=""font-size:60px;"">+</div>","","html-keyboard-response","328","861635","0.0-19.0-0.1","17750","List2A","white","woman","","","","null","","","","","","","","",""
"null","<img src=""stim_listA/hug2.gif""style=""height:400px;""></stim_listA>","","html-keyboard-response","329","863639","0.0-19.0-1.1","17750","List2A","white","woman","","","","null","","","","","","","","",""
"null","is being hugged by","","html-keyboard-response","330","865648","0.0-19.0-2.1","17750","List2A","white","woman","","","","null","","","","","","","","",""
"4178.700000047684","","","survey-text","331","869831","0.0-19.0-3.1","17750","List2A","white","woman","","","","","{""Q0"":""jane is being hugged by dave""}","<img src=""stim_listA/hug2.gif""style=""height:400px;""></stim_listA>","is being hugged by","","","","","",""
"null","<div style=""font-size:60px;"">+</div>","","html-keyboard-response","332","870338","0.0-19.0-0.2","17750","List2A","white","woman","","","","null","","","","","","","","",""
"null","<img src=""stim_listA/look8.gif""style=""height:400px;""></stim_listA>","","html-keyboard-response","333","872345","0.0-19.0-1.2","17750","List2A","white","woman","","","","null","","","","","","","","",""
"null","is being looked at by","","html-keyboard-response","334","874347","0.0-19.0-2.2","17750","List2A","white","woman","","","","null","","","","","","","","",""
"6972.200000047684","","","survey-text","335","881324","0.0-19.0-3.2","17750","List2A","white","woman","","","","","{""Q0"":""jane is being looked at by kate""}","<img src=""stim_listA/look8.gif""style=""height:400px;""></stim_listA>","is being looked at by","","","","","",""
"null","<div style=""font-size:60px;"">+</div>","","html-keyboard-response","336","881830","0.0-19.0-0.3","17750","List2A","white","woman","","","","null","","","","","","","","",""
"null","<img src=""stim_listA/shout8.gif""style=""height:400px;""></stim_listA>","","html-keyboard-response","337","883834","0.0-19.0-1.3","17750","List2A","white","woman","","","","null","","","","","","","","",""
"null","is being shouted at by","","html-keyboard-response","338","885837","0.0-19.0-2.3","17750","List2A","white","woman","","","","null","","","","","","","","",""
"5248.899999856949","","","survey-text","339","891090","0.0-19.0-3.3","17750","List2A","white","woman","","","","","{""Q0"":""jane is being shouted at by kate""}","<img src=""stim_listA/shout8.gif""style=""height:400px;""></stim_listA>","is being shouted at by","","","","","",""
"null","<div style=""font-size:60px;"">+</div>","","html-keyboard-response","340","891593","0.0-19.0-0.4","17750","List2A","white","woman","","","","null","","","","","","","","",""
"null","<img src=""stim_listA/challenge8.gif""style=""height:400px;""></stim_listA>","","html-keyboard-response","341","893597","0.0-19.0-1.4","17750","List2A","white","woman","","","","null","","","","","","","","",""
"null","is being challenged by","","html-keyboard-response","342","895600","0.0-19.0-2.4","17750","List2A","white","woman","","","","null","","","","","","","","",""
"4691.200000047684","","","survey-text","343","900295","0.0-19.0-3.4","17750","List2A","white","woman","","","","","{""Q0"":""ruth is challenged by kate""}","<img src=""stim_listA/challenge8.gif""style=""height:400px;""></stim_listA>","is being challenged by","","","","","",""
"null","<div style=""font-size:60px;"">+</div>","","html-keyboard-response","344","900799","0.0-19.0-0.5","17750","List2A","white","woman","","","","null","","","","","","","","",""
"null","<img src=""stim_listA/touch4.gif""style=""height:400px;""></stim_listA>","","html-keyboard-response","345","902802","0.0-19.0-1.5","17750","List2A","white","woman","","","","null","","","","","","","","",""
"null","is being touched by","","html-keyboard-response","346","904806","0.0-19.0-2.5","17750","List2A","white","woman","","","","null","","","","","","","","",""
"6222.300000190735","","","survey-text","347","911033","0.0-19.0-3.5","17750","List2A","white","woman","","","","","{""Q0"":""beth is being touched by fred""}","<img src=""stim_listA/touch4.gif""style=""height:400px;""></stim_listA>","is being touched by","","","","","",""
"null","<div style=""font-size:60px;"">+</div>","","html-keyboard-response","348","911540","0.0-19.0-0.6","17750","List2A","white","woman","","","","null","","","","","","","","",""
"null","<img src=""stim_listA/hug3.gif""style=""height:400px;""></stim_listA>","","html-keyboard-response","349","913546","0.0-19.0-1.6","17750","List2A","white","woman","","","","null","","","","","","","","",""
"null","is hugging","","html-keyboard-response","350","915549","0.0-19.0-2.6","17750","List2A","white","woman","","","","null","","","","","","","","",""
"4245.899999856949","","","survey-text","351","919799","0.0-19.0-3.6","17750","List2A","white","woman","","","","","{""Q0"":""beth is hugging fred""}","<img src=""stim_listA/hug3.gif""style=""height:400px;""></stim_listA>","is hugging","","","","","",""
"null","<div style=""font-size:60px;"">+</div>","","html-keyboard-response","352","920305","0.0-19.0-0.7","17750","List2A","white","woman","","","","null","","","","","","","","",""
"null","<img src=""stim_listA/kiss3.gif""style=""height:400px;""></stim_listA>","","html-keyboard-response","353","922312","0.0-19.0-1.7","17750","List2A","white","woman","","","","null","","","","","","","","",""
"null","is kissing","","html-keyboard-response","354","924314","0.0-19.0-2.7","17750","List2A","white","woman","","","","null","","","","","","","","",""
"4865","","","survey-text","355","929183","0.0-19.0-3.7","17750","List2A","white","woman","","","","","{""Q0"":""beth is kissing fred""}","<img src=""stim_listA/kiss3.gif""style=""height:400px;""></stim_listA>","is kissing","","","","","",""
"null","<div style=""font-size:60px;"">+</div>","","html-keyboard-response","356","929686","0.0-19.0-0.8","17750","List2A","white","woman","","","","null","","","","","","","","",""
"null","<img src=""stim_listA/hug5.gif""style=""height:400px;""></stim_listA>","","html-keyboard-response","357","931692","0.0-19.0-1.8","17750","List2A","white","woman","","","","null","","","","","","","","",""
"null","is hugging","","html-keyboard-response","358","933697","0.0-19.0-2.8","17750","List2A","white","woman","","","","null","","","","","","","","",""
"4074.600000143051","","","survey-text","359","937775","0.0-19.0-3.8","17750","List2A","white","woman","","","","","{""Q0"":""luke is hugging fred""}","<img src=""stim_listA/hug5.gif""style=""height:400px;""></stim_listA>","is hugging","","","","","",""
"null","<div style=""font-size:60px;"">+</div>","","html-keyboard-response","360","938282","0.0-19.0-0.9","17750","List2A","white","woman","","","","null","","","","","","","","",""
"null","<img src=""stim_listA/greet6.gif""style=""height:400px;""></stim_listA>","","html-keyboard-response","361","940289","0.0-19.0-1.9","17750","List2A","white","woman","","","","null","","","","","","","","",""
"null","is being greeted by","","html-keyboard-response","362","942291","0.0-19.0-2.9","17750","List2A","white","woman","","","","null","","","","","","","","",""
"5115.5","","","survey-text","363","947411","0.0-19.0-3.9","17750","List2A","white","woman","","","","","{""Q0"":""mike is greeted by luke""}","<img src=""stim_listA/greet6.gif""style=""height:400px;""></stim_listA>","is being greeted by","","","","","",""
"null","<div style=""font-size:60px;"">+</div>","","html-keyboard-response","364","947916","0.0-19.0-0.10","17750","List2A","white","woman","","","","null","","","","","","","","",""
"null","<img src=""stim_listA/challenge2.gif""style=""height:400px;""></stim_listA>","","html-keyboard-response","365","949919","0.0-19.0-1.10","17750","List2A","white","woman","","","","null","","","","","","","","",""
"null","is being challenged by","","html-keyboard-response","366","951921","0.0-19.0-2.10","17750","List2A","white","woman","","","","null","","","","","","","","",""
"5367.900000095367","","","survey-text","367","957293","0.0-19.0-3.10","17750","List2A","white","woman","","","","","{""Q0"":""jane is being challenged by luke""}","<img src=""stim_listA/challenge2.gif""style=""height:400px;""></stim_listA>","is being challenged by","","","","","",""
"null","<div style=""font-size:60px;"">+</div>","","html-keyboard-response","368","957796","0.0-19.0-0.11","17750","List2A","white","woman","","","","null","","","","","","","","",""
"null","<img src=""stim_listA/kiss4.gif""style=""height:400px;""></stim_listA>","","html-keyboard-response","369","959801","0.0-19.0-1.11","17750","List2A","white","woman","","","","null","","","","","","","","",""
"null","is being kissed by","","html-keyboard-response","370","961803","0.0-19.0-2.11","17750","List2A","white","woman","","","","null","","","","","","","","",""
"5175.400000095367","","","survey-text","371","966982","0.0-19.0-3.11","17750","List2A","white","woman","","","","","{""Q0"":""mike is being kissed by kate""}","<img src=""stim_listA/kiss4.gif""style=""height:400px;""></stim_listA>","is being kissed by","","","","","",""
"null","<div style=""font-size:60px;"">+</div>","","html-keyboard-response","372","967484","0.0-19.0-0.12","17750","List2A","white","woman","","","","null","","","","","","","","",""
"null","<img src=""stim_listA/challenge3.gif""style=""height:400px;""></stim_listA>","","html-keyboard-response","373","969489","0.0-19.0-1.12","17750","List2A","white","woman","","","","null","","","","","","","","",""
"null","is challenging","","html-keyboard-response","374","971495","0.0-19.0-2.12","17750","List2A","white","woman","","","","null","","","","","","","","",""
"5786.799999952316","","","survey-text","375","977286","0.0-19.0-3.12","17750","List2A","white","woman","","","","","{""Q0"":""beth is challenging mike""}","<img src=""stim_listA/challenge3.gif""style=""height:400px;""></stim_listA>","is challenging","","","","","",""
"null","<div style=""font-size:60px;"">+</div>","","html-keyboard-response","376","977795","0.0-19.0-0.13","17750","List2A","white","woman","","","","null","","","","","","","","",""
"null","<img src=""stim_listA/hug8.gif""style=""height:400px;""></stim_listA>","","html-keyboard-response","377","979804","0.0-19.0-1.13","17750","List2A","white","woman","","","","null","","","","","","","","",""
"null","is being hugged by","","html-keyboard-response","378","981810","0.0-19.0-2.13","17750","List2A","white","woman","","","","null","","","","","","","","",""
"5248.700000047684","","","survey-text","379","987062","0.0-19.0-3.13","17750","List2A","white","woman","","","","","{""Q0"":""kate is being hugged by jane""}","<img src=""stim_listA/hug8.gif""style=""height:400px;""></stim_listA>","is being hugged by","","","","","",""
"null","<div style=""font-size:60px;"">+</div>","","html-keyboard-response","380","987568","0.0-19.0-0.14","17750","List2A","white","woman","","","","null","","","","","","","","",""
"null","<img src=""stim_listA/oppose2.gif""style=""height:400px;""></stim_listA>","","html-keyboard-response","381","989578","0.0-19.0-1.14","17750","List2A","white","woman","","","","null","","","","","","","","",""
"null","is being opposed by","","html-keyboard-response","382","991587","0.0-19.0-2.14","17750","List2A","white","woman","","","","null","","","","","","","","",""
"6077.700000047684","","","survey-text","383","997669","0.0-19.0-3.14","17750","List2A","white","woman","","","","","{""Q0"":""jane is being opposed by luke""}","<img src=""stim_listA/oppose2.gif""style=""height:400px;""></stim_listA>","is being opposed by","","","","","",""
"null","<div style=""font-size:60px;"">+</div>","","html-keyboard-response","384","998176","0.0-19.0-0.15","17750","List2A","white","woman","","","","null","","","","","","","","",""
"null","<img src=""stim_listA/seduce7.gif""style=""height:400px;""></stim_listA>","","html-keyboard-response","385","1000179","0.0-19.0-1.15","17750","List2A","white","woman","","","","null","","","","","","","","",""
"null","is seducing","","html-keyboard-response","386","1002181","0.0-19.0-2.15","17750","List2A","white","woman","","","","null","","","","","","","","",""
"3371.399999856949","","","survey-text","387","1005557","0.0-19.0-3.15","17750","List2A","white","woman","","","","","{""Q0"":""ruth is seducing kate""}","<img src=""stim_listA/seduce7.gif""style=""height:400px;""></stim_listA>","is seducing","","","","","",""
"null","<div style=""font-size:60px;"">+</div>","","html-keyboard-response","388","1006063","0.0-19.0-0.16","17750","List2A","white","woman","","","","null","","","","","","","","",""
"null","<img src=""stim_listA/oppose4.gif""style=""height:400px;""></stim_listA>","","html-keyboard-response","389","1008067","0.0-19.0-1.16","17750","List2A","white","woman","","","","null","","","","","","","","",""
"null","is being opposed by","","html-keyboard-response","390","1010074","0.0-19.0-2.16","17750","List2A","white","woman","","","","null","","","","","","","","",""
"6171","","","survey-text","391","1016248","0.0-19.0-3.16","17750","List2A","white","woman","","","","","{""Q0"":""fred is being opposed by beth""}","<img src=""stim_listA/oppose4.gif""style=""height:400px;""></stim_listA>","is being opposed by","","","","","",""
"null","<div style=""font-size:60px;"">+</div>","","html-keyboard-response","392","1016751","0.0-19.0-0.17","17750","List2A","white","woman","","","","null","","","","","","","","",""
"null","<img src=""stim_listA/oppose8.gif""style=""height:400px;""></stim_listA>","","html-keyboard-response","393","1018754","0.0-19.0-1.17","17750","List2A","white","woman","","","","null","","","","","","","","",""
"null","is being opposed by","","html-keyboard-response","394","1020756","0.0-19.0-2.17","17750","List2A","white","woman","","","","null","","","","","","","","",""
"6253.199999809265","","","survey-text","395","1027013","0.0-19.0-3.17","17750","List2A","white","woman","","","","","{""Q0"":""kate is being opposed by beth""}","<img src=""stim_listA/oppose8.gif""style=""height:400px;""></stim_listA>","is being opposed by","","","","","",""
"null","<div style=""font-size:60px;"">+</div>","","html-keyboard-response","396","1027516","0.0-19.0-0.18","17750","List2A","white","woman","","","","null","","","","","","","","",""
"null","<img src=""stim_listA/kiss7.gif""style=""height:400px;""></stim_listA>","","html-keyboard-response","397","1029522","0.0-19.0-1.18","17750","List2A","white","woman","","","","null","","","","","","","","",""
"null","is kissing","","html-keyboard-response","398","1031530","0.0-19.0-2.18","17750","List2A","white","woman","","","","null","","","","","","","","",""
"4102.299999952316","","","survey-text","399","1035636","0.0-19.0-3.18","17750","List2A","white","woman","","","","","{""Q0"":""ruth is kissing beth""}","<img src=""stim_listA/kiss7.gif""style=""height:400px;""></stim_listA>","is kissing","","","","","",""
"null","<div style=""font-size:60px;"">+</div>","","html-keyboard-response","400","1036145","0.0-19.0-0.19","17750","List2A","white","woman","","","","null","","","","","","","","",""
"null","<img src=""stim_listA/hug6.gif""style=""height:400px;""></stim_listA>","","html-keyboard-response","401","1038153","0.0-19.0-1.19","17750","List2A","white","woman","","","","null","","","","","","","","",""
"null","is being hugged by","","html-keyboard-response","402","1040156","0.0-19.0-2.19","17750","List2A","white","woman","","","","null","","","","","","","","",""
"6242.099999904633","","","survey-text","403","1046402","0.0-19.0-3.19","17750","List2A","white","woman","","","","","{""Q0"":""mike is being hugged by dave""}","<img src=""stim_listA/hug6.gif""style=""height:400px;""></stim_listA>","is being hugged by","","","","","",""
"1826.5","<p>Thank you for completing that task.</p><p>The final part of this session is a questionnaire that will take about 4 minutes.</p><p>Press Continue.</p>","0","html-button-response","404","1048231","0.0-20.0","17750","List2A","white","woman","","","","","","","","","","","","",""
"18052.400000095367","","","survey-text","405","1067291","0.0-21.0","17750","List2A","white","woman","","","","","{""Q0"":""19"",""Q1"":""english"",""Q2"":""english"",""Q3"":""usa"",""Q4"":""white"",""Q5"":""white"",""Q6"":""female""}","","","demographics","","","","",""
"1807.0999999046326","<p>Have you lived in the USA for the last 5 years or more?</p>","0","html-button-response","406","1069102","0.0-22.0","17750","List2A","white","woman","","","","","","","","fiveyears","","","","",""
"1464.9000000953674","<p>Move the slider to show the extent to which you agree with the following statements.</p>","0","html-button-response","407","1071573","0.0-23.0","17750","List2A","white","woman","","","","","","","","","","","","",""
"3461.7000000476837","","","html-slider-response","408","1076045","0.0-24.0-0.0-0.0","17750","List2A","white","woman","","","","","","","","survey_gender","68","","","I feel solidarity with my friends.","filler"
"2266.4000000953674","","","html-slider-response","409","1078316","0.0-24.0-0.0-0.1","17750","List2A","white","woman","","","","","","","","survey_gender","53","","","I would say I am an animal person.","filler"
"1881.8000001907349","","","html-slider-response","410","1080201","0.0-24.0-0.0-0.2","17750","List2A","white","woman","","","","","","","","survey_gender","55","","","I consider myself a highly empathetic person.","filler"
"2231.399999856949","","","html-slider-response","411","1082437","0.0-24.0-0.0-0.3","17750","List2A","white","woman","","","","","","","","survey_gender","74","","","I have a lot in common with my friends.","filler"
"2164.899999856949","","","html-slider-response","412","1084605","0.0-24.0-0.0-0.4","17750","List2A","white","woman","","","","","","","","survey_gender","69","","","I think that my gender has a lot to be proud of.","proud"
"3999.699999809265","","","html-slider-response","413","1088607","0.0-24.0-0.0-0.5","17750","List2A","white","woman","","","","","","","","survey_gender","69","","","I feel committed to my gender.","committed"
"2137.2999999523163","","","html-slider-response","414","1090747","0.0-24.0-0.0-0.6","17750","List2A","white","woman","","","","","","","","survey_gender","69","","","My friends understand me.","filler"
"2336.100000143051","","","html-slider-response","415","1093086","0.0-24.0-0.0-0.7","17750","List2A","white","woman","","","","","","","","survey_gender","33","","","Routine is not important to me.","filler"
"2846.5999999046326","","","html-slider-response","416","1095935","0.0-24.0-0.0-0.8","17750","List2A","white","woman","","","","","","","","survey_gender","67","","","I am similar to the average person of my gender.","similar"
"4596.599999904633","","","html-slider-response","417","1100535","0.0-24.0-0.0-0.9","17750","List2A","white","woman","","","","","","","","survey_gender","45","","","I often think about the fact that I am my gender.","often"
"1849.5","","","html-slider-response","418","1102388","0.0-24.0-0.0-0.10","17750","List2A","white","woman","","","","","","","","survey_gender","70","","","I am glad to have the friends that I have.","filler"
"1835.7999999523163","","","html-slider-response","419","1104227","0.0-24.0-0.0-0.11","17750","List2A","white","woman","","","","","","","","survey_gender","77","","","I feel a bond with my friends.","filler"
"4256.399999856949","","","html-slider-response","420","1108485","0.0-24.0-0.0-0.12","17750","List2A","white","woman","","","","","","","","survey_gender","47","","","It is not always easy for people to know what I am thinking.","filler"
"3518.2000000476837","","","html-slider-response","421","1112007","0.0-24.0-0.0-0.13","17750","List2A","white","woman","","","","","","","","survey_gender","68","","","Being around my friends gives me a good feeling.","filler"
"1785.5","","","html-slider-response","422","1113797","0.0-24.0-0.0-0.14","17750","List2A","white","woman","","","","","","","","survey_gender","66","","","I am glad to be my gender.","glad"
"1932.2000000476837","","","html-slider-response","423","1115732","0.0-24.0-0.0-0.15","17750","List2A","white","woman","","","","","","","","survey_gender","73","","","People of my gender are very similar to each other.","verysimilar"
"2314.100000143051","","","html-slider-response","424","1118049","0.0-24.0-0.0-0.16","17750","List2A","white","woman","","","","","","","","survey_gender","78","","","Most of the friends in my life are very similar to me.","filler"
"1613.1000001430511","","","html-slider-response","425","1119665","0.0-24.0-0.0-0.17","17750","List2A","white","woman","","","","","","","","survey_gender","67","","","It is pleasant to be my gender.","pleasant"
"2837.5999999046326","","","html-slider-response","426","1122505","0.0-24.0-0.0-0.18","17750","List2A","white","woman","","","","","","","","survey_gender","73","","","The fact that I am my gender is an important part of my identity.","identity"
"2668.2000000476837","","","html-slider-response","427","1125177","0.0-24.0-0.0-0.19","17750","List2A","white","woman","","","","","","","","survey_gender","64","","","Being my gender gives me a good feeling.","feeling"
"2265.5999999046326","","","html-slider-response","428","1127446","0.0-24.0-0.0-0.20","17750","List2A","white","woman","","","","","","","","survey_gender","65","","","I feel a bond with my gender.","bond"
"2155.4000000953674","","","html-slider-response","429","1129605","0.0-24.0-0.0-0.21","17750","List2A","white","woman","","","","","","","","survey_gender","61","","","Being my gender is an important part of how I see myself.","important"
"2679.600000143051","","","html-slider-response","430","1132287","0.0-24.0-0.0-0.22","17750","List2A","white","woman","","","","","","","","survey_gender","56","","","I often think about my actions.","filler"
"2983.9000000953674","","","html-slider-response","431","1135275","0.0-24.0-0.0-0.23","17750","List2A","white","woman","","","","","","","","survey_gender","63","","","I feel solidarity with my gender.","solidarity"
"2000.4000000953674","","","html-slider-response","432","1137278","0.0-24.0-0.0-0.24","17750","List2A","white","woman","","","","","","","","survey_gender","62","","","My friends have a lot in common with each other.","filler"
"3618","","","html-slider-response","433","1140899","0.0-24.0-0.0-0.25","17750","List2A","white","woman","","","","","","","","survey_gender","66","","","I have a lot in common with the average person of my gender.","average"
"2753.5","","","html-slider-response","434","1143656","0.0-24.0-0.0-0.26","17750","List2A","white","woman","","","","","","","","survey_gender","65","","","People of my gender have a lot in common with each other.","common"
"3933.7000000476837","","","html-slider-response","435","1147593","0.0-24.0-0.0-0.27","17750","List2A","white","woman","","","","","","","","survey_gender","63","","","Family is not more important to me than friendship.","filler"
"2520.199999809265","","","html-slider-response","436","1150115","0.0-24.0-1.0-0.0","17750","List2A","white","woman","","","","","","","","survey_race","60","","","I feel a bond with my race.","bond"
"1620.2999999523163","","","html-slider-response","437","1151738","0.0-24.0-1.0-0.1","17750","List2A","white","woman","","","","","","","","survey_race","64","","","I feel solidarity with my race.","solidarity"
"2610.7999999523163","","","html-slider-response","438","1154351","0.0-24.0-1.0-0.2","17750","List2A","white","woman","","","","","","","","survey_race","46","","","Getting older does not worry me.","filler"
"1860.0999999046326","","","html-slider-response","439","1156214","0.0-24.0-1.0-0.3","17750","List2A","white","woman","","","","","","","","survey_race","59","","","I enjoy being in large groups.","filler"
"1994.8000001907349","","","html-slider-response","440","1158212","0.0-24.0-1.0-0.4","17750","List2A","white","woman","","","","","","","","survey_race","64","","","I am similar to the average person of my race.","similar"
"2527.5999999046326","","","html-slider-response","441","1160742","0.0-24.0-1.0-0.5","17750","List2A","white","woman","","","","","","","","survey_race","61","","","People my age have a lot in common with each other.","filler"
"3160","","","html-slider-response","442","1163904","0.0-24.0-1.0-0.6","17750","List2A","white","woman","","","","","","","","survey_race","50","","","Being my race gives me a good feeling.","feeling"
"2592.5999999046326","","","html-slider-response","443","1166500","0.0-24.0-1.0-0.7","17750","List2A","white","woman","","","","","","","","survey_race","52","","","The fact that I am my race is an important part of my identity.","identity"
"2388.9000000953674","","","html-slider-response","444","1168893","0.0-24.0-1.0-0.8","17750","List2A","white","woman","","","","","","","","survey_race","31","","","I consider myself an introvert.","filler"
"2603.7999999523163","","","html-slider-response","445","1171499","0.0-24.0-1.0-0.9","17750","List2A","white","woman","","","","","","","","survey_race","58","","","I feel a bond with people the same age as me.","filler"
"4026.2000000476837","","","html-slider-response","446","1175530","0.0-24.0-1.0-0.10","17750","List2A","white","woman","","","","","","","","survey_race","47","","","Being my race is an important part of how I see myself.","important"
"2198.9000000953674","","","html-slider-response","447","1177733","0.0-24.0-1.0-0.11","17750","List2A","white","woman","","","","","","","","survey_race","60","","","I think that my race has a lot to be proud of.","proud"
"1969","","","html-slider-response","448","1179705","0.0-24.0-1.0-0.12","17750","List2A","white","woman","","","","","","","","survey_race","56","","","I feel solidarity with people the same age as me.","filler"
"1984.2999999523163","","","html-slider-response","449","1181692","0.0-24.0-1.0-0.13","17750","List2A","white","woman","","","","","","","","survey_race","59","","","The older I get, the wiser I feel.","filler"
"2132.0999999046326","","","html-slider-response","450","1183828","0.0-24.0-1.0-0.14","17750","List2A","white","woman","","","","","","","","survey_race","64","","","Being my age gives me a good feeling.","filler"
"2443.5","","","html-slider-response","451","1186274","0.0-24.0-1.0-0.15","17750","List2A","white","woman","","","","","","","","survey_race","62","","","I consider myself an extrovert.","filler"
"3585.4000000953674","","","html-slider-response","452","1189862","0.0-24.0-1.0-0.16","17750","List2A","white","woman","","","","","","","","survey_race","47","","","I often think about the fact that I am my race.","often"
"2221.399999856949","","","html-slider-response","453","1192087","0.0-24.0-1.0-0.17","17750","List2A","white","woman","","","","","","","","survey_race","56","","","People of my race are very similar to each other.","verysimilar"
"2200.199999809265","","","html-slider-response","454","1194289","0.0-24.0-1.0-0.18","17750","List2A","white","woman","","","","","","","","survey_race","57","","","I often think about the fact that I am my age.","filler"
"2052.199999809265","","","html-slider-response","455","1196344","0.0-24.0-1.0-0.19","17750","List2A","white","woman","","","","","","","","survey_race","60","","","I am glad to be my age.","filler"
"2567.600000143051","","","html-slider-response","456","1198914","0.0-24.0-1.0-0.20","17750","List2A","white","woman","","","","","","","","survey_race","65","","","I have a lot in common with the average person of my race.","average"
"4031.899999856949","","","html-slider-response","457","1202948","0.0-24.0-1.0-0.21","17750","List2A","white","woman","","","","","","","","survey_race","52","","","I feel committed to my race.","committed"
"3119.2999999523163","","","html-slider-response","458","1206071","0.0-24.0-1.0-0.22","17750","List2A","white","woman","","","","","","","","survey_race","63","","","People of my race have a lot in common with each other.","common"
"1697.9000000953674","","","html-slider-response","459","1207772","0.0-24.0-1.0-0.23","17750","List2A","white","woman","","","","","","","","survey_race","57","","","It is pleasant to be my race.","pleasant"
"2447","","","html-slider-response","460","1210221","0.0-24.0-1.0-0.24","17750","List2A","white","woman","","","","","","","","survey_race","60","","","I have a lot in common with people of a similar age to me.","filler"
"2313.7999999523163","","","html-slider-response","461","1212538","0.0-24.0-1.0-0.25","17750","List2A","white","woman","","","","","","","","survey_race","58","","","I am glad to be my race.","glad"
"1708.6000001430511","","","html-slider-response","462","1214249","0.0-24.0-1.0-0.26","17750","List2A","white","woman","","","","","","","","survey_race","62","","","I am glad to be the age I am.","filler"
"3387.399999856949","","","html-slider-response","463","1217639","0.0-24.0-1.0-0.27","17750","List2A","white","woman","","","","","","","","survey_race","48","","","My age is not an important part of who I am.","filler"
"8541.400000095367","","","survey-text","464","1226185","0.0-25.0","17750","List2A","white","woman","","","","","{""Q0"":""6108bc286d1afb1b78f43fa2""}","","","worker_id","","","","",""
"6447.100000143051","","","external-html","465","1233099","0.0-26.0","17750","List2A","white","woman","debrief.html","","","","","","","","","","","",""
