"rt","stimulus","button_pressed","trial_type","trial_index","time_elapsed","internal_node_id","subject","list","ppt_race","ppt_gender","url","first_guess","correct","key_press","responses","image_type","phrase_type","test_part","response","stimulus1","stimulus2","question_type","survey_item"
"3269.900000002235","Welcome to the experiment. Press Continue to begin.","0","html-button-response","0","3276","0.0-0.0","18573","List1A","black","man","","","","","","","","","","","","",""
"39000.89999999851","","","external-html","1","43427","0.0-1.0","18573","List1A","black","man","consent.html","","","","","","","","","","","",""
"21377.5","<p>On the next page, you will see portraits of 8 people and their names.</p><p>Your first task is to take a few minutes to memorise the names of these people.</p><p>You will have to recall their names during the rest of the experiment, so it is</p><p>essential that you try to memorise these people and their names as best as you can.</p><br><p><strong>You will then be tested on your memory of these names and portraits.</strong></p><br><p>The experiment will start after you have completed this memory test.</p><br><p>Ready?</p>","0","html-button-response","2","64807","0.0-2.0","18573","List1A","black","man","","","","","","","","","","","","",""
"45694.79999999702","<img src='img/portrait_matrix_list1.jpg' style='width:900px;height:500px;''></img><p>If you have memorised all the portraits and names and are ready to start, press Continue.</p><p><strong>Please note: Your memory of these faces will be tested 4 times during this experiment.</strong></p>","0","html-button-response","3","111515","0.0-3.0-0.0","18573","List1A","black","man","","","","","","","","","","","","",""
"6411.70000000298","<img src=""portrait/BW1.jpg""style=""height:400px;""></img>","0","html-button-response","4","118943","0.0-3.0-1.0","18573","List1A","black","man","","true","0","","","","","","","","","",""
"null","CORRECT","","html-keyboard-response","5","120462","0.0-3.0-2.0-0.0","18573","List1A","black","man","","","","null","","","","","","","","",""
"2741.60000000149","<img src=""portrait/WW2.jpg""style=""height:400px;""></img>","3","html-button-response","6","123206","0.0-3.0-4.0","18573","List1A","black","man","","true","3","","","","","","","","","",""
"null","CORRECT","","html-keyboard-response","7","124713","0.0-3.0-5.0-0.0","18573","List1A","black","man","","","","null","","","","","","","","",""
"5952.900000002235","<img src=""portrait/BW2.jpg""style=""height:400px;""></img>","2","html-button-response","8","130669","0.0-3.0-7.0","18573","List1A","black","man","","true","2","","","","","","","","","",""
"null","CORRECT","","html-keyboard-response","9","132194","0.0-3.0-8.0-0.0","18573","List1A","black","man","","","","null","","","","","","","","",""
"2882.89999999851","<img src=""portrait/WM1.jpg""style=""height:400px;""></img>","6","html-button-response","10","135080","0.0-3.0-10.0","18573","List1A","black","man","","true","6","","","","","","","","","",""
"null","CORRECT","","html-keyboard-response","11","136594","0.0-3.0-11.0-0.0","18573","List1A","black","man","","","","null","","","","","","","","",""
"3012.800000000745","<img src=""portrait/BM1.jpg""style=""height:400px;""></img>","4","html-button-response","12","139609","0.0-3.0-13.0","18573","List1A","black","man","","true","4","","","","","","","","","",""
"null","CORRECT","","html-keyboard-response","13","141135","0.0-3.0-14.0-0.0","18573","List1A","black","man","","","","null","","","","","","","","",""
"5633.400000002235","<img src=""portrait/BM2.jpg""style=""height:400px;""></img>","5","html-button-response","14","146771","0.0-3.0-16.0","18573","List1A","black","man","","true","5","","","","","","","","","",""
"null","CORRECT","","html-keyboard-response","15","148295","0.0-3.0-17.0-0.0","18573","List1A","black","man","","","","null","","","","","","","","",""
"4566.800000000745","<img src=""portrait/WM2.jpg""style=""height:400px;""></img>","7","html-button-response","16","152864","0.0-3.0-19.0","18573","List1A","black","man","","true","7","","","","","","","","","",""
"null","CORRECT","","html-keyboard-response","17","154375","0.0-3.0-20.0-0.0","18573","List1A","black","man","","","","null","","","","","","","","",""
"2648.89999999851","<img src=""portrait/WW1.jpg""style=""height:400px;""></img>","1","html-button-response","18","157027","0.0-3.0-22.0","18573","List1A","black","man","","true","1","","","","","","","","","",""
"null","CORRECT","","html-keyboard-response","19","158553","0.0-3.0-23.0-0.0","18573","List1A","black","man","","","","null","","","","","","","","",""
"10410.60000000149","<p>You got 8 out of 8 right first time. Press Continue.</p>","0","html-button-response","20","168966","0.0-3.0-25.0","18573","List1A","black","man","","","","","","","","","","","","",""
"28642.900000002235","<p>In this experiment, you will view photographs of the people from the memory game interacting.</p><p>By using the <strong>exact</strong> phrase given <i>after</i> the photograph appears and recalling the correct names of the people in the photographs, form a sentence describing the interaction. You do not need to capitalise names.</p><p>Type your answer in the space provided. Please complete every sentence before moving onto the next trial.</p><p>You will only have a few seconds to memorise each given photograph and phrase before you can respond, so try your best to focus.</p><p>An example is given below. Press 'Continue' when you are ready.</p><img src='img/speaking_example.jpg' style='width:800px;height:460px;''></img>","0","html-button-response","21","198624","0.0-4.0","18573","List1A","black","man","","","","","","","","","","","","",""
"2330.300000000745","<p>Before the experiment starts, you will watch two example trials. Press 'Continue'.</p>","0","html-button-response","22","201968","0.0-5.0","18573","List1A","black","man","","","","","","","","","","","","",""
"null","<img src='img/play_eg.gif' style='height:400px;''></img>","","html-keyboard-response","23","204996","0.0-6.0","18573","List1A","black","man","","","","null","","","","","","","","",""
"null","<p>is playing with</p>","","html-keyboard-response","24","206997","0.0-7.0","18573","List1A","black","man","","","","null","","","","","","","","",""
"2414.699999999255","<p><b>Answer:</b> kate is playing with beth</p>","0","html-button-response","25","209413","0.0-8.0","18573","List1A","black","man","","","","","","","","","","","","",""
"null","<img src='img/dance_eg.gif' style='height:400px;''></img>","","html-keyboard-response","26","212439","0.0-9.0","18573","List1A","black","man","","","","null","","","","","","","","",""
"null","<p>is being entertained by</p>","","html-keyboard-response","27","214445","0.0-10.0","18573","List1A","black","man","","","","null","","","","","","","","",""
"2293.199999999255","<p><b>Answer:</b> luke is being entertained by dave</p>","0","html-button-response","28","216740","0.0-11.0","18573","List1A","black","man","","","","","","","","","","","","",""
"10992.400000002235","<p>Ready to start the experiment?</p><br><p><strong>Remember to describe the picture using a full sentence,</strong></p><p><strong>that combines the names of the people with the <i>exact</i> phrase given.</strong></p><p><strong>To receive full payment you must do this correctly.</strong></p><p><strong> You do not need to capitalise names or use punctuation.</strong></p><br><p>Press 'Continue' to begin.</p>","0","html-button-response","29","228746","0.0-12.0","18573","List1A","black","man","","","","","","","","","","","","",""
"null","<div style=""font-size:60px;"">+</div>","","html-keyboard-response","30","230274","0.0-13.0-0.0","18573","List1A","black","man","","","","null","","","","","","","","",""
"null","<img src=""stim_listA/touch8.gif""style=""height:400px;""></stim_listA>","","html-keyboard-response","31","232290","0.0-13.0-1.0","18573","List1A","black","man","","","","null","","","","","","","","",""
"null","is being touched by","","html-keyboard-response","32","234306","0.0-13.0-2.0","18573","List1A","black","man","","","","null","","","","","","","","",""
"11939.800000000745","","","survey-text","33","246252","0.0-13.0-3.0","18573","List1A","black","man","","","","","{""Q0"":""beth is touching jane""}","<img src=""stim_listA/touch8.gif""style=""height:400px;""></stim_listA>","is being touched by","","","","","",""
"null","<div style=""font-size:60px;"">+</div>","","html-keyboard-response","34","246762","0.0-13.0-0.1","18573","List1A","black","man","","","","null","","","","","","","","",""
"null","<img src=""stim_listA/touch6.gif""style=""height:400px;""></stim_listA>","","html-keyboard-response","35","248776","0.0-13.0-1.1","18573","List1A","black","man","","","","null","","","","","","","","",""
"null","is being touched by","","html-keyboard-response","36","250790","0.0-13.0-2.1","18573","List1A","black","man","","","","null","","","","","","","","",""
"10394.199999999255","","","survey-text","37","261189","0.0-13.0-3.1","18573","List1A","black","man","","","","","{""Q0"":""fred is being touched by luke""}","<img src=""stim_listA/touch6.gif""style=""height:400px;""></stim_listA>","is being touched by","","","","","",""
"null","<div style=""font-size:60px;"">+</div>","","html-keyboard-response","38","261699","0.0-13.0-0.2","18573","List1A","black","man","","","","null","","","","","","","","",""
"null","<img src=""stim_listA/look4.gif""style=""height:400px;""></stim_listA>","","html-keyboard-response","39","263711","0.0-13.0-1.2","18573","List1A","black","man","","","","null","","","","","","","","",""
"null","is being looked at by","","html-keyboard-response","40","265713","0.0-13.0-2.2","18573","List1A","black","man","","","","null","","","","","","","","",""
"10856.300000000745","","","survey-text","41","276574","0.0-13.0-3.2","18573","List1A","black","man","","","","","{""Q0"":""dave is being looked at by jane""}","<img src=""stim_listA/look4.gif""style=""height:400px;""></stim_listA>","is being looked at by","","","","","",""
"null","<div style=""font-size:60px;"">+</div>","","html-keyboard-response","42","277083","0.0-13.0-0.3","18573","List1A","black","man","","","","null","","","","","","","","",""
"null","<img src=""stim_listA/hug8.gif""style=""height:400px;""></stim_listA>","","html-keyboard-response","43","279099","0.0-13.0-1.3","18573","List1A","black","man","","","","null","","","","","","","","",""
"null","is being hugged by","","html-keyboard-response","44","281116","0.0-13.0-2.3","18573","List1A","black","man","","","","null","","","","","","","","",""
"10172.10000000149","","","survey-text","45","291294","0.0-13.0-3.3","18573","List1A","black","man","","","","","{""Q0"":""kate is being hugged by jane""}","<img src=""stim_listA/hug8.gif""style=""height:400px;""></stim_listA>","is being hugged by","","","","","",""
"null","<div style=""font-size:60px;"">+</div>","","html-keyboard-response","46","291804","0.0-13.0-0.4","18573","List1A","black","man","","","","null","","","","","","","","",""
"null","<img src=""stim_listA/oppose8.gif""style=""height:400px;""></stim_listA>","","html-keyboard-response","47","293819","0.0-13.0-1.4","18573","List1A","black","man","","","","null","","","","","","","","",""
"null","is being opposed by","","html-keyboard-response","48","295835","0.0-13.0-2.4","18573","List1A","black","man","","","","null","","","","","","","","",""
"9441.599999997765","","","survey-text","49","305281","0.0-13.0-3.4","18573","List1A","black","man","","","","","{""Q0"":""beth is being opposed by ruth""}","<img src=""stim_listA/oppose8.gif""style=""height:400px;""></stim_listA>","is being opposed by","","","","","",""
"null","<div style=""font-size:60px;"">+</div>","","html-keyboard-response","50","305793","0.0-13.0-0.5","18573","List1A","black","man","","","","null","","","","","","","","",""
"null","<img src=""stim_listA/greet6.gif""style=""height:400px;""></stim_listA>","","html-keyboard-response","51","307807","0.0-13.0-1.5","18573","List1A","black","man","","","","null","","","","","","","","",""
"null","is being greeted by","","html-keyboard-response","52","309809","0.0-13.0-2.5","18573","List1A","black","man","","","","null","","","","","","","","",""
"6726.5","","","survey-text","53","316540","0.0-13.0-3.5","18573","List1A","black","man","","","","","{""Q0"":""fred is being greeted by dave""}","<img src=""stim_listA/greet6.gif""style=""height:400px;""></stim_listA>","is being greeted by","","","","","",""
"null","<div style=""font-size:60px;"">+</div>","","html-keyboard-response","54","317049","0.0-13.0-0.6","18573","List1A","black","man","","","","null","","","","","","","","",""
"null","<img src=""stim_listA/copy8.gif""style=""height:400px;""></stim_listA>","","html-keyboard-response","55","319064","0.0-13.0-1.6","18573","List1A","black","man","","","","null","","","","","","","","",""
"null","is being copied by","","html-keyboard-response","56","321080","0.0-13.0-2.6","18573","List1A","black","man","","","","null","","","","","","","","",""
"5874.699999999255","","","survey-text","57","326960","0.0-13.0-3.6","18573","List1A","black","man","","","","","{""Q0"":""beth is being copied by jane""}","<img src=""stim_listA/copy8.gif""style=""height:400px;""></stim_listA>","is being copied by","","","","","",""
"null","<div style=""font-size:60px;"">+</div>","","html-keyboard-response","58","327475","0.0-13.0-0.7","18573","List1A","black","man","","","","null","","","","","","","","",""
"null","<img src=""stim_listA/touch3.gif""style=""height:400px;""></stim_listA>","","html-keyboard-response","59","329487","0.0-13.0-1.7","18573","List1A","black","man","","","","null","","","","","","","","",""
"null","is touching","","html-keyboard-response","60","331500","0.0-13.0-2.7","18573","List1A","black","man","","","","null","","","","","","","","",""
"5075","","","survey-text","61","336578","0.0-13.0-3.7","18573","List1A","black","man","","","","","{""Q0"":""jane is touching dave""}","<img src=""stim_listA/touch3.gif""style=""height:400px;""></stim_listA>","is touching","","","","","",""
"null","<div style=""font-size:60px;"">+</div>","","html-keyboard-response","62","337083","0.0-13.0-0.8","18573","List1A","black","man","","","","null","","","","","","","","",""
"null","<img src=""stim_listA/seduce8.gif""style=""height:400px;""></stim_listA>","","html-keyboard-response","63","339096","0.0-13.0-1.8","18573","List1A","black","man","","","","null","","","","","","","","",""
"null","is being seduced by","","html-keyboard-response","64","341104","0.0-13.0-2.8","18573","List1A","black","man","","","","null","","","","","","","","",""
"8170","","","survey-text","65","349279","0.0-13.0-3.8","18573","List1A","black","man","","","","","{""Q0"":""ruth is being seduced by beth""}","<img src=""stim_listA/seduce8.gif""style=""height:400px;""></stim_listA>","is being seduced by","","","","","",""
"null","<div style=""font-size:60px;"">+</div>","","html-keyboard-response","66","349786","0.0-13.0-0.9","18573","List1A","black","man","","","","null","","","","","","","","",""
"null","<img src=""stim_listA/greet7.gif""style=""height:400px;""></stim_listA>","","html-keyboard-response","67","351802","0.0-13.0-1.9","18573","List1A","black","man","","","","null","","","","","","","","",""
"null","is greeting","","html-keyboard-response","68","353821","0.0-13.0-2.9","18573","List1A","black","man","","","","null","","","","","","","","",""
"5643.800000000745","","","survey-text","69","359469","0.0-13.0-3.9","18573","List1A","black","man","","","","","{""Q0"":""ruth is greeting kate""}","<img src=""stim_listA/greet7.gif""style=""height:400px;""></stim_listA>","is greeting","","","","","",""
"null","<div style=""font-size:60px;"">+</div>","","html-keyboard-response","70","359977","0.0-13.0-0.10","18573","List1A","black","man","","","","null","","","","","","","","",""
"null","<img src=""stim_listA/shout1.gif""style=""height:400px;""></stim_listA>","","html-keyboard-response","71","361993","0.0-13.0-1.10","18573","List1A","black","man","","","","null","","","","","","","","",""
"null","is shouting at","","html-keyboard-response","72","363997","0.0-13.0-2.10","18573","List1A","black","man","","","","null","","","","","","","","",""
"6419.199999999255","","","survey-text","73","370421","0.0-13.0-3.10","18573","List1A","black","man","","","","","{""Q0"":""beth is shouting at fred""}","<img src=""stim_listA/shout1.gif""style=""height:400px;""></stim_listA>","is shouting at","","","","","",""
"null","<div style=""font-size:60px;"">+</div>","","html-keyboard-response","74","370933","0.0-13.0-0.11","18573","List1A","black","man","","","","null","","","","","","","","",""
"null","<img src=""stim_listA/look7.gif""style=""height:400px;""></stim_listA>","","html-keyboard-response","75","372951","0.0-13.0-1.11","18573","List1A","black","man","","","","null","","","","","","","","",""
"null","is looking at","","html-keyboard-response","76","374967","0.0-13.0-2.11","18573","List1A","black","man","","","","null","","","","","","","","",""
"7446.39999999851","","","survey-text","77","382418","0.0-13.0-3.11","18573","List1A","black","man","","","","","{""Q0"":""beth is looking at ruth""}","<img src=""stim_listA/look7.gif""style=""height:400px;""></stim_listA>","is looking at","","","","","",""
"null","<div style=""font-size:60px;"">+</div>","","html-keyboard-response","78","382925","0.0-13.0-0.12","18573","List1A","black","man","","","","null","","","","","","","","",""
"null","<img src=""stim_listA/shout7.gif""style=""height:400px;""></stim_listA>","","html-keyboard-response","79","384939","0.0-13.0-1.12","18573","List1A","black","man","","","","null","","","","","","","","",""
"null","is shouting at","","html-keyboard-response","80","386942","0.0-13.0-2.12","18573","List1A","black","man","","","","null","","","","","","","","",""
"5770.89999999851","","","survey-text","81","392718","0.0-13.0-3.12","18573","List1A","black","man","","","","","{""Q0"":""beth is shouting at ruth""}","<img src=""stim_listA/shout7.gif""style=""height:400px;""></stim_listA>","is shouting at","","","","","",""
"null","<div style=""font-size:60px;"">+</div>","","html-keyboard-response","82","393232","0.0-13.0-0.13","18573","List1A","black","man","","","","null","","","","","","","","",""
"null","<img src=""stim_listA/shout8.gif""style=""height:400px;""></stim_listA>","","html-keyboard-response","83","395249","0.0-13.0-1.13","18573","List1A","black","man","","","","null","","","","","","","","",""
"null","is being shouted at by","","html-keyboard-response","84","397263","0.0-13.0-2.13","18573","List1A","black","man","","","","null","","","","","","","","",""
"7660","","","survey-text","85","404928","0.0-13.0-3.13","18573","List1A","black","man","","","","","{""Q0"":""jane is being shouted at by kate""}","<img src=""stim_listA/shout8.gif""style=""height:400px;""></stim_listA>","is being shouted at by","","","","","",""
"null","<div style=""font-size:60px;"">+</div>","","html-keyboard-response","86","405438","0.0-13.0-0.14","18573","List1A","black","man","","","","null","","","","","","","","",""
"null","<img src=""stim_listA/challenge2.gif""style=""height:400px;""></stim_listA>","","html-keyboard-response","87","407454","0.0-13.0-1.14","18573","List1A","black","man","","","","null","","","","","","","","",""
"null","is being challenged by","","html-keyboard-response","88","409462","0.0-13.0-2.14","18573","List1A","black","man","","","","null","","","","","","","","",""
"9554.89999999851","","","survey-text","89","419022","0.0-13.0-3.14","18573","List1A","black","man","","","","","{""Q0"":""fred is being challenged by kate""}","<img src=""stim_listA/challenge2.gif""style=""height:400px;""></stim_listA>","is being challenged by","","","","","",""
"null","<div style=""font-size:60px;"">+</div>","","html-keyboard-response","90","419527","0.0-13.0-0.15","18573","List1A","black","man","","","","null","","","","","","","","",""
"null","<img src=""stim_listA/oppose6.gif""style=""height:400px;""></stim_listA>","","html-keyboard-response","91","421541","0.0-13.0-1.15","18573","List1A","black","man","","","","null","","","","","","","","",""
"null","is being opposed by","","html-keyboard-response","92","423543","0.0-13.0-2.15","18573","List1A","black","man","","","","null","","","","","","","","",""
"8078.5","","","survey-text","93","431626","0.0-13.0-3.15","18573","List1A","black","man","","","","","{""Q0"":""fred is being opposed by luke""}","<img src=""stim_listA/oppose6.gif""style=""height:400px;""></stim_listA>","is being opposed by","","","","","",""
"null","<div style=""font-size:60px;"">+</div>","","html-keyboard-response","94","432140","0.0-13.0-0.16","18573","List1A","black","man","","","","null","","","","","","","","",""
"null","<img src=""stim_listA/shout6.gif""style=""height:400px;""></stim_listA>","","html-keyboard-response","95","434146","0.0-13.0-1.16","18573","List1A","black","man","","","","null","","","","","","","","",""
"null","is being shouted at by","","html-keyboard-response","96","436160","0.0-13.0-2.16","18573","List1A","black","man","","","","null","","","","","","","","",""
"9227.5","","","survey-text","97","445392","0.0-13.0-3.16","18573","List1A","black","man","","","","","{""Q0"":""dave is being shouted at by mike""}","<img src=""stim_listA/shout6.gif""style=""height:400px;""></stim_listA>","is being shouted at by","","","","","",""
"null","<div style=""font-size:60px;"">+</div>","","html-keyboard-response","98","445902","0.0-13.0-0.17","18573","List1A","black","man","","","","null","","","","","","","","",""
"null","<img src=""stim_listA/hug1.gif""style=""height:400px;""></stim_listA>","","html-keyboard-response","99","447918","0.0-13.0-1.17","18573","List1A","black","man","","","","null","","","","","","","","",""
"null","is hugging","","html-keyboard-response","100","449925","0.0-13.0-2.17","18573","List1A","black","man","","","","null","","","","","","","","",""
"4206.400000002235","","","survey-text","101","454136","0.0-13.0-3.17","18573","List1A","black","man","","","","","{""Q0"":""fred is hugging beth""}","<img src=""stim_listA/hug1.gif""style=""height:400px;""></stim_listA>","is hugging","","","","","",""
"null","<div style=""font-size:60px;"">+</div>","","html-keyboard-response","102","454644","0.0-13.0-0.18","18573","List1A","black","man","","","","null","","","","","","","","",""
"null","<img src=""stim_listA/greet4.gif""style=""height:400px;""></stim_listA>","","html-keyboard-response","103","456662","0.0-13.0-1.18","18573","List1A","black","man","","","","null","","","","","","","","",""
"null","is being greeted by","","html-keyboard-response","104","458674","0.0-13.0-2.18","18573","List1A","black","man","","","","null","","","","","","","","",""
"7627.699999999255","","","survey-text","105","466306","0.0-13.0-3.18","18573","List1A","black","man","","","","","{""Q0"":""luke is being greeted by jane""}","<img src=""stim_listA/greet4.gif""style=""height:400px;""></stim_listA>","is being greeted by","","","","","",""
"null","<div style=""font-size:60px;"">+</div>","","html-keyboard-response","106","466818","0.0-13.0-0.19","18573","List1A","black","man","","","","null","","","","","","","","",""
"null","<img src=""stim_listA/look6.gif""style=""height:400px;""></stim_listA>","","html-keyboard-response","107","468831","0.0-13.0-1.19","18573","List1A","black","man","","","","null","","","","","","","","",""
"null","is being looked at by","","html-keyboard-response","108","470834","0.0-13.0-2.19","18573","List1A","black","man","","","","null","","","","","","","","",""
"6598.89999999851","","","survey-text","109","477438","0.0-13.0-3.19","18573","List1A","black","man","","","","","{""Q0"":""dave is being looked at by mike""}","<img src=""stim_listA/look6.gif""style=""height:400px;""></stim_listA>","is being looked at by","","","","","",""
"4288","<img src='img/portrait_matrix_list1.jpg' style='width:900px;height:500px;''></img><p>If you have memorised all the portraits and names and are ready to start, press Continue.</p><p><strong>Please note: Your memory of these faces will be tested 4 times during this experiment.</strong></p>","0","html-button-response","110","481728","0.0-14.0-0.0","18573","List1A","black","man","","","","","","","","","","","","",""
"1632.699999999255","<img src=""portrait/WW2.jpg""style=""height:400px;""></img>","3","html-button-response","111","484373","0.0-14.0-1.0","18573","List1A","black","man","","true","3","","","","","","","","","",""
"null","CORRECT","","html-keyboard-response","112","485887","0.0-14.0-2.0-0.0","18573","List1A","black","man","","","","null","","","","","","","","",""
"2495.699999999255","<img src=""portrait/BW1.jpg""style=""height:400px;""></img>","0","html-button-response","113","488385","0.0-14.0-4.0","18573","List1A","black","man","","true","0","","","","","","","","","",""
"null","CORRECT","","html-keyboard-response","114","489900","0.0-14.0-5.0-0.0","18573","List1A","black","man","","","","null","","","","","","","","",""
"1493.800000000745","<img src=""portrait/BW2.jpg""style=""height:400px;""></img>","2","html-button-response","115","491396","0.0-14.0-7.0","18573","List1A","black","man","","true","2","","","","","","","","","",""
"null","CORRECT","","html-keyboard-response","116","492928","0.0-14.0-8.0-0.0","18573","List1A","black","man","","","","null","","","","","","","","",""
"4483.89999999851","<img src=""portrait/BM2.jpg""style=""height:400px;""></img>","5","html-button-response","117","497414","0.0-14.0-10.0","18573","List1A","black","man","","true","5","","","","","","","","","",""
"null","CORRECT","","html-keyboard-response","118","498939","0.0-14.0-11.0-0.0","18573","List1A","black","man","","","","null","","","","","","","","",""
"2585","<img src=""portrait/WW1.jpg""style=""height:400px;""></img>","1","html-button-response","119","501525","0.0-14.0-13.0","18573","List1A","black","man","","true","1","","","","","","","","","",""
"null","CORRECT","","html-keyboard-response","120","503053","0.0-14.0-14.0-0.0","18573","List1A","black","man","","","","null","","","","","","","","",""
"2484.199999999255","<img src=""portrait/WM2.jpg""style=""height:400px;""></img>","7","html-button-response","121","505539","0.0-14.0-16.0","18573","List1A","black","man","","true","7","","","","","","","","","",""
"null","CORRECT","","html-keyboard-response","122","507051","0.0-14.0-17.0-0.0","18573","List1A","black","man","","","","null","","","","","","","","",""
"1382.6000000014901","<img src=""portrait/WM1.jpg""style=""height:400px;""></img>","6","html-button-response","123","508436","0.0-14.0-19.0","18573","List1A","black","man","","true","6","","","","","","","","","",""
"null","CORRECT","","html-keyboard-response","124","509963","0.0-14.0-20.0-0.0","18573","List1A","black","man","","","","null","","","","","","","","",""
"2035.5","<img src=""portrait/BM1.jpg""style=""height:400px;""></img>","4","html-button-response","125","512001","0.0-14.0-22.0","18573","List1A","black","man","","true","4","","","","","","","","","",""
"null","CORRECT","","html-keyboard-response","126","513527","0.0-14.0-23.0-0.0","18573","List1A","black","man","","","","null","","","","","","","","",""
"1283.7999999970198","<p>You got 8 out of 8 right first time. Press Continue.</p>","0","html-button-response","127","514813","0.0-14.0-25.0","18573","List1A","black","man","","","","","","","","","","","","",""
"null","<div style=""font-size:60px;"">+</div>","","html-keyboard-response","128","516340","0.0-15.0-0.0","18573","List1A","black","man","","","","null","","","","","","","","",""
"null","<img src=""stim_listA/greet1.gif""style=""height:400px;""></stim_listA>","","html-keyboard-response","129","518356","0.0-15.0-1.0","18573","List1A","black","man","","","","null","","","","","","","","",""
"null","is greeting","","html-keyboard-response","130","520359","0.0-15.0-2.0","18573","List1A","black","man","","","","null","","","","","","","","",""
"4806.199999999255","","","survey-text","131","525170","0.0-15.0-3.0","18573","List1A","black","man","","","","","{""Q0"":""mike is greeting beth""}","<img src=""stim_listA/greet1.gif""style=""height:400px;""></stim_listA>","is greeting","","","","","",""
"null","<div style=""font-size:60px;"">+</div>","","html-keyboard-response","132","525683","0.0-15.0-0.1","18573","List1A","black","man","","","","null","","","","","","","","",""
"null","<img src=""stim_listA/look1.gif""style=""height:400px;""></stim_listA>","","html-keyboard-response","133","527700","0.0-15.0-1.1","18573","List1A","black","man","","","","null","","","","","","","","",""
"null","is looking at","","html-keyboard-response","134","529708","0.0-15.0-2.1","18573","List1A","black","man","","","","null","","","","","","","","",""
"5834.099999997765","","","survey-text","135","535547","0.0-15.0-3.1","18573","List1A","black","man","","","","","{""Q0"":""beth is looking at fred""}","<img src=""stim_listA/look1.gif""style=""height:400px;""></stim_listA>","is looking at","","","","","",""
"null","<div style=""font-size:60px;"">+</div>","","html-keyboard-response","136","536055","0.0-15.0-0.2","18573","List1A","black","man","","","","null","","","","","","","","",""
"null","<img src=""stim_listA/kiss1.gif""style=""height:400px;""></stim_listA>","","html-keyboard-response","137","538059","0.0-15.0-1.2","18573","List1A","black","man","","","","null","","","","","","","","",""
"null","is kissing","","html-keyboard-response","138","540073","0.0-15.0-2.2","18573","List1A","black","man","","","","null","","","","","","","","",""
"4308.599999997765","","","survey-text","139","544386","0.0-15.0-3.2","18573","List1A","black","man","","","","","{""Q0"":""beth is kissing fred""}","<img src=""stim_listA/kiss1.gif""style=""height:400px;""></stim_listA>","is kissing","","","","","",""
"null","<div style=""font-size:60px;"">+</div>","","html-keyboard-response","140","544900","0.0-15.0-0.3","18573","List1A","black","man","","","","null","","","","","","","","",""
"null","<img src=""stim_listA/kiss3.gif""style=""height:400px;""></stim_listA>","","html-keyboard-response","141","546916","0.0-15.0-1.3","18573","List1A","black","man","","","","null","","","","","","","","",""
"null","is kissing","","html-keyboard-response","142","548931","0.0-15.0-2.3","18573","List1A","black","man","","","","null","","","","","","","","",""
"5896.60000000149","","","survey-text","143","554832","0.0-15.0-3.3","18573","List1A","black","man","","","","","{""Q0"":""ruth is kissing luke""}","<img src=""stim_listA/kiss3.gif""style=""height:400px;""></stim_listA>","is kissing","","","","","",""
"null","<div style=""font-size:60px;"">+</div>","","html-keyboard-response","144","555339","0.0-15.0-0.4","18573","List1A","black","man","","","","null","","","","","","","","",""
"null","<img src=""stim_listA/challenge4.gif""style=""height:400px;""></stim_listA>","","html-keyboard-response","145","557356","0.0-15.0-1.4","18573","List1A","black","man","","","","null","","","","","","","","",""
"null","is being challenged by","","html-keyboard-response","146","559371","0.0-15.0-2.4","18573","List1A","black","man","","","","null","","","","","","","","",""
"7022.199999999255","","","survey-text","147","566398","0.0-15.0-3.4","18573","List1A","black","man","","","","","{""Q0"":""luke is being challenged by jane""}","<img src=""stim_listA/challenge4.gif""style=""height:400px;""></stim_listA>","is being challenged by","","","","","",""
"null","<div style=""font-size:60px;"">+</div>","","html-keyboard-response","148","566914","0.0-15.0-0.5","18573","List1A","black","man","","","","null","","","","","","","","",""
"null","<img src=""stim_listA/kiss6.gif""style=""height:400px;""></stim_listA>","","html-keyboard-response","149","568927","0.0-15.0-1.5","18573","List1A","black","man","","","","null","","","","","","","","",""
"null","is being kissed by","","html-keyboard-response","150","570930","0.0-15.0-2.5","18573","List1A","black","man","","","","null","","","","","","","","",""
"6027.300000000745","","","survey-text","151","576961","0.0-15.0-3.5","18573","List1A","black","man","","","","","{""Q0"":""dave is being kissed by mike""}","<img src=""stim_listA/kiss6.gif""style=""height:400px;""></stim_listA>","is being kissed by","","","","","",""
"null","<div style=""font-size:60px;"">+</div>","","html-keyboard-response","152","577470","0.0-15.0-0.6","18573","List1A","black","man","","","","null","","","","","","","","",""
"null","<img src=""stim_listA/shout4.gif""style=""height:400px;""></stim_listA>","","html-keyboard-response","153","579481","0.0-15.0-1.6","18573","List1A","black","man","","","","null","","","","","","","","",""
"null","is being shouted at by","","html-keyboard-response","154","581488","0.0-15.0-2.6","18573","List1A","black","man","","","","null","","","","","","","","",""
"7671.199999999255","","","survey-text","155","589163","0.0-15.0-3.6","18573","List1A","black","man","","","","","{""Q0"":""dave is being shouted at by jane""}","<img src=""stim_listA/shout4.gif""style=""height:400px;""></stim_listA>","is being shouted at by","","","","","",""
"null","<div style=""font-size:60px;"">+</div>","","html-keyboard-response","156","589678","0.0-15.0-0.7","18573","List1A","black","man","","","","null","","","","","","","","",""
"null","<img src=""stim_listA/oppose5.gif""style=""height:400px;""></stim_listA>","","html-keyboard-response","157","591694","0.0-15.0-1.7","18573","List1A","black","man","","","","null","","","","","","","","",""
"null","is opposing","","html-keyboard-response","158","593708","0.0-15.0-2.7","18573","List1A","black","man","","","","null","","","","","","","","",""
"5759.10000000149","","","survey-text","159","599471","0.0-15.0-3.7","18573","List1A","black","man","","","","","{""Q0"":""mike is opposing dave""}","<img src=""stim_listA/oppose5.gif""style=""height:400px;""></stim_listA>","is opposing","","","","","",""
"null","<div style=""font-size:60px;"">+</div>","","html-keyboard-response","160","599985","0.0-15.0-0.8","18573","List1A","black","man","","","","null","","","","","","","","",""
"null","<img src=""stim_listA/seduce7.gif""style=""height:400px;""></stim_listA>","","html-keyboard-response","161","602000","0.0-15.0-1.8","18573","List1A","black","man","","","","null","","","","","","","","",""
"null","is seducing","","html-keyboard-response","162","604016","0.0-15.0-2.8","18573","List1A","black","man","","","","null","","","","","","","","",""
"5961.199999999255","","","survey-text","163","609981","0.0-15.0-3.8","18573","List1A","black","man","","","","","{""Q0"":""beth is seducing jane""}","<img src=""stim_listA/seduce7.gif""style=""height:400px;""></stim_listA>","is seducing","","","","","",""
"null","<div style=""font-size:60px;"">+</div>","","html-keyboard-response","164","610490","0.0-15.0-0.9","18573","List1A","black","man","","","","null","","","","","","","","",""
"null","<img src=""stim_listA/copy7.gif""style=""height:400px;""></stim_listA>","","html-keyboard-response","165","612505","0.0-15.0-1.9","18573","List1A","black","man","","","","null","","","","","","","","",""
"null","is copying","","html-keyboard-response","166","614507","0.0-15.0-2.9","18573","List1A","black","man","","","","null","","","","","","","","",""
"5095.300000000745","","","survey-text","167","619607","0.0-15.0-3.9","18573","List1A","black","man","","","","","{""Q0"":""kate is copying ruth""}","<img src=""stim_listA/copy7.gif""style=""height:400px;""></stim_listA>","is copying","","","","","",""
"null","<div style=""font-size:60px;"">+</div>","","html-keyboard-response","168","620117","0.0-15.0-0.10","18573","List1A","black","man","","","","null","","","","","","","","",""
"null","<img src=""stim_listA/copy6.gif""style=""height:400px;""></stim_listA>","","html-keyboard-response","169","622131","0.0-15.0-1.10","18573","List1A","black","man","","","","null","","","","","","","","",""
"null","is being copied by","","html-keyboard-response","170","624134","0.0-15.0-2.10","18573","List1A","black","man","","","","null","","","","","","","","",""
"8484.300000000745","","","survey-text","171","632623","0.0-15.0-3.10","18573","List1A","black","man","","","","","{""Q0"":""dave is being copied by fred""}","<img src=""stim_listA/copy6.gif""style=""height:400px;""></stim_listA>","is being copied by","","","","","",""
"null","<div style=""font-size:60px;"">+</div>","","html-keyboard-response","172","633137","0.0-15.0-0.11","18573","List1A","black","man","","","","null","","","","","","","","",""
"null","<img src=""stim_listA/greet2.gif""style=""height:400px;""></stim_listA>","","html-keyboard-response","173","635153","0.0-15.0-1.11","18573","List1A","black","man","","","","null","","","","","","","","",""
"null","is being greeted by","","html-keyboard-response","174","637155","0.0-15.0-2.11","18573","List1A","black","man","","","","null","","","","","","","","",""
"7718.300000000745","","","survey-text","175","644878","0.0-15.0-3.11","18573","List1A","black","man","","","","","{""Q0"":""fred is being greeted by kate""}","<img src=""stim_listA/greet2.gif""style=""height:400px;""></stim_listA>","is being greeted by","","","","","",""
"null","<div style=""font-size:60px;"">+</div>","","html-keyboard-response","176","645394","0.0-15.0-0.12","18573","List1A","black","man","","","","null","","","","","","","","",""
"null","<img src=""stim_listA/shout2.gif""style=""height:400px;""></stim_listA>","","html-keyboard-response","177","647409","0.0-15.0-1.12","18573","List1A","black","man","","","","null","","","","","","","","",""
"null","is being shouted at by","","html-keyboard-response","178","649410","0.0-15.0-2.12","18573","List1A","black","man","","","","null","","","","","","","","",""
"9257","","","survey-text","179","658672","0.0-15.0-3.12","18573","List1A","black","man","","","","","{""Q0"":""kate is being shouted at by mike""}","<img src=""stim_listA/shout2.gif""style=""height:400px;""></stim_listA>","is being shouted at by","","","","","",""
"null","<div style=""font-size:60px;"">+</div>","","html-keyboard-response","180","659181","0.0-15.0-0.13","18573","List1A","black","man","","","","null","","","","","","","","",""
"null","<img src=""stim_listA/copy3.gif""style=""height:400px;""></stim_listA>","","html-keyboard-response","181","661198","0.0-15.0-1.13","18573","List1A","black","man","","","","null","","","","","","","","",""
"null","is copying","","html-keyboard-response","182","663203","0.0-15.0-2.13","18573","List1A","black","man","","","","null","","","","","","","","",""
"4733.699999999255","","","survey-text","183","667939","0.0-15.0-3.13","18573","List1A","black","man","","","","","{""Q0"":""ruth is copying dave""}","<img src=""stim_listA/copy3.gif""style=""height:400px;""></stim_listA>","is copying","","","","","",""
"null","<div style=""font-size:60px;"">+</div>","","html-keyboard-response","184","668442","0.0-15.0-0.14","18573","List1A","black","man","","","","null","","","","","","","","",""
"null","<img src=""stim_listA/touch2.gif""style=""height:400px;""></stim_listA>","","html-keyboard-response","185","670448","0.0-15.0-1.14","18573","List1A","black","man","","","","null","","","","","","","","",""
"null","is being touched by","","html-keyboard-response","186","672463","0.0-15.0-2.14","18573","List1A","black","man","","","","null","","","","","","","","",""
"9783.300000000745","","","survey-text","187","682251","0.0-15.0-3.14","18573","List1A","black","man","","","","","{""Q0"":""beth is being touched by fred""}","<img src=""stim_listA/touch2.gif""style=""height:400px;""></stim_listA>","is being touched by","","","","","",""
"null","<div style=""font-size:60px;"">+</div>","","html-keyboard-response","188","682762","0.0-15.0-0.15","18573","List1A","black","man","","","","null","","","","","","","","",""
"null","<img src=""stim_listA/challenge1.gif""style=""height:400px;""></stim_listA>","","html-keyboard-response","189","684776","0.0-15.0-1.15","18573","List1A","black","man","","","","null","","","","","","","","",""
"null","is challenging","","html-keyboard-response","190","686778","0.0-15.0-2.15","18573","List1A","black","man","","","","null","","","","","","","","",""
"6443.199999999255","","","survey-text","191","693226","0.0-15.0-3.15","18573","List1A","black","man","","","","","{""Q0"":""beth is challenging mike""}","<img src=""stim_listA/challenge1.gif""style=""height:400px;""></stim_listA>","is challenging","","","","","",""
"null","<div style=""font-size:60px;"">+</div>","","html-keyboard-response","192","693735","0.0-15.0-0.16","18573","List1A","black","man","","","","null","","","","","","","","",""
"null","<img src=""stim_listA/greet3.gif""style=""height:400px;""></stim_listA>","","html-keyboard-response","193","695751","0.0-15.0-1.16","18573","List1A","black","man","","","","null","","","","","","","","",""
"null","is greeting","","html-keyboard-response","194","697767","0.0-15.0-2.16","18573","List1A","black","man","","","","null","","","","","","","","",""
"4111.60000000149","","","survey-text","195","701883","0.0-15.0-3.16","18573","List1A","black","man","","","","","{""Q0"":""dave is greeting ruth""}","<img src=""stim_listA/greet3.gif""style=""height:400px;""></stim_listA>","is greeting","","","","","",""
"null","<div style=""font-size:60px;"">+</div>","","html-keyboard-response","196","702393","0.0-15.0-0.17","18573","List1A","black","man","","","","null","","","","","","","","",""
"null","<img src=""stim_listA/copy2.gif""style=""height:400px;""></stim_listA>","","html-keyboard-response","197","704409","0.0-15.0-1.17","18573","List1A","black","man","","","","null","","","","","","","","",""
"null","is being copied by","","html-keyboard-response","198","706411","0.0-15.0-2.17","18573","List1A","black","man","","","","null","","","","","","","","",""
"7151.60000000149","","","survey-text","199","713568","0.0-15.0-3.17","18573","List1A","black","man","","","","","{""Q0"":""kate is being copied by fred""}","<img src=""stim_listA/copy2.gif""style=""height:400px;""></stim_listA>","is being copied by","","","","","",""
"null","<div style=""font-size:60px;"">+</div>","","html-keyboard-response","200","714072","0.0-15.0-0.18","18573","List1A","black","man","","","","null","","","","","","","","",""
"null","<img src=""stim_listA/greet5.gif""style=""height:400px;""></stim_listA>","","html-keyboard-response","201","716083","0.0-15.0-1.18","18573","List1A","black","man","","","","null","","","","","","","","",""
"null","is greeting","","html-keyboard-response","202","718098","0.0-15.0-2.18","18573","List1A","black","man","","","","null","","","","","","","","",""
"5786.199999999255","","","survey-text","203","723890","0.0-15.0-3.18","18573","List1A","black","man","","","","","{""Q0"":""luke is greeting mike""}","<img src=""stim_listA/greet5.gif""style=""height:400px;""></stim_listA>","is greeting","","","","","",""
"null","<div style=""font-size:60px;"">+</div>","","html-keyboard-response","204","724393","0.0-15.0-0.19","18573","List1A","black","man","","","","null","","","","","","","","",""
"null","<img src=""stim_listA/touch4.gif""style=""height:400px;""></stim_listA>","","html-keyboard-response","205","726409","0.0-15.0-1.19","18573","List1A","black","man","","","","null","","","","","","","","",""
"null","is being touched by","","html-keyboard-response","206","728414","0.0-15.0-2.19","18573","List1A","black","man","","","","null","","","","","","","","",""
"6000.20000000298","","","survey-text","207","734419","0.0-15.0-3.19","18573","List1A","black","man","","","","","{""Q0"":""luke is being touched by ruth""}","<img src=""stim_listA/touch4.gif""style=""height:400px;""></stim_listA>","is being touched by","","","","","",""
"2251.5","<img src='img/portrait_matrix_list1.jpg' style='width:900px;height:500px;''></img><p>If you have memorised all the portraits and names and are ready to start, press Continue.</p><p><strong>Please note: Your memory of these faces will be tested 4 times during this experiment.</strong></p>","0","html-button-response","208","736673","0.0-16.0-0.0","18573","List1A","black","man","","","","","","","","","","","","",""
"1703.1000000014901","<img src=""portrait/BW2.jpg""style=""height:400px;""></img>","2","html-button-response","209","739382","0.0-16.0-1.0","18573","List1A","black","man","","true","2","","","","","","","","","",""
"null","CORRECT","","html-keyboard-response","210","740910","0.0-16.0-2.0-0.0","18573","List1A","black","man","","","","null","","","","","","","","",""
"1934.6000000014901","<img src=""portrait/BW1.jpg""style=""height:400px;""></img>","0","html-button-response","211","742847","0.0-16.0-4.0","18573","List1A","black","man","","true","0","","","","","","","","","",""
"null","CORRECT","","html-keyboard-response","212","744374","0.0-16.0-5.0-0.0","18573","List1A","black","man","","","","null","","","","","","","","",""
"1302.300000000745","<img src=""portrait/WW1.jpg""style=""height:400px;""></img>","1","html-button-response","213","745678","0.0-16.0-7.0","18573","List1A","black","man","","true","1","","","","","","","","","",""
"null","CORRECT","","html-keyboard-response","214","747206","0.0-16.0-8.0-0.0","18573","List1A","black","man","","","","null","","","","","","","","",""
"1749.8999999985099","<img src=""portrait/BM1.jpg""style=""height:400px;""></img>","4","html-button-response","215","748959","0.0-16.0-10.0","18573","List1A","black","man","","true","4","","","","","","","","","",""
"null","CORRECT","","html-keyboard-response","216","750485","0.0-16.0-11.0-0.0","18573","List1A","black","man","","","","null","","","","","","","","",""
"1585.800000000745","<img src=""portrait/BM2.jpg""style=""height:400px;""></img>","5","html-button-response","217","752073","0.0-16.0-13.0","18573","List1A","black","man","","true","5","","","","","","","","","",""
"null","CORRECT","","html-keyboard-response","218","753592","0.0-16.0-14.0-0.0","18573","List1A","black","man","","","","null","","","","","","","","",""
"1592.4000000022352","<img src=""portrait/WM2.jpg""style=""height:400px;""></img>","7","html-button-response","219","755187","0.0-16.0-16.0","18573","List1A","black","man","","true","7","","","","","","","","","",""
"null","CORRECT","","html-keyboard-response","220","756713","0.0-16.0-17.0-0.0","18573","List1A","black","man","","","","null","","","","","","","","",""
"2051.699999999255","<img src=""portrait/WW2.jpg""style=""height:400px;""></img>","3","html-button-response","221","758767","0.0-16.0-19.0","18573","List1A","black","man","","true","3","","","","","","","","","",""
"null","CORRECT","","html-keyboard-response","222","760279","0.0-16.0-20.0-0.0","18573","List1A","black","man","","","","null","","","","","","","","",""
"1450.800000000745","<img src=""portrait/WM1.jpg""style=""height:400px;""></img>","6","html-button-response","223","761732","0.0-16.0-22.0","18573","List1A","black","man","","true","6","","","","","","","","","",""
"null","CORRECT","","html-keyboard-response","224","763258","0.0-16.0-23.0-0.0","18573","List1A","black","man","","","","null","","","","","","","","",""
"1632.7999999970198","<p>You got 8 out of 8 right first time. Press Continue.</p>","0","html-button-response","225","764893","0.0-16.0-25.0","18573","List1A","black","man","","","","","","","","","","","","",""
"null","<div style=""font-size:60px;"">+</div>","","html-keyboard-response","226","766421","0.0-17.0-0.0","18573","List1A","black","man","","","","null","","","","","","","","",""
"null","<img src=""stim_listA/copy4.gif""style=""height:400px;""></stim_listA>","","html-keyboard-response","227","768438","0.0-17.0-1.0","18573","List1A","black","man","","","","null","","","","","","","","",""
"null","is being copied by","","html-keyboard-response","228","770455","0.0-17.0-2.0","18573","List1A","black","man","","","","null","","","","","","","","",""
"10499.89999999851","","","survey-text","229","780961","0.0-17.0-3.0","18573","List1A","black","man","","","","","{""Q0"":""luke is being copied by jane""}","<img src=""stim_listA/copy4.gif""style=""height:400px;""></stim_listA>","is being copied by","","","","","",""
"null","<div style=""font-size:60px;"">+</div>","","html-keyboard-response","230","781478","0.0-17.0-0.1","18573","List1A","black","man","","","","null","","","","","","","","",""
"null","<img src=""stim_listA/greet8.gif""style=""height:400px;""></stim_listA>","","html-keyboard-response","231","783491","0.0-17.0-1.1","18573","List1A","black","man","","","","null","","","","","","","","",""
"null","is being greeted by","","html-keyboard-response","232","785492","0.0-17.0-2.1","18573","List1A","black","man","","","","null","","","","","","","","",""
"9478.39999999851","","","survey-text","233","794975","0.0-17.0-3.1","18573","List1A","black","man","","","","","{""Q0"":""jane is being greeted by beth""}","<img src=""stim_listA/greet8.gif""style=""height:400px;""></stim_listA>","is being greeted by","","","","","",""
"null","<div style=""font-size:60px;"">+</div>","","html-keyboard-response","234","795485","0.0-17.0-0.2","18573","List1A","black","man","","","","null","","","","","","","","",""
"null","<img src=""stim_listA/seduce5.gif""style=""height:400px;""></stim_listA>","","html-keyboard-response","235","797496","0.0-17.0-1.2","18573","List1A","black","man","","","","null","","","","","","","","",""
"null","is seducing","","html-keyboard-response","236","799500","0.0-17.0-2.2","18573","List1A","black","man","","","","null","","","","","","","","",""
"4370.60000000149","","","survey-text","237","803874","0.0-17.0-3.2","18573","List1A","black","man","","","","","{""Q0"":""fred is seducing dave""}","<img src=""stim_listA/seduce5.gif""style=""height:400px;""></stim_listA>","is seducing","","","","","",""
"null","<div style=""font-size:60px;"">+</div>","","html-keyboard-response","238","804388","0.0-17.0-0.3","18573","List1A","black","man","","","","null","","","","","","","","",""
"null","<img src=""stim_listA/kiss7.gif""style=""height:400px;""></stim_listA>","","html-keyboard-response","239","806394","0.0-17.0-1.3","18573","List1A","black","man","","","","null","","","","","","","","",""
"null","is kissing","","html-keyboard-response","240","808405","0.0-17.0-2.3","18573","List1A","black","man","","","","null","","","","","","","","",""
"4774","","","survey-text","241","813183","0.0-17.0-3.3","18573","List1A","black","man","","","","","{""Q0"":""beth is kissing ruth""}","<img src=""stim_listA/kiss7.gif""style=""height:400px;""></stim_listA>","is kissing","","","","","",""
"null","<div style=""font-size:60px;"">+</div>","","html-keyboard-response","242","813698","0.0-17.0-0.4","18573","List1A","black","man","","","","null","","","","","","","","",""
"null","<img src=""stim_listA/shout5.gif""style=""height:400px;""></stim_listA>","","html-keyboard-response","243","815711","0.0-17.0-1.4","18573","List1A","black","man","","","","null","","","","","","","","",""
"null","is shouting at","","html-keyboard-response","244","817713","0.0-17.0-2.4","18573","List1A","black","man","","","","null","","","","","","","","",""
"4826.900000002235","","","survey-text","245","822544","0.0-17.0-3.4","18573","List1A","black","man","","","","","{""Q0"":""luke is shouting at fred""}","<img src=""stim_listA/shout5.gif""style=""height:400px;""></stim_listA>","is shouting at","","","","","",""
"null","<div style=""font-size:60px;"">+</div>","","html-keyboard-response","246","823057","0.0-17.0-0.5","18573","List1A","black","man","","","","null","","","","","","","","",""
"null","<img src=""stim_listA/seduce6.gif""style=""height:400px;""></stim_listA>","","html-keyboard-response","247","825070","0.0-17.0-1.5","18573","List1A","black","man","","","","null","","","","","","","","",""
"null","is being seduced by","","html-keyboard-response","248","827073","0.0-17.0-2.5","18573","List1A","black","man","","","","null","","","","","","","","",""
"7869.300000000745","","","survey-text","249","834948","0.0-17.0-3.5","18573","List1A","black","man","","","","","{""Q0"":""luke is being seduced by mike""}","<img src=""stim_listA/seduce6.gif""style=""height:400px;""></stim_listA>","is being seduced by","","","","","",""
"null","<div style=""font-size:60px;"">+</div>","","html-keyboard-response","250","835461","0.0-17.0-0.6","18573","List1A","black","man","","","","null","","","","","","","","",""
"null","<img src=""stim_listA/oppose4.gif""style=""height:400px;""></stim_listA>","","html-keyboard-response","251","837478","0.0-17.0-1.6","18573","List1A","black","man","","","","null","","","","","","","","",""
"null","is being opposed by","","html-keyboard-response","252","839494","0.0-17.0-2.6","18573","List1A","black","man","","","","null","","","","","","","","",""
"8717.29999999702","","","survey-text","253","848216","0.0-17.0-3.6","18573","List1A","black","man","","","","","{""Q0"":""luke is being opposed by ruth""}","<img src=""stim_listA/oppose4.gif""style=""height:400px;""></stim_listA>","is being opposed by","","","","","",""
"null","<div style=""font-size:60px;"">+</div>","","html-keyboard-response","254","848717","0.0-17.0-0.7","18573","List1A","black","man","","","","null","","","","","","","","",""
"null","<img src=""stim_listA/challenge6.gif""style=""height:400px;""></stim_listA>","","html-keyboard-response","255","850725","0.0-17.0-1.7","18573","List1A","black","man","","","","null","","","","","","","","",""
"null","is being challenged by","","html-keyboard-response","256","852733","0.0-17.0-2.7","18573","List1A","black","man","","","","null","","","","","","","","",""
"7271.199999999255","","","survey-text","257","860009","0.0-17.0-3.7","18573","List1A","black","man","","","","","{""Q0"":""dave is being challenged by fred""}","<img src=""stim_listA/challenge6.gif""style=""height:400px;""></stim_listA>","is being challenged by","","","","","",""
"null","<div style=""font-size:60px;"">+</div>","","html-keyboard-response","258","860524","0.0-17.0-0.8","18573","List1A","black","man","","","","null","","","","","","","","",""
"null","<img src=""stim_listA/seduce3.gif""style=""height:400px;""></stim_listA>","","html-keyboard-response","259","862538","0.0-17.0-1.8","18573","List1A","black","man","","","","null","","","","","","","","",""
"null","is seducing","","html-keyboard-response","260","864540","0.0-17.0-2.8","18573","List1A","black","man","","","","null","","","","","","","","",""
"4298.20000000298","","","survey-text","261","868843","0.0-17.0-3.8","18573","List1A","black","man","","","","","{""Q0"":""luke is seducing jane""}","<img src=""stim_listA/seduce3.gif""style=""height:400px;""></stim_listA>","is seducing","","","","","",""
"null","<div style=""font-size:60px;"">+</div>","","html-keyboard-response","262","869350","0.0-17.0-0.9","18573","List1A","black","man","","","","null","","","","","","","","",""
"null","<img src=""stim_listA/hug7.gif""style=""height:400px;""></stim_listA>","","html-keyboard-response","263","871364","0.0-17.0-1.9","18573","List1A","black","man","","","","null","","","","","","","","",""
"null","is hugging","","html-keyboard-response","264","873380","0.0-17.0-2.9","18573","List1A","black","man","","","","null","","","","","","","","",""
"3995.5","","","survey-text","265","877381","0.0-17.0-3.9","18573","List1A","black","man","","","","","{""Q0"":""beth is hugging ruth""}","<img src=""stim_listA/hug7.gif""style=""height:400px;""></stim_listA>","is hugging","","","","","",""
"null","<div style=""font-size:60px;"">+</div>","","html-keyboard-response","266","877892","0.0-17.0-0.10","18573","List1A","black","man","","","","null","","","","","","","","",""
"null","<img src=""stim_listA/copy1.gif""style=""height:400px;""></stim_listA>","","html-keyboard-response","267","879906","0.0-17.0-1.10","18573","List1A","black","man","","","","null","","","","","","","","",""
"null","is copying","","html-keyboard-response","268","881910","0.0-17.0-2.10","18573","List1A","black","man","","","","null","","","","","","","","",""
"5020.400000002235","","","survey-text","269","886935","0.0-17.0-3.10","18573","List1A","black","man","","","","","{""Q0"":""beth is copying mike""}","<img src=""stim_listA/copy1.gif""style=""height:400px;""></stim_listA>","is copying","","","","","",""
"null","<div style=""font-size:60px;"">+</div>","","html-keyboard-response","270","887449","0.0-17.0-0.11","18573","List1A","black","man","","","","null","","","","","","","","",""
"null","<img src=""stim_listA/seduce1.gif""style=""height:400px;""></stim_listA>","","html-keyboard-response","271","889466","0.0-17.0-1.11","18573","List1A","black","man","","","","null","","","","","","","","",""
"null","is seducing","","html-keyboard-response","272","891483","0.0-17.0-2.11","18573","List1A","black","man","","","","null","","","","","","","","",""
"5135.599999997765","","","survey-text","273","896623","0.0-17.0-3.11","18573","List1A","black","man","","","","","{""Q0"":""kate is seducing fred""}","<img src=""stim_listA/seduce1.gif""style=""height:400px;""></stim_listA>","is seducing","","","","","",""
"null","<div style=""font-size:60px;"">+</div>","","html-keyboard-response","274","897124","0.0-17.0-0.12","18573","List1A","black","man","","","","null","","","","","","","","",""
"null","<img src=""stim_listA/oppose3.gif""style=""height:400px;""></stim_listA>","","html-keyboard-response","275","899139","0.0-17.0-1.12","18573","List1A","black","man","","","","null","","","","","","","","",""
"null","is opposing","","html-keyboard-response","276","901156","0.0-17.0-2.12","18573","List1A","black","man","","","","null","","","","","","","","",""
"6255.699999999255","","","survey-text","277","907416","0.0-17.0-3.12","18573","List1A","black","man","","","","","{""Q0"":""dave is opposing jane""}","<img src=""stim_listA/oppose3.gif""style=""height:400px;""></stim_listA>","is opposing","","","","","",""
"null","<div style=""font-size:60px;"">+</div>","","html-keyboard-response","278","907932","0.0-17.0-0.13","18573","List1A","black","man","","","","null","","","","","","","","",""
"null","<img src=""stim_listA/look2.gif""style=""height:400px;""></stim_listA>","","html-keyboard-response","279","909947","0.0-17.0-1.13","18573","List1A","black","man","","","","null","","","","","","","","",""
"null","is being looked at by","","html-keyboard-response","280","911949","0.0-17.0-2.13","18573","List1A","black","man","","","","null","","","","","","","","",""
"9360","","","survey-text","281","921313","0.0-17.0-3.13","18573","List1A","black","man","","","","","{""Q0"":""kate is being looked at by mike""}","<img src=""stim_listA/look2.gif""style=""height:400px;""></stim_listA>","is being looked at by","","","","","",""
"null","<div style=""font-size:60px;"">+</div>","","html-keyboard-response","282","921822","0.0-17.0-0.14","18573","List1A","black","man","","","","null","","","","","","","","",""
"null","<img src=""stim_listA/touch1.gif""style=""height:400px;""></stim_listA>","","html-keyboard-response","283","923836","0.0-17.0-1.14","18573","List1A","black","man","","","","null","","","","","","","","",""
"null","is touching","","html-keyboard-response","284","925851","0.0-17.0-2.14","18573","List1A","black","man","","","","null","","","","","","","","",""
"4494.099999997765","","","survey-text","285","930350","0.0-17.0-3.14","18573","List1A","black","man","","","","","{""Q0"":""kate is touching mike""}","<img src=""stim_listA/touch1.gif""style=""height:400px;""></stim_listA>","is touching","","","","","",""
"null","<div style=""font-size:60px;"">+</div>","","html-keyboard-response","286","930862","0.0-17.0-0.15","18573","List1A","black","man","","","","null","","","","","","","","",""
"null","<img src=""stim_listA/look8.gif""style=""height:400px;""></stim_listA>","","html-keyboard-response","287","932876","0.0-17.0-1.15","18573","List1A","black","man","","","","null","","","","","","","","",""
"null","is being looked at by","","html-keyboard-response","288","934881","0.0-17.0-2.15","18573","List1A","black","man","","","","null","","","","","","","","",""
"6528.599999997765","","","survey-text","289","941414","0.0-17.0-3.15","18573","List1A","black","man","","","","","{""Q0"":""kate is being looked at by jane""}","<img src=""stim_listA/look8.gif""style=""height:400px;""></stim_listA>","is being looked at by","","","","","",""
"null","<div style=""font-size:60px;"">+</div>","","html-keyboard-response","290","941925","0.0-17.0-0.16","18573","List1A","black","man","","","","null","","","","","","","","",""
"null","<img src=""stim_listA/look5.gif""style=""height:400px;""></stim_listA>","","html-keyboard-response","291","943935","0.0-17.0-1.16","18573","List1A","black","man","","","","null","","","","","","","","",""
"null","is looking at","","html-keyboard-response","292","945951","0.0-17.0-2.16","18573","List1A","black","man","","","","null","","","","","","","","",""
"6198.10000000149","","","survey-text","293","952153","0.0-17.0-3.16","18573","List1A","black","man","","","","","{""Q0"":""luke is looking at fred""}","<img src=""stim_listA/look5.gif""style=""height:400px;""></stim_listA>","is looking at","","","","","",""
"null","<div style=""font-size:60px;"">+</div>","","html-keyboard-response","294","952660","0.0-17.0-0.17","18573","List1A","black","man","","","","null","","","","","","","","",""
"null","<img src=""stim_listA/hug5.gif""style=""height:400px;""></stim_listA>","","html-keyboard-response","295","954675","0.0-17.0-1.17","18573","List1A","black","man","","","","null","","","","","","","","",""
"null","is hugging","","html-keyboard-response","296","956689","0.0-17.0-2.17","18573","List1A","black","man","","","","null","","","","","","","","",""
"4195.199999999255","","","survey-text","297","960889","0.0-17.0-3.17","18573","List1A","black","man","","","","","{""Q0"":""luke is hugging fred""}","<img src=""stim_listA/hug5.gif""style=""height:400px;""></stim_listA>","is hugging","","","","","",""
"null","<div style=""font-size:60px;"">+</div>","","html-keyboard-response","298","961401","0.0-17.0-0.18","18573","List1A","black","man","","","","null","","","","","","","","",""
"null","<img src=""stim_listA/challenge5.gif""style=""height:400px;""></stim_listA>","","html-keyboard-response","299","963416","0.0-17.0-1.18","18573","List1A","black","man","","","","null","","","","","","","","",""
"null","is challenging","","html-keyboard-response","300","965424","0.0-17.0-2.18","18573","List1A","black","man","","","","null","","","","","","","","",""
"5728.10000000149","","","survey-text","301","971157","0.0-17.0-3.18","18573","List1A","black","man","","","","","{""Q0"":""luke is challenging mike""}","<img src=""stim_listA/challenge5.gif""style=""height:400px;""></stim_listA>","is challenging","","","","","",""
"null","<div style=""font-size:60px;"">+</div>","","html-keyboard-response","302","971660","0.0-17.0-0.19","18573","List1A","black","man","","","","null","","","","","","","","",""
"null","<img src=""stim_listA/shout3.gif""style=""height:400px;""></stim_listA>","","html-keyboard-response","303","973674","0.0-17.0-1.19","18573","List1A","black","man","","","","null","","","","","","","","",""
"null","is shouting at","","html-keyboard-response","304","975680","0.0-17.0-2.19","18573","List1A","black","man","","","","null","","","","","","","","",""
"5361.300000000745","","","survey-text","305","981046","0.0-17.0-3.19","18573","List1A","black","man","","","","","{""Q0"":""luke is shouting at ruth""}","<img src=""stim_listA/shout3.gif""style=""height:400px;""></stim_listA>","is shouting at","","","","","",""
"2088.39999999851","<img src='img/portrait_matrix_list1.jpg' style='width:900px;height:500px;''></img><p>If you have memorised all the portraits and names and are ready to start, press Continue.</p><p><strong>Please note: Your memory of these faces will be tested 4 times during this experiment.</strong></p>","0","html-button-response","306","983136","0.0-18.0-0.0","18573","List1A","black","man","","","","","","","","","","","","",""
"1667.1000000014901","<img src=""portrait/WW1.jpg""style=""height:400px;""></img>","1","html-button-response","307","985817","0.0-18.0-1.0","18573","List1A","black","man","","true","1","","","","","","","","","",""
"null","CORRECT","","html-keyboard-response","308","987345","0.0-18.0-2.0-0.0","18573","List1A","black","man","","","","null","","","","","","","","",""
"4068.10000000149","<img src=""portrait/WW2.jpg""style=""height:400px;""></img>","3","html-button-response","309","991415","0.0-18.0-4.0","18573","List1A","black","man","","true","3","","","","","","","","","",""
"null","CORRECT","","html-keyboard-response","310","992941","0.0-18.0-5.0-0.0","18573","List1A","black","man","","","","null","","","","","","","","",""
"1582.800000000745","<img src=""portrait/WM2.jpg""style=""height:400px;""></img>","7","html-button-response","311","994526","0.0-18.0-7.0","18573","List1A","black","man","","true","7","","","","","","","","","",""
"null","CORRECT","","html-keyboard-response","312","996039","0.0-18.0-8.0-0.0","18573","List1A","black","man","","","","null","","","","","","","","",""
"2449.5","<img src=""portrait/BW2.jpg""style=""height:400px;""></img>","2","html-button-response","313","998491","0.0-18.0-10.0","18573","List1A","black","man","","true","2","","","","","","","","","",""
"null","CORRECT","","html-keyboard-response","314","1000000","0.0-18.0-11.0-0.0","18573","List1A","black","man","","","","null","","","","","","","","",""
"2185.2999999970198","<img src=""portrait/BW1.jpg""style=""height:400px;""></img>","0","html-button-response","315","1002188","0.0-18.0-13.0","18573","List1A","black","man","","true","0","","","","","","","","","",""
"null","CORRECT","","html-keyboard-response","316","1003713","0.0-18.0-14.0-0.0","18573","List1A","black","man","","","","null","","","","","","","","",""
"2750.699999999255","<img src=""portrait/BM1.jpg""style=""height:400px;""></img>","4","html-button-response","317","1006467","0.0-18.0-16.0","18573","List1A","black","man","","true","4","","","","","","","","","",""
"null","CORRECT","","html-keyboard-response","318","1007993","0.0-18.0-17.0-0.0","18573","List1A","black","man","","","","null","","","","","","","","",""
"1605.1000000014901","<img src=""portrait/BM2.jpg""style=""height:400px;""></img>","5","html-button-response","319","1009601","0.0-18.0-19.0","18573","List1A","black","man","","true","5","","","","","","","","","",""
"null","CORRECT","","html-keyboard-response","320","1011124","0.0-18.0-20.0-0.0","18573","List1A","black","man","","","","null","","","","","","","","",""
"1534.300000000745","<img src=""portrait/WM1.jpg""style=""height:400px;""></img>","6","html-button-response","321","1012661","0.0-18.0-22.0","18573","List1A","black","man","","true","6","","","","","","","","","",""
"null","CORRECT","","html-keyboard-response","322","1014188","0.0-18.0-23.0-0.0","18573","List1A","black","man","","","","null","","","","","","","","",""
"113084.79999999702","<p>You got 8 out of 8 right first time. Press Continue.</p>","0","html-button-response","323","1127276","0.0-18.0-25.0","18573","List1A","black","man","","","","","","","","","","","","",""
"null","<div style=""font-size:60px;"">+</div>","","html-keyboard-response","324","1128804","0.0-19.0-0.0","18573","List1A","black","man","","","","null","","","","","","","","",""
"null","<img src=""stim_listA/touch7.gif""style=""height:400px;""></stim_listA>","","html-keyboard-response","325","1130820","0.0-19.0-1.0","18573","List1A","black","man","","","","null","","","","","","","","",""
"null","is touching","","html-keyboard-response","326","1132836","0.0-19.0-2.0","18573","List1A","black","man","","","","null","","","","","","","","",""
"6536.29999999702","","","survey-text","327","1139377","0.0-19.0-3.0","18573","List1A","black","man","","","","","{""Q0"":""kate is touching jane""}","<img src=""stim_listA/touch7.gif""style=""height:400px;""></stim_listA>","is touching","","","","","",""
"null","<div style=""font-size:60px;"">+</div>","","html-keyboard-response","328","1139880","0.0-19.0-0.1","18573","List1A","black","man","","","","null","","","","","","","","",""
"null","<img src=""stim_listA/challenge8.gif""style=""height:400px;""></stim_listA>","","html-keyboard-response","329","1141893","0.0-19.0-1.1","18573","List1A","black","man","","","","null","","","","","","","","",""
"null","is being challenged by","","html-keyboard-response","330","1143908","0.0-19.0-2.1","18573","List1A","black","man","","","","null","","","","","","","","",""
"6706.099999997765","","","survey-text","331","1150619","0.0-19.0-3.1","18573","List1A","black","man","","","","","{""Q0"":""jane is being challenged by beth""}","<img src=""stim_listA/challenge8.gif""style=""height:400px;""></stim_listA>","is being challenged by","","","","","",""
"null","<div style=""font-size:60px;"">+</div>","","html-keyboard-response","332","1151120","0.0-19.0-0.2","18573","List1A","black","man","","","","null","","","","","","","","",""
"null","<img src=""stim_listA/hug2.gif""style=""height:400px;""></stim_listA>","","html-keyboard-response","333","1153135","0.0-19.0-1.2","18573","List1A","black","man","","","","null","","","","","","","","",""
"null","is being hugged by","","html-keyboard-response","334","1155150","0.0-19.0-2.2","18573","List1A","black","man","","","","null","","","","","","","","",""
"6393.10000000149","","","survey-text","335","1161546","0.0-19.0-3.2","18573","List1A","black","man","","","","","{""Q0"":""kate is being hugged by mike""}","<img src=""stim_listA/hug2.gif""style=""height:400px;""></stim_listA>","is being hugged by","","","","","",""
"null","<div style=""font-size:60px;"">+</div>","","html-keyboard-response","336","1162059","0.0-19.0-0.3","18573","List1A","black","man","","","","null","","","","","","","","",""
"null","<img src=""stim_listA/look3.gif""style=""height:400px;""></stim_listA>","","html-keyboard-response","337","1164075","0.0-19.0-1.3","18573","List1A","black","man","","","","null","","","","","","","","",""
"null","is looking at","","html-keyboard-response","338","1166090","0.0-19.0-2.3","18573","List1A","black","man","","","","null","","","","","","","","",""
"6005.300000000745","","","survey-text","339","1172100","0.0-19.0-3.3","18573","List1A","black","man","","","","","{""Q0"":""ruth is looking at luke""}","<img src=""stim_listA/look3.gif""style=""height:400px;""></stim_listA>","is looking at","","","","","",""
"null","<div style=""font-size:60px;"">+</div>","","html-keyboard-response","340","1172601","0.0-19.0-0.4","18573","List1A","black","man","","","","null","","","","","","","","",""
"null","<img src=""stim_listA/challenge7.gif""style=""height:400px;""></stim_listA>","","html-keyboard-response","341","1174615","0.0-19.0-1.4","18573","List1A","black","man","","","","null","","","","","","","","",""
"null","is challenging","","html-keyboard-response","342","1176631","0.0-19.0-2.4","18573","List1A","black","man","","","","null","","","","","","","","",""
"5338.5","","","survey-text","343","1181975","0.0-19.0-3.4","18573","List1A","black","man","","","","","{""Q0"":""kate is challenging ruth""}","<img src=""stim_listA/challenge7.gif""style=""height:400px;""></stim_listA>","is challenging","","","","","",""
"null","<div style=""font-size:60px;"">+</div>","","html-keyboard-response","344","1182491","0.0-19.0-0.5","18573","List1A","black","man","","","","null","","","","","","","","",""
"null","<img src=""stim_listA/seduce2.gif""style=""height:400px;""></stim_listA>","","html-keyboard-response","345","1184502","0.0-19.0-1.5","18573","List1A","black","man","","","","null","","","","","","","","",""
"null","is being seduced by","","html-keyboard-response","346","1186507","0.0-19.0-2.5","18573","List1A","black","man","","","","null","","","","","","","","",""
"6481","","","survey-text","347","1192993","0.0-19.0-3.5","18573","List1A","black","man","","","","","{""Q0"":""beth is being seduced by mike""}","<img src=""stim_listA/seduce2.gif""style=""height:400px;""></stim_listA>","is being seduced by","","","","","",""
"null","<div style=""font-size:60px;"">+</div>","","html-keyboard-response","348","1193499","0.0-19.0-0.6","18573","List1A","black","man","","","","null","","","","","","","","",""
"null","<img src=""stim_listA/touch5.gif""style=""height:400px;""></stim_listA>","","html-keyboard-response","349","1195514","0.0-19.0-1.6","18573","List1A","black","man","","","","null","","","","","","","","",""
"null","is touching","","html-keyboard-response","350","1197528","0.0-19.0-2.6","18573","List1A","black","man","","","","null","","","","","","","","",""
"4549.800000000745","","","survey-text","351","1202081","0.0-19.0-3.6","18573","List1A","black","man","","","","","{""Q0"":""mike is touching dave""}","<img src=""stim_listA/touch5.gif""style=""height:400px;""></stim_listA>","is touching","","","","","",""
"null","<div style=""font-size:60px;"">+</div>","","html-keyboard-response","352","1202588","0.0-19.0-0.7","18573","List1A","black","man","","","","null","","","","","","","","",""
"null","<img src=""stim_listA/copy5.gif""style=""height:400px;""></stim_listA>","","html-keyboard-response","353","1204605","0.0-19.0-1.7","18573","List1A","black","man","","","","null","","","","","","","","",""
"null","is copying","","html-keyboard-response","354","1206619","0.0-19.0-2.7","18573","List1A","black","man","","","","null","","","","","","","","",""
"4950.5","","","survey-text","355","1211573","0.0-19.0-3.7","18573","List1A","black","man","","","","","{""Q0"":""mike is copying luke""}","<img src=""stim_listA/copy5.gif""style=""height:400px;""></stim_listA>","is copying","","","","","",""
"null","<div style=""font-size:60px;"">+</div>","","html-keyboard-response","356","1212082","0.0-19.0-0.8","18573","List1A","black","man","","","","null","","","","","","","","",""
"null","<img src=""stim_listA/oppose7.gif""style=""height:400px;""></stim_listA>","","html-keyboard-response","357","1214096","0.0-19.0-1.8","18573","List1A","black","man","","","","null","","","","","","","","",""
"null","is opposing","","html-keyboard-response","358","1216104","0.0-19.0-2.8","18573","List1A","black","man","","","","null","","","","","","","","",""
"4594.699999999255","","","survey-text","359","1220704","0.0-19.0-3.8","18573","List1A","black","man","","","","","{""Q0"":""kate is opposing jane""}","<img src=""stim_listA/oppose7.gif""style=""height:400px;""></stim_listA>","is opposing","","","","","",""
"null","<div style=""font-size:60px;"">+</div>","","html-keyboard-response","360","1221209","0.0-19.0-0.9","18573","List1A","black","man","","","","null","","","","","","","","",""
"null","<img src=""stim_listA/oppose2.gif""style=""height:400px;""></stim_listA>","","html-keyboard-response","361","1223222","0.0-19.0-1.9","18573","List1A","black","man","","","","null","","","","","","","","",""
"null","is being opposed by","","html-keyboard-response","362","1225227","0.0-19.0-2.9","18573","List1A","black","man","","","","null","","","","","","","","",""
"7269.5","","","survey-text","363","1232502","0.0-19.0-3.9","18573","List1A","black","man","","","","","{""Q0"":""beth is being opposed by fred""}","<img src=""stim_listA/oppose2.gif""style=""height:400px;""></stim_listA>","is being opposed by","","","","","",""
"null","<div style=""font-size:60px;"">+</div>","","html-keyboard-response","364","1233014","0.0-19.0-0.10","18573","List1A","black","man","","","","null","","","","","","","","",""
"null","<img src=""stim_listA/kiss8.gif""style=""height:400px;""></stim_listA>","","html-keyboard-response","365","1235029","0.0-19.0-1.10","18573","List1A","black","man","","","","null","","","","","","","","",""
"null","is being kissed by","","html-keyboard-response","366","1237044","0.0-19.0-2.10","18573","List1A","black","man","","","","null","","","","","","","","",""
"7069.900000002235","","","survey-text","367","1244118","0.0-19.0-3.10","18573","List1A","black","man","","","","","{""Q0"":""jane is being kissed by kate""}","<img src=""stim_listA/kiss8.gif""style=""height:400px;""></stim_listA>","is being kissed by","","","","","",""
"null","<div style=""font-size:60px;"">+</div>","","html-keyboard-response","368","1244633","0.0-19.0-0.11","18573","List1A","black","man","","","","null","","","","","","","","",""
"null","<img src=""stim_listA/kiss2.gif""style=""height:400px;""></stim_listA>","","html-keyboard-response","369","1246636","0.0-19.0-1.11","18573","List1A","black","man","","","","null","","","","","","","","",""
"null","is being kissed by","","html-keyboard-response","370","1248641","0.0-19.0-2.11","18573","List1A","black","man","","","","null","","","","","","","","",""
"7904.800000000745","","","survey-text","371","1256551","0.0-19.0-3.11","18573","List1A","black","man","","","","","{""Q0"":""mike is being kissed by kate""}","<img src=""stim_listA/kiss2.gif""style=""height:400px;""></stim_listA>","is being kissed by","","","","","",""
"null","<div style=""font-size:60px;"">+</div>","","html-keyboard-response","372","1257058","0.0-19.0-0.12","18573","List1A","black","man","","","","null","","","","","","","","",""
"null","<img src=""stim_listA/oppose1.gif""style=""height:400px;""></stim_listA>","","html-keyboard-response","373","1259075","0.0-19.0-1.12","18573","List1A","black","man","","","","null","","","","","","","","",""
"null","is opposing","","html-keyboard-response","374","1261091","0.0-19.0-2.12","18573","List1A","black","man","","","","null","","","","","","","","",""
"4331.39999999851","","","survey-text","375","1265427","0.0-19.0-3.12","18573","List1A","black","man","","","","","{""Q0"":""mike is opposing kate""}","<img src=""stim_listA/oppose1.gif""style=""height:400px;""></stim_listA>","is opposing","","","","","",""
"null","<div style=""font-size:60px;"">+</div>","","html-keyboard-response","376","1265934","0.0-19.0-0.13","18573","List1A","black","man","","","","null","","","","","","","","",""
"null","<img src=""stim_listA/kiss4.gif""style=""height:400px;""></stim_listA>","","html-keyboard-response","377","1267950","0.0-19.0-1.13","18573","List1A","black","man","","","","null","","","","","","","","",""
"null","is being kissed by","","html-keyboard-response","378","1269968","0.0-19.0-2.13","18573","List1A","black","man","","","","null","","","","","","","","",""
"6390","","","survey-text","379","1276363","0.0-19.0-3.13","18573","List1A","black","man","","","","","{""Q0"":""dave is being kissed by jane""}","<img src=""stim_listA/kiss4.gif""style=""height:400px;""></stim_listA>","is being kissed by","","","","","",""
"null","<div style=""font-size:60px;"">+</div>","","html-keyboard-response","380","1276875","0.0-19.0-0.14","18573","List1A","black","man","","","","null","","","","","","","","",""
"null","<img src=""stim_listA/hug6.gif""style=""height:400px;""></stim_listA>","","html-keyboard-response","381","1278890","0.0-19.0-1.14","18573","List1A","black","man","","","","null","","","","","","","","",""
"null","is being hugged by","","html-keyboard-response","382","1280898","0.0-19.0-2.14","18573","List1A","black","man","","","","null","","","","","","","","",""
"7506.900000002235","","","survey-text","383","1288410","0.0-19.0-3.14","18573","List1A","black","man","","","","","{""Q0"":""dave is being hugged by mike""}","<img src=""stim_listA/hug6.gif""style=""height:400px;""></stim_listA>","is being hugged by","","","","","",""
"null","<div style=""font-size:60px;"">+</div>","","html-keyboard-response","384","1288916","0.0-19.0-0.15","18573","List1A","black","man","","","","null","","","","","","","","",""
"null","<img src=""stim_listA/kiss5.gif""style=""height:400px;""></stim_listA>","","html-keyboard-response","385","1290931","0.0-19.0-1.15","18573","List1A","black","man","","","","null","","","","","","","","",""
"null","is kissing","","html-keyboard-response","386","1292947","0.0-19.0-2.15","18573","List1A","black","man","","","","null","","","","","","","","",""
"34800.699999999255","","","survey-text","387","1327753","0.0-19.0-3.15","18573","List1A","black","man","","","","","{""Q0"":""fred is kissing luke""}","<img src=""stim_listA/kiss5.gif""style=""height:400px;""></stim_listA>","is kissing","","","","","",""
"null","<div style=""font-size:60px;"">+</div>","","html-keyboard-response","388","1328265","0.0-19.0-0.16","18573","List1A","black","man","","","","null","","","","","","","","",""
"null","<img src=""stim_listA/seduce4.gif""style=""height:400px;""></stim_listA>","","html-keyboard-response","389","1330279","0.0-19.0-1.16","18573","List1A","black","man","","","","null","","","","","","","","",""
"null","is being seduced by","","html-keyboard-response","390","1332280","0.0-19.0-2.16","18573","List1A","black","man","","","","null","","","","","","","","",""
"8586.800000000745","","","survey-text","391","1340873","0.0-19.0-3.16","18573","List1A","black","man","","","","","{""Q0"":""dave is being seduced by ruth""}","<img src=""stim_listA/seduce4.gif""style=""height:400px;""></stim_listA>","is being seduced by","","","","","",""
"null","<div style=""font-size:60px;"">+</div>","","html-keyboard-response","392","1341383","0.0-19.0-0.17","18573","List1A","black","man","","","","null","","","","","","","","",""
"null","<img src=""stim_listA/hug4.gif""style=""height:400px;""></stim_listA>","","html-keyboard-response","393","1343398","0.0-19.0-1.17","18573","List1A","black","man","","","","null","","","","","","","","",""
"null","is being hugged by","","html-keyboard-response","394","1345402","0.0-19.0-2.17","18573","List1A","black","man","","","","null","","","","","","","","",""
"9398.5","","","survey-text","395","1354804","0.0-19.0-3.17","18573","List1A","black","man","","","","","{""Q0"":""dave is being hugged by jane""}","<img src=""stim_listA/hug4.gif""style=""height:400px;""></stim_listA>","is being hugged by","","","","","",""
"null","<div style=""font-size:60px;"">+</div>","","html-keyboard-response","396","1355307","0.0-19.0-0.18","18573","List1A","black","man","","","","null","","","","","","","","",""
"null","<img src=""stim_listA/hug3.gif""style=""height:400px;""></stim_listA>","","html-keyboard-response","397","1357321","0.0-19.0-1.18","18573","List1A","black","man","","","","null","","","","","","","","",""
"null","is hugging","","html-keyboard-response","398","1359337","0.0-19.0-2.18","18573","List1A","black","man","","","","null","","","","","","","","",""
"4458","","","survey-text","399","1363800","0.0-19.0-3.18","18573","List1A","black","man","","","","","{""Q0"":""luke is hugging ruth""}","<img src=""stim_listA/hug3.gif""style=""height:400px;""></stim_listA>","is hugging","","","","","",""
"null","<div style=""font-size:60px;"">+</div>","","html-keyboard-response","400","1364315","0.0-19.0-0.19","18573","List1A","black","man","","","","null","","","","","","","","",""
"null","<img src=""stim_listA/challenge3.gif""style=""height:400px;""></stim_listA>","","html-keyboard-response","401","1366331","0.0-19.0-1.19","18573","List1A","black","man","","","","null","","","","","","","","",""
"null","is challenging","","html-keyboard-response","402","1368341","0.0-19.0-2.19","18573","List1A","black","man","","","","null","","","","","","","","",""
"5160.699999999255","","","survey-text","403","1373506","0.0-19.0-3.19","18573","List1A","black","man","","","","","{""Q0"":""ruth is challenging dave""}","<img src=""stim_listA/challenge3.gif""style=""height:400px;""></stim_listA>","is challenging","","","","","",""
"2568.300000000745","<p>Thank you for completing that task.</p><p>The final part of this session is a questionnaire that will take about 4 minutes.</p><p>Press Continue.</p>","0","html-button-response","404","1376075","0.0-20.0","18573","List1A","black","man","","","","","","","","","","","","",""
"21692.60000000149","","","survey-text","405","1398791","0.0-21.0","18573","List1A","black","man","","","","","{""Q0"":""32"",""Q1"":""English"",""Q2"":""English"",""Q3"":""USA"",""Q4"":""American"",""Q5"":""Black"",""Q6"":""Male""}","","","demographics","","","","",""
"2709.900000002235","<p>Have you lived in the USA for the last 5 years or more?</p>","0","html-button-response","406","1401505","0.0-22.0","18573","List1A","black","man","","","","","","","","fiveyears","","","","",""
"4550","<p>Move the slider to show the extent to which you agree with the following statements.</p>","0","html-button-response","407","1407067","0.0-23.0","18573","List1A","black","man","","","","","","","","","","","","",""
"15439.29999999702","","","html-slider-response","408","1423521","0.0-24.0-0.0-0.0","18573","List1A","black","man","","","","","","","","survey_gender","17","","","Family is not more important to me than friendship.","filler"
"4509.29999999702","","","html-slider-response","409","1428034","0.0-24.0-0.0-0.1","18573","List1A","black","man","","","","","","","","survey_gender","0","","","I would say I am an animal person.","filler"
"5222.900000002235","","","html-slider-response","410","1433261","0.0-24.0-0.0-0.2","18573","List1A","black","man","","","","","","","","survey_gender","100","","","Most of the friends in my life are very similar to me.","filler"
"8073.199999999255","","","html-slider-response","411","1441338","0.0-24.0-0.0-0.3","18573","List1A","black","man","","","","","","","","survey_gender","100","","","The fact that I am my gender is an important part of my identity.","identity"
"4513.199999999255","","","html-slider-response","412","1445855","0.0-24.0-0.0-0.4","18573","List1A","black","man","","","","","","","","survey_gender","100","","","Being my gender gives me a good feeling.","feeling"
"3800.60000000149","","","html-slider-response","413","1449659","0.0-24.0-0.0-0.5","18573","List1A","black","man","","","","","","","","survey_gender","79","","","Being around my friends gives me a good feeling.","filler"
"9025.800000000745","","","html-slider-response","414","1458688","0.0-24.0-0.0-0.6","18573","List1A","black","man","","","","","","","","survey_gender","100","","","I am similar to the average person of my gender.","similar"
"9787.199999999255","","","html-slider-response","415","1468479","0.0-24.0-0.0-0.7","18573","List1A","black","man","","","","","","","","survey_gender","19","","","I often think about my actions.","filler"
"3779.300000000745","","","html-slider-response","416","1472262","0.0-24.0-0.0-0.8","18573","List1A","black","man","","","","","","","","survey_gender","43","","","I feel a bond with my friends.","filler"
"4392.300000000745","","","html-slider-response","417","1476656","0.0-24.0-0.0-0.9","18573","List1A","black","man","","","","","","","","survey_gender","66","","","My friends have a lot in common with each other.","filler"
"2761.10000000149","","","html-slider-response","418","1479421","0.0-24.0-0.0-0.10","18573","List1A","black","man","","","","","","","","survey_gender","29","","","My friends understand me.","filler"
"3746.2000000029802","","","html-slider-response","419","1483169","0.0-24.0-0.0-0.11","18573","List1A","black","man","","","","","","","","survey_gender","0","","","I feel a bond with my gender.","bond"
"9784.099999997765","","","html-slider-response","420","1492956","0.0-24.0-0.0-0.12","18573","List1A","black","man","","","","","","","","survey_gender","44","","","I am glad to have the friends that I have.","filler"
"3348.400000002235","","","html-slider-response","421","1496308","0.0-24.0-0.0-0.13","18573","List1A","black","man","","","","","","","","survey_gender","61","","","I feel solidarity with my friends.","filler"
"4674.5","","","html-slider-response","422","1500985","0.0-24.0-0.0-0.14","18573","List1A","black","man","","","","","","","","survey_gender","52","","","I have a lot in common with the average person of my gender.","average"
"4409.199999999255","","","html-slider-response","423","1505398","0.0-24.0-0.0-0.15","18573","List1A","black","man","","","","","","","","survey_gender","0","","","I consider myself a highly empathetic person.","filler"
"4444.900000002235","","","html-slider-response","424","1509847","0.0-24.0-0.0-0.16","18573","List1A","black","man","","","","","","","","survey_gender","48","","","I feel solidarity with my gender.","solidarity"
"5156.300000000745","","","html-slider-response","425","1515006","0.0-24.0-0.0-0.17","18573","List1A","black","man","","","","","","","","survey_gender","53","","","People of my gender are very similar to each other.","verysimilar"
"3828.800000000745","","","html-slider-response","426","1518838","0.0-24.0-0.0-0.18","18573","List1A","black","man","","","","","","","","survey_gender","0","","","Routine is not important to me.","filler"
"4309.79999999702","","","html-slider-response","427","1523152","0.0-24.0-0.0-0.19","18573","List1A","black","man","","","","","","","","survey_gender","100","","","I am glad to be my gender.","glad"
"4290.89999999851","","","html-slider-response","428","1527446","0.0-24.0-0.0-0.20","18573","List1A","black","man","","","","","","","","survey_gender","77","","","Being my gender is an important part of how I see myself.","important"
"10838.699999999255","","","html-slider-response","429","1538288","0.0-24.0-0.0-0.21","18573","List1A","black","man","","","","","","","","survey_gender","51","","","It is not always easy for people to know what I am thinking.","filler"
"21542.5","","","html-slider-response","430","1559834","0.0-24.0-0.0-0.22","18573","List1A","black","man","","","","","","","","survey_gender","83","","","I have a lot in common with my friends.","filler"
"8137.5","","","html-slider-response","431","1567975","0.0-24.0-0.0-0.23","18573","List1A","black","man","","","","","","","","survey_gender","53","","","I feel committed to my gender.","committed"
"10921.5","","","html-slider-response","432","1578900","0.0-24.0-0.0-0.24","18573","List1A","black","man","","","","","","","","survey_gender","78","","","I think that my gender has a lot to be proud of.","proud"
"26823.699999999255","","","html-slider-response","433","1605727","0.0-24.0-0.0-0.25","18573","List1A","black","man","","","","","","","","survey_gender","52","","","People of my gender have a lot in common with each other.","common"
"4424.20000000298","","","html-slider-response","434","1610155","0.0-24.0-0.0-0.26","18573","List1A","black","man","","","","","","","","survey_gender","78","","","It is pleasant to be my gender.","pleasant"
"5493.5","","","html-slider-response","435","1615651","0.0-24.0-0.0-0.27","18573","List1A","black","man","","","","","","","","survey_gender","0","","","I often think about the fact that I am my gender.","often"
"8688.5","","","html-slider-response","436","1624343","0.0-24.0-1.0-0.0","18573","List1A","black","man","","","","","","","","survey_race","54","","","I am similar to the average person of my race.","similar"
"5422.800000000745","","","html-slider-response","437","1629770","0.0-24.0-1.0-0.1","18573","List1A","black","man","","","","","","","","survey_race","22","","","People of my race have a lot in common with each other.","common"
"5711.699999999255","","","html-slider-response","438","1635485","0.0-24.0-1.0-0.2","18573","List1A","black","man","","","","","","","","survey_race","53","","","I am glad to be my race.","glad"
"3656.199999999255","","","html-slider-response","439","1639145","0.0-24.0-1.0-0.3","18573","List1A","black","man","","","","","","","","survey_race","20","","","I feel solidarity with my race.","solidarity"
"5311.39999999851","","","html-slider-response","440","1644460","0.0-24.0-1.0-0.4","18573","List1A","black","man","","","","","","","","survey_race","0","","","My age is not an important part of who I am.","filler"
"4857.699999999255","","","html-slider-response","441","1649321","0.0-24.0-1.0-0.5","18573","List1A","black","man","","","","","","","","survey_race","51","","","Being my race gives me a good feeling.","feeling"
"19137.699999999255","","","html-slider-response","442","1668461","0.0-24.0-1.0-0.6","18573","List1A","black","man","","","","","","","","survey_race","51","","","I have a lot in common with the average person of my race.","average"
"5336.60000000149","","","html-slider-response","443","1673800","0.0-24.0-1.0-0.7","18573","List1A","black","man","","","","","","","","survey_race","79","","","The fact that I am my race is an important part of my identity.","identity"
"3743.699999999255","","","html-slider-response","444","1677547","0.0-24.0-1.0-0.8","18573","List1A","black","man","","","","","","","","survey_race","100","","","I am glad to be my age.","filler"
"4258.599999997765","","","html-slider-response","445","1681809","0.0-24.0-1.0-0.9","18573","List1A","black","man","","","","","","","","survey_race","100","","","I often think about the fact that I am my age.","filler"
"3693.2999999970198","","","html-slider-response","446","1685506","0.0-24.0-1.0-0.10","18573","List1A","black","man","","","","","","","","survey_race","100","","","Getting older does not worry me.","filler"
"4727.400000002235","","","html-slider-response","447","1690237","0.0-24.0-1.0-0.11","18573","List1A","black","man","","","","","","","","survey_race","87","","","I feel solidarity with people the same age as me.","filler"
"9484.5","","","html-slider-response","448","1699724","0.0-24.0-1.0-0.12","18573","List1A","black","man","","","","","","","","survey_race","100","","","I think that my race has a lot to be proud of.","proud"
"3831.5","","","html-slider-response","449","1703557","0.0-24.0-1.0-0.13","18573","List1A","black","man","","","","","","","","survey_race","86","","","Being my race is an important part of how I see myself.","important"
"3127.199999999255","","","html-slider-response","450","1706687","0.0-24.0-1.0-0.14","18573","List1A","black","man","","","","","","","","survey_race","100","","","I consider myself an introvert.","filler"
"3077.10000000149","","","html-slider-response","451","1709768","0.0-24.0-1.0-0.15","18573","List1A","black","man","","","","","","","","survey_race","0","","","I enjoy being in large groups.","filler"
"3178.300000000745","","","html-slider-response","452","1712949","0.0-24.0-1.0-0.16","18573","List1A","black","man","","","","","","","","survey_race","48","","","I feel a bond with my race.","bond"
"4246.300000000745","","","html-slider-response","453","1717198","0.0-24.0-1.0-0.17","18573","List1A","black","man","","","","","","","","survey_race","51","","","People of my race are very similar to each other.","verysimilar"
"4458.199999999255","","","html-slider-response","454","1721659","0.0-24.0-1.0-0.18","18573","List1A","black","man","","","","","","","","survey_race","100","","","I have a lot in common with people of a similar age to me.","filler"
"3645.60000000149","","","html-slider-response","455","1725308","0.0-24.0-1.0-0.19","18573","List1A","black","man","","","","","","","","survey_race","100","","","Being my age gives me a good feeling.","filler"
"3342.5","","","html-slider-response","456","1728653","0.0-24.0-1.0-0.20","18573","List1A","black","man","","","","","","","","survey_race","49","","","I feel committed to my race.","committed"
"5272.900000002235","","","html-slider-response","457","1733929","0.0-24.0-1.0-0.21","18573","List1A","black","man","","","","","","","","survey_race","78","","","The older I get, the wiser I feel.","filler"
"6811.39999999851","","","html-slider-response","458","1740744","0.0-24.0-1.0-0.22","18573","List1A","black","man","","","","","","","","survey_race","100","","","I am glad to be the age I am.","filler"
"3642.5","","","html-slider-response","459","1744390","0.0-24.0-1.0-0.23","18573","List1A","black","man","","","","","","","","survey_race","100","","","I feel a bond with people the same age as me.","filler"
"5157","","","html-slider-response","460","1749550","0.0-24.0-1.0-0.24","18573","List1A","black","man","","","","","","","","survey_race","0","","","I consider myself an extrovert.","filler"
"6557.89999999851","","","html-slider-response","461","1756111","0.0-24.0-1.0-0.25","18573","List1A","black","man","","","","","","","","survey_race","100","","","People my age have a lot in common with each other.","filler"
"4090.699999999255","","","html-slider-response","462","1760206","0.0-24.0-1.0-0.26","18573","List1A","black","man","","","","","","","","survey_race","51","","","It is pleasant to be my race.","pleasant"
"5777.400000002235","","","html-slider-response","463","1765985","0.0-24.0-1.0-0.27","18573","List1A","black","man","","","","","","","","survey_race","53","","","I often think about the fact that I am my race.","often"
"10237.099999997765","","","survey-text","464","1776227","0.0-25.0","18573","List1A","black","man","","","","","{""Q0"":""5e76138c52d8621787518c4b""}","","","worker_id","","","","",""
"22378","","","external-html","465","1798863","0.0-26.0","18573","List1A","black","man","debrief.html","","","","","","","","","","","",""
